[{"view_history":"[{\"page_index\":0,\"viewing_time\":1906},{\"page_index\":1,\"viewing_time\":4702}]","rt":6610,"trial_type":"instructions","trial_index":0,"time_elapsed":6611,"internal_node_id":"0.0-0.0"},{"view_history":"[{\"page_index\":0,\"viewing_time\":1382},{\"page_index\":1,\"viewing_time\":1820}]","rt":3202,"trial_type":"instructions","trial_index":1,"time_elapsed":10816,"internal_node_id":"0.0-1.0"},{"group":"hexagon_tri","room_assignment":["grey","blue","yellow","red","purple","green"],"door_color_assignment":["black","white"],"door_generator_assignment":[0,1],"goal":2,"start":1,"action_noise":0,"location_history":"[1,5,4,2]","action_history":"[1,0,1]","door_history":"[1,0,1]","location_rts":"[3393,1031,1057]","trial_type":"two-door-navigation","trial_index":2,"time_elapsed":23529,"internal_node_id":"0.0-2.0-0.0"},{"group":"hexagon_tri","room_assignment":["grey","blue","yellow","red","purple","green"],"door_color_assignment":["black","white"],"door_generator_assignment":[0,1],"goal":0,"start":2,"action_noise":0,"location_history":"[2,1,3,2,3,4,0]","action_history":"[0,0,0,1,1,0]","door_history":"[0,0,0,1,1,0]","location_rts":"[3034,2312,986,1185,682,1103]","trial_type":"two-door-navigation","trial_index":3,"time_elapsed":42995,"internal_node_id":"0.0-2.0-1.0"},{"group":"hexagon_tri","room_assignment":["grey","blue","yellow","red","purple","green"],"door_color_assignment":["black","white"],"door_generator_assignment":[0,1],"goal":5,"start":0,"action_noise":0,"location_history":"[0,5]","action_history":"[0]","door_history":"[0]","location_rts":"[113979]","trial_type":"two-door-navigation","trial_index":4,"time_elapsed":162013,"internal_node_id":"0.0-2.0-2.0"},{"group":"hexagon_tri","room_assignment":["grey","blue","yellow","red","purple","green"],"door_color_assignment":["black","white"],"door_generator_assignment":[0,1],"goal":1,"start":5,"action_noise":0,"location_history":"[5,0,1]","action_history":"[1,1]","door_history":"[1,1]","location_rts":"[9875,230]","trial_type":"two-door-navigation","trial_index":5,"time_elapsed":178189,"internal_node_id":"0.0-2.0-3.0"},{"group":"hexagon_tri","room_assignment":["grey","blue","yellow","red","purple","green"],"door_color_assignment":["black","white"],"door_generator_assignment":[0,1],"goal":3,"start":1,"action_noise":0,"location_history":"[1,3]","action_history":"[0]","door_history":"[0]","location_rts":"[3092]","trial_type":"two-door-navigation","trial_index":6,"time_elapsed":186320,"internal_node_id":"0.0-2.0-4.0"},{"group":"hexagon_tri","room_assignment":["grey","blue","yellow","red","purple","green"],"door_color_assignment":["black","white"],"door_generator_assignment":[0,1],"goal":5,"start":3,"action_noise":0,"location_history":"[3,4,0,1,5]","action_history":"[1,0,1,1]","door_history":"[1,0,1,1]","location_rts":"[4102,1488,455,278]","trial_type":"two-door-navigation","trial_index":7,"time_elapsed":200775,"internal_node_id":"0.0-2.0-5.0"},{"group":"hexagon_tri","room_assignment":["grey","blue","yellow","red","purple","green"],"door_color_assignment":["black","white"],"door_generator_assignment":[0,1],"goal":4,"start":5,"action_noise":0,"location_history":"[5,4]","action_history":"[0]","door_history":"[0]","location_rts":"[2247]","trial_type":"two-door-navigation","trial_index":8,"time_elapsed":208051,"internal_node_id":"0.0-2.0-6.0"},{"group":"hexagon_tri","room_assignment":["grey","blue","yellow","red","purple","green"],"door_color_assignment":["black","white"],"door_generator_assignment":[0,1],"goal":0,"start":4,"action_noise":0,"location_history":"[4,2,3,4,0]","action_history":"[1,1,1,0]","door_history":"[1,1,1,0]","location_rts":"[1204,1746,461,217]","trial_type":"two-door-navigation","trial_index":9,"time_elapsed":219773,"internal_node_id":"0.0-2.0-7.0"},{"group":"hexagon_tri","room_assignment":["grey","blue","yellow","red","purple","green"],"door_color_assignment":["black","white"],"door_generator_assignment":[0,1],"goal":2,"start":0,"action_noise":0,"location_history":"[0,1,3,2]","action_history":"[1,0,0]","door_history":"[1,0,0]","location_rts":"[4483,617,1264]","trial_type":"two-door-navigation","trial_index":10,"time_elapsed":233219,"internal_node_id":"0.0-2.0-8.0"},{"group":"hexagon_tri","room_assignment":["grey","blue","yellow","red","purple","green"],"door_color_assignment":["black","white"],"door_generator_assignment":[0,1],"goal":4,"start":2,"action_noise":0,"location_history":"[2,1,3,2,3,2,1,5,4]","action_history":"[0,0,0,1,0,0,1,0]","door_history":"[0,0,0,1,0,0,1,0]","location_rts":"[5552,1198,747,239,636,1594,206,786]","trial_type":"two-door-navigation","trial_index":11,"time_elapsed":256384,"internal_node_id":"0.0-2.0-9.0"},{"group":"hexagon_tri","room_assignment":["grey","blue","yellow","red","purple","green"],"door_color_assignment":["black","white"],"door_generator_assignment":[0,1],"goal":2,"start":4,"action_noise":0,"location_history":"[4,2]","action_history":"[1]","door_history":"[1]","location_rts":"[4441]","trial_type":"two-door-navigation","trial_index":12,"time_elapsed":265856,"internal_node_id":"0.0-2.0-10.0"},{"group":"hexagon_tri","room_assignment":["grey","blue","yellow","red","purple","green"],"door_color_assignment":["black","white"],"door_generator_assignment":[0,1],"goal":3,"start":2,"action_noise":0,"location_history":"[2,1,3]","action_history":"[0,0]","door_history":"[0,0]","location_rts":"[6662,1318]","trial_type":"two-door-navigation","trial_index":13,"time_elapsed":279895,"internal_node_id":"0.0-2.0-11.0"},{"group":"hexagon_tri","room_assignment":["grey","blue","yellow","red","purple","green"],"door_color_assignment":["black","white"],"door_generator_assignment":[0,1],"goal":0,"start":3,"action_noise":0,"location_history":"[3,2,3,4,0]","action_history":"[0,1,1,0]","door_history":"[0,1,1,0]","location_rts":"[20216,697,1100,805]","trial_type":"two-door-navigation","trial_index":14,"time_elapsed":310834,"internal_node_id":"0.0-2.0-12.0"},{"group":"hexagon_tri","room_assignment":["grey","blue","yellow","red","purple","green"],"door_color_assignment":["black","white"],"door_generator_assignment":[0,1],"goal":5,"start":0,"action_noise":0,"location_history":"[0,5]","action_history":"[0]","door_history":"[0]","location_rts":"[2035]","trial_type":"two-door-navigation","trial_index":15,"time_elapsed":317898,"internal_node_id":"0.0-2.0-13.0"},{"group":"hexagon_tri","room_assignment":["grey","blue","yellow","red","purple","green"],"door_color_assignment":["black","white"],"door_generator_assignment":[0,1],"goal":1,"start":5,"action_noise":0,"location_history":"[5,4,2,3,2,1]","action_history":"[0,1,1,0,0]","door_history":"[0,1,1,0,0]","location_rts":"[1946,1025,14203,1545,1779]","trial_type":"two-door-navigation","trial_index":16,"time_elapsed":347543,"internal_node_id":"0.0-2.0-14.0"},{"group":"hexagon_tri","room_assignment":["grey","blue","yellow","red","purple","green"],"door_color_assignment":["black","white"],"door_generator_assignment":[0,1],"goal":5,"start":1,"action_noise":0,"location_history":"[1,5]","action_history":"[1]","door_history":"[1]","location_rts":"[19910]","trial_type":"two-door-navigation","trial_index":17,"time_elapsed":373006,"internal_node_id":"0.0-2.0-15.0"},{"group":"hexagon_tri","room_assignment":["grey","blue","yellow","red","purple","green"],"door_color_assignment":["black","white"],"door_generator_assignment":[0,1],"goal":3,"start":5,"action_noise":0,"location_history":"[5,4,2,3]","action_history":"[0,1,1]","door_history":"[0,1,1]","location_rts":"[8408,744,694]","trial_type":"two-door-navigation","trial_index":18,"time_elapsed":390944,"internal_node_id":"0.0-2.0-16.0"},{"group":"hexagon_tri","room_assignment":["grey","blue","yellow","red","purple","green"],"door_color_assignment":["black","white"],"door_generator_assignment":[0,1],"goal":2,"start":3,"action_noise":0,"location_history":"[3,4,2]","action_history":"[1,1]","door_history":"[1,1]","location_rts":"[19429,1150]","trial_type":"two-door-navigation","trial_index":19,"time_elapsed":417584,"internal_node_id":"0.0-2.0-17.0"},{"group":"hexagon_tri","room_assignment":["grey","blue","yellow","red","purple","green"],"door_color_assignment":["black","white"],"door_generator_assignment":[0,1],"goal":1,"start":2,"action_noise":0,"location_history":"[2,1]","action_history":"[0]","door_history":"[0]","location_rts":"[1470]","trial_type":"two-door-navigation","trial_index":20,"time_elapsed":424081,"internal_node_id":"0.0-2.0-18.0"},{"group":"hexagon_tri","room_assignment":["grey","blue","yellow","red","purple","green"],"door_color_assignment":["black","white"],"door_generator_assignment":[0,1],"goal":4,"start":1,"action_noise":0,"location_history":"[1,5,4]","action_history":"[1,0]","door_history":"[1,0]","location_rts":"[11530,992]","trial_type":"two-door-navigation","trial_index":21,"time_elapsed":442719,"internal_node_id":"0.0-2.0-19.0"},{"group":"hexagon_tri","room_assignment":["grey","blue","yellow","red","purple","green"],"door_color_assignment":["black","white"],"door_generator_assignment":[0,1],"goal":0,"start":4,"action_noise":0,"location_history":"[4,0]","action_history":"[0]","door_history":"[0]","location_rts":"[34373]","trial_type":"two-door-navigation","trial_index":22,"time_elapsed":482119,"internal_node_id":"0.0-2.0-20.0"},{"group":"hexagon_tri","room_assignment":["grey","blue","yellow","red","purple","green"],"door_color_assignment":["black","white"],"door_generator_assignment":[0,1],"goal":3,"start":0,"action_noise":0,"location_history":"[0,1,3]","action_history":"[1,0]","door_history":"[1,0]","location_rts":"[3232,625]","trial_type":"two-door-navigation","trial_index":23,"time_elapsed":492020,"internal_node_id":"0.0-2.0-21.0"},{"group":"hexagon_tri","room_assignment":["grey","blue","yellow","red","purple","green"],"door_color_assignment":["black","white"],"door_generator_assignment":[0,1],"goal":1,"start":3,"action_noise":0,"location_history":"[3,2,1]","action_history":"[0,0]","door_history":"[0,0]","location_rts":"[4424,323]","trial_type":"two-door-navigation","trial_index":24,"time_elapsed":502823,"internal_node_id":"0.0-2.0-22.0"},{"group":"hexagon_tri","room_assignment":["grey","blue","yellow","red","purple","green"],"door_color_assignment":["black","white"],"door_generator_assignment":[0,1],"goal":0,"start":1,"action_noise":0,"location_history":"[1,5,0]","action_history":"[1,1]","door_history":"[1,1]","location_rts":"[2160,295]","trial_type":"two-door-navigation","trial_index":25,"time_elapsed":511333,"internal_node_id":"0.0-2.0-23.0"},{"group":"hexagon_tri","room_assignment":["grey","blue","yellow","red","purple","green"],"door_color_assignment":["black","white"],"door_generator_assignment":[0,1],"goal":2,"start":0,"action_noise":0,"location_history":"[0,1,3,2]","action_history":"[1,0,0]","door_history":"[1,0,0]","location_rts":"[3870,205,649]","trial_type":"two-door-navigation","trial_index":26,"time_elapsed":523122,"internal_node_id":"0.0-2.0-24.0"},{"group":"hexagon_tri","room_assignment":["grey","blue","yellow","red","purple","green"],"door_color_assignment":["black","white"],"door_generator_assignment":[0,1],"goal":4,"start":2,"action_noise":0,"location_history":"[2,3,4]","action_history":"[1,1]","door_history":"[1,1]","location_rts":"[2963,1169]","trial_type":"two-door-navigation","trial_index":27,"time_elapsed":533309,"internal_node_id":"0.0-2.0-25.0"},{"group":"hexagon_tri","room_assignment":["grey","blue","yellow","red","purple","green"],"door_color_assignment":["black","white"],"door_generator_assignment":[0,1],"goal":5,"start":4,"action_noise":0,"location_history":"[4,0,5]","action_history":"[0,0]","door_history":"[0,0]","location_rts":"[2486,652]","trial_type":"two-door-navigation","trial_index":28,"time_elapsed":542502,"internal_node_id":"0.0-2.0-26.0"},{"group":"hexagon_tri","room_assignment":["grey","blue","yellow","red","purple","green"],"door_color_assignment":["black","white"],"door_generator_assignment":[0,1],"goal":2,"start":5,"action_noise":0,"location_history":"[5,4,2]","action_history":"[0,1]","door_history":"[0,1]","location_rts":"[9674,971]","trial_type":"two-door-navigation","trial_index":29,"time_elapsed":559190,"internal_node_id":"0.0-2.0-27.0"},{"group":"hexagon_tri","room_assignment":["grey","blue","yellow","red","purple","green"],"door_color_assignment":["black","white"],"door_generator_assignment":[0,1],"goal":3,"start":2,"action_noise":0,"location_history":"[2,3]","action_history":"[1]","door_history":"[1]","location_rts":"[4212]","trial_type":"two-door-navigation","trial_index":30,"time_elapsed":568429,"internal_node_id":"0.0-2.0-28.0"},{"group":"hexagon_tri","room_assignment":["grey","blue","yellow","red","purple","green"],"door_color_assignment":["black","white"],"door_generator_assignment":[0,1],"goal":1,"start":3,"action_noise":0,"location_history":"[3,2,1]","action_history":"[0,0]","door_history":"[0,0]","location_rts":"[6298,494]","trial_type":"two-door-navigation","trial_index":31,"time_elapsed":581268,"internal_node_id":"0.0-2.0-29.0"},{"group":"hexagon_tri","room_assignment":["grey","blue","yellow","red","purple","green"],"door_color_assignment":["black","white"],"door_generator_assignment":[0,1],"goal":4,"start":1,"action_noise":0,"location_history":"[1,3,4]","action_history":"[0,1]","door_history":"[0,1]","location_rts":"[3020,1798]","trial_type":"two-door-navigation","trial_index":32,"time_elapsed":592195,"internal_node_id":"0.0-2.0-30.0"},{"group":"hexagon_tri","room_assignment":["grey","blue","yellow","red","purple","green"],"door_color_assignment":["black","white"],"door_generator_assignment":[0,1],"goal":5,"start":4,"action_noise":0,"location_history":"[4,0,5]","action_history":"[0,0]","door_history":"[0,0]","location_rts":"[2860,434]","trial_type":"two-door-navigation","trial_index":33,"time_elapsed":601535,"internal_node_id":"0.0-2.0-31.0"},{"group":"hexagon_tri","room_assignment":["grey","blue","yellow","red","purple","green"],"door_color_assignment":["black","white"],"door_generator_assignment":[0,1],"goal":0,"start":5,"action_noise":0,"location_history":"[5,0]","action_history":"[1]","door_history":"[1]","location_rts":"[2469]","trial_type":"two-door-navigation","trial_index":34,"time_elapsed":609031,"internal_node_id":"0.0-2.0-32.0"},{"group":"hexagon_tri","room_assignment":["grey","blue","yellow","red","purple","green"],"door_color_assignment":["black","white"],"door_generator_assignment":[0,1],"goal":2,"start":0,"action_noise":0,"location_history":"[0,1,3,2]","action_history":"[1,0,0]","door_history":"[1,0,0]","location_rts":"[2069,345,345]","trial_type":"two-door-navigation","trial_index":35,"time_elapsed":618866,"internal_node_id":"0.0-2.0-33.0"},{"group":"hexagon_tri","room_assignment":["grey","blue","yellow","red","purple","green"],"door_color_assignment":["black","white"],"door_generator_assignment":[0,1],"goal":0,"start":2,"action_noise":0,"location_history":"[2,1,5,0]","action_history":"[0,1,1]","door_history":"[0,1,1]","location_rts":"[1570,606,414]","trial_type":"two-door-navigation","trial_index":36,"time_elapsed":628529,"internal_node_id":"0.0-2.0-34.0"},{"group":"hexagon_tri","room_assignment":["grey","blue","yellow","red","purple","green"],"door_color_assignment":["black","white"],"door_generator_assignment":[0,1],"goal":5,"start":0,"action_noise":0,"location_history":"[0,5]","action_history":"[0]","door_history":"[0]","location_rts":"[2270]","trial_type":"two-door-navigation","trial_index":37,"time_elapsed":635830,"internal_node_id":"0.0-2.0-35.0"},{"group":"hexagon_tri","room_assignment":["grey","blue","yellow","red","purple","green"],"door_color_assignment":["black","white"],"door_generator_assignment":[0,1],"goal":1,"start":5,"action_noise":0,"location_history":"[5,4,2,3,4,0,1]","action_history":"[0,1,1,1,0,1]","door_history":"[0,1,1,1,0,1]","location_rts":"[5471,1973,398,325,889,239]","trial_type":"two-door-navigation","trial_index":38,"time_elapsed":655286,"internal_node_id":"0.0-2.0-36.0"},{"group":"hexagon_tri","room_assignment":["grey","blue","yellow","red","purple","green"],"door_color_assignment":["black","white"],"door_generator_assignment":[0,1],"goal":4,"start":1,"action_noise":0,"location_history":"[1,3,4]","action_history":"[0,1]","door_history":"[0,1]","location_rts":"[1737,991]","trial_type":"two-door-navigation","trial_index":39,"time_elapsed":664077,"internal_node_id":"0.0-2.0-37.0"},{"group":"hexagon_tri","room_assignment":["grey","blue","yellow","red","purple","green"],"door_color_assignment":["black","white"],"door_generator_assignment":[0,1],"goal":3,"start":4,"action_noise":0,"location_history":"[4,2,3]","action_history":"[1,1]","door_history":"[1,1]","location_rts":"[3088,811]","trial_type":"two-door-navigation","trial_index":40,"time_elapsed":674045,"internal_node_id":"0.0-2.0-38.0"},{"group":"hexagon_tri","room_assignment":["grey","blue","yellow","red","purple","green"],"door_color_assignment":["black","white"],"door_generator_assignment":[0,1],"goal":5,"start":3,"action_noise":0,"location_history":"[3,2,3,4,0,5]","action_history":"[0,1,1,0,0]","door_history":"[0,1,1,0,0]","location_rts":"[1824,836,1983,1112,273]","trial_type":"two-door-navigation","trial_index":41,"time_elapsed":689219,"internal_node_id":"0.0-2.0-39.0"},{"group":"hexagon_tri","room_assignment":["grey","blue","yellow","red","purple","green"],"door_color_assignment":["black","white"],"door_generator_assignment":[0,1],"goal":1,"start":5,"action_noise":0,"location_history":"[5,0,1]","action_history":"[1,1]","door_history":"[1,1]","location_rts":"[1831,1134]","trial_type":"two-door-navigation","trial_index":42,"time_elapsed":698250,"internal_node_id":"0.0-2.0-40.0"},{"group":"hexagon_tri","room_assignment":["grey","blue","yellow","red","purple","green"],"door_color_assignment":["black","white"],"door_generator_assignment":[0,1],"goal":2,"start":1,"action_noise":0,"location_history":"[1,5,4,2]","action_history":"[1,0,1]","door_history":"[1,0,1]","location_rts":"[2031,550,1279]","trial_type":"two-door-navigation","trial_index":43,"time_elapsed":709209,"internal_node_id":"0.0-2.0-41.0"},{"group":"hexagon_tri","room_assignment":["grey","blue","yellow","red","purple","green"],"door_color_assignment":["black","white"],"door_generator_assignment":[0,1],"goal":4,"start":2,"action_noise":0,"location_history":"[2,1,5,4]","action_history":"[0,1,0]","door_history":"[0,1,0]","location_rts":"[1672,1081,1742]","trial_type":"two-door-navigation","trial_index":44,"time_elapsed":720806,"internal_node_id":"0.0-2.0-42.0"},{"group":"hexagon_tri","room_assignment":["grey","blue","yellow","red","purple","green"],"door_color_assignment":["black","white"],"door_generator_assignment":[0,1],"goal":0,"start":4,"action_noise":0,"location_history":"[4,0]","action_history":"[0]","door_history":"[0]","location_rts":"[1544]","trial_type":"two-door-navigation","trial_index":45,"time_elapsed":727387,"internal_node_id":"0.0-2.0-43.0"},{"group":"hexagon_tri","room_assignment":["grey","blue","yellow","red","purple","green"],"door_color_assignment":["black","white"],"door_generator_assignment":[0,1],"goal":3,"start":0,"action_noise":0,"location_history":"[0,1,3]","action_history":"[1,0]","door_history":"[1,0]","location_rts":"[5798,232]","trial_type":"two-door-navigation","trial_index":46,"time_elapsed":739478,"internal_node_id":"0.0-2.0-44.0"},{"group":"hexagon_tri","room_assignment":["grey","blue","yellow","red","purple","green"],"door_color_assignment":["black","white"],"door_generator_assignment":[0,1],"goal":0,"start":3,"action_noise":0,"location_history":"[3,2,1,5,0]","action_history":"[0,0,1,1]","door_history":"[0,0,1,1]","location_rts":"[2308,1957,1044,171]","trial_type":"two-door-navigation","trial_index":47,"time_elapsed":753077,"internal_node_id":"0.0-2.0-45.0"},{"group":"hexagon_tri","room_assignment":["grey","blue","yellow","red","purple","green"],"door_color_assignment":["black","white"],"door_generator_assignment":[0,1],"goal":4,"start":0,"action_noise":0,"location_history":"[0,5,4]","action_history":"[0,0]","door_history":"[0,0]","location_rts":"[5953,198]","trial_type":"two-door-navigation","trial_index":48,"time_elapsed":765299,"internal_node_id":"0.0-2.0-46.0"},{"group":"hexagon_tri","room_assignment":["grey","blue","yellow","red","purple","green"],"door_color_assignment":["black","white"],"door_generator_assignment":[0,1],"goal":5,"start":4,"action_noise":0,"location_history":"[4,0,1,5]","action_history":"[0,1,1]","door_history":"[0,1,1]","location_rts":"[2892,302,259]","trial_type":"two-door-navigation","trial_index":49,"time_elapsed":775847,"internal_node_id":"0.0-2.0-47.0"},{"group":"hexagon_tri","room_assignment":["grey","blue","yellow","red","purple","green"],"door_color_assignment":["black","white"],"door_generator_assignment":[0,1],"goal":2,"start":5,"action_noise":0,"location_history":"[5,0,1,3,2]","action_history":"[1,1,0,0]","door_history":"[1,1,0,0]","location_rts":"[2332,1502,63,1777]","trial_type":"two-door-navigation","trial_index":50,"time_elapsed":789641,"internal_node_id":"0.0-2.0-48.0"},{"group":"hexagon_tri","room_assignment":["grey","blue","yellow","red","purple","green"],"door_color_assignment":["black","white"],"door_generator_assignment":[0,1],"goal":1,"start":2,"action_noise":0,"location_history":"[2,3,4,0,1]","action_history":"[1,1,0,1]","door_history":"[1,1,0,1]","location_rts":"[1203,602,1256,67]","trial_type":"two-door-navigation","trial_index":51,"time_elapsed":800872,"internal_node_id":"0.0-2.0-49.0"},{"view_history":"[{\"page_index\":0,\"viewing_time\":924}]","rt":925,"trial_type":"instructions","trial_index":52,"time_elapsed":802805,"internal_node_id":"0.0-3.0"},{"view_history":"[{\"page_index\":0,\"viewing_time\":47557},{\"page_index\":1,\"viewing_time\":1846}]","rt":49404,"trial_type":"instructions","trial_index":53,"time_elapsed":853209,"internal_node_id":"0.0-4.0"},{"group":"hexagon_bi","fractal_assignment":["../images/org_blu.png","../images/cyn_red.png","../images/ylw_slt.png","../images/blu_wht.png","../images/gry_blk.png","../images/pnk_blu.png"],"mutagen_generator_assignment":[0,1],"goal":2,"start":1,"action_noise":0,"location_history":"[1,2]","action_history":"[0]","mutagen_history":"[0]","location_rts":"[17060]","trial_type":"fractal-mutation","trial_index":54,"time_elapsed":875342,"internal_node_id":"0.0-5.0-0.0"},{"group":"hexagon_bi","fractal_assignment":["../images/org_blu.png","../images/cyn_red.png","../images/ylw_slt.png","../images/blu_wht.png","../images/gry_blk.png","../images/pnk_blu.png"],"mutagen_generator_assignment":[0,1],"goal":0,"start":2,"action_noise":0,"location_history":"[2,1,0]","action_history":"[0,1]","mutagen_history":"[0,1]","location_rts":"[1835,197]","trial_type":"fractal-mutation","trial_index":55,"time_elapsed":883466,"internal_node_id":"0.0-5.0-1.0"},{"group":"hexagon_bi","fractal_assignment":["../images/org_blu.png","../images/cyn_red.png","../images/ylw_slt.png","../images/blu_wht.png","../images/gry_blk.png","../images/pnk_blu.png"],"mutagen_generator_assignment":[0,1],"goal":5,"start":0,"action_noise":0,"location_history":"[0,5]","action_history":"[0]","mutagen_history":"[0]","location_rts":"[1537]","trial_type":"fractal-mutation","trial_index":56,"time_elapsed":890039,"internal_node_id":"0.0-5.0-2.0"},{"group":"hexagon_bi","fractal_assignment":["../images/org_blu.png","../images/cyn_red.png","../images/ylw_slt.png","../images/blu_wht.png","../images/gry_blk.png","../images/pnk_blu.png"],"mutagen_generator_assignment":[0,1],"goal":1,"start":5,"action_noise":0,"location_history":"[5,0,1]","action_history":"[0,1]","mutagen_history":"[0,1]","location_rts":"[3353,293]","trial_type":"fractal-mutation","trial_index":57,"time_elapsed":899761,"internal_node_id":"0.0-5.0-3.0"},{"group":"hexagon_bi","fractal_assignment":["../images/org_blu.png","../images/cyn_red.png","../images/ylw_slt.png","../images/blu_wht.png","../images/gry_blk.png","../images/pnk_blu.png"],"mutagen_generator_assignment":[0,1],"goal":3,"start":1,"action_noise":0,"location_history":"[1,0,5,4,3]","action_history":"[1,0,1,0]","mutagen_history":"[1,0,1,0]","location_rts":"[2625,244,181,207]","trial_type":"fractal-mutation","trial_index":58,"time_elapsed":911168,"internal_node_id":"0.0-5.0-4.0"},{"group":"hexagon_bi","fractal_assignment":["../images/org_blu.png","../images/cyn_red.png","../images/ylw_slt.png","../images/blu_wht.png","../images/gry_blk.png","../images/pnk_blu.png"],"mutagen_generator_assignment":[0,1],"goal":5,"start":3,"action_noise":0,"location_history":"[3,4,5]","action_history":"[0,1]","mutagen_history":"[0,1]","location_rts":"[2676,604]","trial_type":"fractal-mutation","trial_index":59,"time_elapsed":920520,"internal_node_id":"0.0-5.0-5.0"},{"group":"hexagon_bi","fractal_assignment":["../images/org_blu.png","../images/cyn_red.png","../images/ylw_slt.png","../images/blu_wht.png","../images/gry_blk.png","../images/pnk_blu.png"],"mutagen_generator_assignment":[0,1],"goal":4,"start":5,"action_noise":0,"location_history":"[5,4]","action_history":"[1]","mutagen_history":"[1]","location_rts":"[2457]","trial_type":"fractal-mutation","trial_index":60,"time_elapsed":928025,"internal_node_id":"0.0-5.0-6.0"},{"group":"hexagon_bi","fractal_assignment":["../images/org_blu.png","../images/cyn_red.png","../images/ylw_slt.png","../images/blu_wht.png","../images/gry_blk.png","../images/pnk_blu.png"],"mutagen_generator_assignment":[0,1],"goal":0,"start":4,"action_noise":0,"location_history":"[4,5,0]","action_history":"[1,0]","mutagen_history":"[1,0]","location_rts":"[1857,478]","trial_type":"fractal-mutation","trial_index":61,"time_elapsed":936451,"internal_node_id":"0.0-5.0-7.0"},{"group":"hexagon_bi","fractal_assignment":["../images/org_blu.png","../images/cyn_red.png","../images/ylw_slt.png","../images/blu_wht.png","../images/gry_blk.png","../images/pnk_blu.png"],"mutagen_generator_assignment":[0,1],"goal":2,"start":0,"action_noise":0,"location_history":"[0,1,2]","action_history":"[1,0]","mutagen_history":"[1,0]","location_rts":"[1489,1311]","trial_type":"fractal-mutation","trial_index":62,"time_elapsed":945341,"internal_node_id":"0.0-5.0-8.0"},{"group":"hexagon_bi","fractal_assignment":["../images/org_blu.png","../images/cyn_red.png","../images/ylw_slt.png","../images/blu_wht.png","../images/gry_blk.png","../images/pnk_blu.png"],"mutagen_generator_assignment":[0,1],"goal":4,"start":2,"action_noise":0,"location_history":"[2,1,2,3,4]","action_history":"[0,0,1,0]","mutagen_history":"[0,0,1,0]","location_rts":"[2515,1185,152,572]","trial_type":"fractal-mutation","trial_index":63,"time_elapsed":957916,"internal_node_id":"0.0-5.0-9.0"},{"group":"hexagon_bi","fractal_assignment":["../images/org_blu.png","../images/cyn_red.png","../images/ylw_slt.png","../images/blu_wht.png","../images/gry_blk.png","../images/pnk_blu.png"],"mutagen_generator_assignment":[0,1],"goal":2,"start":4,"action_noise":0,"location_history":"[4,5,4,3,2]","action_history":"[1,1,0,1]","mutagen_history":"[1,1,0,1]","location_rts":"[1386,705,183,468]","trial_type":"fractal-mutation","trial_index":64,"time_elapsed":968801,"internal_node_id":"0.0-5.0-10.0"},{"group":"hexagon_bi","fractal_assignment":["../images/org_blu.png","../images/cyn_red.png","../images/ylw_slt.png","../images/blu_wht.png","../images/gry_blk.png","../images/pnk_blu.png"],"mutagen_generator_assignment":[0,1],"goal":3,"start":2,"action_noise":0,"location_history":"[2,1,2,3]","action_history":"[0,0,1]","mutagen_history":"[0,0,1]","location_rts":"[1617,519,192]","trial_type":"fractal-mutation","trial_index":65,"time_elapsed":978250,"internal_node_id":"0.0-5.0-11.0"},{"group":"hexagon_bi","fractal_assignment":["../images/org_blu.png","../images/cyn_red.png","../images/ylw_slt.png","../images/blu_wht.png","../images/gry_blk.png","../images/pnk_blu.png"],"mutagen_generator_assignment":[0,1],"goal":0,"start":3,"action_noise":0,"location_history":"[3,4,5,0]","action_history":"[0,1,0]","mutagen_history":"[0,1,0]","location_rts":"[2275,300,634]","trial_type":"fractal-mutation","trial_index":66,"time_elapsed":988566,"internal_node_id":"0.0-5.0-12.0"},{"group":"hexagon_bi","fractal_assignment":["../images/org_blu.png","../images/cyn_red.png","../images/ylw_slt.png","../images/blu_wht.png","../images/gry_blk.png","../images/pnk_blu.png"],"mutagen_generator_assignment":[0,1],"goal":5,"start":0,"action_noise":0,"location_history":"[0,5]","action_history":"[0]","mutagen_history":"[0]","location_rts":"[1483]","trial_type":"fractal-mutation","trial_index":67,"time_elapsed":995085,"internal_node_id":"0.0-5.0-13.0"},{"group":"hexagon_bi","fractal_assignment":["../images/org_blu.png","../images/cyn_red.png","../images/ylw_slt.png","../images/blu_wht.png","../images/gry_blk.png","../images/pnk_blu.png"],"mutagen_generator_assignment":[0,1],"goal":1,"start":5,"action_noise":0,"location_history":"[5,0,1]","action_history":"[0,1]","mutagen_history":"[0,1]","location_rts":"[2197,233]","trial_type":"fractal-mutation","trial_index":68,"time_elapsed":1003600,"internal_node_id":"0.0-5.0-14.0"},{"group":"hexagon_bi","fractal_assignment":["../images/org_blu.png","../images/cyn_red.png","../images/ylw_slt.png","../images/blu_wht.png","../images/gry_blk.png","../images/pnk_blu.png"],"mutagen_generator_assignment":[0,1],"goal":5,"start":1,"action_noise":0,"location_history":"[1,2,1,0,5]","action_history":"[0,0,1,0]","mutagen_history":"[0,0,1,0]","location_rts":"[2103,939,258,447]","trial_type":"fractal-mutation","trial_index":69,"time_elapsed":1015501,"internal_node_id":"0.0-5.0-15.0"},{"group":"hexagon_bi","fractal_assignment":["../images/org_blu.png","../images/cyn_red.png","../images/ylw_slt.png","../images/blu_wht.png","../images/gry_blk.png","../images/pnk_blu.png"],"mutagen_generator_assignment":[0,1],"goal":3,"start":5,"action_noise":0,"location_history":"[5,4,3]","action_history":"[1,0]","mutagen_history":"[1,0]","location_rts":"[1981,309]","trial_type":"fractal-mutation","trial_index":70,"time_elapsed":1023876,"internal_node_id":"0.0-5.0-16.0"},{"group":"hexagon_bi","fractal_assignment":["../images/org_blu.png","../images/cyn_red.png","../images/ylw_slt.png","../images/blu_wht.png","../images/gry_blk.png","../images/pnk_blu.png"],"mutagen_generator_assignment":[0,1],"goal":2,"start":3,"action_noise":0,"location_history":"[3,2]","action_history":"[1]","mutagen_history":"[1]","location_rts":"[2426]","trial_type":"fractal-mutation","trial_index":71,"time_elapsed":1031352,"internal_node_id":"0.0-5.0-17.0"},{"group":"hexagon_bi","fractal_assignment":["../images/org_blu.png","../images/cyn_red.png","../images/ylw_slt.png","../images/blu_wht.png","../images/gry_blk.png","../images/pnk_blu.png"],"mutagen_generator_assignment":[0,1],"goal":1,"start":2,"action_noise":0,"location_history":"[2,1]","action_history":"[0]","mutagen_history":"[0]","location_rts":"[2144]","trial_type":"fractal-mutation","trial_index":72,"time_elapsed":1038531,"internal_node_id":"0.0-5.0-18.0"},{"group":"hexagon_bi","fractal_assignment":["../images/org_blu.png","../images/cyn_red.png","../images/ylw_slt.png","../images/blu_wht.png","../images/gry_blk.png","../images/pnk_blu.png"],"mutagen_generator_assignment":[0,1],"goal":4,"start":1,"action_noise":0,"location_history":"[1,0,1,2,3,4]","action_history":"[1,1,0,1,0]","mutagen_history":"[1,1,0,1,0]","location_rts":"[2775,688,346,14012,736]","trial_type":"fractal-mutation","trial_index":73,"time_elapsed":1066282,"internal_node_id":"0.0-5.0-19.0"},{"group":"hexagon_bi","fractal_assignment":["../images/org_blu.png","../images/cyn_red.png","../images/ylw_slt.png","../images/blu_wht.png","../images/gry_blk.png","../images/pnk_blu.png"],"mutagen_generator_assignment":[0,1],"goal":0,"start":4,"action_noise":0,"location_history":"[4,3,2,1,0]","action_history":"[0,1,0,1]","mutagen_history":"[0,1,0,1]","location_rts":"[2798,619,586,265]","trial_type":"fractal-mutation","trial_index":74,"time_elapsed":1078710,"internal_node_id":"0.0-5.0-20.0"},{"group":"hexagon_bi","fractal_assignment":["../images/org_blu.png","../images/cyn_red.png","../images/ylw_slt.png","../images/blu_wht.png","../images/gry_blk.png","../images/pnk_blu.png"],"mutagen_generator_assignment":[0,1],"goal":3,"start":0,"action_noise":0,"location_history":"[0,5,4,3]","action_history":"[0,1,0]","mutagen_history":"[0,1,0]","location_rts":"[5540,267,663]","trial_type":"fractal-mutation","trial_index":75,"time_elapsed":1092306,"internal_node_id":"0.0-5.0-21.0"},{"group":"hexagon_bi","fractal_assignment":["../images/org_blu.png","../images/cyn_red.png","../images/ylw_slt.png","../images/blu_wht.png","../images/gry_blk.png","../images/pnk_blu.png"],"mutagen_generator_assignment":[0,1],"goal":1,"start":3,"action_noise":0,"location_history":"[3,2,1]","action_history":"[1,0]","mutagen_history":"[1,0]","location_rts":"[1944,414]","trial_type":"fractal-mutation","trial_index":76,"time_elapsed":1100757,"internal_node_id":"0.0-5.0-22.0"},{"group":"hexagon_bi","fractal_assignment":["../images/org_blu.png","../images/cyn_red.png","../images/ylw_slt.png","../images/blu_wht.png","../images/gry_blk.png","../images/pnk_blu.png"],"mutagen_generator_assignment":[0,1],"goal":0,"start":1,"action_noise":0,"location_history":"[1,2,1,0]","action_history":"[0,0,1]","mutagen_history":"[0,0,1]","location_rts":"[1197,1046,175]","trial_type":"fractal-mutation","trial_index":77,"time_elapsed":1110306,"internal_node_id":"0.0-5.0-23.0"},{"group":"hexagon_bi","fractal_assignment":["../images/org_blu.png","../images/cyn_red.png","../images/ylw_slt.png","../images/blu_wht.png","../images/gry_blk.png","../images/pnk_blu.png"],"mutagen_generator_assignment":[0,1],"goal":2,"start":0,"action_noise":0,"location_history":"[0,1,2]","action_history":"[1,0]","mutagen_history":"[1,0]","location_rts":"[5968,406]","trial_type":"fractal-mutation","trial_index":78,"time_elapsed":1122750,"internal_node_id":"0.0-5.0-24.0"},{"group":"hexagon_bi","fractal_assignment":["../images/org_blu.png","../images/cyn_red.png","../images/ylw_slt.png","../images/blu_wht.png","../images/gry_blk.png","../images/pnk_blu.png"],"mutagen_generator_assignment":[0,1],"goal":4,"start":2,"action_noise":0,"location_history":"[2,1,2,3,4]","action_history":"[0,0,1,0]","mutagen_history":"[0,0,1,0]","location_rts":"[3488,766,166,187]","trial_type":"fractal-mutation","trial_index":79,"time_elapsed":1135509,"internal_node_id":"0.0-5.0-25.0"},{"group":"hexagon_bi","fractal_assignment":["../images/org_blu.png","../images/cyn_red.png","../images/ylw_slt.png","../images/blu_wht.png","../images/gry_blk.png","../images/pnk_blu.png"],"mutagen_generator_assignment":[0,1],"goal":5,"start":4,"action_noise":0,"location_history":"[4,3,2,1,0,5]","action_history":"[0,1,0,1,0]","mutagen_history":"[0,1,0,1,0]","location_rts":"[2261,559,593,230,174]","trial_type":"fractal-mutation","trial_index":80,"time_elapsed":1148576,"internal_node_id":"0.0-5.0-26.0"},{"group":"hexagon_bi","fractal_assignment":["../images/org_blu.png","../images/cyn_red.png","../images/ylw_slt.png","../images/blu_wht.png","../images/gry_blk.png","../images/pnk_blu.png"],"mutagen_generator_assignment":[0,1],"goal":2,"start":5,"action_noise":0,"location_history":"[5,4,3,2]","action_history":"[1,0,1]","mutagen_history":"[1,0,1]","location_rts":"[2431,185,231]","trial_type":"fractal-mutation","trial_index":81,"time_elapsed":1158550,"internal_node_id":"0.0-5.0-27.0"},{"group":"hexagon_bi","fractal_assignment":["../images/org_blu.png","../images/cyn_red.png","../images/ylw_slt.png","../images/blu_wht.png","../images/gry_blk.png","../images/pnk_blu.png"],"mutagen_generator_assignment":[0,1],"goal":3,"start":2,"action_noise":0,"location_history":"[2,3]","action_history":"[1]","mutagen_history":"[1]","location_rts":"[3760]","trial_type":"fractal-mutation","trial_index":82,"time_elapsed":1167390,"internal_node_id":"0.0-5.0-28.0"},{"group":"hexagon_bi","fractal_assignment":["../images/org_blu.png","../images/cyn_red.png","../images/ylw_slt.png","../images/blu_wht.png","../images/gry_blk.png","../images/pnk_blu.png"],"mutagen_generator_assignment":[0,1],"goal":1,"start":3,"action_noise":0,"location_history":"[3,2,1]","action_history":"[1,0]","mutagen_history":"[1,0]","location_rts":"[1595,99]","trial_type":"fractal-mutation","trial_index":83,"time_elapsed":1175144,"internal_node_id":"0.0-5.0-29.0"},{"group":"hexagon_bi","fractal_assignment":["../images/org_blu.png","../images/cyn_red.png","../images/ylw_slt.png","../images/blu_wht.png","../images/gry_blk.png","../images/pnk_blu.png"],"mutagen_generator_assignment":[0,1],"goal":4,"start":1,"action_noise":0,"location_history":"[1,0,5,4]","action_history":"[1,0,1]","mutagen_history":"[1,0,1]","location_rts":"[4362,244,428]","trial_type":"fractal-mutation","trial_index":84,"time_elapsed":1187314,"internal_node_id":"0.0-5.0-30.0"},{"group":"hexagon_bi","fractal_assignment":["../images/org_blu.png","../images/cyn_red.png","../images/ylw_slt.png","../images/blu_wht.png","../images/gry_blk.png","../images/pnk_blu.png"],"mutagen_generator_assignment":[0,1],"goal":5,"start":4,"action_noise":0,"location_history":"[4,3,2,1,0,5]","action_history":"[0,1,0,1,0]","mutagen_history":"[0,1,0,1,0]","location_rts":"[5085,1098,598,173,137]","trial_type":"fractal-mutation","trial_index":85,"time_elapsed":1203583,"internal_node_id":"0.0-5.0-31.0"},{"group":"hexagon_bi","fractal_assignment":["../images/org_blu.png","../images/cyn_red.png","../images/ylw_slt.png","../images/blu_wht.png","../images/gry_blk.png","../images/pnk_blu.png"],"mutagen_generator_assignment":[0,1],"goal":0,"start":5,"action_noise":0,"location_history":"[5,0]","action_history":"[0]","mutagen_history":"[0]","location_rts":"[2484]","trial_type":"fractal-mutation","trial_index":86,"time_elapsed":1211113,"internal_node_id":"0.0-5.0-32.0"},{"group":"hexagon_bi","fractal_assignment":["../images/org_blu.png","../images/cyn_red.png","../images/ylw_slt.png","../images/blu_wht.png","../images/gry_blk.png","../images/pnk_blu.png"],"mutagen_generator_assignment":[0,1],"goal":2,"start":0,"action_noise":0,"location_history":"[0,1,2]","action_history":"[1,0]","mutagen_history":"[1,0]","location_rts":"[4582,195]","trial_type":"fractal-mutation","trial_index":87,"time_elapsed":1221958,"internal_node_id":"0.0-5.0-33.0"},{"group":"hexagon_bi","fractal_assignment":["../images/org_blu.png","../images/cyn_red.png","../images/ylw_slt.png","../images/blu_wht.png","../images/gry_blk.png","../images/pnk_blu.png"],"mutagen_generator_assignment":[0,1],"goal":0,"start":2,"action_noise":0,"location_history":"[2,1,0]","action_history":"[0,1]","mutagen_history":"[0,1]","location_rts":"[4593,533]","trial_type":"fractal-mutation","trial_index":88,"time_elapsed":1233185,"internal_node_id":"0.0-5.0-34.0"},{"group":"hexagon_bi","fractal_assignment":["../images/org_blu.png","../images/cyn_red.png","../images/ylw_slt.png","../images/blu_wht.png","../images/gry_blk.png","../images/pnk_blu.png"],"mutagen_generator_assignment":[0,1],"goal":5,"start":0,"action_noise":0,"location_history":"[0,5]","action_history":"[0]","mutagen_history":"[0]","location_rts":"[1504]","trial_type":"fractal-mutation","trial_index":89,"time_elapsed":1239722,"internal_node_id":"0.0-5.0-35.0"},{"group":"hexagon_bi","fractal_assignment":["../images/org_blu.png","../images/cyn_red.png","../images/ylw_slt.png","../images/blu_wht.png","../images/gry_blk.png","../images/pnk_blu.png"],"mutagen_generator_assignment":[0,1],"goal":1,"start":5,"action_noise":0,"location_history":"[5,0,1]","action_history":"[0,1]","mutagen_history":"[0,1]","location_rts":"[1957,509]","trial_type":"fractal-mutation","trial_index":90,"time_elapsed":1248266,"internal_node_id":"0.0-5.0-36.0"},{"group":"hexagon_bi","fractal_assignment":["../images/org_blu.png","../images/cyn_red.png","../images/ylw_slt.png","../images/blu_wht.png","../images/gry_blk.png","../images/pnk_blu.png"],"mutagen_generator_assignment":[0,1],"goal":4,"start":1,"action_noise":0,"location_history":"[1,2,3,4]","action_history":"[0,1,0]","mutagen_history":"[0,1,0]","location_rts":"[2712,212,327]","trial_type":"fractal-mutation","trial_index":91,"time_elapsed":1258617,"internal_node_id":"0.0-5.0-37.0"},{"group":"hexagon_bi","fractal_assignment":["../images/org_blu.png","../images/cyn_red.png","../images/ylw_slt.png","../images/blu_wht.png","../images/gry_blk.png","../images/pnk_blu.png"],"mutagen_generator_assignment":[0,1],"goal":3,"start":4,"action_noise":0,"location_history":"[4,3]","action_history":"[0]","mutagen_history":"[0]","location_rts":"[4357]","trial_type":"fractal-mutation","trial_index":92,"time_elapsed":1268025,"internal_node_id":"0.0-5.0-38.0"},{"group":"hexagon_bi","fractal_assignment":["../images/org_blu.png","../images/cyn_red.png","../images/ylw_slt.png","../images/blu_wht.png","../images/gry_blk.png","../images/pnk_blu.png"],"mutagen_generator_assignment":[0,1],"goal":5,"start":3,"action_noise":0,"location_history":"[3,4,5]","action_history":"[0,1]","mutagen_history":"[0,1]","location_rts":"[1497,531]","trial_type":"fractal-mutation","trial_index":93,"time_elapsed":1276121,"internal_node_id":"0.0-5.0-39.0"},{"group":"hexagon_bi","fractal_assignment":["../images/org_blu.png","../images/cyn_red.png","../images/ylw_slt.png","../images/blu_wht.png","../images/gry_blk.png","../images/pnk_blu.png"],"mutagen_generator_assignment":[0,1],"goal":1,"start":5,"action_noise":0,"location_history":"[5,0,1]","action_history":"[0,1]","mutagen_history":"[0,1]","location_rts":"[3247,200]","trial_type":"fractal-mutation","trial_index":94,"time_elapsed":1285640,"internal_node_id":"0.0-5.0-40.0"},{"group":"hexagon_bi","fractal_assignment":["../images/org_blu.png","../images/cyn_red.png","../images/ylw_slt.png","../images/blu_wht.png","../images/gry_blk.png","../images/pnk_blu.png"],"mutagen_generator_assignment":[0,1],"goal":2,"start":1,"action_noise":0,"location_history":"[1,0,1,2]","action_history":"[1,1,0]","mutagen_history":"[1,1,0]","location_rts":"[2539,368,56]","trial_type":"fractal-mutation","trial_index":95,"time_elapsed":1295722,"internal_node_id":"0.0-5.0-41.0"},{"group":"hexagon_bi","fractal_assignment":["../images/org_blu.png","../images/cyn_red.png","../images/ylw_slt.png","../images/blu_wht.png","../images/gry_blk.png","../images/pnk_blu.png"],"mutagen_generator_assignment":[0,1],"goal":4,"start":2,"action_noise":0,"location_history":"[2,3,4]","action_history":"[1,0]","mutagen_history":"[1,0]","location_rts":"[5096,454]","trial_type":"fractal-mutation","trial_index":96,"time_elapsed":1307367,"internal_node_id":"0.0-5.0-42.0"},{"group":"hexagon_bi","fractal_assignment":["../images/org_blu.png","../images/cyn_red.png","../images/ylw_slt.png","../images/blu_wht.png","../images/gry_blk.png","../images/pnk_blu.png"],"mutagen_generator_assignment":[0,1],"goal":0,"start":4,"action_noise":0,"location_history":"[4,3,2,1,0]","action_history":"[0,1,0,1]","mutagen_history":"[0,1,0,1]","location_rts":"[1887,286,513,217]","trial_type":"fractal-mutation","trial_index":97,"time_elapsed":1318423,"internal_node_id":"0.0-5.0-43.0"},{"group":"hexagon_bi","fractal_assignment":["../images/org_blu.png","../images/cyn_red.png","../images/ylw_slt.png","../images/blu_wht.png","../images/gry_blk.png","../images/pnk_blu.png"],"mutagen_generator_assignment":[0,1],"goal":3,"start":0,"action_noise":0,"location_history":"[0,1,2,3]","action_history":"[1,0,1]","mutagen_history":"[1,0,1]","location_rts":"[1596,255,266]","trial_type":"fractal-mutation","trial_index":98,"time_elapsed":1327651,"internal_node_id":"0.0-5.0-44.0"},{"group":"hexagon_bi","fractal_assignment":["../images/org_blu.png","../images/cyn_red.png","../images/ylw_slt.png","../images/blu_wht.png","../images/gry_blk.png","../images/pnk_blu.png"],"mutagen_generator_assignment":[0,1],"goal":0,"start":3,"action_noise":0,"location_history":"[3,4,5,0]","action_history":"[0,1,0]","mutagen_history":"[0,1,0]","location_rts":"[2000,489,604]","trial_type":"fractal-mutation","trial_index":99,"time_elapsed":1337868,"internal_node_id":"0.0-5.0-45.0"},{"group":"hexagon_bi","fractal_assignment":["../images/org_blu.png","../images/cyn_red.png","../images/ylw_slt.png","../images/blu_wht.png","../images/gry_blk.png","../images/pnk_blu.png"],"mutagen_generator_assignment":[0,1],"goal":4,"start":0,"action_noise":0,"location_history":"[0,5,4]","action_history":"[0,1]","mutagen_history":"[0,1]","location_rts":"[1819,326]","trial_type":"fractal-mutation","trial_index":100,"time_elapsed":1346085,"internal_node_id":"0.0-5.0-46.0"},{"group":"hexagon_bi","fractal_assignment":["../images/org_blu.png","../images/cyn_red.png","../images/ylw_slt.png","../images/blu_wht.png","../images/gry_blk.png","../images/pnk_blu.png"],"mutagen_generator_assignment":[0,1],"goal":5,"start":4,"action_noise":0,"location_history":"[4,3,4,5]","action_history":"[0,0,1]","mutagen_history":"[0,0,1]","location_rts":"[2411,640,147]","trial_type":"fractal-mutation","trial_index":101,"time_elapsed":1356395,"internal_node_id":"0.0-5.0-47.0"},{"group":"hexagon_bi","fractal_assignment":["../images/org_blu.png","../images/cyn_red.png","../images/ylw_slt.png","../images/blu_wht.png","../images/gry_blk.png","../images/pnk_blu.png"],"mutagen_generator_assignment":[0,1],"goal":2,"start":5,"action_noise":0,"location_history":"[5,4,3,2]","action_history":"[1,0,1]","mutagen_history":"[1,0,1]","location_rts":"[1706,179,236]","trial_type":"fractal-mutation","trial_index":102,"time_elapsed":1365636,"internal_node_id":"0.0-5.0-48.0"},{"group":"hexagon_bi","fractal_assignment":["../images/org_blu.png","../images/cyn_red.png","../images/ylw_slt.png","../images/blu_wht.png","../images/gry_blk.png","../images/pnk_blu.png"],"mutagen_generator_assignment":[0,1],"goal":1,"start":2,"action_noise":0,"location_history":"[2,3,4,5,0,1]","action_history":"[1,0,1,0,1]","mutagen_history":"[1,0,1,0,1]","location_rts":"[1431,929,1118,197,180]","trial_type":"fractal-mutation","trial_index":103,"time_elapsed":1378667,"internal_node_id":"0.0-5.0-49.0"},{"view_history":"[{\"page_index\":0,\"viewing_time\":2262}]","rt":2262,"trial_type":"instructions","trial_index":104,"time_elapsed":1381930,"internal_node_id":"0.0-6.0"},{"rt":8494,"responses":"{\"Q0\":\"LEarning in the process\"}","trial_type":"survey-text","trial_index":105,"time_elapsed":1391437,"internal_node_id":"0.0-7.0-0.0"},{"rt":7093,"responses":"{\"Q0\":\"Retention from day 1\"}","trial_type":"survey-text","trial_index":106,"time_elapsed":1399536,"internal_node_id":"0.0-7.0-1.0"},{"rt":25958,"responses":"{\"Q0\":\"<img src='../images/diagrams/hexagon_bi.png'>\"}","trial_type":"survey-multi-choice","trial_index":107,"time_elapsed":1426517,"internal_node_id":"0.0-7.0-2.0"},{"rt":24764,"assignments":["../images/org_blu.png","../images/cyn_red.png","../images/ylw_slt.png","../images/blu_wht.png","../images/gry_blk.png","../images/pnk_blu.png"],"trial_type":"drag-drop-on-image","trial_index":108,"time_elapsed":1452292,"internal_node_id":"0.0-7.0-3.0"},{"rt":4109,"responses":"{\"Q0\":\"2\"}","trial_type":"survey-likert","trial_index":109,"time_elapsed":1457408,"internal_node_id":"0.0-7.0-4.0"},{"rt":7612,"responses":"{\"Q0\":\"They were both circular\"}","trial_type":"survey-text","trial_index":110,"time_elapsed":1466035,"internal_node_id":"0.0-7.0-5.0"},{"rt":3964,"responses":"{\"Q0\":\"Yes\"}","trial_type":"survey-multi-choice","trial_index":111,"time_elapsed":1471014,"internal_node_id":"0.0-7.0-6.0"},{"rt":4672,"responses":"{\"Q0\":\"During session 1\"}","trial_type":"survey-multi-choice","trial_index":112,"time_elapsed":1476708,"internal_node_id":"0.0-7.0-7.0"},{"rt":10797,"responses":"{\"Q0\":\"circular structures\"}","trial_type":"survey-text","trial_index":113,"time_elapsed":1488510,"internal_node_id":"0.0-7.0-8.0"},{"rt":4902,"responses":"{\"Q0\":\"1\"}","trial_type":"survey-likert","trial_index":114,"time_elapsed":1494418,"internal_node_id":"0.0-7.0-9.0"},{"rt":10553,"responses":"{\"Q0\":\"Same structure\"}","trial_type":"survey-multi-choice","trial_index":115,"time_elapsed":1505981,"internal_node_id":"0.0-7.0-10.0"},{"rt":46810,"assignments":["../images/org_blu.png","../images/pnk_blu.png","../images/blu_wht.png","../images/cyn_red.png","../images/ylw_slt.png","../images/gry_blk.png"],"background_order":[0,1,3,5,4,2],"trial_type":"drag-drop-on-image","trial_index":116,"time_elapsed":1553795,"internal_node_id":"0.0-7.0-11.0"},{"rt":17598,"responses":"{\"Q0\":\"left (black) door = ray, right (white) door = acid\",\"Q1\":\"Slightly confident\"}","trial_type":"survey-multi-choice","trial_index":117,"time_elapsed":1572404,"internal_node_id":"0.0-7.0-12.0"},{"rt":5982,"responses":"{\"Q0\":\"<25\",\"Q1\":\"Bachelor's degree\",\"Q2\":\"Male\",\"Q3\":\"White\"}","trial_type":"survey-multi-choice","trial_index":118,"time_elapsed":1579407,"internal_node_id":"0.0-8.0"},{"rt":2356,"responses":"{\"Q0\":\"\"}","trial_type":"survey-text","trial_index":119,"time_elapsed":1582767,"internal_node_id":"0.0-9.0"}]