[{"view_history":"[{\"page_index\":0,\"viewing_time\":2128},{\"page_index\":1,\"viewing_time\":4132}]","rt":6264,"trial_type":"instructions","trial_index":0,"time_elapsed":6266,"internal_node_id":"0.0-0.0"},{"view_history":"[{\"page_index\":0,\"viewing_time\":1312},{\"page_index\":1,\"viewing_time\":2044}]","rt":3358,"trial_type":"instructions","trial_index":1,"time_elapsed":10630,"internal_node_id":"0.0-1.0"},{"group":"hexagon_tri","room_assignment":["green","purple","blue","grey","yellow","red"],"door_color_assignment":["white","black"],"door_generator_assignment":[0,1],"goal":2,"start":1,"action_noise":0,"location_history":"[1,3,2]","action_history":"[0,0]","door_history":"[0,0]","location_rts":"[4530,346]","trial_type":"two-door-navigation","trial_index":2,"time_elapsed":21626,"internal_node_id":"0.0-2.0-0.0"},{"group":"hexagon_tri","room_assignment":["green","purple","blue","grey","yellow","red"],"door_color_assignment":["white","black"],"door_generator_assignment":[0,1],"goal":0,"start":2,"action_noise":0,"location_history":"[2,3,4,0]","action_history":"[1,1,0]","door_history":"[1,1,0]","location_rts":"[4704,1052,1520]","trial_type":"two-door-navigation","trial_index":3,"time_elapsed":36078,"internal_node_id":"0.0-2.0-1.0"},{"group":"hexagon_tri","room_assignment":["green","purple","blue","grey","yellow","red"],"door_color_assignment":["white","black"],"door_generator_assignment":[0,1],"goal":5,"start":0,"action_noise":0,"location_history":"[0,5]","action_history":"[0]","door_history":"[0]","location_rts":"[3648]","trial_type":"two-door-navigation","trial_index":4,"time_elapsed":44776,"internal_node_id":"0.0-2.0-2.0"},{"group":"hexagon_tri","room_assignment":["green","purple","blue","grey","yellow","red"],"door_color_assignment":["white","black"],"door_generator_assignment":[0,1],"goal":1,"start":5,"action_noise":0,"location_history":"[5,0,1]","action_history":"[1,1]","door_history":"[1,1]","location_rts":"[14558,1760]","trial_type":"two-door-navigation","trial_index":5,"time_elapsed":67204,"internal_node_id":"0.0-2.0-3.0"},{"group":"hexagon_tri","room_assignment":["green","purple","blue","grey","yellow","red"],"door_color_assignment":["white","black"],"door_generator_assignment":[0,1],"goal":3,"start":1,"action_noise":0,"location_history":"[1,3]","action_history":"[0]","door_history":"[0]","location_rts":"[2364]","trial_type":"two-door-navigation","trial_index":6,"time_elapsed":74638,"internal_node_id":"0.0-2.0-4.0"},{"group":"hexagon_tri","room_assignment":["green","purple","blue","grey","yellow","red"],"door_color_assignment":["white","black"],"door_generator_assignment":[0,1],"goal":5,"start":3,"action_noise":0,"location_history":"[3,4,0,5]","action_history":"[1,0,0]","door_history":"[1,0,0]","location_rts":"[3280,1814,156]","trial_type":"two-door-navigation","trial_index":7,"time_elapsed":87004,"internal_node_id":"0.0-2.0-5.0"},{"group":"hexagon_tri","room_assignment":["green","purple","blue","grey","yellow","red"],"door_color_assignment":["white","black"],"door_generator_assignment":[0,1],"goal":4,"start":5,"action_noise":0,"location_history":"[5,4]","action_history":"[0]","door_history":"[0]","location_rts":"[1364]","trial_type":"two-door-navigation","trial_index":8,"time_elapsed":93416,"internal_node_id":"0.0-2.0-6.0"},{"group":"hexagon_tri","room_assignment":["green","purple","blue","grey","yellow","red"],"door_color_assignment":["white","black"],"door_generator_assignment":[0,1],"goal":0,"start":4,"action_noise":0,"location_history":"[4,0]","action_history":"[0]","door_history":"[0]","location_rts":"[1378]","trial_type":"two-door-navigation","trial_index":9,"time_elapsed":99844,"internal_node_id":"0.0-2.0-7.0"},{"group":"hexagon_tri","room_assignment":["green","purple","blue","grey","yellow","red"],"door_color_assignment":["white","black"],"door_generator_assignment":[0,1],"goal":2,"start":0,"action_noise":0,"location_history":"[0,1,5,0,1,3,2]","action_history":"[1,1,1,1,0,0]","door_history":"[1,1,1,1,0,0]","location_rts":"[6064,3148,1088,498,292,450]","trial_type":"two-door-navigation","trial_index":10,"time_elapsed":121622,"internal_node_id":"0.0-2.0-8.0"},{"group":"hexagon_tri","room_assignment":["green","purple","blue","grey","yellow","red"],"door_color_assignment":["white","black"],"door_generator_assignment":[0,1],"goal":4,"start":2,"action_noise":0,"location_history":"[2,3,4]","action_history":"[1,1]","door_history":"[1,1]","location_rts":"[2140,778]","trial_type":"two-door-navigation","trial_index":11,"time_elapsed":130680,"internal_node_id":"0.0-2.0-9.0"},{"group":"hexagon_tri","room_assignment":["green","purple","blue","grey","yellow","red"],"door_color_assignment":["white","black"],"door_generator_assignment":[0,1],"goal":2,"start":4,"action_noise":0,"location_history":"[4,2]","action_history":"[1]","door_history":"[1]","location_rts":"[2476]","trial_type":"two-door-navigation","trial_index":12,"time_elapsed":138204,"internal_node_id":"0.0-2.0-10.0"},{"group":"hexagon_tri","room_assignment":["green","purple","blue","grey","yellow","red"],"door_color_assignment":["white","black"],"door_generator_assignment":[0,1],"goal":3,"start":2,"action_noise":0,"location_history":"[2,1,3]","action_history":"[0,0]","door_history":"[0,0]","location_rts":"[30694,846]","trial_type":"two-door-navigation","trial_index":13,"time_elapsed":175826,"internal_node_id":"0.0-2.0-11.0"},{"group":"hexagon_tri","room_assignment":["green","purple","blue","grey","yellow","red"],"door_color_assignment":["white","black"],"door_generator_assignment":[0,1],"goal":0,"start":3,"action_noise":0,"location_history":"[3,2,1,5,4,0]","action_history":"[0,0,1,0,0]","door_history":"[0,0,1,0,0]","location_rts":"[3066,1286,1104,1280,528]","trial_type":"two-door-navigation","trial_index":14,"time_elapsed":192340,"internal_node_id":"0.0-2.0-12.0"},{"group":"hexagon_tri","room_assignment":["green","purple","blue","grey","yellow","red"],"door_color_assignment":["white","black"],"door_generator_assignment":[0,1],"goal":5,"start":0,"action_noise":0,"location_history":"[0,5]","action_history":"[0]","door_history":"[0]","location_rts":"[8832]","trial_type":"two-door-navigation","trial_index":15,"time_elapsed":206214,"internal_node_id":"0.0-2.0-13.0"},{"group":"hexagon_tri","room_assignment":["green","purple","blue","grey","yellow","red"],"door_color_assignment":["white","black"],"door_generator_assignment":[0,1],"goal":1,"start":5,"action_noise":0,"location_history":"[5,0,1]","action_history":"[1,1]","door_history":"[1,1]","location_rts":"[22958,1080]","trial_type":"two-door-navigation","trial_index":16,"time_elapsed":236342,"internal_node_id":"0.0-2.0-14.0"},{"group":"hexagon_tri","room_assignment":["green","purple","blue","grey","yellow","red"],"door_color_assignment":["white","black"],"door_generator_assignment":[0,1],"goal":5,"start":1,"action_noise":0,"location_history":"[1,5]","action_history":"[1]","door_history":"[1]","location_rts":"[2218]","trial_type":"two-door-navigation","trial_index":17,"time_elapsed":242084,"internal_node_id":"0.0-2.0-15.0"},{"group":"hexagon_tri","room_assignment":["green","purple","blue","grey","yellow","red"],"door_color_assignment":["white","black"],"door_generator_assignment":[0,1],"goal":3,"start":5,"action_noise":0,"location_history":"[5,0,1,3]","action_history":"[1,1,0]","door_history":"[1,1,0]","location_rts":"[6726,498,380]","trial_type":"two-door-navigation","trial_index":18,"time_elapsed":256870,"internal_node_id":"0.0-2.0-16.0"},{"group":"hexagon_tri","room_assignment":["green","purple","blue","grey","yellow","red"],"door_color_assignment":["white","black"],"door_generator_assignment":[0,1],"goal":2,"start":3,"action_noise":0,"location_history":"[3,2]","action_history":"[0]","door_history":"[0]","location_rts":"[1432]","trial_type":"two-door-navigation","trial_index":19,"time_elapsed":263344,"internal_node_id":"0.0-2.0-17.0"},{"group":"hexagon_tri","room_assignment":["green","purple","blue","grey","yellow","red"],"door_color_assignment":["white","black"],"door_generator_assignment":[0,1],"goal":1,"start":2,"action_noise":0,"location_history":"[2,1]","action_history":"[0]","door_history":"[0]","location_rts":"[2618]","trial_type":"two-door-navigation","trial_index":20,"time_elapsed":271032,"internal_node_id":"0.0-2.0-18.0"},{"group":"hexagon_tri","room_assignment":["green","purple","blue","grey","yellow","red"],"door_color_assignment":["white","black"],"door_generator_assignment":[0,1],"goal":4,"start":1,"action_noise":0,"location_history":"[1,5,4]","action_history":"[1,0]","door_history":"[1,0]","location_rts":"[4090,1516]","trial_type":"two-door-navigation","trial_index":21,"time_elapsed":282738,"internal_node_id":"0.0-2.0-19.0"},{"group":"hexagon_tri","room_assignment":["green","purple","blue","grey","yellow","red"],"door_color_assignment":["white","black"],"door_generator_assignment":[0,1],"goal":0,"start":4,"action_noise":0,"location_history":"[4,0]","action_history":"[0]","door_history":"[0]","location_rts":"[18054]","trial_type":"two-door-navigation","trial_index":22,"time_elapsed":305830,"internal_node_id":"0.0-2.0-20.0"},{"group":"hexagon_tri","room_assignment":["green","purple","blue","grey","yellow","red"],"door_color_assignment":["white","black"],"door_generator_assignment":[0,1],"goal":3,"start":0,"action_noise":0,"location_history":"[0,1,3]","action_history":"[1,0]","door_history":"[1,0]","location_rts":"[1738,388]","trial_type":"two-door-navigation","trial_index":23,"time_elapsed":314020,"internal_node_id":"0.0-2.0-21.0"},{"group":"hexagon_tri","room_assignment":["green","purple","blue","grey","yellow","red"],"door_color_assignment":["white","black"],"door_generator_assignment":[0,1],"goal":1,"start":3,"action_noise":0,"location_history":"[3,2,1]","action_history":"[0,0]","door_history":"[0,0]","location_rts":"[992,448]","trial_type":"two-door-navigation","trial_index":24,"time_elapsed":321538,"internal_node_id":"0.0-2.0-22.0"},{"group":"hexagon_tri","room_assignment":["green","purple","blue","grey","yellow","red"],"door_color_assignment":["white","black"],"door_generator_assignment":[0,1],"goal":0,"start":1,"action_noise":0,"location_history":"[1,5,0]","action_history":"[1,1]","door_history":"[1,1]","location_rts":"[33998,3034]","trial_type":"two-door-navigation","trial_index":25,"time_elapsed":364650,"internal_node_id":"0.0-2.0-23.0"},{"group":"hexagon_tri","room_assignment":["green","purple","blue","grey","yellow","red"],"door_color_assignment":["white","black"],"door_generator_assignment":[0,1],"goal":2,"start":0,"action_noise":0,"location_history":"[0,1,3,2]","action_history":"[1,0,0]","door_history":"[1,0,0]","location_rts":"[2458,286,80]","trial_type":"two-door-navigation","trial_index":26,"time_elapsed":374596,"internal_node_id":"0.0-2.0-24.0"},{"group":"hexagon_tri","room_assignment":["green","purple","blue","grey","yellow","red"],"door_color_assignment":["white","black"],"door_generator_assignment":[0,1],"goal":4,"start":2,"action_noise":0,"location_history":"[2,3,4]","action_history":"[1,1]","door_history":"[1,1]","location_rts":"[1766,5014]","trial_type":"two-door-navigation","trial_index":27,"time_elapsed":387480,"internal_node_id":"0.0-2.0-25.0"},{"group":"hexagon_tri","room_assignment":["green","purple","blue","grey","yellow","red"],"door_color_assignment":["white","black"],"door_generator_assignment":[0,1],"goal":5,"start":4,"action_noise":0,"location_history":"[4,0,5]","action_history":"[0,0]","door_history":"[0,0]","location_rts":"[1268,12]","trial_type":"two-door-navigation","trial_index":28,"time_elapsed":394832,"internal_node_id":"0.0-2.0-26.0"},{"group":"hexagon_tri","room_assignment":["green","purple","blue","grey","yellow","red"],"door_color_assignment":["white","black"],"door_generator_assignment":[0,1],"goal":2,"start":5,"action_noise":0,"location_history":"[5,0,1,3,2]","action_history":"[1,1,0,0]","door_history":"[1,1,0,0]","location_rts":"[3558,1332,2020,232]","trial_type":"two-door-navigation","trial_index":29,"time_elapsed":410158,"internal_node_id":"0.0-2.0-27.0"},{"group":"hexagon_tri","room_assignment":["green","purple","blue","grey","yellow","red"],"door_color_assignment":["white","black"],"door_generator_assignment":[0,1],"goal":3,"start":2,"action_noise":0,"location_history":"[2,1,3]","action_history":"[0,0]","door_history":"[0,0]","location_rts":"[1492,4030]","trial_type":"two-door-navigation","trial_index":30,"time_elapsed":421792,"internal_node_id":"0.0-2.0-28.0"},{"group":"hexagon_tri","room_assignment":["green","purple","blue","grey","yellow","red"],"door_color_assignment":["white","black"],"door_generator_assignment":[0,1],"goal":1,"start":3,"action_noise":0,"location_history":"[3,2,1]","action_history":"[0,0]","door_history":"[0,0]","location_rts":"[1282,8]","trial_type":"two-door-navigation","trial_index":31,"time_elapsed":429168,"internal_node_id":"0.0-2.0-29.0"},{"group":"hexagon_tri","room_assignment":["green","purple","blue","grey","yellow","red"],"door_color_assignment":["white","black"],"door_generator_assignment":[0,1],"goal":4,"start":1,"action_noise":0,"location_history":"[1,5,4]","action_history":"[1,0]","door_history":"[1,0]","location_rts":"[2332,1434]","trial_type":"two-door-navigation","trial_index":32,"time_elapsed":439024,"internal_node_id":"0.0-2.0-30.0"},{"group":"hexagon_tri","room_assignment":["green","purple","blue","grey","yellow","red"],"door_color_assignment":["white","black"],"door_generator_assignment":[0,1],"goal":5,"start":4,"action_noise":0,"location_history":"[4,0,5]","action_history":"[0,0]","door_history":"[0,0]","location_rts":"[5556,78]","trial_type":"two-door-navigation","trial_index":33,"time_elapsed":450746,"internal_node_id":"0.0-2.0-31.0"},{"group":"hexagon_tri","room_assignment":["green","purple","blue","grey","yellow","red"],"door_color_assignment":["white","black"],"door_generator_assignment":[0,1],"goal":0,"start":5,"action_noise":0,"location_history":"[5,4,0]","action_history":"[0,0]","door_history":"[0,0]","location_rts":"[1518,520]","trial_type":"two-door-navigation","trial_index":34,"time_elapsed":458896,"internal_node_id":"0.0-2.0-32.0"},{"group":"hexagon_tri","room_assignment":["green","purple","blue","grey","yellow","red"],"door_color_assignment":["white","black"],"door_generator_assignment":[0,1],"goal":2,"start":0,"action_noise":0,"location_history":"[0,1,3,2]","action_history":"[1,0,0]","door_history":"[1,0,0]","location_rts":"[2442,430,550]","trial_type":"two-door-navigation","trial_index":35,"time_elapsed":469494,"internal_node_id":"0.0-2.0-33.0"},{"group":"hexagon_tri","room_assignment":["green","purple","blue","grey","yellow","red"],"door_color_assignment":["white","black"],"door_generator_assignment":[0,1],"goal":0,"start":2,"action_noise":0,"location_history":"[2,3,4,0]","action_history":"[1,1,0]","door_history":"[1,1,0]","location_rts":"[3816,546,1284]","trial_type":"two-door-navigation","trial_index":36,"time_elapsed":482268,"internal_node_id":"0.0-2.0-34.0"},{"group":"hexagon_tri","room_assignment":["green","purple","blue","grey","yellow","red"],"door_color_assignment":["white","black"],"door_generator_assignment":[0,1],"goal":5,"start":0,"action_noise":0,"location_history":"[0,5]","action_history":"[0]","door_history":"[0]","location_rts":"[4510]","trial_type":"two-door-navigation","trial_index":37,"time_elapsed":491834,"internal_node_id":"0.0-2.0-35.0"},{"group":"hexagon_tri","room_assignment":["green","purple","blue","grey","yellow","red"],"door_color_assignment":["white","black"],"door_generator_assignment":[0,1],"goal":1,"start":5,"action_noise":0,"location_history":"[5,0,1]","action_history":"[1,1]","door_history":"[1,1]","location_rts":"[2208,1012]","trial_type":"two-door-navigation","trial_index":38,"time_elapsed":501136,"internal_node_id":"0.0-2.0-36.0"},{"group":"hexagon_tri","room_assignment":["green","purple","blue","grey","yellow","red"],"door_color_assignment":["white","black"],"door_generator_assignment":[0,1],"goal":4,"start":1,"action_noise":0,"location_history":"[1,5,4]","action_history":"[1,0]","door_history":"[1,0]","location_rts":"[6090,916]","trial_type":"two-door-navigation","trial_index":39,"time_elapsed":514224,"internal_node_id":"0.0-2.0-37.0"},{"group":"hexagon_tri","room_assignment":["green","purple","blue","grey","yellow","red"],"door_color_assignment":["white","black"],"door_generator_assignment":[0,1],"goal":3,"start":4,"action_noise":0,"location_history":"[4,0,1,3]","action_history":"[0,1,0]","door_history":"[0,1,0]","location_rts":"[1668,264,78]","trial_type":"two-door-navigation","trial_index":40,"time_elapsed":523324,"internal_node_id":"0.0-2.0-38.0"},{"group":"hexagon_tri","room_assignment":["green","purple","blue","grey","yellow","red"],"door_color_assignment":["white","black"],"door_generator_assignment":[0,1],"goal":5,"start":3,"action_noise":0,"location_history":"[3,4,0,5]","action_history":"[1,0,0]","door_history":"[1,0,0]","location_rts":"[1930,1294,2978]","trial_type":"two-door-navigation","trial_index":41,"time_elapsed":536628,"internal_node_id":"0.0-2.0-39.0"},{"group":"hexagon_tri","room_assignment":["green","purple","blue","grey","yellow","red"],"door_color_assignment":["white","black"],"door_generator_assignment":[0,1],"goal":1,"start":5,"action_noise":0,"location_history":"[5,0,1]","action_history":"[1,1]","door_history":"[1,1]","location_rts":"[1882,476]","trial_type":"two-door-navigation","trial_index":42,"time_elapsed":545066,"internal_node_id":"0.0-2.0-40.0"},{"group":"hexagon_tri","room_assignment":["green","purple","blue","grey","yellow","red"],"door_color_assignment":["white","black"],"door_generator_assignment":[0,1],"goal":2,"start":1,"action_noise":0,"location_history":"[1,3,2]","action_history":"[0,0]","door_history":"[0,0]","location_rts":"[1866,522]","trial_type":"two-door-navigation","trial_index":43,"time_elapsed":553556,"internal_node_id":"0.0-2.0-41.0"},{"group":"hexagon_tri","room_assignment":["green","purple","blue","grey","yellow","red"],"door_color_assignment":["white","black"],"door_generator_assignment":[0,1],"goal":4,"start":2,"action_noise":0,"location_history":"[2,3,4]","action_history":"[1,1]","door_history":"[1,1]","location_rts":"[2268,940]","trial_type":"two-door-navigation","trial_index":44,"time_elapsed":562838,"internal_node_id":"0.0-2.0-42.0"},{"group":"hexagon_tri","room_assignment":["green","purple","blue","grey","yellow","red"],"door_color_assignment":["white","black"],"door_generator_assignment":[0,1],"goal":0,"start":4,"action_noise":0,"location_history":"[4,0]","action_history":"[0]","door_history":"[0]","location_rts":"[2874]","trial_type":"two-door-navigation","trial_index":45,"time_elapsed":570752,"internal_node_id":"0.0-2.0-43.0"},{"group":"hexagon_tri","room_assignment":["green","purple","blue","grey","yellow","red"],"door_color_assignment":["white","black"],"door_generator_assignment":[0,1],"goal":3,"start":0,"action_noise":0,"location_history":"[0,1,3]","action_history":"[1,0]","door_history":"[1,0]","location_rts":"[2222,116]","trial_type":"two-door-navigation","trial_index":46,"time_elapsed":579158,"internal_node_id":"0.0-2.0-44.0"},{"group":"hexagon_tri","room_assignment":["green","purple","blue","grey","yellow","red"],"door_color_assignment":["white","black"],"door_generator_assignment":[0,1],"goal":0,"start":3,"action_noise":0,"location_history":"[3,2,1,5,4,0]","action_history":"[0,0,1,0,0]","door_history":"[0,0,1,0,0]","location_rts":"[2596,902,746,1246,126]","trial_type":"two-door-navigation","trial_index":47,"time_elapsed":593936,"internal_node_id":"0.0-2.0-45.0"},{"group":"hexagon_tri","room_assignment":["green","purple","blue","grey","yellow","red"],"door_color_assignment":["white","black"],"door_generator_assignment":[0,1],"goal":4,"start":0,"action_noise":0,"location_history":"[0,5,4]","action_history":"[0,0]","door_history":"[0,0]","location_rts":"[1550,528]","trial_type":"two-door-navigation","trial_index":48,"time_elapsed":602086,"internal_node_id":"0.0-2.0-46.0"},{"group":"hexagon_tri","room_assignment":["green","purple","blue","grey","yellow","red"],"door_color_assignment":["white","black"],"door_generator_assignment":[0,1],"goal":5,"start":4,"action_noise":0,"location_history":"[4,0,5]","action_history":"[0,0]","door_history":"[0,0]","location_rts":"[1088,366]","trial_type":"two-door-navigation","trial_index":49,"time_elapsed":609650,"internal_node_id":"0.0-2.0-47.0"},{"group":"hexagon_tri","room_assignment":["green","purple","blue","grey","yellow","red"],"door_color_assignment":["white","black"],"door_generator_assignment":[0,1],"goal":2,"start":5,"action_noise":0,"location_history":"[5,0,1,3,2]","action_history":"[1,1,0,0]","door_history":"[1,1,0,0]","location_rts":"[2646,666,1750,178]","trial_type":"two-door-navigation","trial_index":50,"time_elapsed":623020,"internal_node_id":"0.0-2.0-48.0"},{"group":"hexagon_tri","room_assignment":["green","purple","blue","grey","yellow","red"],"door_color_assignment":["white","black"],"door_generator_assignment":[0,1],"goal":1,"start":2,"action_noise":0,"location_history":"[2,1]","action_history":"[0]","door_history":"[0]","location_rts":"[1622]","trial_type":"two-door-navigation","trial_index":51,"time_elapsed":629722,"internal_node_id":"0.0-2.0-49.0"},{"view_history":"[{\"page_index\":0,\"viewing_time\":2144}]","rt":2144,"trial_type":"instructions","trial_index":52,"time_elapsed":632872,"internal_node_id":"0.0-3.0"},{"view_history":"[{\"page_index\":0,\"viewing_time\":1094},{\"page_index\":1,\"viewing_time\":1502}]","rt":2598,"trial_type":"instructions","trial_index":53,"time_elapsed":636470,"internal_node_id":"0.0-4.0"},{"group":"hexagon_tri","fractal_assignment":["../images/blu_wht.png","../images/cyn_red.png","../images/ylw_slt.png","../images/pnk_blu.png","../images/gry_blk.png","../images/org_blu.png"],"mutagen_generator_assignment":[0,1],"goal":2,"start":1,"action_noise":0,"location_history":"[1,3,2]","action_history":"[0,0]","mutagen_history":"[0,0]","location_rts":"[5158,504]","trial_type":"fractal-mutation","trial_index":54,"time_elapsed":648394,"internal_node_id":"0.0-5.0-0.0"},{"group":"hexagon_tri","fractal_assignment":["../images/blu_wht.png","../images/cyn_red.png","../images/ylw_slt.png","../images/pnk_blu.png","../images/gry_blk.png","../images/org_blu.png"],"mutagen_generator_assignment":[0,1],"goal":0,"start":2,"action_noise":0,"location_history":"[2,3,2,3,4,0]","action_history":"[1,0,1,1,0]","mutagen_history":"[1,0,1,1,0]","location_rts":"[1908,2360,1018,660,380]","trial_type":"fractal-mutation","trial_index":55,"time_elapsed":664448,"internal_node_id":"0.0-5.0-1.0"},{"group":"hexagon_tri","fractal_assignment":["../images/blu_wht.png","../images/cyn_red.png","../images/ylw_slt.png","../images/pnk_blu.png","../images/gry_blk.png","../images/org_blu.png"],"mutagen_generator_assignment":[0,1],"goal":5,"start":0,"action_noise":0,"location_history":"[0,5]","action_history":"[0]","mutagen_history":"[0]","location_rts":"[1242]","trial_type":"fractal-mutation","trial_index":56,"time_elapsed":670828,"internal_node_id":"0.0-5.0-2.0"},{"group":"hexagon_tri","fractal_assignment":["../images/blu_wht.png","../images/cyn_red.png","../images/ylw_slt.png","../images/pnk_blu.png","../images/gry_blk.png","../images/org_blu.png"],"mutagen_generator_assignment":[0,1],"goal":1,"start":5,"action_noise":0,"location_history":"[5,0,5,4,0,5,4,2,3,4,2,3,2,1]","action_history":"[1,0,0,0,0,0,1,1,1,1,1,0,0]","mutagen_history":"[1,0,0,0,0,0,1,1,1,1,1,0,0]","location_rts":"[6180,2410,728,586,760,162,202,2192,546,1140,244,348,852]","trial_type":"fractal-mutation","trial_index":57,"time_elapsed":705932,"internal_node_id":"0.0-5.0-3.0"},{"group":"hexagon_tri","fractal_assignment":["../images/blu_wht.png","../images/cyn_red.png","../images/ylw_slt.png","../images/pnk_blu.png","../images/gry_blk.png","../images/org_blu.png"],"mutagen_generator_assignment":[0,1],"goal":3,"start":1,"action_noise":0,"location_history":"[1,5,0,1,3]","action_history":"[1,1,1,0]","mutagen_history":"[1,1,1,0]","location_rts":"[8628,416,526,1444]","trial_type":"fractal-mutation","trial_index":58,"time_elapsed":725512,"internal_node_id":"0.0-5.0-4.0"},{"group":"hexagon_tri","fractal_assignment":["../images/blu_wht.png","../images/cyn_red.png","../images/ylw_slt.png","../images/pnk_blu.png","../images/gry_blk.png","../images/org_blu.png"],"mutagen_generator_assignment":[0,1],"goal":5,"start":3,"action_noise":0,"location_history":"[3,4,0,5]","action_history":"[1,0,0]","mutagen_history":"[1,0,0]","location_rts":"[2262,928,812]","trial_type":"fractal-mutation","trial_index":59,"time_elapsed":736912,"internal_node_id":"0.0-5.0-5.0"},{"group":"hexagon_tri","fractal_assignment":["../images/blu_wht.png","../images/cyn_red.png","../images/ylw_slt.png","../images/pnk_blu.png","../images/gry_blk.png","../images/org_blu.png"],"mutagen_generator_assignment":[0,1],"goal":4,"start":5,"action_noise":0,"location_history":"[5,4]","action_history":"[0]","mutagen_history":"[0]","location_rts":"[2168]","trial_type":"fractal-mutation","trial_index":60,"time_elapsed":744192,"internal_node_id":"0.0-5.0-6.0"},{"group":"hexagon_tri","fractal_assignment":["../images/blu_wht.png","../images/cyn_red.png","../images/ylw_slt.png","../images/pnk_blu.png","../images/gry_blk.png","../images/org_blu.png"],"mutagen_generator_assignment":[0,1],"goal":0,"start":4,"action_noise":0,"location_history":"[4,0]","action_history":"[0]","mutagen_history":"[0]","location_rts":"[2564]","trial_type":"fractal-mutation","trial_index":61,"time_elapsed":751874,"internal_node_id":"0.0-5.0-7.0"},{"group":"hexagon_tri","fractal_assignment":["../images/blu_wht.png","../images/cyn_red.png","../images/ylw_slt.png","../images/pnk_blu.png","../images/gry_blk.png","../images/org_blu.png"],"mutagen_generator_assignment":[0,1],"goal":2,"start":0,"action_noise":0,"location_history":"[0,1,5,0,1,3,2]","action_history":"[1,1,1,1,0,0]","mutagen_history":"[1,1,1,1,0,0]","location_rts":"[2220,1808,858,674,700,432]","trial_type":"fractal-mutation","trial_index":62,"time_elapsed":769398,"internal_node_id":"0.0-5.0-8.0"},{"group":"hexagon_tri","fractal_assignment":["../images/blu_wht.png","../images/cyn_red.png","../images/ylw_slt.png","../images/pnk_blu.png","../images/gry_blk.png","../images/org_blu.png"],"mutagen_generator_assignment":[0,1],"goal":4,"start":2,"action_noise":0,"location_history":"[2,3,2,1,5,4]","action_history":"[1,0,0,1,0]","mutagen_history":"[1,0,0,1,0]","location_rts":"[1766,894,768,668,400]","trial_type":"fractal-mutation","trial_index":63,"time_elapsed":783638,"internal_node_id":"0.0-5.0-9.0"},{"group":"hexagon_tri","fractal_assignment":["../images/blu_wht.png","../images/cyn_red.png","../images/ylw_slt.png","../images/pnk_blu.png","../images/gry_blk.png","../images/org_blu.png"],"mutagen_generator_assignment":[0,1],"goal":2,"start":4,"action_noise":0,"location_history":"[4,2]","action_history":"[1]","mutagen_history":"[1]","location_rts":"[1434]","trial_type":"fractal-mutation","trial_index":64,"time_elapsed":790252,"internal_node_id":"0.0-5.0-10.0"},{"group":"hexagon_tri","fractal_assignment":["../images/blu_wht.png","../images/cyn_red.png","../images/ylw_slt.png","../images/pnk_blu.png","../images/gry_blk.png","../images/org_blu.png"],"mutagen_generator_assignment":[0,1],"goal":3,"start":2,"action_noise":0,"location_history":"[2,3]","action_history":"[1]","mutagen_history":"[1]","location_rts":"[20]","trial_type":"fractal-mutation","trial_index":65,"time_elapsed":795476,"internal_node_id":"0.0-5.0-11.0"},{"group":"hexagon_tri","fractal_assignment":["../images/blu_wht.png","../images/cyn_red.png","../images/ylw_slt.png","../images/pnk_blu.png","../images/gry_blk.png","../images/org_blu.png"],"mutagen_generator_assignment":[0,1],"goal":0,"start":3,"action_noise":0,"location_history":"[3,4,0]","action_history":"[1,0]","mutagen_history":"[1,0]","location_rts":"[2056,540]","trial_type":"fractal-mutation","trial_index":66,"time_elapsed":804356,"internal_node_id":"0.0-5.0-12.0"},{"group":"hexagon_tri","fractal_assignment":["../images/blu_wht.png","../images/cyn_red.png","../images/ylw_slt.png","../images/pnk_blu.png","../images/gry_blk.png","../images/org_blu.png"],"mutagen_generator_assignment":[0,1],"goal":5,"start":0,"action_noise":0,"location_history":"[0,5]","action_history":"[0]","mutagen_history":"[0]","location_rts":"[1720]","trial_type":"fractal-mutation","trial_index":67,"time_elapsed":811194,"internal_node_id":"0.0-5.0-13.0"},{"group":"hexagon_tri","fractal_assignment":["../images/blu_wht.png","../images/cyn_red.png","../images/ylw_slt.png","../images/pnk_blu.png","../images/gry_blk.png","../images/org_blu.png"],"mutagen_generator_assignment":[0,1],"goal":1,"start":5,"action_noise":0,"location_history":"[5,4,2,1]","action_history":"[0,1,0]","mutagen_history":"[0,1,0]","location_rts":"[1334,586,1460]","trial_type":"fractal-mutation","trial_index":68,"time_elapsed":822004,"internal_node_id":"0.0-5.0-14.0"},{"group":"hexagon_tri","fractal_assignment":["../images/blu_wht.png","../images/cyn_red.png","../images/ylw_slt.png","../images/pnk_blu.png","../images/gry_blk.png","../images/org_blu.png"],"mutagen_generator_assignment":[0,1],"goal":5,"start":1,"action_noise":0,"location_history":"[1,5]","action_history":"[1]","mutagen_history":"[1]","location_rts":"[12226]","trial_type":"fractal-mutation","trial_index":69,"time_elapsed":839480,"internal_node_id":"0.0-5.0-15.0"},{"group":"hexagon_tri","fractal_assignment":["../images/blu_wht.png","../images/cyn_red.png","../images/ylw_slt.png","../images/pnk_blu.png","../images/gry_blk.png","../images/org_blu.png"],"mutagen_generator_assignment":[0,1],"goal":3,"start":5,"action_noise":0,"location_history":"[5,0,1,3]","action_history":"[1,1,0]","mutagen_history":"[1,1,0]","location_rts":"[3148,7240,1300]","trial_type":"fractal-mutation","trial_index":70,"time_elapsed":858682,"internal_node_id":"0.0-5.0-16.0"},{"group":"hexagon_tri","fractal_assignment":["../images/blu_wht.png","../images/cyn_red.png","../images/ylw_slt.png","../images/pnk_blu.png","../images/gry_blk.png","../images/org_blu.png"],"mutagen_generator_assignment":[0,1],"goal":2,"start":3,"action_noise":0,"location_history":"[3,4,2]","action_history":"[1,1]","mutagen_history":"[1,1]","location_rts":"[20042,404]","trial_type":"fractal-mutation","trial_index":71,"time_elapsed":885504,"internal_node_id":"0.0-5.0-17.0"},{"group":"hexagon_tri","fractal_assignment":["../images/blu_wht.png","../images/cyn_red.png","../images/ylw_slt.png","../images/pnk_blu.png","../images/gry_blk.png","../images/org_blu.png"],"mutagen_generator_assignment":[0,1],"goal":1,"start":2,"action_noise":0,"location_history":"[2,1]","action_history":"[0]","mutagen_history":"[0]","location_rts":"[1734]","trial_type":"fractal-mutation","trial_index":72,"time_elapsed":892400,"internal_node_id":"0.0-5.0-18.0"},{"group":"hexagon_tri","fractal_assignment":["../images/blu_wht.png","../images/cyn_red.png","../images/ylw_slt.png","../images/pnk_blu.png","../images/gry_blk.png","../images/org_blu.png"],"mutagen_generator_assignment":[0,1],"goal":4,"start":1,"action_noise":0,"location_history":"[1,5,4]","action_history":"[1,0]","mutagen_history":"[1,0]","location_rts":"[1470,494]","trial_type":"fractal-mutation","trial_index":73,"time_elapsed":900700,"internal_node_id":"0.0-5.0-19.0"},{"group":"hexagon_tri","fractal_assignment":["../images/blu_wht.png","../images/cyn_red.png","../images/ylw_slt.png","../images/pnk_blu.png","../images/gry_blk.png","../images/org_blu.png"],"mutagen_generator_assignment":[0,1],"goal":0,"start":4,"action_noise":0,"location_history":"[4,0]","action_history":"[0]","mutagen_history":"[0]","location_rts":"[928]","trial_type":"fractal-mutation","trial_index":74,"time_elapsed":906768,"internal_node_id":"0.0-5.0-20.0"},{"group":"hexagon_tri","fractal_assignment":["../images/blu_wht.png","../images/cyn_red.png","../images/ylw_slt.png","../images/pnk_blu.png","../images/gry_blk.png","../images/org_blu.png"],"mutagen_generator_assignment":[0,1],"goal":3,"start":0,"action_noise":0,"location_history":"[0,1,3]","action_history":"[1,0]","mutagen_history":"[1,0]","location_rts":"[1300,1320]","trial_type":"fractal-mutation","trial_index":75,"time_elapsed":915700,"internal_node_id":"0.0-5.0-21.0"},{"group":"hexagon_tri","fractal_assignment":["../images/blu_wht.png","../images/cyn_red.png","../images/ylw_slt.png","../images/pnk_blu.png","../images/gry_blk.png","../images/org_blu.png"],"mutagen_generator_assignment":[0,1],"goal":1,"start":3,"action_noise":0,"location_history":"[3,2,1]","action_history":"[0,0]","mutagen_history":"[0,0]","location_rts":"[24620,456]","trial_type":"fractal-mutation","trial_index":76,"time_elapsed":947026,"internal_node_id":"0.0-5.0-22.0"},{"group":"hexagon_tri","fractal_assignment":["../images/blu_wht.png","../images/cyn_red.png","../images/ylw_slt.png","../images/pnk_blu.png","../images/gry_blk.png","../images/org_blu.png"],"mutagen_generator_assignment":[0,1],"goal":0,"start":1,"action_noise":0,"location_history":"[1,5,4,0]","action_history":"[1,0,0]","mutagen_history":"[1,0,0]","location_rts":"[14392,1120,660]","trial_type":"fractal-mutation","trial_index":77,"time_elapsed":970602,"internal_node_id":"0.0-5.0-23.0"},{"group":"hexagon_tri","fractal_assignment":["../images/blu_wht.png","../images/cyn_red.png","../images/ylw_slt.png","../images/pnk_blu.png","../images/gry_blk.png","../images/org_blu.png"],"mutagen_generator_assignment":[0,1],"goal":2,"start":0,"action_noise":0,"location_history":"[0,1,3,2]","action_history":"[1,0,0]","mutagen_history":"[1,0,0]","location_rts":"[14796,1234,672]","trial_type":"fractal-mutation","trial_index":78,"time_elapsed":994690,"internal_node_id":"0.0-5.0-24.0"},{"group":"hexagon_tri","fractal_assignment":["../images/blu_wht.png","../images/cyn_red.png","../images/ylw_slt.png","../images/pnk_blu.png","../images/gry_blk.png","../images/org_blu.png"],"mutagen_generator_assignment":[0,1],"goal":4,"start":2,"action_noise":0,"location_history":"[2,3,4]","action_history":"[1,1]","mutagen_history":"[1,1]","location_rts":"[16928,5778]","trial_type":"fractal-mutation","trial_index":79,"time_elapsed":1023778,"internal_node_id":"0.0-5.0-25.0"},{"group":"hexagon_tri","fractal_assignment":["../images/blu_wht.png","../images/cyn_red.png","../images/ylw_slt.png","../images/pnk_blu.png","../images/gry_blk.png","../images/org_blu.png"],"mutagen_generator_assignment":[0,1],"goal":5,"start":4,"action_noise":0,"location_history":"[4,0,5]","action_history":"[0,0]","mutagen_history":"[0,0]","location_rts":"[2000,1010]","trial_type":"fractal-mutation","trial_index":80,"time_elapsed":1033022,"internal_node_id":"0.0-5.0-26.0"},{"group":"hexagon_tri","fractal_assignment":["../images/blu_wht.png","../images/cyn_red.png","../images/ylw_slt.png","../images/pnk_blu.png","../images/gry_blk.png","../images/org_blu.png"],"mutagen_generator_assignment":[0,1],"goal":2,"start":5,"action_noise":0,"location_history":"[5,0,1,3,2]","action_history":"[1,1,0,0]","mutagen_history":"[1,1,0,0]","location_rts":"[10340,2006,1872,468]","trial_type":"fractal-mutation","trial_index":81,"time_elapsed":1056268,"internal_node_id":"0.0-5.0-27.0"},{"group":"hexagon_tri","fractal_assignment":["../images/blu_wht.png","../images/cyn_red.png","../images/ylw_slt.png","../images/pnk_blu.png","../images/gry_blk.png","../images/org_blu.png"],"mutagen_generator_assignment":[0,1],"goal":3,"start":2,"action_noise":0,"location_history":"[2,1,3]","action_history":"[0,0]","mutagen_history":"[0,0]","location_rts":"[8936,458]","trial_type":"fractal-mutation","trial_index":82,"time_elapsed":1071922,"internal_node_id":"0.0-5.0-28.0"},{"group":"hexagon_tri","fractal_assignment":["../images/blu_wht.png","../images/cyn_red.png","../images/ylw_slt.png","../images/pnk_blu.png","../images/gry_blk.png","../images/org_blu.png"],"mutagen_generator_assignment":[0,1],"goal":1,"start":3,"action_noise":0,"location_history":"[3,2,3,2,1]","action_history":"[0,1,0,0]","mutagen_history":"[0,1,0,0]","location_rts":"[1218,352,844,296]","trial_type":"fractal-mutation","trial_index":83,"time_elapsed":1083144,"internal_node_id":"0.0-5.0-29.0"},{"group":"hexagon_tri","fractal_assignment":["../images/blu_wht.png","../images/cyn_red.png","../images/ylw_slt.png","../images/pnk_blu.png","../images/gry_blk.png","../images/org_blu.png"],"mutagen_generator_assignment":[0,1],"goal":4,"start":1,"action_noise":0,"location_history":"[1,3,4]","action_history":"[0,1]","mutagen_history":"[0,1]","location_rts":"[1542,370]","trial_type":"fractal-mutation","trial_index":84,"time_elapsed":1091320,"internal_node_id":"0.0-5.0-30.0"},{"group":"hexagon_tri","fractal_assignment":["../images/blu_wht.png","../images/cyn_red.png","../images/ylw_slt.png","../images/pnk_blu.png","../images/gry_blk.png","../images/org_blu.png"],"mutagen_generator_assignment":[0,1],"goal":5,"start":4,"action_noise":0,"location_history":"[4,0,5]","action_history":"[0,0]","mutagen_history":"[0,0]","location_rts":"[856,1494]","trial_type":"fractal-mutation","trial_index":85,"time_elapsed":1099900,"internal_node_id":"0.0-5.0-31.0"},{"group":"hexagon_tri","fractal_assignment":["../images/blu_wht.png","../images/cyn_red.png","../images/ylw_slt.png","../images/pnk_blu.png","../images/gry_blk.png","../images/org_blu.png"],"mutagen_generator_assignment":[0,1],"goal":0,"start":5,"action_noise":0,"location_history":"[5,4,0]","action_history":"[0,0]","mutagen_history":"[0,0]","location_rts":"[1314,398]","trial_type":"fractal-mutation","trial_index":86,"time_elapsed":1107850,"internal_node_id":"0.0-5.0-32.0"},{"group":"hexagon_tri","fractal_assignment":["../images/blu_wht.png","../images/cyn_red.png","../images/ylw_slt.png","../images/pnk_blu.png","../images/gry_blk.png","../images/org_blu.png"],"mutagen_generator_assignment":[0,1],"goal":2,"start":0,"action_noise":0,"location_history":"[0,1,3,2]","action_history":"[1,0,0]","mutagen_history":"[1,0,0]","location_rts":"[8178,554,484]","trial_type":"fractal-mutation","trial_index":87,"time_elapsed":1124460,"internal_node_id":"0.0-5.0-33.0"},{"group":"hexagon_tri","fractal_assignment":["../images/blu_wht.png","../images/cyn_red.png","../images/ylw_slt.png","../images/pnk_blu.png","../images/gry_blk.png","../images/org_blu.png"],"mutagen_generator_assignment":[0,1],"goal":0,"start":2,"action_noise":0,"location_history":"[2,3,2,1,5,4,0]","action_history":"[1,0,0,1,0,0]","mutagen_history":"[1,0,0,1,0,0]","location_rts":"[1280,306,1570,880,718,510]","trial_type":"fractal-mutation","trial_index":88,"time_elapsed":1140522,"internal_node_id":"0.0-5.0-34.0"},{"group":"hexagon_tri","fractal_assignment":["../images/blu_wht.png","../images/cyn_red.png","../images/ylw_slt.png","../images/pnk_blu.png","../images/gry_blk.png","../images/org_blu.png"],"mutagen_generator_assignment":[0,1],"goal":5,"start":0,"action_noise":0,"location_history":"[0,5]","action_history":"[0]","mutagen_history":"[0]","location_rts":"[1196]","trial_type":"fractal-mutation","trial_index":89,"time_elapsed":1146834,"internal_node_id":"0.0-5.0-35.0"},{"group":"hexagon_tri","fractal_assignment":["../images/blu_wht.png","../images/cyn_red.png","../images/ylw_slt.png","../images/pnk_blu.png","../images/gry_blk.png","../images/org_blu.png"],"mutagen_generator_assignment":[0,1],"goal":1,"start":5,"action_noise":0,"location_history":"[5,0,5,4,2,1]","action_history":"[1,0,0,1,0]","mutagen_history":"[1,0,0,1,0]","location_rts":"[1724,1230,796,766,288]","trial_type":"fractal-mutation","trial_index":90,"time_elapsed":1161302,"internal_node_id":"0.0-5.0-36.0"},{"group":"hexagon_tri","fractal_assignment":["../images/blu_wht.png","../images/cyn_red.png","../images/ylw_slt.png","../images/pnk_blu.png","../images/gry_blk.png","../images/org_blu.png"],"mutagen_generator_assignment":[0,1],"goal":4,"start":1,"action_noise":0,"location_history":"[1,5,4]","action_history":"[1,0]","mutagen_history":"[1,0]","location_rts":"[1526,556]","trial_type":"fractal-mutation","trial_index":91,"time_elapsed":1169652,"internal_node_id":"0.0-5.0-37.0"},{"group":"hexagon_tri","fractal_assignment":["../images/blu_wht.png","../images/cyn_red.png","../images/ylw_slt.png","../images/pnk_blu.png","../images/gry_blk.png","../images/org_blu.png"],"mutagen_generator_assignment":[0,1],"goal":3,"start":4,"action_noise":0,"location_history":"[4,2,1,3]","action_history":"[1,0,0]","mutagen_history":"[1,0,0]","location_rts":"[1230,1528,402]","trial_type":"fractal-mutation","trial_index":92,"time_elapsed":1180170,"internal_node_id":"0.0-5.0-38.0"},{"group":"hexagon_tri","fractal_assignment":["../images/blu_wht.png","../images/cyn_red.png","../images/ylw_slt.png","../images/pnk_blu.png","../images/gry_blk.png","../images/org_blu.png"],"mutagen_generator_assignment":[0,1],"goal":5,"start":3,"action_noise":0,"location_history":"[3,4,0,5]","action_history":"[1,0,0]","mutagen_history":"[1,0,0]","location_rts":"[1316,396,346]","trial_type":"fractal-mutation","trial_index":93,"time_elapsed":1189594,"internal_node_id":"0.0-5.0-39.0"},{"group":"hexagon_tri","fractal_assignment":["../images/blu_wht.png","../images/cyn_red.png","../images/ylw_slt.png","../images/pnk_blu.png","../images/gry_blk.png","../images/org_blu.png"],"mutagen_generator_assignment":[0,1],"goal":1,"start":5,"action_noise":0,"location_history":"[5,0,1]","action_history":"[1,1]","mutagen_history":"[1,1]","location_rts":"[1092,692]","trial_type":"fractal-mutation","trial_index":94,"time_elapsed":1197680,"internal_node_id":"0.0-5.0-40.0"},{"group":"hexagon_tri","fractal_assignment":["../images/blu_wht.png","../images/cyn_red.png","../images/ylw_slt.png","../images/pnk_blu.png","../images/gry_blk.png","../images/org_blu.png"],"mutagen_generator_assignment":[0,1],"goal":2,"start":1,"action_noise":0,"location_history":"[1,5,0,1,3,4,2]","action_history":"[1,1,1,0,1,1]","mutagen_history":"[1,1,1,0,1,1]","location_rts":"[1426,420,928,228,484,682]","trial_type":"fractal-mutation","trial_index":95,"time_elapsed":1212894,"internal_node_id":"0.0-5.0-41.0"},{"group":"hexagon_tri","fractal_assignment":["../images/blu_wht.png","../images/cyn_red.png","../images/ylw_slt.png","../images/pnk_blu.png","../images/gry_blk.png","../images/org_blu.png"],"mutagen_generator_assignment":[0,1],"goal":4,"start":2,"action_noise":0,"location_history":"[2,3,2,1,3,4]","action_history":"[1,0,0,0,1]","mutagen_history":"[1,0,0,0,1]","location_rts":"[1904,862,420,718,368]","trial_type":"fractal-mutation","trial_index":96,"time_elapsed":1226810,"internal_node_id":"0.0-5.0-42.0"},{"group":"hexagon_tri","fractal_assignment":["../images/blu_wht.png","../images/cyn_red.png","../images/ylw_slt.png","../images/pnk_blu.png","../images/gry_blk.png","../images/org_blu.png"],"mutagen_generator_assignment":[0,1],"goal":0,"start":4,"action_noise":0,"location_history":"[4,0]","action_history":"[0]","mutagen_history":"[0]","location_rts":"[2722]","trial_type":"fractal-mutation","trial_index":97,"time_elapsed":1234664,"internal_node_id":"0.0-5.0-43.0"},{"group":"hexagon_tri","fractal_assignment":["../images/blu_wht.png","../images/cyn_red.png","../images/ylw_slt.png","../images/pnk_blu.png","../images/gry_blk.png","../images/org_blu.png"],"mutagen_generator_assignment":[0,1],"goal":3,"start":0,"action_noise":0,"location_history":"[0,1,5,0,1,3]","action_history":"[1,1,1,1,0]","mutagen_history":"[1,1,1,1,0]","location_rts":"[1058,282,928,674,314]","trial_type":"fractal-mutation","trial_index":98,"time_elapsed":1247690,"internal_node_id":"0.0-5.0-44.0"},{"group":"hexagon_tri","fractal_assignment":["../images/blu_wht.png","../images/cyn_red.png","../images/ylw_slt.png","../images/pnk_blu.png","../images/gry_blk.png","../images/org_blu.png"],"mutagen_generator_assignment":[0,1],"goal":0,"start":3,"action_noise":0,"location_history":"[3,4,0]","action_history":"[1,0]","mutagen_history":"[1,0]","location_rts":"[1186,312]","trial_type":"fractal-mutation","trial_index":99,"time_elapsed":1255488,"internal_node_id":"0.0-5.0-45.0"},{"group":"hexagon_tri","fractal_assignment":["../images/blu_wht.png","../images/cyn_red.png","../images/ylw_slt.png","../images/pnk_blu.png","../images/gry_blk.png","../images/org_blu.png"],"mutagen_generator_assignment":[0,1],"goal":4,"start":0,"action_noise":0,"location_history":"[0,5,4]","action_history":"[0,0]","mutagen_history":"[0,0]","location_rts":"[886,246]","trial_type":"fractal-mutation","trial_index":100,"time_elapsed":1262860,"internal_node_id":"0.0-5.0-46.0"},{"group":"hexagon_tri","fractal_assignment":["../images/blu_wht.png","../images/cyn_red.png","../images/ylw_slt.png","../images/pnk_blu.png","../images/gry_blk.png","../images/org_blu.png"],"mutagen_generator_assignment":[0,1],"goal":5,"start":4,"action_noise":0,"location_history":"[4,0,5]","action_history":"[0,0]","mutagen_history":"[0,0]","location_rts":"[904,306]","trial_type":"fractal-mutation","trial_index":101,"time_elapsed":1270344,"internal_node_id":"0.0-5.0-47.0"},{"group":"hexagon_tri","fractal_assignment":["../images/blu_wht.png","../images/cyn_red.png","../images/ylw_slt.png","../images/pnk_blu.png","../images/gry_blk.png","../images/org_blu.png"],"mutagen_generator_assignment":[0,1],"goal":2,"start":5,"action_noise":0,"location_history":"[5,4,2]","action_history":"[0,1]","mutagen_history":"[0,1]","location_rts":"[1566,222]","trial_type":"fractal-mutation","trial_index":102,"time_elapsed":1278434,"internal_node_id":"0.0-5.0-48.0"},{"group":"hexagon_tri","fractal_assignment":["../images/blu_wht.png","../images/cyn_red.png","../images/ylw_slt.png","../images/pnk_blu.png","../images/gry_blk.png","../images/org_blu.png"],"mutagen_generator_assignment":[0,1],"goal":1,"start":2,"action_noise":0,"location_history":"[2,1]","action_history":"[0]","mutagen_history":"[0]","location_rts":"[1520]","trial_type":"fractal-mutation","trial_index":103,"time_elapsed":1285094,"internal_node_id":"0.0-5.0-49.0"},{"view_history":"[{\"page_index\":0,\"viewing_time\":3420}]","rt":3422,"trial_type":"instructions","trial_index":104,"time_elapsed":1289516,"internal_node_id":"0.0-6.0"},{"rt":8028,"responses":"{\"Q0\":\"memory\"}","trial_type":"survey-text","trial_index":105,"time_elapsed":1298558,"internal_node_id":"0.0-7.0-0.0"},{"rt":7576,"responses":"{\"Q0\":\"memory\"}","trial_type":"survey-text","trial_index":106,"time_elapsed":1307148,"internal_node_id":"0.0-7.0-1.0"},{"rt":21044,"responses":"{\"Q0\":\"<img src='../images/diagrams/hexagon_tri.png'>\"}","trial_type":"survey-multi-choice","trial_index":107,"time_elapsed":1329206,"internal_node_id":"0.0-7.0-2.0"},{"rt":104158,"assignments":["../images/blu_wht.png","../images/pnk_blu.png","../images/ylw_slt.png","../images/cyn_red.png","../images/gry_blk.png","../images/org_blu.png"],"trial_type":"drag-drop-on-image","trial_index":108,"time_elapsed":1434382,"internal_node_id":"0.0-7.0-3.0"},{"rt":4294,"responses":"{\"Q0\":\"4\"}","trial_type":"survey-likert","trial_index":109,"time_elapsed":1439688,"internal_node_id":"0.0-7.0-4.0"},{"rt":18088,"responses":"{\"Q0\":\"you had to figure out the pattern. what leads to where or what.\"}","trial_type":"survey-text","trial_index":110,"time_elapsed":1458792,"internal_node_id":"0.0-7.0-5.0"},{"rt":4204,"responses":"{\"Q0\":\"Yes\"}","trial_type":"survey-multi-choice","trial_index":111,"time_elapsed":1464008,"internal_node_id":"0.0-7.0-6.0"},{"rt":7106,"responses":"{\"Q0\":\"During session 1\"}","trial_type":"survey-multi-choice","trial_index":112,"time_elapsed":1472128,"internal_node_id":"0.0-7.0-7.0"},{"rt":30604,"responses":"{\"Q0\":\"i felt like each experiment was almost the same just done differently\"}","trial_type":"survey-text","trial_index":113,"time_elapsed":1503738,"internal_node_id":"0.0-7.0-8.0"},{"rt":5956,"responses":"{\"Q0\":\"4\"}","trial_type":"survey-likert","trial_index":114,"time_elapsed":1510704,"internal_node_id":"0.0-7.0-9.0"},{"rt":29698,"responses":"{\"Q0\":\"Same structure\"}","trial_type":"survey-multi-choice","trial_index":115,"time_elapsed":1541410,"internal_node_id":"0.0-7.0-10.0"},{"rt":25800,"responses":"{\"Q0\":\"left (white) door = ray, right (black) door = acid\",\"Q1\":\"Not at all confident\"}","trial_type":"survey-multi-choice","trial_index":116,"time_elapsed":1568230,"internal_node_id":"0.0-7.0-11.0"},{"rt":7978,"responses":"{\"Q0\":\"25-35\",\"Q1\":\"Some college\",\"Q2\":\"Female\",\"Q3\":\"Hispanic\"}","trial_type":"survey-multi-choice","trial_index":117,"time_elapsed":1577250,"internal_node_id":"0.0-8.0"},{"rt":4592,"responses":"{\"Q0\":\"fun\"}","trial_type":"survey-text","trial_index":118,"time_elapsed":1582850,"internal_node_id":"0.0-9.0"}]