[{"view_history":"[{\"page_index\":0,\"viewing_time\":2662},{\"page_index\":1,\"viewing_time\":1475}]","rt":4138,"trial_type":"instructions","trial_index":0,"time_elapsed":4140,"internal_node_id":"0.0-0.0"},{"view_history":"[{\"page_index\":0,\"viewing_time\":3085},{\"page_index\":1,\"viewing_time\":2730}]","rt":5815,"trial_type":"instructions","trial_index":1,"time_elapsed":10956,"internal_node_id":"0.0-1.0"},{"group":"hexagon_bi","room_assignment":["blue","green","purple","yellow","grey","red"],"door_color_assignment":["black","white"],"door_generator_assignment":[0,1],"goal":2,"start":1,"action_noise":0,"location_history":"[1,2]","action_history":"[0]","door_history":"[0]","location_rts":"[9807]","trial_type":"two-door-navigation","trial_index":2,"time_elapsed":25806,"internal_node_id":"0.0-2.0-0.0"},{"group":"hexagon_bi","room_assignment":["blue","green","purple","yellow","grey","red"],"door_color_assignment":["black","white"],"door_generator_assignment":[0,1],"goal":0,"start":2,"action_noise":0,"location_history":"[2,1,0]","action_history":"[0,1]","door_history":"[0,1]","location_rts":"[6388,334]","trial_type":"two-door-navigation","trial_index":3,"time_elapsed":38575,"internal_node_id":"0.0-2.0-1.0"},{"group":"hexagon_bi","room_assignment":["blue","green","purple","yellow","grey","red"],"door_color_assignment":["black","white"],"door_generator_assignment":[0,1],"goal":5,"start":0,"action_noise":0,"location_history":"[0,5]","action_history":"[0]","door_history":"[0]","location_rts":"[7086]","trial_type":"two-door-navigation","trial_index":4,"time_elapsed":50713,"internal_node_id":"0.0-2.0-2.0"},{"group":"hexagon_bi","room_assignment":["blue","green","purple","yellow","grey","red"],"door_color_assignment":["black","white"],"door_generator_assignment":[0,1],"goal":1,"start":5,"action_noise":0,"location_history":"[5,0,1]","action_history":"[0,1]","door_history":"[0,1]","location_rts":"[3584,402]","trial_type":"two-door-navigation","trial_index":5,"time_elapsed":60748,"internal_node_id":"0.0-2.0-3.0"},{"group":"hexagon_bi","room_assignment":["blue","green","purple","yellow","grey","red"],"door_color_assignment":["black","white"],"door_generator_assignment":[0,1],"goal":3,"start":1,"action_noise":0,"location_history":"[1,2,3]","action_history":"[0,1]","door_history":"[0,1]","location_rts":"[177065,1158]","trial_type":"two-door-navigation","trial_index":6,"time_elapsed":245032,"internal_node_id":"0.0-2.0-4.0"},{"group":"hexagon_bi","room_assignment":["blue","green","purple","yellow","grey","red"],"door_color_assignment":["black","white"],"door_generator_assignment":[0,1],"goal":5,"start":3,"action_noise":0,"location_history":"[3,4,5]","action_history":"[0,1]","door_history":"[0,1]","location_rts":"[3422,277]","trial_type":"two-door-navigation","trial_index":7,"time_elapsed":254779,"internal_node_id":"0.0-2.0-5.0"},{"group":"hexagon_bi","room_assignment":["blue","green","purple","yellow","grey","red"],"door_color_assignment":["black","white"],"door_generator_assignment":[0,1],"goal":4,"start":5,"action_noise":0,"location_history":"[5,4]","action_history":"[1]","door_history":"[1]","location_rts":"[5790]","trial_type":"two-door-navigation","trial_index":8,"time_elapsed":265595,"internal_node_id":"0.0-2.0-6.0"},{"group":"hexagon_bi","room_assignment":["blue","green","purple","yellow","grey","red"],"door_color_assignment":["black","white"],"door_generator_assignment":[0,1],"goal":0,"start":4,"action_noise":0,"location_history":"[4,5,0]","action_history":"[1,0]","door_history":"[1,0]","location_rts":"[5488,287]","trial_type":"two-door-navigation","trial_index":9,"time_elapsed":277415,"internal_node_id":"0.0-2.0-7.0"},{"group":"hexagon_bi","room_assignment":["blue","green","purple","yellow","grey","red"],"door_color_assignment":["black","white"],"door_generator_assignment":[0,1],"goal":2,"start":0,"action_noise":0,"location_history":"[0,1,2]","action_history":"[1,0]","door_history":"[1,0]","location_rts":"[6544,305]","trial_type":"two-door-navigation","trial_index":10,"time_elapsed":290309,"internal_node_id":"0.0-2.0-8.0"},{"group":"hexagon_bi","room_assignment":["blue","green","purple","yellow","grey","red"],"door_color_assignment":["black","white"],"door_generator_assignment":[0,1],"goal":4,"start":2,"action_noise":0,"location_history":"[2,3,4]","action_history":"[1,0]","door_history":"[1,0]","location_rts":"[6823,345]","trial_type":"two-door-navigation","trial_index":11,"time_elapsed":303529,"internal_node_id":"0.0-2.0-9.0"},{"group":"hexagon_bi","room_assignment":["blue","green","purple","yellow","grey","red"],"door_color_assignment":["black","white"],"door_generator_assignment":[0,1],"goal":2,"start":4,"action_noise":0,"location_history":"[4,3,2]","action_history":"[0,1]","door_history":"[0,1]","location_rts":"[6861,305]","trial_type":"two-door-navigation","trial_index":12,"time_elapsed":316748,"internal_node_id":"0.0-2.0-10.0"},{"group":"hexagon_bi","room_assignment":["blue","green","purple","yellow","grey","red"],"door_color_assignment":["black","white"],"door_generator_assignment":[0,1],"goal":3,"start":2,"action_noise":0,"location_history":"[2,3]","action_history":"[1]","door_history":"[1]","location_rts":"[3598]","trial_type":"two-door-navigation","trial_index":13,"time_elapsed":325371,"internal_node_id":"0.0-2.0-11.0"},{"group":"hexagon_bi","room_assignment":["blue","green","purple","yellow","grey","red"],"door_color_assignment":["black","white"],"door_generator_assignment":[0,1],"goal":0,"start":3,"action_noise":0,"location_history":"[3,2,1,0]","action_history":"[1,0,1]","door_history":"[1,0,1]","location_rts":"[9209,671,511]","trial_type":"two-door-navigation","trial_index":14,"time_elapsed":342844,"internal_node_id":"0.0-2.0-12.0"},{"group":"hexagon_bi","room_assignment":["blue","green","purple","yellow","grey","red"],"door_color_assignment":["black","white"],"door_generator_assignment":[0,1],"goal":5,"start":0,"action_noise":0,"location_history":"[0,5]","action_history":"[0]","door_history":"[0]","location_rts":"[93484]","trial_type":"two-door-navigation","trial_index":15,"time_elapsed":441352,"internal_node_id":"0.0-2.0-13.0"},{"group":"hexagon_bi","room_assignment":["blue","green","purple","yellow","grey","red"],"door_color_assignment":["black","white"],"door_generator_assignment":[0,1],"goal":1,"start":5,"action_noise":0,"location_history":"[5,0,1]","action_history":"[0,1]","door_history":"[0,1]","location_rts":"[4566,382]","trial_type":"two-door-navigation","trial_index":16,"time_elapsed":452344,"internal_node_id":"0.0-2.0-14.0"},{"group":"hexagon_bi","room_assignment":["blue","green","purple","yellow","grey","red"],"door_color_assignment":["black","white"],"door_generator_assignment":[0,1],"goal":5,"start":1,"action_noise":0,"location_history":"[1,0,5]","action_history":"[1,0]","door_history":"[1,0]","location_rts":"[6009,871]","trial_type":"two-door-navigation","trial_index":17,"time_elapsed":465265,"internal_node_id":"0.0-2.0-15.0"},{"group":"hexagon_bi","room_assignment":["blue","green","purple","yellow","grey","red"],"door_color_assignment":["black","white"],"door_generator_assignment":[0,1],"goal":3,"start":5,"action_noise":0,"location_history":"[5,4,3]","action_history":"[1,0]","door_history":"[1,0]","location_rts":"[3354,1157]","trial_type":"two-door-navigation","trial_index":18,"time_elapsed":476771,"internal_node_id":"0.0-2.0-16.0"},{"group":"hexagon_bi","room_assignment":["blue","green","purple","yellow","grey","red"],"door_color_assignment":["black","white"],"door_generator_assignment":[0,1],"goal":2,"start":3,"action_noise":0,"location_history":"[3,2]","action_history":"[1]","door_history":"[1]","location_rts":"[17969]","trial_type":"two-door-navigation","trial_index":19,"time_elapsed":500763,"internal_node_id":"0.0-2.0-17.0"},{"group":"hexagon_bi","room_assignment":["blue","green","purple","yellow","grey","red"],"door_color_assignment":["black","white"],"door_generator_assignment":[0,1],"goal":1,"start":2,"action_noise":0,"location_history":"[2,1]","action_history":"[0]","door_history":"[0]","location_rts":"[3893]","trial_type":"two-door-navigation","trial_index":20,"time_elapsed":509680,"internal_node_id":"0.0-2.0-18.0"},{"group":"hexagon_bi","room_assignment":["blue","green","purple","yellow","grey","red"],"door_color_assignment":["black","white"],"door_generator_assignment":[0,1],"goal":4,"start":1,"action_noise":0,"location_history":"[1,0,5,4]","action_history":"[1,0,1]","door_history":"[1,0,1]","location_rts":"[4484,352,292]","trial_type":"two-door-navigation","trial_index":21,"time_elapsed":521876,"internal_node_id":"0.0-2.0-19.0"},{"group":"hexagon_bi","room_assignment":["blue","green","purple","yellow","grey","red"],"door_color_assignment":["black","white"],"door_generator_assignment":[0,1],"goal":0,"start":4,"action_noise":0,"location_history":"[4,5,0]","action_history":"[1,0]","door_history":"[1,0]","location_rts":"[4963,1111]","trial_type":"two-door-navigation","trial_index":22,"time_elapsed":534002,"internal_node_id":"0.0-2.0-20.0"},{"group":"hexagon_bi","room_assignment":["blue","green","purple","yellow","grey","red"],"door_color_assignment":["black","white"],"door_generator_assignment":[0,1],"goal":3,"start":0,"action_noise":0,"location_history":"[0,5,4,3]","action_history":"[0,1,0]","door_history":"[0,1,0]","location_rts":"[12212,506,725]","trial_type":"two-door-navigation","trial_index":23,"time_elapsed":554510,"internal_node_id":"0.0-2.0-21.0"},{"group":"hexagon_bi","room_assignment":["blue","green","purple","yellow","grey","red"],"door_color_assignment":["black","white"],"door_generator_assignment":[0,1],"goal":1,"start":3,"action_noise":0,"location_history":"[3,2,1]","action_history":"[1,0]","door_history":"[1,0]","location_rts":"[31735,489]","trial_type":"two-door-navigation","trial_index":24,"time_elapsed":592778,"internal_node_id":"0.0-2.0-22.0"},{"group":"hexagon_bi","room_assignment":["blue","green","purple","yellow","grey","red"],"door_color_assignment":["black","white"],"door_generator_assignment":[0,1],"goal":0,"start":1,"action_noise":0,"location_history":"[1,0]","action_history":"[1]","door_history":"[1]","location_rts":"[25571]","trial_type":"two-door-navigation","trial_index":25,"time_elapsed":623377,"internal_node_id":"0.0-2.0-23.0"},{"group":"hexagon_bi","room_assignment":["blue","green","purple","yellow","grey","red"],"door_color_assignment":["black","white"],"door_generator_assignment":[0,1],"goal":2,"start":0,"action_noise":0,"location_history":"[0,1,2]","action_history":"[1,0]","door_history":"[1,0]","location_rts":"[4881,749]","trial_type":"two-door-navigation","trial_index":26,"time_elapsed":635052,"internal_node_id":"0.0-2.0-24.0"},{"group":"hexagon_bi","room_assignment":["blue","green","purple","yellow","grey","red"],"door_color_assignment":["black","white"],"door_generator_assignment":[0,1],"goal":4,"start":2,"action_noise":0,"location_history":"[2,3,4]","action_history":"[1,0]","door_history":"[1,0]","location_rts":"[8228,499]","trial_type":"two-door-navigation","trial_index":27,"time_elapsed":649824,"internal_node_id":"0.0-2.0-25.0"},{"group":"hexagon_bi","room_assignment":["blue","green","purple","yellow","grey","red"],"door_color_assignment":["black","white"],"door_generator_assignment":[0,1],"goal":5,"start":4,"action_noise":0,"location_history":"[4,5]","action_history":"[1]","door_history":"[1]","location_rts":"[2812]","trial_type":"two-door-navigation","trial_index":28,"time_elapsed":657661,"internal_node_id":"0.0-2.0-26.0"},{"group":"hexagon_bi","room_assignment":["blue","green","purple","yellow","grey","red"],"door_color_assignment":["black","white"],"door_generator_assignment":[0,1],"goal":2,"start":5,"action_noise":0,"location_history":"[5,4,3,2]","action_history":"[1,0,1]","door_history":"[1,0,1]","location_rts":"[4910,550,381]","trial_type":"two-door-navigation","trial_index":29,"time_elapsed":670569,"internal_node_id":"0.0-2.0-27.0"},{"group":"hexagon_bi","room_assignment":["blue","green","purple","yellow","grey","red"],"door_color_assignment":["black","white"],"door_generator_assignment":[0,1],"goal":3,"start":2,"action_noise":0,"location_history":"[2,3]","action_history":"[1]","door_history":"[1]","location_rts":"[5025]","trial_type":"two-door-navigation","trial_index":30,"time_elapsed":680619,"internal_node_id":"0.0-2.0-28.0"},{"group":"hexagon_bi","room_assignment":["blue","green","purple","yellow","grey","red"],"door_color_assignment":["black","white"],"door_generator_assignment":[0,1],"goal":1,"start":3,"action_noise":0,"location_history":"[3,2,1]","action_history":"[1,0]","door_history":"[1,0]","location_rts":"[5902,1339]","trial_type":"two-door-navigation","trial_index":31,"time_elapsed":693905,"internal_node_id":"0.0-2.0-29.0"},{"group":"hexagon_bi","room_assignment":["blue","green","purple","yellow","grey","red"],"door_color_assignment":["black","white"],"door_generator_assignment":[0,1],"goal":4,"start":1,"action_noise":0,"location_history":"[1,0,5,4]","action_history":"[1,0,1]","door_history":"[1,0,1]","location_rts":"[10980,667,520]","trial_type":"two-door-navigation","trial_index":32,"time_elapsed":713147,"internal_node_id":"0.0-2.0-30.0"},{"group":"hexagon_bi","room_assignment":["blue","green","purple","yellow","grey","red"],"door_color_assignment":["black","white"],"door_generator_assignment":[0,1],"goal":5,"start":4,"action_noise":0,"location_history":"[4,5]","action_history":"[1]","door_history":"[1]","location_rts":"[2742]","trial_type":"two-door-navigation","trial_index":33,"time_elapsed":720913,"internal_node_id":"0.0-2.0-31.0"},{"group":"hexagon_bi","room_assignment":["blue","green","purple","yellow","grey","red"],"door_color_assignment":["black","white"],"door_generator_assignment":[0,1],"goal":0,"start":5,"action_noise":0,"location_history":"[5,0]","action_history":"[0]","door_history":"[0]","location_rts":"[2685]","trial_type":"two-door-navigation","trial_index":34,"time_elapsed":728622,"internal_node_id":"0.0-2.0-32.0"},{"group":"hexagon_bi","room_assignment":["blue","green","purple","yellow","grey","red"],"door_color_assignment":["black","white"],"door_generator_assignment":[0,1],"goal":2,"start":0,"action_noise":0,"location_history":"[0,1,2]","action_history":"[1,0]","door_history":"[1,0]","location_rts":"[6298,325]","trial_type":"two-door-navigation","trial_index":35,"time_elapsed":741294,"internal_node_id":"0.0-2.0-33.0"},{"group":"hexagon_bi","room_assignment":["blue","green","purple","yellow","grey","red"],"door_color_assignment":["black","white"],"door_generator_assignment":[0,1],"goal":0,"start":2,"action_noise":0,"location_history":"[2,1,0]","action_history":"[0,1]","door_history":"[0,1]","location_rts":"[6841,368]","trial_type":"two-door-navigation","trial_index":36,"time_elapsed":754547,"internal_node_id":"0.0-2.0-34.0"},{"group":"hexagon_bi","room_assignment":["blue","green","purple","yellow","grey","red"],"door_color_assignment":["black","white"],"door_generator_assignment":[0,1],"goal":5,"start":0,"action_noise":0,"location_history":"[0,5]","action_history":"[0]","door_history":"[0]","location_rts":"[5251]","trial_type":"two-door-navigation","trial_index":37,"time_elapsed":765728,"internal_node_id":"0.0-2.0-35.0"},{"group":"hexagon_bi","room_assignment":["blue","green","purple","yellow","grey","red"],"door_color_assignment":["black","white"],"door_generator_assignment":[0,1],"goal":1,"start":5,"action_noise":0,"location_history":"[5,0,1]","action_history":"[0,1]","door_history":"[0,1]","location_rts":"[4572,635]","trial_type":"two-door-navigation","trial_index":38,"time_elapsed":776989,"internal_node_id":"0.0-2.0-36.0"},{"group":"hexagon_bi","room_assignment":["blue","green","purple","yellow","grey","red"],"door_color_assignment":["black","white"],"door_generator_assignment":[0,1],"goal":4,"start":1,"action_noise":0,"location_history":"[1,0,5,4]","action_history":"[1,0,1]","door_history":"[1,0,1]","location_rts":"[8580,382,424]","trial_type":"two-door-navigation","trial_index":39,"time_elapsed":793441,"internal_node_id":"0.0-2.0-37.0"},{"group":"hexagon_bi","room_assignment":["blue","green","purple","yellow","grey","red"],"door_color_assignment":["black","white"],"door_generator_assignment":[0,1],"goal":3,"start":4,"action_noise":0,"location_history":"[4,3]","action_history":"[0]","door_history":"[0]","location_rts":"[3152]","trial_type":"two-door-navigation","trial_index":40,"time_elapsed":801618,"internal_node_id":"0.0-2.0-38.0"},{"group":"hexagon_bi","room_assignment":["blue","green","purple","yellow","grey","red"],"door_color_assignment":["black","white"],"door_generator_assignment":[0,1],"goal":5,"start":3,"action_noise":0,"location_history":"[3,4,5]","action_history":"[0,1]","door_history":"[0,1]","location_rts":"[5426,514]","trial_type":"two-door-navigation","trial_index":41,"time_elapsed":813603,"internal_node_id":"0.0-2.0-39.0"},{"group":"hexagon_bi","room_assignment":["blue","green","purple","yellow","grey","red"],"door_color_assignment":["black","white"],"door_generator_assignment":[0,1],"goal":1,"start":5,"action_noise":0,"location_history":"[5,0,1]","action_history":"[0,1]","door_history":"[0,1]","location_rts":"[3636,577]","trial_type":"two-door-navigation","trial_index":42,"time_elapsed":823863,"internal_node_id":"0.0-2.0-40.0"},{"group":"hexagon_bi","room_assignment":["blue","green","purple","yellow","grey","red"],"door_color_assignment":["black","white"],"door_generator_assignment":[0,1],"goal":2,"start":1,"action_noise":0,"location_history":"[1,2]","action_history":"[0]","door_history":"[0]","location_rts":"[6573]","trial_type":"two-door-navigation","trial_index":43,"time_elapsed":835463,"internal_node_id":"0.0-2.0-41.0"},{"group":"hexagon_bi","room_assignment":["blue","green","purple","yellow","grey","red"],"door_color_assignment":["black","white"],"door_generator_assignment":[0,1],"goal":4,"start":2,"action_noise":0,"location_history":"[2,3,4]","action_history":"[1,0]","door_history":"[1,0]","location_rts":"[9932,360]","trial_type":"two-door-navigation","trial_index":44,"time_elapsed":851801,"internal_node_id":"0.0-2.0-42.0"},{"group":"hexagon_bi","room_assignment":["blue","green","purple","yellow","grey","red"],"door_color_assignment":["black","white"],"door_generator_assignment":[0,1],"goal":0,"start":4,"action_noise":0,"location_history":"[4,5,0]","action_history":"[1,0]","door_history":"[1,0]","location_rts":"[4525,302]","trial_type":"two-door-navigation","trial_index":45,"time_elapsed":862674,"internal_node_id":"0.0-2.0-43.0"},{"group":"hexagon_bi","room_assignment":["blue","green","purple","yellow","grey","red"],"door_color_assignment":["black","white"],"door_generator_assignment":[0,1],"goal":3,"start":0,"action_noise":0,"location_history":"[0,5,4,3]","action_history":"[0,1,0]","door_history":"[0,1,0]","location_rts":"[9874,459,417]","trial_type":"two-door-navigation","trial_index":46,"time_elapsed":880487,"internal_node_id":"0.0-2.0-44.0"},{"group":"hexagon_bi","room_assignment":["blue","green","purple","yellow","grey","red"],"door_color_assignment":["black","white"],"door_generator_assignment":[0,1],"goal":0,"start":3,"action_noise":0,"location_history":"[3,2,1,0]","action_history":"[1,0,1]","door_history":"[1,0,1]","location_rts":"[6475,391,456]","trial_type":"two-door-navigation","trial_index":47,"time_elapsed":894873,"internal_node_id":"0.0-2.0-45.0"},{"group":"hexagon_bi","room_assignment":["blue","green","purple","yellow","grey","red"],"door_color_assignment":["black","white"],"door_generator_assignment":[0,1],"goal":4,"start":0,"action_noise":0,"location_history":"[0,5,4]","action_history":"[0,1]","door_history":"[0,1]","location_rts":"[7077,352]","trial_type":"two-door-navigation","trial_index":48,"time_elapsed":908347,"internal_node_id":"0.0-2.0-46.0"},{"group":"hexagon_bi","room_assignment":["blue","green","purple","yellow","grey","red"],"door_color_assignment":["black","white"],"door_generator_assignment":[0,1],"goal":5,"start":4,"action_noise":0,"location_history":"[4,5]","action_history":"[1]","door_history":"[1]","location_rts":"[2988]","trial_type":"two-door-navigation","trial_index":49,"time_elapsed":916361,"internal_node_id":"0.0-2.0-47.0"},{"group":"hexagon_bi","room_assignment":["blue","green","purple","yellow","grey","red"],"door_color_assignment":["black","white"],"door_generator_assignment":[0,1],"goal":2,"start":5,"action_noise":0,"location_history":"[5,4,3,2]","action_history":"[1,0,1]","door_history":"[1,0,1]","location_rts":"[7511,393,403]","trial_type":"two-door-navigation","trial_index":50,"time_elapsed":931740,"internal_node_id":"0.0-2.0-48.0"},{"group":"hexagon_bi","room_assignment":["blue","green","purple","yellow","grey","red"],"door_color_assignment":["black","white"],"door_generator_assignment":[0,1],"goal":1,"start":2,"action_noise":0,"location_history":"[2,1]","action_history":"[0]","door_history":"[0]","location_rts":"[5674]","trial_type":"two-door-navigation","trial_index":51,"time_elapsed":942439,"internal_node_id":"0.0-2.0-49.0"},{"view_history":"[{\"page_index\":0,\"viewing_time\":4598}]","rt":4598,"trial_type":"instructions","trial_index":52,"time_elapsed":948038,"internal_node_id":"0.0-3.0"},{"view_history":"[{\"page_index\":0,\"viewing_time\":1832},{\"page_index\":1,\"viewing_time\":3602}]","rt":5435,"trial_type":"instructions","trial_index":53,"time_elapsed":954473,"internal_node_id":"0.0-4.0"},{"group":"hexagon_tri","fractal_assignment":["../images/blu_wht.png","../images/pnk_blu.png","../images/cyn_red.png","../images/ylw_slt.png","../images/org_blu.png","../images/gry_blk.png"],"mutagen_generator_assignment":[0,1],"goal":2,"start":1,"action_noise":0,"location_history":"[1,3,2]","action_history":"[0,0]","mutagen_history":"[0,0]","location_rts":"[20795,2309]","trial_type":"fractal-mutation","trial_index":54,"time_elapsed":983635,"internal_node_id":"0.0-5.0-0.0"},{"group":"hexagon_tri","fractal_assignment":["../images/blu_wht.png","../images/pnk_blu.png","../images/cyn_red.png","../images/ylw_slt.png","../images/org_blu.png","../images/gry_blk.png"],"mutagen_generator_assignment":[0,1],"goal":0,"start":2,"action_noise":0,"location_history":"[2,3,4,0]","action_history":"[1,1,0]","mutagen_history":"[1,1,0]","location_rts":"[13087,13073,4930]","trial_type":"fractal-mutation","trial_index":55,"time_elapsed":1021851,"internal_node_id":"0.0-5.0-1.0"},{"group":"hexagon_tri","fractal_assignment":["../images/blu_wht.png","../images/pnk_blu.png","../images/cyn_red.png","../images/ylw_slt.png","../images/org_blu.png","../images/gry_blk.png"],"mutagen_generator_assignment":[0,1],"goal":5,"start":0,"action_noise":0,"location_history":"[0,5]","action_history":"[0]","mutagen_history":"[0]","location_rts":"[5712]","trial_type":"fractal-mutation","trial_index":56,"time_elapsed":1032592,"internal_node_id":"0.0-5.0-2.0"},{"group":"hexagon_tri","fractal_assignment":["../images/blu_wht.png","../images/pnk_blu.png","../images/cyn_red.png","../images/ylw_slt.png","../images/org_blu.png","../images/gry_blk.png"],"mutagen_generator_assignment":[0,1],"goal":1,"start":5,"action_noise":0,"location_history":"[5,4,2,1]","action_history":"[0,1,0]","mutagen_history":"[0,1,0]","location_rts":"[42142,6443,2631]","trial_type":"fractal-mutation","trial_index":57,"time_elapsed":1090904,"internal_node_id":"0.0-5.0-3.0"},{"group":"hexagon_tri","fractal_assignment":["../images/blu_wht.png","../images/pnk_blu.png","../images/cyn_red.png","../images/ylw_slt.png","../images/org_blu.png","../images/gry_blk.png"],"mutagen_generator_assignment":[0,1],"goal":3,"start":1,"action_noise":0,"location_history":"[1,3]","action_history":"[0]","mutagen_history":"[0]","location_rts":"[4071]","trial_type":"fractal-mutation","trial_index":58,"time_elapsed":1100001,"internal_node_id":"0.0-5.0-4.0"},{"group":"hexagon_tri","fractal_assignment":["../images/blu_wht.png","../images/pnk_blu.png","../images/cyn_red.png","../images/ylw_slt.png","../images/org_blu.png","../images/gry_blk.png"],"mutagen_generator_assignment":[0,1],"goal":5,"start":3,"action_noise":0,"location_history":"[3,4,0,5]","action_history":"[1,0,0]","mutagen_history":"[1,0,0]","location_rts":"[7838,6446,1531]","trial_type":"fractal-mutation","trial_index":59,"time_elapsed":1122913,"internal_node_id":"0.0-5.0-5.0"},{"group":"hexagon_tri","fractal_assignment":["../images/blu_wht.png","../images/pnk_blu.png","../images/cyn_red.png","../images/ylw_slt.png","../images/org_blu.png","../images/gry_blk.png"],"mutagen_generator_assignment":[0,1],"goal":4,"start":5,"action_noise":0,"location_history":"[5,4]","action_history":"[0]","mutagen_history":"[0]","location_rts":"[3247]","trial_type":"fractal-mutation","trial_index":60,"time_elapsed":1131185,"internal_node_id":"0.0-5.0-6.0"},{"group":"hexagon_tri","fractal_assignment":["../images/blu_wht.png","../images/pnk_blu.png","../images/cyn_red.png","../images/ylw_slt.png","../images/org_blu.png","../images/gry_blk.png"],"mutagen_generator_assignment":[0,1],"goal":0,"start":4,"action_noise":0,"location_history":"[4,0]","action_history":"[0]","mutagen_history":"[0]","location_rts":"[3493]","trial_type":"fractal-mutation","trial_index":61,"time_elapsed":1139707,"internal_node_id":"0.0-5.0-7.0"},{"group":"hexagon_tri","fractal_assignment":["../images/blu_wht.png","../images/pnk_blu.png","../images/cyn_red.png","../images/ylw_slt.png","../images/org_blu.png","../images/gry_blk.png"],"mutagen_generator_assignment":[0,1],"goal":2,"start":0,"action_noise":0,"location_history":"[0,1,3,2]","action_history":"[1,0,0]","mutagen_history":"[1,0,0]","location_rts":"[8344,4895,698]","trial_type":"fractal-mutation","trial_index":62,"time_elapsed":1160732,"internal_node_id":"0.0-5.0-8.0"},{"group":"hexagon_tri","fractal_assignment":["../images/blu_wht.png","../images/pnk_blu.png","../images/cyn_red.png","../images/ylw_slt.png","../images/org_blu.png","../images/gry_blk.png"],"mutagen_generator_assignment":[0,1],"goal":4,"start":2,"action_noise":0,"location_history":"[2,3,4]","action_history":"[1,1]","mutagen_history":"[1,1]","location_rts":"[6181,6830]","trial_type":"fractal-mutation","trial_index":63,"time_elapsed":1179844,"internal_node_id":"0.0-5.0-9.0"},{"group":"hexagon_tri","fractal_assignment":["../images/blu_wht.png","../images/pnk_blu.png","../images/cyn_red.png","../images/ylw_slt.png","../images/org_blu.png","../images/gry_blk.png"],"mutagen_generator_assignment":[0,1],"goal":2,"start":4,"action_noise":0,"location_history":"[4,2]","action_history":"[1]","mutagen_history":"[1]","location_rts":"[7232]","trial_type":"fractal-mutation","trial_index":64,"time_elapsed":1192120,"internal_node_id":"0.0-5.0-10.0"},{"group":"hexagon_tri","fractal_assignment":["../images/blu_wht.png","../images/pnk_blu.png","../images/cyn_red.png","../images/ylw_slt.png","../images/org_blu.png","../images/gry_blk.png"],"mutagen_generator_assignment":[0,1],"goal":3,"start":2,"action_noise":0,"location_history":"[2,3]","action_history":"[1]","mutagen_history":"[1]","location_rts":"[3289]","trial_type":"fractal-mutation","trial_index":65,"time_elapsed":1200455,"internal_node_id":"0.0-5.0-11.0"},{"group":"hexagon_tri","fractal_assignment":["../images/blu_wht.png","../images/pnk_blu.png","../images/cyn_red.png","../images/ylw_slt.png","../images/org_blu.png","../images/gry_blk.png"],"mutagen_generator_assignment":[0,1],"goal":0,"start":3,"action_noise":0,"location_history":"[3,4,0]","action_history":"[1,0]","mutagen_history":"[1,0]","location_rts":"[13415,4285]","trial_type":"fractal-mutation","trial_index":66,"time_elapsed":1224224,"internal_node_id":"0.0-5.0-12.0"},{"group":"hexagon_tri","fractal_assignment":["../images/blu_wht.png","../images/pnk_blu.png","../images/cyn_red.png","../images/ylw_slt.png","../images/org_blu.png","../images/gry_blk.png"],"mutagen_generator_assignment":[0,1],"goal":5,"start":0,"action_noise":0,"location_history":"[0,5]","action_history":"[0]","mutagen_history":"[0]","location_rts":"[5526]","trial_type":"fractal-mutation","trial_index":67,"time_elapsed":1234776,"internal_node_id":"0.0-5.0-13.0"},{"group":"hexagon_tri","fractal_assignment":["../images/blu_wht.png","../images/pnk_blu.png","../images/cyn_red.png","../images/ylw_slt.png","../images/org_blu.png","../images/gry_blk.png"],"mutagen_generator_assignment":[0,1],"goal":1,"start":5,"action_noise":0,"location_history":"[5,4,2,1]","action_history":"[0,1,0]","mutagen_history":"[0,1,0]","location_rts":"[7853,5025,2989]","trial_type":"fractal-mutation","trial_index":68,"time_elapsed":1257731,"internal_node_id":"0.0-5.0-14.0"},{"group":"hexagon_tri","fractal_assignment":["../images/blu_wht.png","../images/pnk_blu.png","../images/cyn_red.png","../images/ylw_slt.png","../images/org_blu.png","../images/gry_blk.png"],"mutagen_generator_assignment":[0,1],"goal":5,"start":1,"action_noise":0,"location_history":"[1,5]","action_history":"[1]","mutagen_history":"[1]","location_rts":"[7222]","trial_type":"fractal-mutation","trial_index":69,"time_elapsed":1269999,"internal_node_id":"0.0-5.0-15.0"},{"group":"hexagon_tri","fractal_assignment":["../images/blu_wht.png","../images/pnk_blu.png","../images/cyn_red.png","../images/ylw_slt.png","../images/org_blu.png","../images/gry_blk.png"],"mutagen_generator_assignment":[0,1],"goal":3,"start":5,"action_noise":0,"location_history":"[5,4,2,3]","action_history":"[0,1,1]","mutagen_history":"[0,1,1]","location_rts":"[15490,6239,1703]","trial_type":"fractal-mutation","trial_index":70,"time_elapsed":1300541,"internal_node_id":"0.0-5.0-16.0"},{"group":"hexagon_tri","fractal_assignment":["../images/blu_wht.png","../images/pnk_blu.png","../images/cyn_red.png","../images/ylw_slt.png","../images/org_blu.png","../images/gry_blk.png"],"mutagen_generator_assignment":[0,1],"goal":2,"start":3,"action_noise":0,"location_history":"[3,2]","action_history":"[0]","mutagen_history":"[0]","location_rts":"[7124]","trial_type":"fractal-mutation","trial_index":71,"time_elapsed":1312691,"internal_node_id":"0.0-5.0-17.0"},{"group":"hexagon_tri","fractal_assignment":["../images/blu_wht.png","../images/pnk_blu.png","../images/cyn_red.png","../images/ylw_slt.png","../images/org_blu.png","../images/gry_blk.png"],"mutagen_generator_assignment":[0,1],"goal":1,"start":2,"action_noise":0,"location_history":"[2,1]","action_history":"[0]","mutagen_history":"[0]","location_rts":"[5789]","trial_type":"fractal-mutation","trial_index":72,"time_elapsed":1323506,"internal_node_id":"0.0-5.0-18.0"},{"group":"hexagon_tri","fractal_assignment":["../images/blu_wht.png","../images/pnk_blu.png","../images/cyn_red.png","../images/ylw_slt.png","../images/org_blu.png","../images/gry_blk.png"],"mutagen_generator_assignment":[0,1],"goal":4,"start":1,"action_noise":0,"location_history":"[1,5,4]","action_history":"[1,0]","mutagen_history":"[1,0]","location_rts":"[7174,3813]","trial_type":"fractal-mutation","trial_index":73,"time_elapsed":1340565,"internal_node_id":"0.0-5.0-19.0"},{"group":"hexagon_tri","fractal_assignment":["../images/blu_wht.png","../images/pnk_blu.png","../images/cyn_red.png","../images/ylw_slt.png","../images/org_blu.png","../images/gry_blk.png"],"mutagen_generator_assignment":[0,1],"goal":0,"start":4,"action_noise":0,"location_history":"[4,0]","action_history":"[0]","mutagen_history":"[0]","location_rts":"[3191]","trial_type":"fractal-mutation","trial_index":74,"time_elapsed":1348782,"internal_node_id":"0.0-5.0-20.0"},{"group":"hexagon_tri","fractal_assignment":["../images/blu_wht.png","../images/pnk_blu.png","../images/cyn_red.png","../images/ylw_slt.png","../images/org_blu.png","../images/gry_blk.png"],"mutagen_generator_assignment":[0,1],"goal":3,"start":0,"action_noise":0,"location_history":"[0,5,4,2,3]","action_history":"[0,0,1,1]","mutagen_history":"[0,0,1,1]","location_rts":"[26755,11469,5839,1015]","trial_type":"fractal-mutation","trial_index":75,"time_elapsed":1401995,"internal_node_id":"0.0-5.0-21.0"},{"group":"hexagon_tri","fractal_assignment":["../images/blu_wht.png","../images/pnk_blu.png","../images/cyn_red.png","../images/ylw_slt.png","../images/org_blu.png","../images/gry_blk.png"],"mutagen_generator_assignment":[0,1],"goal":1,"start":3,"action_noise":0,"location_history":"[3,2,1]","action_history":"[0,0]","mutagen_history":"[0,0]","location_rts":"[14018,1793]","trial_type":"fractal-mutation","trial_index":76,"time_elapsed":1423856,"internal_node_id":"0.0-5.0-22.0"},{"group":"hexagon_tri","fractal_assignment":["../images/blu_wht.png","../images/pnk_blu.png","../images/cyn_red.png","../images/ylw_slt.png","../images/org_blu.png","../images/gry_blk.png"],"mutagen_generator_assignment":[0,1],"goal":0,"start":1,"action_noise":0,"location_history":"[1,5,0]","action_history":"[1,1]","mutagen_history":"[1,1]","location_rts":"[17397,3234]","trial_type":"fractal-mutation","trial_index":77,"time_elapsed":1450573,"internal_node_id":"0.0-5.0-23.0"},{"group":"hexagon_tri","fractal_assignment":["../images/blu_wht.png","../images/pnk_blu.png","../images/cyn_red.png","../images/ylw_slt.png","../images/org_blu.png","../images/gry_blk.png"],"mutagen_generator_assignment":[0,1],"goal":2,"start":0,"action_noise":0,"location_history":"[0,1,3,2]","action_history":"[1,0,0]","mutagen_history":"[1,0,0]","location_rts":"[7051,9845,426]","trial_type":"fractal-mutation","trial_index":78,"time_elapsed":1474986,"internal_node_id":"0.0-5.0-24.0"},{"group":"hexagon_tri","fractal_assignment":["../images/blu_wht.png","../images/pnk_blu.png","../images/cyn_red.png","../images/ylw_slt.png","../images/org_blu.png","../images/gry_blk.png"],"mutagen_generator_assignment":[0,1],"goal":4,"start":2,"action_noise":0,"location_history":"[2,3,4]","action_history":"[1,1]","mutagen_history":"[1,1]","location_rts":"[4190,5127]","trial_type":"fractal-mutation","trial_index":79,"time_elapsed":1490387,"internal_node_id":"0.0-5.0-25.0"},{"group":"hexagon_tri","fractal_assignment":["../images/blu_wht.png","../images/pnk_blu.png","../images/cyn_red.png","../images/ylw_slt.png","../images/org_blu.png","../images/gry_blk.png"],"mutagen_generator_assignment":[0,1],"goal":5,"start":4,"action_noise":0,"location_history":"[4,0,5]","action_history":"[0,0]","mutagen_history":"[0,0]","location_rts":"[15287,641]","trial_type":"fractal-mutation","trial_index":80,"time_elapsed":1512364,"internal_node_id":"0.0-5.0-26.0"},{"group":"hexagon_tri","fractal_assignment":["../images/blu_wht.png","../images/pnk_blu.png","../images/cyn_red.png","../images/ylw_slt.png","../images/org_blu.png","../images/gry_blk.png"],"mutagen_generator_assignment":[0,1],"goal":2,"start":5,"action_noise":0,"location_history":"[5,0,1,3,2]","action_history":"[1,1,0,0]","mutagen_history":"[1,1,0,0]","location_rts":"[10118,5126,25108,921]","trial_type":"fractal-mutation","trial_index":81,"time_elapsed":1561771,"internal_node_id":"0.0-5.0-27.0"},{"group":"hexagon_tri","fractal_assignment":["../images/blu_wht.png","../images/pnk_blu.png","../images/cyn_red.png","../images/ylw_slt.png","../images/org_blu.png","../images/gry_blk.png"],"mutagen_generator_assignment":[0,1],"goal":3,"start":2,"action_noise":0,"location_history":"[2,3]","action_history":"[1]","mutagen_history":"[1]","location_rts":"[8954]","trial_type":"fractal-mutation","trial_index":82,"time_elapsed":1575771,"internal_node_id":"0.0-5.0-28.0"},{"group":"hexagon_tri","fractal_assignment":["../images/blu_wht.png","../images/pnk_blu.png","../images/cyn_red.png","../images/ylw_slt.png","../images/org_blu.png","../images/gry_blk.png"],"mutagen_generator_assignment":[0,1],"goal":1,"start":3,"action_noise":0,"location_history":"[3,2,1]","action_history":"[0,0]","mutagen_history":"[0,0]","location_rts":"[15594,2432]","trial_type":"fractal-mutation","trial_index":83,"time_elapsed":1599850,"internal_node_id":"0.0-5.0-29.0"},{"group":"hexagon_tri","fractal_assignment":["../images/blu_wht.png","../images/pnk_blu.png","../images/cyn_red.png","../images/ylw_slt.png","../images/org_blu.png","../images/gry_blk.png"],"mutagen_generator_assignment":[0,1],"goal":4,"start":1,"action_noise":0,"location_history":"[1,5,4]","action_history":"[1,0]","mutagen_history":"[1,0]","location_rts":"[7226,901]","trial_type":"fractal-mutation","trial_index":84,"time_elapsed":1614057,"internal_node_id":"0.0-5.0-30.0"},{"group":"hexagon_tri","fractal_assignment":["../images/blu_wht.png","../images/pnk_blu.png","../images/cyn_red.png","../images/ylw_slt.png","../images/org_blu.png","../images/gry_blk.png"],"mutagen_generator_assignment":[0,1],"goal":5,"start":4,"action_noise":0,"location_history":"[4,0,5]","action_history":"[0,0]","mutagen_history":"[0,0]","location_rts":"[8810,1530]","trial_type":"fractal-mutation","trial_index":85,"time_elapsed":1630451,"internal_node_id":"0.0-5.0-31.0"},{"group":"hexagon_tri","fractal_assignment":["../images/blu_wht.png","../images/pnk_blu.png","../images/cyn_red.png","../images/ylw_slt.png","../images/org_blu.png","../images/gry_blk.png"],"mutagen_generator_assignment":[0,1],"goal":0,"start":5,"action_noise":0,"location_history":"[5,0]","action_history":"[1]","mutagen_history":"[1]","location_rts":"[4357]","trial_type":"fractal-mutation","trial_index":86,"time_elapsed":1639850,"internal_node_id":"0.0-5.0-32.0"},{"group":"hexagon_tri","fractal_assignment":["../images/blu_wht.png","../images/pnk_blu.png","../images/cyn_red.png","../images/ylw_slt.png","../images/org_blu.png","../images/gry_blk.png"],"mutagen_generator_assignment":[0,1],"goal":2,"start":0,"action_noise":0,"location_history":"[0,1,5,0,5,4,2]","action_history":"[1,1,1,0,0,1]","mutagen_history":"[1,1,1,0,0,1]","location_rts":"[4892,3719,6494,300,11855,4561]","trial_type":"fractal-mutation","trial_index":87,"time_elapsed":1681898,"internal_node_id":"0.0-5.0-33.0"},{"group":"hexagon_tri","fractal_assignment":["../images/blu_wht.png","../images/pnk_blu.png","../images/cyn_red.png","../images/ylw_slt.png","../images/org_blu.png","../images/gry_blk.png"],"mutagen_generator_assignment":[0,1],"goal":0,"start":2,"action_noise":0,"location_history":"[2,3,4,0]","action_history":"[1,1,0]","mutagen_history":"[1,1,0]","location_rts":"[9166,3808,2472]","trial_type":"fractal-mutation","trial_index":88,"time_elapsed":1704451,"internal_node_id":"0.0-5.0-34.0"},{"group":"hexagon_tri","fractal_assignment":["../images/blu_wht.png","../images/pnk_blu.png","../images/cyn_red.png","../images/ylw_slt.png","../images/org_blu.png","../images/gry_blk.png"],"mutagen_generator_assignment":[0,1],"goal":5,"start":0,"action_noise":0,"location_history":"[0,5]","action_history":"[0]","mutagen_history":"[0]","location_rts":"[4244]","trial_type":"fractal-mutation","trial_index":89,"time_elapsed":1713724,"internal_node_id":"0.0-5.0-35.0"},{"group":"hexagon_tri","fractal_assignment":["../images/blu_wht.png","../images/pnk_blu.png","../images/cyn_red.png","../images/ylw_slt.png","../images/org_blu.png","../images/gry_blk.png"],"mutagen_generator_assignment":[0,1],"goal":1,"start":5,"action_noise":0,"location_history":"[5,4,2,1]","action_history":"[0,1,0]","mutagen_history":"[0,1,0]","location_rts":"[9467,3257,2237]","trial_type":"fractal-mutation","trial_index":90,"time_elapsed":1735777,"internal_node_id":"0.0-5.0-36.0"},{"group":"hexagon_tri","fractal_assignment":["../images/blu_wht.png","../images/pnk_blu.png","../images/cyn_red.png","../images/ylw_slt.png","../images/org_blu.png","../images/gry_blk.png"],"mutagen_generator_assignment":[0,1],"goal":4,"start":1,"action_noise":0,"location_history":"[1,5,4]","action_history":"[1,0]","mutagen_history":"[1,0]","location_rts":"[6760,1913]","trial_type":"fractal-mutation","trial_index":91,"time_elapsed":1750516,"internal_node_id":"0.0-5.0-37.0"},{"group":"hexagon_tri","fractal_assignment":["../images/blu_wht.png","../images/pnk_blu.png","../images/cyn_red.png","../images/ylw_slt.png","../images/org_blu.png","../images/gry_blk.png"],"mutagen_generator_assignment":[0,1],"goal":3,"start":4,"action_noise":0,"location_history":"[4,2,3]","action_history":"[1,1]","mutagen_history":"[1,1]","location_rts":"[5581,1215]","trial_type":"fractal-mutation","trial_index":92,"time_elapsed":1763398,"internal_node_id":"0.0-5.0-38.0"},{"group":"hexagon_tri","fractal_assignment":["../images/blu_wht.png","../images/pnk_blu.png","../images/cyn_red.png","../images/ylw_slt.png","../images/org_blu.png","../images/gry_blk.png"],"mutagen_generator_assignment":[0,1],"goal":5,"start":3,"action_noise":0,"location_history":"[3,4,0,5]","action_history":"[1,0,0]","mutagen_history":"[1,0,0]","location_rts":"[5586,5846,3904]","trial_type":"fractal-mutation","trial_index":93,"time_elapsed":1785827,"internal_node_id":"0.0-5.0-39.0"},{"group":"hexagon_tri","fractal_assignment":["../images/blu_wht.png","../images/pnk_blu.png","../images/cyn_red.png","../images/ylw_slt.png","../images/org_blu.png","../images/gry_blk.png"],"mutagen_generator_assignment":[0,1],"goal":1,"start":5,"action_noise":0,"location_history":"[5,0,1]","action_history":"[1,1]","mutagen_history":"[1,1]","location_rts":"[15238,1067]","trial_type":"fractal-mutation","trial_index":94,"time_elapsed":1808230,"internal_node_id":"0.0-5.0-40.0"},{"group":"hexagon_tri","fractal_assignment":["../images/blu_wht.png","../images/pnk_blu.png","../images/cyn_red.png","../images/ylw_slt.png","../images/org_blu.png","../images/gry_blk.png"],"mutagen_generator_assignment":[0,1],"goal":2,"start":1,"action_noise":0,"location_history":"[1,3,2]","action_history":"[0,0]","mutagen_history":"[0,0]","location_rts":"[7850,1841]","trial_type":"fractal-mutation","trial_index":95,"time_elapsed":1823972,"internal_node_id":"0.0-5.0-41.0"},{"group":"hexagon_tri","fractal_assignment":["../images/blu_wht.png","../images/pnk_blu.png","../images/cyn_red.png","../images/ylw_slt.png","../images/org_blu.png","../images/gry_blk.png"],"mutagen_generator_assignment":[0,1],"goal":4,"start":2,"action_noise":0,"location_history":"[2,3,4]","action_history":"[1,1]","mutagen_history":"[1,1]","location_rts":"[5012,3061]","trial_type":"fractal-mutation","trial_index":96,"time_elapsed":1838134,"internal_node_id":"0.0-5.0-42.0"},{"group":"hexagon_tri","fractal_assignment":["../images/blu_wht.png","../images/pnk_blu.png","../images/cyn_red.png","../images/ylw_slt.png","../images/org_blu.png","../images/gry_blk.png"],"mutagen_generator_assignment":[0,1],"goal":0,"start":4,"action_noise":0,"location_history":"[4,0]","action_history":"[0]","mutagen_history":"[0]","location_rts":"[5977]","trial_type":"fractal-mutation","trial_index":97,"time_elapsed":1849138,"internal_node_id":"0.0-5.0-43.0"},{"group":"hexagon_tri","fractal_assignment":["../images/blu_wht.png","../images/pnk_blu.png","../images/cyn_red.png","../images/ylw_slt.png","../images/org_blu.png","../images/gry_blk.png"],"mutagen_generator_assignment":[0,1],"goal":3,"start":0,"action_noise":0,"location_history":"[0,5,4,2,3]","action_history":"[0,0,1,1]","mutagen_history":"[0,0,1,1]","location_rts":"[9446,6971,5047,2246]","trial_type":"fractal-mutation","trial_index":98,"time_elapsed":1880983,"internal_node_id":"0.0-5.0-44.0"},{"group":"hexagon_tri","fractal_assignment":["../images/blu_wht.png","../images/pnk_blu.png","../images/cyn_red.png","../images/ylw_slt.png","../images/org_blu.png","../images/gry_blk.png"],"mutagen_generator_assignment":[0,1],"goal":0,"start":3,"action_noise":0,"location_history":"[3,4,0]","action_history":"[1,0]","mutagen_history":"[1,0]","location_rts":"[12001,1861]","trial_type":"fractal-mutation","trial_index":99,"time_elapsed":1900918,"internal_node_id":"0.0-5.0-45.0"},{"group":"hexagon_tri","fractal_assignment":["../images/blu_wht.png","../images/pnk_blu.png","../images/cyn_red.png","../images/ylw_slt.png","../images/org_blu.png","../images/gry_blk.png"],"mutagen_generator_assignment":[0,1],"goal":4,"start":0,"action_noise":0,"location_history":"[0,5,4]","action_history":"[0,0]","mutagen_history":"[0,0]","location_rts":"[5618,2017]","trial_type":"fractal-mutation","trial_index":100,"time_elapsed":1914602,"internal_node_id":"0.0-5.0-46.0"},{"group":"hexagon_tri","fractal_assignment":["../images/blu_wht.png","../images/pnk_blu.png","../images/cyn_red.png","../images/ylw_slt.png","../images/org_blu.png","../images/gry_blk.png"],"mutagen_generator_assignment":[0,1],"goal":5,"start":4,"action_noise":0,"location_history":"[4,0,5]","action_history":"[0,0]","mutagen_history":"[0,0]","location_rts":"[20392,1008]","trial_type":"fractal-mutation","trial_index":101,"time_elapsed":1942055,"internal_node_id":"0.0-5.0-47.0"},{"group":"hexagon_tri","fractal_assignment":["../images/blu_wht.png","../images/pnk_blu.png","../images/cyn_red.png","../images/ylw_slt.png","../images/org_blu.png","../images/gry_blk.png"],"mutagen_generator_assignment":[0,1],"goal":2,"start":5,"action_noise":0,"location_history":"[5,0,1,3,2]","action_history":"[1,1,0,0]","mutagen_history":"[1,1,0,0]","location_rts":"[8684,846,3063,1617]","trial_type":"fractal-mutation","trial_index":102,"time_elapsed":1964428,"internal_node_id":"0.0-5.0-48.0"},{"group":"hexagon_tri","fractal_assignment":["../images/blu_wht.png","../images/pnk_blu.png","../images/cyn_red.png","../images/ylw_slt.png","../images/org_blu.png","../images/gry_blk.png"],"mutagen_generator_assignment":[0,1],"goal":1,"start":2,"action_noise":0,"location_history":"[2,1]","action_history":"[0]","mutagen_history":"[0]","location_rts":"[6446]","trial_type":"fractal-mutation","trial_index":103,"time_elapsed":1975900,"internal_node_id":"0.0-5.0-49.0"},{"view_history":"[{\"page_index\":0,\"viewing_time\":4304}]","rt":4304,"trial_type":"instructions","trial_index":104,"time_elapsed":1981205,"internal_node_id":"0.0-6.0"},{"rt":16943,"responses":"{\"Q0\":\"my coordination ?\"}","trial_type":"survey-text","trial_index":105,"time_elapsed":1999156,"internal_node_id":"0.0-7.0-0.0"},{"rt":36522,"responses":"{\"Q0\":\"recognizing what sign is after another ( with two choice variable ) - memory\"}","trial_type":"survey-text","trial_index":106,"time_elapsed":2036681,"internal_node_id":"0.0-7.0-1.0"},{"rt":32970,"responses":"{\"Q0\":\"<img src='../images/diagrams/hexagon_tri.png'>\"}","trial_type":"survey-multi-choice","trial_index":107,"time_elapsed":2070660,"internal_node_id":"0.0-7.0-2.0"},{"rt":124229,"assignments":["../images/blu_wht.png","../images/gry_blk.png","../images/org_blu.png","../images/cyn_red.png","../images/ylw_slt.png","../images/pnk_blu.png"],"trial_type":"drag-drop-on-image","trial_index":108,"time_elapsed":2195893,"internal_node_id":"0.0-7.0-3.0"},{"rt":9372,"responses":"{\"Q0\":\"2\"}","trial_type":"survey-likert","trial_index":109,"time_elapsed":2206270,"internal_node_id":"0.0-7.0-4.0"},{"rt":20080,"responses":"{\"Q0\":\"there were two choices ( variables ) in each experiment. \"}","trial_type":"survey-text","trial_index":110,"time_elapsed":2227354,"internal_node_id":"0.0-7.0-5.0"},{"rt":8062,"responses":"{\"Q0\":\"No\"}","trial_type":"survey-multi-choice","trial_index":111,"time_elapsed":2236420,"internal_node_id":"0.0-7.0-6.0"},{"rt":8663,"responses":"{\"Q0\":\"Did not notice\"}","trial_type":"survey-multi-choice","trial_index":112,"time_elapsed":2246091,"internal_node_id":"0.0-7.0-7.0"},{"rt":7496,"responses":"{\"Q0\":\"n/a\"}","trial_type":"survey-text","trial_index":113,"time_elapsed":2254590,"internal_node_id":"0.0-7.0-8.0"},{"rt":8476,"responses":"{\"Q0\":\"0\"}","trial_type":"survey-likert","trial_index":114,"time_elapsed":2264069,"internal_node_id":"0.0-7.0-9.0"},{"rt":11766,"responses":"{\"Q0\":\"Different structure\"}","trial_type":"survey-multi-choice","trial_index":115,"time_elapsed":2276840,"internal_node_id":"0.0-7.0-10.0"},{"rt":31427,"responses":"{\"Q0\":\"left (black) door = acid, right (white) door = ray\",\"Q1\":\"Slightly confident\"}","trial_type":"survey-multi-choice","trial_index":116,"time_elapsed":2309277,"internal_node_id":"0.0-7.0-11.0"},{"rt":9979,"responses":"{\"Q0\":\"35-45\",\"Q1\":\"Some college\",\"Q2\":\"Male\",\"Q3\":\"White\"}","trial_type":"survey-multi-choice","trial_index":117,"time_elapsed":2320277,"internal_node_id":"0.0-8.0"},{"rt":4151,"responses":"{\"Q0\":\"ty!!!\"}","trial_type":"survey-text","trial_index":118,"time_elapsed":2325431,"internal_node_id":"0.0-9.0"}]