[{"view_history":"[{\"page_index\":0,\"viewing_time\":95389},{\"page_index\":1,\"viewing_time\":12798}]","rt":108188,"trial_type":"instructions","trial_index":0,"time_elapsed":108191,"internal_node_id":"0.0-0.0"},{"view_history":"[{\"page_index\":0,\"viewing_time\":5269},{\"page_index\":1,\"viewing_time\":18345}]","rt":23614,"trial_type":"instructions","trial_index":1,"time_elapsed":132806,"internal_node_id":"0.0-1.0"},{"group":"hexagon_tri","room_assignment":["blue","green","yellow","red","purple","grey"],"door_color_assignment":["white","black"],"door_generator_assignment":[0,1],"goal":2,"start":1,"action_noise":0,"location_history":"[1,3,2]","action_history":"[0,0]","door_history":"[0,0]","location_rts":"[7550,566]","trial_type":"two-door-navigation","trial_index":2,"time_elapsed":146934,"internal_node_id":"0.0-2.0-0.0"},{"group":"hexagon_tri","room_assignment":["blue","green","yellow","red","purple","grey"],"door_color_assignment":["white","black"],"door_generator_assignment":[0,1],"goal":0,"start":2,"action_noise":0,"location_history":"[2,3,4,0]","action_history":"[1,1,0]","door_history":"[1,1,0]","location_rts":"[46903,2675,1981]","trial_type":"two-door-navigation","trial_index":3,"time_elapsed":205503,"internal_node_id":"0.0-2.0-1.0"},{"group":"hexagon_tri","room_assignment":["blue","green","yellow","red","purple","grey"],"door_color_assignment":["white","black"],"door_generator_assignment":[0,1],"goal":5,"start":0,"action_noise":0,"location_history":"[0,5]","action_history":"[0]","door_history":"[0]","location_rts":"[2508]","trial_type":"two-door-navigation","trial_index":4,"time_elapsed":213020,"internal_node_id":"0.0-2.0-2.0"},{"group":"hexagon_tri","room_assignment":["blue","green","yellow","red","purple","grey"],"door_color_assignment":["white","black"],"door_generator_assignment":[0,1],"goal":1,"start":5,"action_noise":0,"location_history":"[5,0,1]","action_history":"[1,1]","door_history":"[1,1]","location_rts":"[33664,2184]","trial_type":"two-door-navigation","trial_index":5,"time_elapsed":254882,"internal_node_id":"0.0-2.0-3.0"},{"group":"hexagon_tri","room_assignment":["blue","green","yellow","red","purple","grey"],"door_color_assignment":["white","black"],"door_generator_assignment":[0,1],"goal":3,"start":1,"action_noise":0,"location_history":"[1,3]","action_history":"[0]","door_history":"[0]","location_rts":"[8219]","trial_type":"two-door-navigation","trial_index":6,"time_elapsed":268107,"internal_node_id":"0.0-2.0-4.0"},{"group":"hexagon_tri","room_assignment":["blue","green","yellow","red","purple","grey"],"door_color_assignment":["white","black"],"door_generator_assignment":[0,1],"goal":5,"start":3,"action_noise":0,"location_history":"[3,4,0,5]","action_history":"[1,0,0]","door_history":"[1,0,0]","location_rts":"[47150,3201,943]","trial_type":"two-door-navigation","trial_index":7,"time_elapsed":326412,"internal_node_id":"0.0-2.0-5.0"},{"group":"hexagon_tri","room_assignment":["blue","green","yellow","red","purple","grey"],"door_color_assignment":["white","black"],"door_generator_assignment":[0,1],"goal":4,"start":5,"action_noise":0,"location_history":"[5,4]","action_history":"[0]","door_history":"[0]","location_rts":"[2858]","trial_type":"two-door-navigation","trial_index":8,"time_elapsed":334276,"internal_node_id":"0.0-2.0-6.0"},{"group":"hexagon_tri","room_assignment":["blue","green","yellow","red","purple","grey"],"door_color_assignment":["white","black"],"door_generator_assignment":[0,1],"goal":0,"start":4,"action_noise":0,"location_history":"[4,0]","action_history":"[0]","door_history":"[0]","location_rts":"[4112]","trial_type":"two-door-navigation","trial_index":9,"time_elapsed":343391,"internal_node_id":"0.0-2.0-7.0"},{"group":"hexagon_tri","room_assignment":["blue","green","yellow","red","purple","grey"],"door_color_assignment":["white","black"],"door_generator_assignment":[0,1],"goal":2,"start":0,"action_noise":0,"location_history":"[0,1,3,2]","action_history":"[1,0,0]","door_history":"[1,0,0]","location_rts":"[29223,2754,999]","trial_type":"two-door-navigation","trial_index":10,"time_elapsed":383378,"internal_node_id":"0.0-2.0-8.0"},{"group":"hexagon_tri","room_assignment":["blue","green","yellow","red","purple","grey"],"door_color_assignment":["white","black"],"door_generator_assignment":[0,1],"goal":4,"start":2,"action_noise":0,"location_history":"[2,3,4]","action_history":"[1,1]","door_history":"[1,1]","location_rts":"[14330,462]","trial_type":"two-door-navigation","trial_index":11,"time_elapsed":404176,"internal_node_id":"0.0-2.0-9.0"},{"group":"hexagon_tri","room_assignment":["blue","green","yellow","red","purple","grey"],"door_color_assignment":["white","black"],"door_generator_assignment":[0,1],"goal":2,"start":4,"action_noise":0,"location_history":"[4,2]","action_history":"[1]","door_history":"[1]","location_rts":"[5276]","trial_type":"two-door-navigation","trial_index":12,"time_elapsed":414464,"internal_node_id":"0.0-2.0-10.0"},{"group":"hexagon_tri","room_assignment":["blue","green","yellow","red","purple","grey"],"door_color_assignment":["white","black"],"door_generator_assignment":[0,1],"goal":3,"start":2,"action_noise":0,"location_history":"[2,3]","action_history":"[1]","door_history":"[1]","location_rts":"[4091]","trial_type":"two-door-navigation","trial_index":13,"time_elapsed":423559,"internal_node_id":"0.0-2.0-11.0"},{"group":"hexagon_tri","room_assignment":["blue","green","yellow","red","purple","grey"],"door_color_assignment":["white","black"],"door_generator_assignment":[0,1],"goal":0,"start":3,"action_noise":0,"location_history":"[3,4,0]","action_history":"[1,0]","door_history":"[1,0]","location_rts":"[6327,871]","trial_type":"two-door-navigation","trial_index":14,"time_elapsed":436760,"internal_node_id":"0.0-2.0-12.0"},{"group":"hexagon_tri","room_assignment":["blue","green","yellow","red","purple","grey"],"door_color_assignment":["white","black"],"door_generator_assignment":[0,1],"goal":5,"start":0,"action_noise":0,"location_history":"[0,5]","action_history":"[0]","door_history":"[0]","location_rts":"[2819]","trial_type":"two-door-navigation","trial_index":15,"time_elapsed":444589,"internal_node_id":"0.0-2.0-13.0"},{"group":"hexagon_tri","room_assignment":["blue","green","yellow","red","purple","grey"],"door_color_assignment":["white","black"],"door_generator_assignment":[0,1],"goal":1,"start":5,"action_noise":0,"location_history":"[5,0,1]","action_history":"[1,1]","door_history":"[1,1]","location_rts":"[7814,508]","trial_type":"two-door-navigation","trial_index":16,"time_elapsed":458919,"internal_node_id":"0.0-2.0-14.0"},{"group":"hexagon_tri","room_assignment":["blue","green","yellow","red","purple","grey"],"door_color_assignment":["white","black"],"door_generator_assignment":[0,1],"goal":5,"start":1,"action_noise":0,"location_history":"[1,5]","action_history":"[1]","door_history":"[1]","location_rts":"[9965]","trial_type":"two-door-navigation","trial_index":17,"time_elapsed":473891,"internal_node_id":"0.0-2.0-15.0"},{"group":"hexagon_tri","room_assignment":["blue","green","yellow","red","purple","grey"],"door_color_assignment":["white","black"],"door_generator_assignment":[0,1],"goal":3,"start":5,"action_noise":0,"location_history":"[5,4,2,3]","action_history":"[0,1,1]","door_history":"[0,1,1]","location_rts":"[10298,1702,719]","trial_type":"two-door-navigation","trial_index":18,"time_elapsed":493619,"internal_node_id":"0.0-2.0-16.0"},{"group":"hexagon_tri","room_assignment":["blue","green","yellow","red","purple","grey"],"door_color_assignment":["white","black"],"door_generator_assignment":[0,1],"goal":2,"start":3,"action_noise":0,"location_history":"[3,2]","action_history":"[0]","door_history":"[0]","location_rts":"[15602]","trial_type":"two-door-navigation","trial_index":19,"time_elapsed":514224,"internal_node_id":"0.0-2.0-17.0"},{"group":"hexagon_tri","room_assignment":["blue","green","yellow","red","purple","grey"],"door_color_assignment":["white","black"],"door_generator_assignment":[0,1],"goal":1,"start":2,"action_noise":0,"location_history":"[2,1]","action_history":"[0]","door_history":"[0]","location_rts":"[3628]","trial_type":"two-door-navigation","trial_index":20,"time_elapsed":522858,"internal_node_id":"0.0-2.0-18.0"},{"group":"hexagon_tri","room_assignment":["blue","green","yellow","red","purple","grey"],"door_color_assignment":["white","black"],"door_generator_assignment":[0,1],"goal":4,"start":1,"action_noise":0,"location_history":"[1,3,4]","action_history":"[0,1]","door_history":"[0,1]","location_rts":"[15753,2550]","trial_type":"two-door-navigation","trial_index":21,"time_elapsed":547171,"internal_node_id":"0.0-2.0-19.0"},{"group":"hexagon_tri","room_assignment":["blue","green","yellow","red","purple","grey"],"door_color_assignment":["white","black"],"door_generator_assignment":[0,1],"goal":0,"start":4,"action_noise":0,"location_history":"[4,0]","action_history":"[0]","door_history":"[0]","location_rts":"[3858]","trial_type":"two-door-navigation","trial_index":22,"time_elapsed":556037,"internal_node_id":"0.0-2.0-20.0"},{"group":"hexagon_tri","room_assignment":["blue","green","yellow","red","purple","grey"],"door_color_assignment":["white","black"],"door_generator_assignment":[0,1],"goal":3,"start":0,"action_noise":0,"location_history":"[0,1,3]","action_history":"[1,0]","door_history":"[1,0]","location_rts":"[19257,1088]","trial_type":"two-door-navigation","trial_index":23,"time_elapsed":582392,"internal_node_id":"0.0-2.0-21.0"},{"group":"hexagon_tri","room_assignment":["blue","green","yellow","red","purple","grey"],"door_color_assignment":["white","black"],"door_generator_assignment":[0,1],"goal":1,"start":3,"action_noise":0,"location_history":"[3,2,1]","action_history":"[0,0]","door_history":"[0,0]","location_rts":"[18061,357]","trial_type":"two-door-navigation","trial_index":24,"time_elapsed":606818,"internal_node_id":"0.0-2.0-22.0"},{"group":"hexagon_tri","room_assignment":["blue","green","yellow","red","purple","grey"],"door_color_assignment":["white","black"],"door_generator_assignment":[0,1],"goal":0,"start":1,"action_noise":0,"location_history":"[1,3,4,2,1,5,4,0]","action_history":"[0,1,1,0,1,0,0]","door_history":"[0,1,1,0,1,0,0]","location_rts":"[84267,3410,1861,2229,969,2168,1364]","trial_type":"two-door-navigation","trial_index":25,"time_elapsed":714119,"internal_node_id":"0.0-2.0-23.0"},{"group":"hexagon_tri","room_assignment":["blue","green","yellow","red","purple","grey"],"door_color_assignment":["white","black"],"door_generator_assignment":[0,1],"goal":2,"start":0,"action_noise":0,"location_history":"[0,1,3,2]","action_history":"[1,0,0]","door_history":"[1,0,0]","location_rts":"[13599,870,638]","trial_type":"two-door-navigation","trial_index":26,"time_elapsed":736234,"internal_node_id":"0.0-2.0-24.0"},{"group":"hexagon_tri","room_assignment":["blue","green","yellow","red","purple","grey"],"door_color_assignment":["white","black"],"door_generator_assignment":[0,1],"goal":4,"start":2,"action_noise":0,"location_history":"[2,3,2,3,4]","action_history":"[1,0,1,1]","door_history":"[1,0,1,1]","location_rts":"[5364,1886,10686,557]","trial_type":"two-door-navigation","trial_index":27,"time_elapsed":762743,"internal_node_id":"0.0-2.0-25.0"},{"group":"hexagon_tri","room_assignment":["blue","green","yellow","red","purple","grey"],"door_color_assignment":["white","black"],"door_generator_assignment":[0,1],"goal":5,"start":4,"action_noise":0,"location_history":"[4,0,5]","action_history":"[0,0]","door_history":"[0,0]","location_rts":"[2879,460]","trial_type":"two-door-navigation","trial_index":28,"time_elapsed":772092,"internal_node_id":"0.0-2.0-26.0"},{"group":"hexagon_tri","room_assignment":["blue","green","yellow","red","purple","grey"],"door_color_assignment":["white","black"],"door_generator_assignment":[0,1],"goal":2,"start":5,"action_noise":0,"location_history":"[5,4,2]","action_history":"[0,1]","door_history":"[0,1]","location_rts":"[7587,370]","trial_type":"two-door-navigation","trial_index":29,"time_elapsed":786060,"internal_node_id":"0.0-2.0-27.0"},{"group":"hexagon_tri","room_assignment":["blue","green","yellow","red","purple","grey"],"door_color_assignment":["white","black"],"door_generator_assignment":[0,1],"goal":3,"start":2,"action_noise":0,"location_history":"[2,3]","action_history":"[1]","door_history":"[1]","location_rts":"[10297]","trial_type":"two-door-navigation","trial_index":30,"time_elapsed":801361,"internal_node_id":"0.0-2.0-28.0"},{"group":"hexagon_tri","room_assignment":["blue","green","yellow","red","purple","grey"],"door_color_assignment":["white","black"],"door_generator_assignment":[0,1],"goal":1,"start":3,"action_noise":0,"location_history":"[3,2,1]","action_history":"[0,0]","door_history":"[0,0]","location_rts":"[17349,320]","trial_type":"two-door-navigation","trial_index":31,"time_elapsed":825045,"internal_node_id":"0.0-2.0-29.0"},{"group":"hexagon_tri","room_assignment":["blue","green","yellow","red","purple","grey"],"door_color_assignment":["white","black"],"door_generator_assignment":[0,1],"goal":4,"start":1,"action_noise":0,"location_history":"[1,3,4]","action_history":"[0,1]","door_history":"[0,1]","location_rts":"[14489,416]","trial_type":"two-door-navigation","trial_index":32,"time_elapsed":845960,"internal_node_id":"0.0-2.0-30.0"},{"group":"hexagon_tri","room_assignment":["blue","green","yellow","red","purple","grey"],"door_color_assignment":["white","black"],"door_generator_assignment":[0,1],"goal":5,"start":4,"action_noise":0,"location_history":"[4,0,5]","action_history":"[0,0]","door_history":"[0,0]","location_rts":"[19830,406]","trial_type":"two-door-navigation","trial_index":33,"time_elapsed":872202,"internal_node_id":"0.0-2.0-31.0"},{"group":"hexagon_tri","room_assignment":["blue","green","yellow","red","purple","grey"],"door_color_assignment":["white","black"],"door_generator_assignment":[0,1],"goal":0,"start":5,"action_noise":0,"location_history":"[5,4,0]","action_history":"[0,0]","door_history":"[0,0]","location_rts":"[1388,451]","trial_type":"two-door-navigation","trial_index":34,"time_elapsed":880048,"internal_node_id":"0.0-2.0-32.0"},{"group":"hexagon_tri","room_assignment":["blue","green","yellow","red","purple","grey"],"door_color_assignment":["white","black"],"door_generator_assignment":[0,1],"goal":2,"start":0,"action_noise":0,"location_history":"[0,5,4,2]","action_history":"[0,0,1]","door_history":"[0,0,1]","location_rts":"[26061,340,428]","trial_type":"two-door-navigation","trial_index":35,"time_elapsed":913889,"internal_node_id":"0.0-2.0-33.0"},{"group":"hexagon_tri","room_assignment":["blue","green","yellow","red","purple","grey"],"door_color_assignment":["white","black"],"door_generator_assignment":[0,1],"goal":0,"start":2,"action_noise":0,"location_history":"[2,3,4,0]","action_history":"[1,1,0]","door_history":"[1,1,0]","location_rts":"[8773,611,428]","trial_type":"two-door-navigation","trial_index":36,"time_elapsed":930717,"internal_node_id":"0.0-2.0-34.0"},{"group":"hexagon_tri","room_assignment":["blue","green","yellow","red","purple","grey"],"door_color_assignment":["white","black"],"door_generator_assignment":[0,1],"goal":5,"start":0,"action_noise":0,"location_history":"[0,5]","action_history":"[0]","door_history":"[0]","location_rts":"[2135]","trial_type":"two-door-navigation","trial_index":37,"time_elapsed":937858,"internal_node_id":"0.0-2.0-35.0"},{"group":"hexagon_tri","room_assignment":["blue","green","yellow","red","purple","grey"],"door_color_assignment":["white","black"],"door_generator_assignment":[0,1],"goal":1,"start":5,"action_noise":0,"location_history":"[5,0,1]","action_history":"[1,1]","door_history":"[1,1]","location_rts":"[5428,723]","trial_type":"two-door-navigation","trial_index":38,"time_elapsed":950020,"internal_node_id":"0.0-2.0-36.0"},{"group":"hexagon_tri","room_assignment":["blue","green","yellow","red","purple","grey"],"door_color_assignment":["white","black"],"door_generator_assignment":[0,1],"goal":4,"start":1,"action_noise":0,"location_history":"[1,3,4]","action_history":"[0,1]","door_history":"[0,1]","location_rts":"[6825,1139]","trial_type":"two-door-navigation","trial_index":39,"time_elapsed":963993,"internal_node_id":"0.0-2.0-37.0"},{"group":"hexagon_tri","room_assignment":["blue","green","yellow","red","purple","grey"],"door_color_assignment":["white","black"],"door_generator_assignment":[0,1],"goal":3,"start":4,"action_noise":0,"location_history":"[4,2,3]","action_history":"[1,1]","door_history":"[1,1]","location_rts":"[6654,613]","trial_type":"two-door-navigation","trial_index":40,"time_elapsed":977266,"internal_node_id":"0.0-2.0-38.0"},{"group":"hexagon_tri","room_assignment":["blue","green","yellow","red","purple","grey"],"door_color_assignment":["white","black"],"door_generator_assignment":[0,1],"goal":5,"start":3,"action_noise":0,"location_history":"[3,4,0,5]","action_history":"[1,0,0]","door_history":"[1,0,0]","location_rts":"[14524,753,811]","trial_type":"two-door-navigation","trial_index":41,"time_elapsed":1000367,"internal_node_id":"0.0-2.0-39.0"},{"group":"hexagon_tri","room_assignment":["blue","green","yellow","red","purple","grey"],"door_color_assignment":["white","black"],"door_generator_assignment":[0,1],"goal":1,"start":5,"action_noise":0,"location_history":"[5,0,1]","action_history":"[1,1]","door_history":"[1,1]","location_rts":"[6207,377]","trial_type":"two-door-navigation","trial_index":42,"time_elapsed":1012955,"internal_node_id":"0.0-2.0-40.0"},{"group":"hexagon_tri","room_assignment":["blue","green","yellow","red","purple","grey"],"door_color_assignment":["white","black"],"door_generator_assignment":[0,1],"goal":2,"start":1,"action_noise":0,"location_history":"[1,3,2]","action_history":"[0,0]","door_history":"[0,0]","location_rts":"[8498,352]","trial_type":"two-door-navigation","trial_index":43,"time_elapsed":1027820,"internal_node_id":"0.0-2.0-41.0"},{"group":"hexagon_tri","room_assignment":["blue","green","yellow","red","purple","grey"],"door_color_assignment":["white","black"],"door_generator_assignment":[0,1],"goal":4,"start":2,"action_noise":0,"location_history":"[2,3,4]","action_history":"[1,1]","door_history":"[1,1]","location_rts":"[4643,430]","trial_type":"two-door-navigation","trial_index":44,"time_elapsed":1038902,"internal_node_id":"0.0-2.0-42.0"},{"group":"hexagon_tri","room_assignment":["blue","green","yellow","red","purple","grey"],"door_color_assignment":["white","black"],"door_generator_assignment":[0,1],"goal":0,"start":4,"action_noise":0,"location_history":"[4,0]","action_history":"[0]","door_history":"[0]","location_rts":"[11073]","trial_type":"two-door-navigation","trial_index":45,"time_elapsed":1054982,"internal_node_id":"0.0-2.0-43.0"},{"group":"hexagon_tri","room_assignment":["blue","green","yellow","red","purple","grey"],"door_color_assignment":["white","black"],"door_generator_assignment":[0,1],"goal":3,"start":0,"action_noise":0,"location_history":"[0,1,3]","action_history":"[1,0]","door_history":"[1,0]","location_rts":"[26447,354]","trial_type":"two-door-navigation","trial_index":46,"time_elapsed":1087797,"internal_node_id":"0.0-2.0-44.0"},{"group":"hexagon_tri","room_assignment":["blue","green","yellow","red","purple","grey"],"door_color_assignment":["white","black"],"door_generator_assignment":[0,1],"goal":0,"start":3,"action_noise":0,"location_history":"[3,4,0]","action_history":"[1,0]","door_history":"[1,0]","location_rts":"[6143,629]","trial_type":"two-door-navigation","trial_index":47,"time_elapsed":1100577,"internal_node_id":"0.0-2.0-45.0"},{"group":"hexagon_tri","room_assignment":["blue","green","yellow","red","purple","grey"],"door_color_assignment":["white","black"],"door_generator_assignment":[0,1],"goal":4,"start":0,"action_noise":0,"location_history":"[0,5,4]","action_history":"[0,0]","door_history":"[0,0]","location_rts":"[3490,623]","trial_type":"two-door-navigation","trial_index":48,"time_elapsed":1110698,"internal_node_id":"0.0-2.0-46.0"},{"group":"hexagon_tri","room_assignment":["blue","green","yellow","red","purple","grey"],"door_color_assignment":["white","black"],"door_generator_assignment":[0,1],"goal":5,"start":4,"action_noise":0,"location_history":"[4,0,5]","action_history":"[0,0]","door_history":"[0,0]","location_rts":"[5595,371]","trial_type":"two-door-navigation","trial_index":49,"time_elapsed":1122677,"internal_node_id":"0.0-2.0-47.0"},{"group":"hexagon_tri","room_assignment":["blue","green","yellow","red","purple","grey"],"door_color_assignment":["white","black"],"door_generator_assignment":[0,1],"goal":2,"start":5,"action_noise":0,"location_history":"[5,4,2]","action_history":"[0,1]","door_history":"[0,1]","location_rts":"[7072,531]","trial_type":"two-door-navigation","trial_index":50,"time_elapsed":1136291,"internal_node_id":"0.0-2.0-48.0"},{"group":"hexagon_tri","room_assignment":["blue","green","yellow","red","purple","grey"],"door_color_assignment":["white","black"],"door_generator_assignment":[0,1],"goal":1,"start":2,"action_noise":0,"location_history":"[2,1]","action_history":"[0]","door_history":"[0]","location_rts":"[6012]","trial_type":"two-door-navigation","trial_index":51,"time_elapsed":1147308,"internal_node_id":"0.0-2.0-49.0"},{"view_history":"[{\"page_index\":0,\"viewing_time\":84674}]","rt":84674,"trial_type":"instructions","trial_index":52,"time_elapsed":1232983,"internal_node_id":"0.0-3.0"},{"view_history":"[{\"page_index\":0,\"viewing_time\":4809},{\"page_index\":1,\"viewing_time\":48342}]","rt":53152,"trial_type":"instructions","trial_index":53,"time_elapsed":1287135,"internal_node_id":"0.0-4.0"},{"group":"hexagon_bi","fractal_assignment":["../images/pnk_blu.png","../images/gry_blk.png","../images/ylw_slt.png","../images/org_blu.png","../images/blu_wht.png","../images/cyn_red.png"],"mutagen_generator_assignment":[0,1],"goal":2,"start":1,"action_noise":0,"location_history":"[1,0,5,4,3,4,5,4,3,4,5,0,1,2]","action_history":"[1,0,1,0,0,1,1,0,0,1,0,1,0]","mutagen_history":"[1,0,1,0,0,1,1,0,0,1,0,1,0]","location_rts":"[4602,657,995,598,752,564,770,950,465,454,1337,866,697]","trial_type":"fractal-mutation","trial_index":54,"time_elapsed":1317977,"internal_node_id":"0.0-5.0-0.0"},{"group":"hexagon_bi","fractal_assignment":["../images/pnk_blu.png","../images/gry_blk.png","../images/ylw_slt.png","../images/org_blu.png","../images/blu_wht.png","../images/cyn_red.png"],"mutagen_generator_assignment":[0,1],"goal":0,"start":2,"action_noise":0,"location_history":"[2,3,4,5,0]","action_history":"[1,0,1,0]","mutagen_history":"[1,0,1,0]","location_rts":"[3648,723,679,596]","trial_type":"fractal-mutation","trial_index":55,"time_elapsed":1331675,"internal_node_id":"0.0-5.0-1.0"},{"group":"hexagon_bi","fractal_assignment":["../images/pnk_blu.png","../images/gry_blk.png","../images/ylw_slt.png","../images/org_blu.png","../images/blu_wht.png","../images/cyn_red.png"],"mutagen_generator_assignment":[0,1],"goal":5,"start":0,"action_noise":0,"location_history":"[0,1,2,3,4,5]","action_history":"[1,0,1,0,1]","mutagen_history":"[1,0,1,0,1]","location_rts":"[3470,683,644,650,689]","trial_type":"fractal-mutation","trial_index":56,"time_elapsed":1346864,"internal_node_id":"0.0-5.0-2.0"},{"group":"hexagon_bi","fractal_assignment":["../images/pnk_blu.png","../images/gry_blk.png","../images/ylw_slt.png","../images/org_blu.png","../images/blu_wht.png","../images/cyn_red.png"],"mutagen_generator_assignment":[0,1],"goal":1,"start":5,"action_noise":0,"location_history":"[5,4,3,4,5,0,1]","action_history":"[1,0,0,1,0,1]","mutagen_history":"[1,0,0,1,0,1]","location_rts":"[8713,851,4933,727,2269,757]","trial_type":"fractal-mutation","trial_index":57,"time_elapsed":1375148,"internal_node_id":"0.0-5.0-3.0"},{"group":"hexagon_bi","fractal_assignment":["../images/pnk_blu.png","../images/gry_blk.png","../images/ylw_slt.png","../images/org_blu.png","../images/blu_wht.png","../images/cyn_red.png"],"mutagen_generator_assignment":[0,1],"goal":3,"start":1,"action_noise":0,"location_history":"[1,2,3]","action_history":"[0,1]","mutagen_history":"[0,1]","location_rts":"[6686,516]","trial_type":"fractal-mutation","trial_index":58,"time_elapsed":1388361,"internal_node_id":"0.0-5.0-4.0"},{"group":"hexagon_bi","fractal_assignment":["../images/pnk_blu.png","../images/gry_blk.png","../images/ylw_slt.png","../images/org_blu.png","../images/blu_wht.png","../images/cyn_red.png"],"mutagen_generator_assignment":[0,1],"goal":5,"start":3,"action_noise":0,"location_history":"[3,2,1,0,5]","action_history":"[1,0,1,0]","mutagen_history":"[1,0,1,0]","location_rts":"[5392,1055,1701,1275]","trial_type":"fractal-mutation","trial_index":59,"time_elapsed":1405813,"internal_node_id":"0.0-5.0-5.0"},{"group":"hexagon_bi","fractal_assignment":["../images/pnk_blu.png","../images/gry_blk.png","../images/ylw_slt.png","../images/org_blu.png","../images/blu_wht.png","../images/cyn_red.png"],"mutagen_generator_assignment":[0,1],"goal":4,"start":5,"action_noise":0,"location_history":"[5,4]","action_history":"[1]","mutagen_history":"[1]","location_rts":"[5126]","trial_type":"fractal-mutation","trial_index":60,"time_elapsed":1415956,"internal_node_id":"0.0-5.0-6.0"},{"group":"hexagon_bi","fractal_assignment":["../images/pnk_blu.png","../images/gry_blk.png","../images/ylw_slt.png","../images/org_blu.png","../images/blu_wht.png","../images/cyn_red.png"],"mutagen_generator_assignment":[0,1],"goal":0,"start":4,"action_noise":0,"location_history":"[4,3,2,1,0]","action_history":"[0,1,0,1]","mutagen_history":"[0,1,0,1]","location_rts":"[7587,998,954,589]","trial_type":"fractal-mutation","trial_index":61,"time_elapsed":1434124,"internal_node_id":"0.0-5.0-7.0"},{"group":"hexagon_bi","fractal_assignment":["../images/pnk_blu.png","../images/gry_blk.png","../images/ylw_slt.png","../images/org_blu.png","../images/blu_wht.png","../images/cyn_red.png"],"mutagen_generator_assignment":[0,1],"goal":2,"start":0,"action_noise":0,"location_history":"[0,1,2]","action_history":"[1,0]","mutagen_history":"[1,0]","location_rts":"[5227,700]","trial_type":"fractal-mutation","trial_index":62,"time_elapsed":1446073,"internal_node_id":"0.0-5.0-8.0"},{"group":"hexagon_bi","fractal_assignment":["../images/pnk_blu.png","../images/gry_blk.png","../images/ylw_slt.png","../images/org_blu.png","../images/blu_wht.png","../images/cyn_red.png"],"mutagen_generator_assignment":[0,1],"goal":4,"start":2,"action_noise":0,"location_history":"[2,1,0,5,4]","action_history":"[0,1,0,1]","mutagen_history":"[0,1,0,1]","location_rts":"[2898,518,812,660]","trial_type":"fractal-mutation","trial_index":63,"time_elapsed":1458996,"internal_node_id":"0.0-5.0-9.0"},{"group":"hexagon_bi","fractal_assignment":["../images/pnk_blu.png","../images/gry_blk.png","../images/ylw_slt.png","../images/org_blu.png","../images/blu_wht.png","../images/cyn_red.png"],"mutagen_generator_assignment":[0,1],"goal":2,"start":4,"action_noise":0,"location_history":"[4,5,0,1,2]","action_history":"[1,0,1,0]","mutagen_history":"[1,0,1,0]","location_rts":"[4373,586,532,780]","trial_type":"fractal-mutation","trial_index":64,"time_elapsed":1473301,"internal_node_id":"0.0-5.0-10.0"},{"group":"hexagon_bi","fractal_assignment":["../images/pnk_blu.png","../images/gry_blk.png","../images/ylw_slt.png","../images/org_blu.png","../images/blu_wht.png","../images/cyn_red.png"],"mutagen_generator_assignment":[0,1],"goal":3,"start":2,"action_noise":0,"location_history":"[2,1,0,5,4,3]","action_history":"[0,1,0,1,0]","mutagen_history":"[0,1,0,1,0]","location_rts":"[2020,690,508,704,511]","trial_type":"fractal-mutation","trial_index":65,"time_elapsed":1486776,"internal_node_id":"0.0-5.0-11.0"},{"group":"hexagon_bi","fractal_assignment":["../images/pnk_blu.png","../images/gry_blk.png","../images/ylw_slt.png","../images/org_blu.png","../images/blu_wht.png","../images/cyn_red.png"],"mutagen_generator_assignment":[0,1],"goal":0,"start":3,"action_noise":0,"location_history":"[3,2,1,0]","action_history":"[1,0,1]","mutagen_history":"[1,0,1]","location_rts":"[3121,680,597]","trial_type":"fractal-mutation","trial_index":66,"time_elapsed":1498207,"internal_node_id":"0.0-5.0-12.0"},{"group":"hexagon_bi","fractal_assignment":["../images/pnk_blu.png","../images/gry_blk.png","../images/ylw_slt.png","../images/org_blu.png","../images/blu_wht.png","../images/cyn_red.png"],"mutagen_generator_assignment":[0,1],"goal":5,"start":0,"action_noise":0,"location_history":"[0,1,2,3,4,5]","action_history":"[1,0,1,0,1]","mutagen_history":"[1,0,1,0,1]","location_rts":"[3352,547,627,539,658]","trial_type":"fractal-mutation","trial_index":67,"time_elapsed":1512972,"internal_node_id":"0.0-5.0-13.0"},{"group":"hexagon_bi","fractal_assignment":["../images/pnk_blu.png","../images/gry_blk.png","../images/ylw_slt.png","../images/org_blu.png","../images/blu_wht.png","../images/cyn_red.png"],"mutagen_generator_assignment":[0,1],"goal":1,"start":5,"action_noise":0,"location_history":"[5,0,1]","action_history":"[0,1]","mutagen_history":"[0,1]","location_rts":"[6510,853]","trial_type":"fractal-mutation","trial_index":68,"time_elapsed":1526349,"internal_node_id":"0.0-5.0-14.0"},{"group":"hexagon_bi","fractal_assignment":["../images/pnk_blu.png","../images/gry_blk.png","../images/ylw_slt.png","../images/org_blu.png","../images/blu_wht.png","../images/cyn_red.png"],"mutagen_generator_assignment":[0,1],"goal":5,"start":1,"action_noise":0,"location_history":"[1,2,3,4,5]","action_history":"[0,1,0,1]","mutagen_history":"[0,1,0,1]","location_rts":"[5646,628,834,630]","trial_type":"fractal-mutation","trial_index":69,"time_elapsed":1542102,"internal_node_id":"0.0-5.0-15.0"},{"group":"hexagon_bi","fractal_assignment":["../images/pnk_blu.png","../images/gry_blk.png","../images/ylw_slt.png","../images/org_blu.png","../images/blu_wht.png","../images/cyn_red.png"],"mutagen_generator_assignment":[0,1],"goal":3,"start":5,"action_noise":0,"location_history":"[5,0,1,2,3]","action_history":"[0,1,0,1]","mutagen_history":"[0,1,0,1]","location_rts":"[4467,772,556,710]","trial_type":"fractal-mutation","trial_index":70,"time_elapsed":1556629,"internal_node_id":"0.0-5.0-16.0"},{"group":"hexagon_bi","fractal_assignment":["../images/pnk_blu.png","../images/gry_blk.png","../images/ylw_slt.png","../images/org_blu.png","../images/blu_wht.png","../images/cyn_red.png"],"mutagen_generator_assignment":[0,1],"goal":2,"start":3,"action_noise":0,"location_history":"[3,4,5,0,1,2]","action_history":"[0,1,0,1,0]","mutagen_history":"[0,1,0,1,0]","location_rts":"[2084,486,672,534,763]","trial_type":"fractal-mutation","trial_index":71,"time_elapsed":1570201,"internal_node_id":"0.0-5.0-17.0"},{"group":"hexagon_bi","fractal_assignment":["../images/pnk_blu.png","../images/gry_blk.png","../images/ylw_slt.png","../images/org_blu.png","../images/blu_wht.png","../images/cyn_red.png"],"mutagen_generator_assignment":[0,1],"goal":1,"start":2,"action_noise":0,"location_history":"[2,1]","action_history":"[0]","mutagen_history":"[0]","location_rts":"[1424]","trial_type":"fractal-mutation","trial_index":72,"time_elapsed":1576631,"internal_node_id":"0.0-5.0-18.0"},{"group":"hexagon_bi","fractal_assignment":["../images/pnk_blu.png","../images/gry_blk.png","../images/ylw_slt.png","../images/org_blu.png","../images/blu_wht.png","../images/cyn_red.png"],"mutagen_generator_assignment":[0,1],"goal":4,"start":1,"action_noise":0,"location_history":"[1,2,3,4]","action_history":"[0,1,0]","mutagen_history":"[0,1,0]","location_rts":"[2497,948,860]","trial_type":"fractal-mutation","trial_index":73,"time_elapsed":1587961,"internal_node_id":"0.0-5.0-19.0"},{"group":"hexagon_bi","fractal_assignment":["../images/pnk_blu.png","../images/gry_blk.png","../images/ylw_slt.png","../images/org_blu.png","../images/blu_wht.png","../images/cyn_red.png"],"mutagen_generator_assignment":[0,1],"goal":0,"start":4,"action_noise":0,"location_history":"[4,3,2,1,0]","action_history":"[0,1,0,1]","mutagen_history":"[0,1,0,1]","location_rts":"[1519,723,608,705]","trial_type":"fractal-mutation","trial_index":74,"time_elapsed":1599544,"internal_node_id":"0.0-5.0-20.0"},{"group":"hexagon_bi","fractal_assignment":["../images/pnk_blu.png","../images/gry_blk.png","../images/ylw_slt.png","../images/org_blu.png","../images/blu_wht.png","../images/cyn_red.png"],"mutagen_generator_assignment":[0,1],"goal":3,"start":0,"action_noise":0,"location_history":"[0,5,4,3]","action_history":"[0,1,0]","mutagen_history":"[0,1,0]","location_rts":"[5072,678,654]","trial_type":"fractal-mutation","trial_index":75,"time_elapsed":1612966,"internal_node_id":"0.0-5.0-21.0"},{"group":"hexagon_bi","fractal_assignment":["../images/pnk_blu.png","../images/gry_blk.png","../images/ylw_slt.png","../images/org_blu.png","../images/blu_wht.png","../images/cyn_red.png"],"mutagen_generator_assignment":[0,1],"goal":1,"start":3,"action_noise":0,"location_history":"[3,4,5,0,1]","action_history":"[0,1,0,1]","mutagen_history":"[0,1,0,1]","location_rts":"[1860,660,581,643]","trial_type":"fractal-mutation","trial_index":76,"time_elapsed":1624761,"internal_node_id":"0.0-5.0-22.0"},{"group":"hexagon_bi","fractal_assignment":["../images/pnk_blu.png","../images/gry_blk.png","../images/ylw_slt.png","../images/org_blu.png","../images/blu_wht.png","../images/cyn_red.png"],"mutagen_generator_assignment":[0,1],"goal":0,"start":1,"action_noise":0,"location_history":"[1,2,3,4,5,0]","action_history":"[0,1,0,1,0]","mutagen_history":"[0,1,0,1,0]","location_rts":"[3120,454,650,516,497]","trial_type":"fractal-mutation","trial_index":77,"time_elapsed":1639040,"internal_node_id":"0.0-5.0-23.0"},{"group":"hexagon_bi","fractal_assignment":["../images/pnk_blu.png","../images/gry_blk.png","../images/ylw_slt.png","../images/org_blu.png","../images/blu_wht.png","../images/cyn_red.png"],"mutagen_generator_assignment":[0,1],"goal":2,"start":0,"action_noise":0,"location_history":"[0,1,2]","action_history":"[1,0]","mutagen_history":"[1,0]","location_rts":"[2216,515]","trial_type":"fractal-mutation","trial_index":78,"time_elapsed":1647786,"internal_node_id":"0.0-5.0-24.0"},{"group":"hexagon_bi","fractal_assignment":["../images/pnk_blu.png","../images/gry_blk.png","../images/ylw_slt.png","../images/org_blu.png","../images/blu_wht.png","../images/cyn_red.png"],"mutagen_generator_assignment":[0,1],"goal":4,"start":2,"action_noise":0,"location_history":"[2,1,0,5,4]","action_history":"[0,1,0,1]","mutagen_history":"[0,1,0,1]","location_rts":"[3343,416,733,723]","trial_type":"fractal-mutation","trial_index":79,"time_elapsed":1661037,"internal_node_id":"0.0-5.0-25.0"},{"group":"hexagon_bi","fractal_assignment":["../images/pnk_blu.png","../images/gry_blk.png","../images/ylw_slt.png","../images/org_blu.png","../images/blu_wht.png","../images/cyn_red.png"],"mutagen_generator_assignment":[0,1],"goal":5,"start":4,"action_noise":0,"location_history":"[4,5]","action_history":"[1]","mutagen_history":"[1]","location_rts":"[1594]","trial_type":"fractal-mutation","trial_index":80,"time_elapsed":1667650,"internal_node_id":"0.0-5.0-26.0"},{"group":"hexagon_bi","fractal_assignment":["../images/pnk_blu.png","../images/gry_blk.png","../images/ylw_slt.png","../images/org_blu.png","../images/blu_wht.png","../images/cyn_red.png"],"mutagen_generator_assignment":[0,1],"goal":2,"start":5,"action_noise":0,"location_history":"[5,4,3,2]","action_history":"[1,0,1]","mutagen_history":"[1,0,1]","location_rts":"[2808,349,597]","trial_type":"fractal-mutation","trial_index":81,"time_elapsed":1678428,"internal_node_id":"0.0-5.0-27.0"},{"group":"hexagon_bi","fractal_assignment":["../images/pnk_blu.png","../images/gry_blk.png","../images/ylw_slt.png","../images/org_blu.png","../images/blu_wht.png","../images/cyn_red.png"],"mutagen_generator_assignment":[0,1],"goal":3,"start":2,"action_noise":0,"location_history":"[2,3]","action_history":"[1]","mutagen_history":"[1]","location_rts":"[3246]","trial_type":"fractal-mutation","trial_index":82,"time_elapsed":1686686,"internal_node_id":"0.0-5.0-28.0"},{"group":"hexagon_bi","fractal_assignment":["../images/pnk_blu.png","../images/gry_blk.png","../images/ylw_slt.png","../images/org_blu.png","../images/blu_wht.png","../images/cyn_red.png"],"mutagen_generator_assignment":[0,1],"goal":1,"start":3,"action_noise":0,"location_history":"[3,4,5,0,1]","action_history":"[0,1,0,1]","mutagen_history":"[0,1,0,1]","location_rts":"[1612,630,894,421]","trial_type":"fractal-mutation","trial_index":83,"time_elapsed":1698273,"internal_node_id":"0.0-5.0-29.0"},{"group":"hexagon_bi","fractal_assignment":["../images/pnk_blu.png","../images/gry_blk.png","../images/ylw_slt.png","../images/org_blu.png","../images/blu_wht.png","../images/cyn_red.png"],"mutagen_generator_assignment":[0,1],"goal":4,"start":1,"action_noise":0,"location_history":"[1,0,5,4]","action_history":"[1,0,1]","mutagen_history":"[1,0,1]","location_rts":"[2888,666,479]","trial_type":"fractal-mutation","trial_index":84,"time_elapsed":1709345,"internal_node_id":"0.0-5.0-30.0"},{"group":"hexagon_bi","fractal_assignment":["../images/pnk_blu.png","../images/gry_blk.png","../images/ylw_slt.png","../images/org_blu.png","../images/blu_wht.png","../images/cyn_red.png"],"mutagen_generator_assignment":[0,1],"goal":5,"start":4,"action_noise":0,"location_history":"[4,5]","action_history":"[1]","mutagen_history":"[1]","location_rts":"[1175]","trial_type":"fractal-mutation","trial_index":85,"time_elapsed":1715537,"internal_node_id":"0.0-5.0-31.0"},{"group":"hexagon_bi","fractal_assignment":["../images/pnk_blu.png","../images/gry_blk.png","../images/ylw_slt.png","../images/org_blu.png","../images/blu_wht.png","../images/cyn_red.png"],"mutagen_generator_assignment":[0,1],"goal":0,"start":5,"action_noise":0,"location_history":"[5,0]","action_history":"[0]","mutagen_history":"[0]","location_rts":"[3129]","trial_type":"fractal-mutation","trial_index":86,"time_elapsed":1723671,"internal_node_id":"0.0-5.0-32.0"},{"group":"hexagon_bi","fractal_assignment":["../images/pnk_blu.png","../images/gry_blk.png","../images/ylw_slt.png","../images/org_blu.png","../images/blu_wht.png","../images/cyn_red.png"],"mutagen_generator_assignment":[0,1],"goal":2,"start":0,"action_noise":0,"location_history":"[0,1,2]","action_history":"[1,0]","mutagen_history":"[1,0]","location_rts":"[1604,527]","trial_type":"fractal-mutation","trial_index":87,"time_elapsed":1731812,"internal_node_id":"0.0-5.0-33.0"},{"group":"hexagon_bi","fractal_assignment":["../images/pnk_blu.png","../images/gry_blk.png","../images/ylw_slt.png","../images/org_blu.png","../images/blu_wht.png","../images/cyn_red.png"],"mutagen_generator_assignment":[0,1],"goal":0,"start":2,"action_noise":0,"location_history":"[2,1,0]","action_history":"[0,1]","mutagen_history":"[0,1]","location_rts":"[1970,356]","trial_type":"fractal-mutation","trial_index":88,"time_elapsed":1740157,"internal_node_id":"0.0-5.0-34.0"},{"group":"hexagon_bi","fractal_assignment":["../images/pnk_blu.png","../images/gry_blk.png","../images/ylw_slt.png","../images/org_blu.png","../images/blu_wht.png","../images/cyn_red.png"],"mutagen_generator_assignment":[0,1],"goal":5,"start":0,"action_noise":0,"location_history":"[0,1,2,3,4,5]","action_history":"[1,0,1,0,1]","mutagen_history":"[1,0,1,0,1]","location_rts":"[2555,490,419,866,817]","trial_type":"fractal-mutation","trial_index":89,"time_elapsed":1754351,"internal_node_id":"0.0-5.0-35.0"},{"group":"hexagon_bi","fractal_assignment":["../images/pnk_blu.png","../images/gry_blk.png","../images/ylw_slt.png","../images/org_blu.png","../images/blu_wht.png","../images/cyn_red.png"],"mutagen_generator_assignment":[0,1],"goal":1,"start":5,"action_noise":0,"location_history":"[5,0,1]","action_history":"[0,1]","mutagen_history":"[0,1]","location_rts":"[3354,582]","trial_type":"fractal-mutation","trial_index":90,"time_elapsed":1764297,"internal_node_id":"0.0-5.0-36.0"},{"group":"hexagon_bi","fractal_assignment":["../images/pnk_blu.png","../images/gry_blk.png","../images/ylw_slt.png","../images/org_blu.png","../images/blu_wht.png","../images/cyn_red.png"],"mutagen_generator_assignment":[0,1],"goal":4,"start":1,"action_noise":0,"location_history":"[1,0,5,4]","action_history":"[1,0,1]","mutagen_history":"[1,0,1]","location_rts":"[2914,770,581]","trial_type":"fractal-mutation","trial_index":91,"time_elapsed":1775580,"internal_node_id":"0.0-5.0-37.0"},{"group":"hexagon_bi","fractal_assignment":["../images/pnk_blu.png","../images/gry_blk.png","../images/ylw_slt.png","../images/org_blu.png","../images/blu_wht.png","../images/cyn_red.png"],"mutagen_generator_assignment":[0,1],"goal":3,"start":4,"action_noise":0,"location_history":"[4,3]","action_history":"[0]","mutagen_history":"[0]","location_rts":"[2926]","trial_type":"fractal-mutation","trial_index":92,"time_elapsed":1783509,"internal_node_id":"0.0-5.0-38.0"},{"group":"hexagon_bi","fractal_assignment":["../images/pnk_blu.png","../images/gry_blk.png","../images/ylw_slt.png","../images/org_blu.png","../images/blu_wht.png","../images/cyn_red.png"],"mutagen_generator_assignment":[0,1],"goal":5,"start":3,"action_noise":0,"location_history":"[3,2,1,0,5]","action_history":"[1,0,1,0]","mutagen_history":"[1,0,1,0]","location_rts":"[1669,620,483,1805]","trial_type":"fractal-mutation","trial_index":93,"time_elapsed":1796120,"internal_node_id":"0.0-5.0-39.0"},{"group":"hexagon_bi","fractal_assignment":["../images/pnk_blu.png","../images/gry_blk.png","../images/ylw_slt.png","../images/org_blu.png","../images/blu_wht.png","../images/cyn_red.png"],"mutagen_generator_assignment":[0,1],"goal":1,"start":5,"action_noise":0,"location_history":"[5,0,1]","action_history":"[0,1]","mutagen_history":"[0,1]","location_rts":"[2144,1007]","trial_type":"fractal-mutation","trial_index":94,"time_elapsed":1805293,"internal_node_id":"0.0-5.0-40.0"},{"group":"hexagon_bi","fractal_assignment":["../images/pnk_blu.png","../images/gry_blk.png","../images/ylw_slt.png","../images/org_blu.png","../images/blu_wht.png","../images/cyn_red.png"],"mutagen_generator_assignment":[0,1],"goal":2,"start":1,"action_noise":0,"location_history":"[1,0,5,4,3,2]","action_history":"[1,0,1,0,1]","mutagen_history":"[1,0,1,0,1]","location_rts":"[2635,510,646,528,484]","trial_type":"fractal-mutation","trial_index":95,"time_elapsed":1819131,"internal_node_id":"0.0-5.0-41.0"},{"group":"hexagon_bi","fractal_assignment":["../images/pnk_blu.png","../images/gry_blk.png","../images/ylw_slt.png","../images/org_blu.png","../images/blu_wht.png","../images/cyn_red.png"],"mutagen_generator_assignment":[0,1],"goal":4,"start":2,"action_noise":0,"location_history":"[2,3,2,1,0,1,0,5,4]","action_history":"[1,1,0,1,1,1,0,1]","mutagen_history":"[1,1,0,1,1,1,0,1]","location_rts":"[3055,1379,1536,421,608,1176,672,1017]","trial_type":"fractal-mutation","trial_index":96,"time_elapsed":1841053,"internal_node_id":"0.0-5.0-42.0"},{"group":"hexagon_bi","fractal_assignment":["../images/pnk_blu.png","../images/gry_blk.png","../images/ylw_slt.png","../images/org_blu.png","../images/blu_wht.png","../images/cyn_red.png"],"mutagen_generator_assignment":[0,1],"goal":0,"start":4,"action_noise":0,"location_history":"[4,3,2,3,4,5,0]","action_history":"[0,1,1,0,1,0]","mutagen_history":"[0,1,1,0,1,0]","location_rts":"[3295,503,1027,628,498,542]","trial_type":"fractal-mutation","trial_index":97,"time_elapsed":1857577,"internal_node_id":"0.0-5.0-43.0"},{"group":"hexagon_bi","fractal_assignment":["../images/pnk_blu.png","../images/gry_blk.png","../images/ylw_slt.png","../images/org_blu.png","../images/blu_wht.png","../images/cyn_red.png"],"mutagen_generator_assignment":[0,1],"goal":3,"start":0,"action_noise":0,"location_history":"[0,1,2,3]","action_history":"[1,0,1]","mutagen_history":"[1,0,1]","location_rts":"[1664,690,453]","trial_type":"fractal-mutation","trial_index":98,"time_elapsed":1867409,"internal_node_id":"0.0-5.0-44.0"},{"group":"hexagon_bi","fractal_assignment":["../images/pnk_blu.png","../images/gry_blk.png","../images/ylw_slt.png","../images/org_blu.png","../images/blu_wht.png","../images/cyn_red.png"],"mutagen_generator_assignment":[0,1],"goal":0,"start":3,"action_noise":0,"location_history":"[3,2,1,0]","action_history":"[1,0,1]","mutagen_history":"[1,0,1]","location_rts":"[2601,558,597]","trial_type":"fractal-mutation","trial_index":99,"time_elapsed":1878188,"internal_node_id":"0.0-5.0-45.0"},{"group":"hexagon_bi","fractal_assignment":["../images/pnk_blu.png","../images/gry_blk.png","../images/ylw_slt.png","../images/org_blu.png","../images/blu_wht.png","../images/cyn_red.png"],"mutagen_generator_assignment":[0,1],"goal":4,"start":0,"action_noise":0,"location_history":"[0,5,4]","action_history":"[0,1]","mutagen_history":"[0,1]","location_rts":"[3982,658]","trial_type":"fractal-mutation","trial_index":100,"time_elapsed":1888853,"internal_node_id":"0.0-5.0-46.0"},{"group":"hexagon_bi","fractal_assignment":["../images/pnk_blu.png","../images/gry_blk.png","../images/ylw_slt.png","../images/org_blu.png","../images/blu_wht.png","../images/cyn_red.png"],"mutagen_generator_assignment":[0,1],"goal":5,"start":4,"action_noise":0,"location_history":"[4,5]","action_history":"[1]","mutagen_history":"[1]","location_rts":"[1474]","trial_type":"fractal-mutation","trial_index":101,"time_elapsed":1895344,"internal_node_id":"0.0-5.0-47.0"},{"group":"hexagon_bi","fractal_assignment":["../images/pnk_blu.png","../images/gry_blk.png","../images/ylw_slt.png","../images/org_blu.png","../images/blu_wht.png","../images/cyn_red.png"],"mutagen_generator_assignment":[0,1],"goal":2,"start":5,"action_noise":0,"location_history":"[5,4,3,2]","action_history":"[1,0,1]","mutagen_history":"[1,0,1]","location_rts":"[4235,437,835]","trial_type":"fractal-mutation","trial_index":102,"time_elapsed":1907890,"internal_node_id":"0.0-5.0-48.0"},{"group":"hexagon_bi","fractal_assignment":["../images/pnk_blu.png","../images/gry_blk.png","../images/ylw_slt.png","../images/org_blu.png","../images/blu_wht.png","../images/cyn_red.png"],"mutagen_generator_assignment":[0,1],"goal":1,"start":2,"action_noise":0,"location_history":"[2,1]","action_history":"[0]","mutagen_history":"[0]","location_rts":"[2215]","trial_type":"fractal-mutation","trial_index":103,"time_elapsed":1915110,"internal_node_id":"0.0-5.0-49.0"},{"view_history":"[{\"page_index\":0,\"viewing_time\":20201}]","rt":20203,"trial_type":"instructions","trial_index":104,"time_elapsed":1936312,"internal_node_id":"0.0-6.0"},{"rt":47587,"responses":"{\"Q0\":\"To see if you could learn the order of the rooms or at least picture it in your mind which way to go.\"}","trial_type":"survey-text","trial_index":105,"time_elapsed":1984905,"internal_node_id":"0.0-7.0-0.0"},{"rt":28332,"responses":"{\"Q0\":\"To see if you could learn the patterns that would lead to the correct answer.\"}","trial_type":"survey-text","trial_index":106,"time_elapsed":2014240,"internal_node_id":"0.0-7.0-1.0"},{"rt":113108,"responses":"{\"Q0\":\"<img src='../images/diagrams/hexagon_bi.png'>\"}","trial_type":"survey-multi-choice","trial_index":107,"time_elapsed":2128353,"internal_node_id":"0.0-7.0-2.0"},{"rt":97188,"assignments":["../images/pnk_blu.png","../images/ylw_slt.png","../images/gry_blk.png","../images/cyn_red.png","../images/blu_wht.png","../images/org_blu.png"],"trial_type":"drag-drop-on-image","trial_index":108,"time_elapsed":2226544,"internal_node_id":"0.0-7.0-3.0"},{"rt":26902,"responses":"{\"Q0\":\"2\"}","trial_type":"survey-likert","trial_index":109,"time_elapsed":2254449,"internal_node_id":"0.0-7.0-4.0"},{"rt":73783,"responses":"{\"Q0\":\"They both went by patterns to reach a certain outcome.  The first had more patterns to learn while the second had just a few.\"}","trial_type":"survey-text","trial_index":110,"time_elapsed":2329233,"internal_node_id":"0.0-7.0-5.0"},{"rt":15558,"responses":"{\"Q0\":\"Yes\"}","trial_type":"survey-multi-choice","trial_index":111,"time_elapsed":2345792,"internal_node_id":"0.0-7.0-6.0"},{"rt":22771,"responses":"{\"Q0\":\"During session 1\"}","trial_type":"survey-multi-choice","trial_index":112,"time_elapsed":2369568,"internal_node_id":"0.0-7.0-7.0"},{"rt":97735,"responses":"{\"Q0\":\"I just felt that they were pretty much the same thing, both were patterns that were somewhat similar but the first had many more outcomes while the second had just a few.\"}","trial_type":"survey-text","trial_index":113,"time_elapsed":2468305,"internal_node_id":"0.0-7.0-8.0"},{"rt":7909,"responses":"{\"Q0\":\"2\"}","trial_type":"survey-likert","trial_index":114,"time_elapsed":2477216,"internal_node_id":"0.0-7.0-9.0"},{"rt":26318,"responses":"{\"Q0\":\"Same structure\"}","trial_type":"survey-multi-choice","trial_index":115,"time_elapsed":2504537,"internal_node_id":"0.0-7.0-10.0"},{"rt":66588,"assignments":["../images/cyn_red.png","../images/blu_wht.png","../images/org_blu.png","../images/pnk_blu.png","../images/gry_blk.png","../images/ylw_slt.png"],"background_order":[5,1,0,4,3,2],"trial_type":"drag-drop-on-image","trial_index":116,"time_elapsed":2572127,"internal_node_id":"0.0-7.0-11.0"},{"rt":34910,"responses":"{\"Q0\":\"left (white) door = ray, right (black) door = acid\",\"Q1\":\"Slightly confident\"}","trial_type":"survey-multi-choice","trial_index":117,"time_elapsed":2608041,"internal_node_id":"0.0-7.0-12.0"},{"rt":29975,"responses":"{\"Q0\":\"45-55\",\"Q1\":\"Bachelor's degree\",\"Q2\":\"Female\",\"Q3\":\"White\"}","trial_type":"survey-multi-choice","trial_index":118,"time_elapsed":2639025,"internal_node_id":"0.0-8.0"},{"rt":86621,"responses":"{\"Q0\":\"I found this Hit interesting and enjoyable.  The first two hits worked fine in FireFox but this hit only worked in Chrome for me today.  It gave me a blank screen in FireFox.\"}","trial_type":"survey-text","trial_index":119,"time_elapsed":2726648,"internal_node_id":"0.0-9.0"}]