[{"view_history":"[{\"page_index\":0,\"viewing_time\":259266},{\"page_index\":1,\"viewing_time\":3406}]","rt":262673,"trial_type":"instructions","trial_index":0,"time_elapsed":262674,"internal_node_id":"0.0-0.0"},{"view_history":"[{\"page_index\":0,\"viewing_time\":3214},{\"page_index\":1,\"viewing_time\":1952}]","rt":5166,"trial_type":"instructions","trial_index":1,"time_elapsed":268841,"internal_node_id":"0.0-1.0"},{"group":"hexagon_bi","room_assignment":["grey","red","blue","yellow","purple","green"],"door_color_assignment":["black","white"],"door_generator_assignment":[1,0],"goal":2,"start":1,"action_noise":0,"location_history":"[1,2]","action_history":"[0]","door_history":"[1]","location_rts":"[1175]","trial_type":"two-door-navigation","trial_index":2,"time_elapsed":275042,"internal_node_id":"0.0-2.0-0.0"},{"group":"hexagon_bi","room_assignment":["grey","red","blue","yellow","purple","green"],"door_color_assignment":["black","white"],"door_generator_assignment":[1,0],"goal":0,"start":2,"action_noise":0,"location_history":"[2,1,0]","action_history":"[0,1]","door_history":"[1,0]","location_rts":"[829,287]","trial_type":"two-door-navigation","trial_index":3,"time_elapsed":282161,"internal_node_id":"0.0-2.0-1.0"},{"group":"hexagon_bi","room_assignment":["grey","red","blue","yellow","purple","green"],"door_color_assignment":["black","white"],"door_generator_assignment":[1,0],"goal":5,"start":0,"action_noise":0,"location_history":"[0,5]","action_history":"[0]","door_history":"[1]","location_rts":"[310]","trial_type":"two-door-navigation","trial_index":4,"time_elapsed":287473,"internal_node_id":"0.0-2.0-2.0"},{"group":"hexagon_bi","room_assignment":["grey","red","blue","yellow","purple","green"],"door_color_assignment":["black","white"],"door_generator_assignment":[1,0],"goal":1,"start":5,"action_noise":0,"location_history":"[5,0,1]","action_history":"[0,1]","door_history":"[1,0]","location_rts":"[245,335]","trial_type":"two-door-navigation","trial_index":5,"time_elapsed":294058,"internal_node_id":"0.0-2.0-3.0"},{"group":"hexagon_bi","room_assignment":["grey","red","blue","yellow","purple","green"],"door_color_assignment":["black","white"],"door_generator_assignment":[1,0],"goal":3,"start":1,"action_noise":0,"location_history":"[1,2,3]","action_history":"[0,1]","door_history":"[1,0]","location_rts":"[326,327]","trial_type":"two-door-navigation","trial_index":6,"time_elapsed":300723,"internal_node_id":"0.0-2.0-4.0"},{"group":"hexagon_bi","room_assignment":["grey","red","blue","yellow","purple","green"],"door_color_assignment":["black","white"],"door_generator_assignment":[1,0],"goal":5,"start":3,"action_noise":0,"location_history":"[3,4,5]","action_history":"[0,1]","door_history":"[1,0]","location_rts":"[267,246]","trial_type":"two-door-navigation","trial_index":7,"time_elapsed":307241,"internal_node_id":"0.0-2.0-5.0"},{"group":"hexagon_bi","room_assignment":["grey","red","blue","yellow","purple","green"],"door_color_assignment":["black","white"],"door_generator_assignment":[1,0],"goal":4,"start":5,"action_noise":0,"location_history":"[5,0,1,2,3,4]","action_history":"[0,1,0,1,0]","door_history":"[1,0,1,0,1]","location_rts":"[336,359,271,415,271]","trial_type":"two-door-navigation","trial_index":8,"time_elapsed":317907,"internal_node_id":"0.0-2.0-6.0"},{"group":"hexagon_bi","room_assignment":["grey","red","blue","yellow","purple","green"],"door_color_assignment":["black","white"],"door_generator_assignment":[1,0],"goal":0,"start":4,"action_noise":0,"location_history":"[4,3,2,1,0]","action_history":"[0,1,0,1]","door_history":"[1,0,1,0]","location_rts":"[348,303,292,336]","trial_type":"two-door-navigation","trial_index":9,"time_elapsed":327198,"internal_node_id":"0.0-2.0-7.0"},{"group":"hexagon_bi","room_assignment":["grey","red","blue","yellow","purple","green"],"door_color_assignment":["black","white"],"door_generator_assignment":[1,0],"goal":2,"start":0,"action_noise":0,"location_history":"[0,5,4,3,2]","action_history":"[0,1,0,1]","door_history":"[1,0,1,0]","location_rts":"[2683,109,358,234]","trial_type":"two-door-navigation","trial_index":10,"time_elapsed":338589,"internal_node_id":"0.0-2.0-8.0"},{"group":"hexagon_bi","room_assignment":["grey","red","blue","yellow","purple","green"],"door_color_assignment":["black","white"],"door_generator_assignment":[1,0],"goal":4,"start":2,"action_noise":0,"location_history":"[2,1,0,5,4]","action_history":"[0,1,0,1]","door_history":"[1,0,1,0]","location_rts":"[579,216,296,230]","trial_type":"two-door-navigation","trial_index":11,"time_elapsed":347914,"internal_node_id":"0.0-2.0-9.0"},{"group":"hexagon_bi","room_assignment":["grey","red","blue","yellow","purple","green"],"door_color_assignment":["black","white"],"door_generator_assignment":[1,0],"goal":2,"start":4,"action_noise":0,"location_history":"[4,3,2]","action_history":"[0,1]","door_history":"[1,0]","location_rts":"[359,248]","trial_type":"two-door-navigation","trial_index":12,"time_elapsed":354522,"internal_node_id":"0.0-2.0-10.0"},{"group":"hexagon_bi","room_assignment":["grey","red","blue","yellow","purple","green"],"door_color_assignment":["black","white"],"door_generator_assignment":[1,0],"goal":3,"start":2,"action_noise":0,"location_history":"[2,1,0,5,4,3]","action_history":"[0,1,0,1,0]","door_history":"[1,0,1,0,1]","location_rts":"[309,55,274,237,229]","trial_type":"two-door-navigation","trial_index":13,"time_elapsed":364633,"internal_node_id":"0.0-2.0-11.0"},{"group":"hexagon_bi","room_assignment":["grey","red","blue","yellow","purple","green"],"door_color_assignment":["black","white"],"door_generator_assignment":[1,0],"goal":0,"start":3,"action_noise":0,"location_history":"[3,4,5,0]","action_history":"[0,1,0]","door_history":"[1,0,1]","location_rts":"[309,232,262]","trial_type":"two-door-navigation","trial_index":14,"time_elapsed":372443,"internal_node_id":"0.0-2.0-12.0"},{"group":"hexagon_bi","room_assignment":["grey","red","blue","yellow","purple","green"],"door_color_assignment":["black","white"],"door_generator_assignment":[1,0],"goal":5,"start":0,"action_noise":0,"location_history":"[0,5]","action_history":"[0]","door_history":"[1]","location_rts":"[252]","trial_type":"two-door-navigation","trial_index":15,"time_elapsed":377698,"internal_node_id":"0.0-2.0-13.0"},{"group":"hexagon_bi","room_assignment":["grey","red","blue","yellow","purple","green"],"door_color_assignment":["black","white"],"door_generator_assignment":[1,0],"goal":1,"start":5,"action_noise":0,"location_history":"[5,0,1]","action_history":"[0,1]","door_history":"[1,0]","location_rts":"[396,328]","trial_type":"two-door-navigation","trial_index":16,"time_elapsed":384425,"internal_node_id":"0.0-2.0-14.0"},{"group":"hexagon_bi","room_assignment":["grey","red","blue","yellow","purple","green"],"door_color_assignment":["black","white"],"door_generator_assignment":[1,0],"goal":5,"start":1,"action_noise":0,"location_history":"[1,2,1,0,5]","action_history":"[0,0,1,0]","door_history":"[1,1,0,1]","location_rts":"[1463,18849,454,308]","trial_type":"two-door-navigation","trial_index":17,"time_elapsed":413508,"internal_node_id":"0.0-2.0-15.0"},{"group":"hexagon_bi","room_assignment":["grey","red","blue","yellow","purple","green"],"door_color_assignment":["black","white"],"door_generator_assignment":[1,0],"goal":3,"start":5,"action_noise":0,"location_history":"[5,0,1,2,3]","action_history":"[0,1,0,1]","door_history":"[1,0,1,0]","location_rts":"[1027,390,378,335]","trial_type":"two-door-navigation","trial_index":18,"time_elapsed":423651,"internal_node_id":"0.0-2.0-16.0"},{"group":"hexagon_bi","room_assignment":["grey","red","blue","yellow","purple","green"],"door_color_assignment":["black","white"],"door_generator_assignment":[1,0],"goal":2,"start":3,"action_noise":0,"location_history":"[3,2]","action_history":"[1]","door_history":"[0]","location_rts":"[436]","trial_type":"two-door-navigation","trial_index":19,"time_elapsed":429089,"internal_node_id":"0.0-2.0-17.0"},{"group":"hexagon_bi","room_assignment":["grey","red","blue","yellow","purple","green"],"door_color_assignment":["black","white"],"door_generator_assignment":[1,0],"goal":1,"start":2,"action_noise":0,"location_history":"[2,1]","action_history":"[0]","door_history":"[1]","location_rts":"[934]","trial_type":"two-door-navigation","trial_index":20,"time_elapsed":435027,"internal_node_id":"0.0-2.0-18.0"},{"group":"hexagon_bi","room_assignment":["grey","red","blue","yellow","purple","green"],"door_color_assignment":["black","white"],"door_generator_assignment":[1,0],"goal":4,"start":1,"action_noise":0,"location_history":"[1,0,5,4]","action_history":"[1,0,1]","door_history":"[0,1,0]","location_rts":"[1364,325,310]","trial_type":"two-door-navigation","trial_index":21,"time_elapsed":444033,"internal_node_id":"0.0-2.0-19.0"},{"group":"hexagon_bi","room_assignment":["grey","red","blue","yellow","purple","green"],"door_color_assignment":["black","white"],"door_generator_assignment":[1,0],"goal":0,"start":4,"action_noise":0,"location_history":"[4,3,2,1,0]","action_history":"[0,1,0,1]","door_history":"[1,0,1,0]","location_rts":"[478,466,551,278]","trial_type":"two-door-navigation","trial_index":22,"time_elapsed":453810,"internal_node_id":"0.0-2.0-20.0"},{"group":"hexagon_bi","room_assignment":["grey","red","blue","yellow","purple","green"],"door_color_assignment":["black","white"],"door_generator_assignment":[1,0],"goal":3,"start":0,"action_noise":0,"location_history":"[0,5,4,3]","action_history":"[0,1,0]","door_history":"[1,0,1]","location_rts":"[773,103,327]","trial_type":"two-door-navigation","trial_index":23,"time_elapsed":462021,"internal_node_id":"0.0-2.0-21.0"},{"group":"hexagon_bi","room_assignment":["grey","red","blue","yellow","purple","green"],"door_color_assignment":["black","white"],"door_generator_assignment":[1,0],"goal":1,"start":3,"action_noise":0,"location_history":"[3,4,5,0,1]","action_history":"[0,1,0,1]","door_history":"[1,0,1,0]","location_rts":"[435,496,337,343]","trial_type":"two-door-navigation","trial_index":24,"time_elapsed":471635,"internal_node_id":"0.0-2.0-22.0"},{"group":"hexagon_bi","room_assignment":["grey","red","blue","yellow","purple","green"],"door_color_assignment":["black","white"],"door_generator_assignment":[1,0],"goal":0,"start":1,"action_noise":0,"location_history":"[1,2,3,4,5,0]","action_history":"[0,1,0,1,0]","door_history":"[1,0,1,0,1]","location_rts":"[388,337,305,449,485]","trial_type":"two-door-navigation","trial_index":25,"time_elapsed":482601,"internal_node_id":"0.0-2.0-23.0"},{"group":"hexagon_bi","room_assignment":["grey","red","blue","yellow","purple","green"],"door_color_assignment":["black","white"],"door_generator_assignment":[1,0],"goal":2,"start":0,"action_noise":0,"location_history":"[0,5,4,3,2]","action_history":"[0,1,0,1]","door_history":"[1,0,1,0]","location_rts":"[439,176,229,481]","trial_type":"two-door-navigation","trial_index":26,"time_elapsed":491931,"internal_node_id":"0.0-2.0-24.0"},{"group":"hexagon_bi","room_assignment":["grey","red","blue","yellow","purple","green"],"door_color_assignment":["black","white"],"door_generator_assignment":[1,0],"goal":4,"start":2,"action_noise":0,"location_history":"[2,1,0,5,4]","action_history":"[0,1,0,1]","door_history":"[1,0,1,0]","location_rts":"[372,305,241,416]","trial_type":"two-door-navigation","trial_index":27,"time_elapsed":501274,"internal_node_id":"0.0-2.0-25.0"},{"group":"hexagon_bi","room_assignment":["grey","red","blue","yellow","purple","green"],"door_color_assignment":["black","white"],"door_generator_assignment":[1,0],"goal":5,"start":4,"action_noise":0,"location_history":"[4,3,2,1,0,5]","action_history":"[0,1,0,1,0]","door_history":"[1,0,1,0,1]","location_rts":"[541,416,329,231,431]","trial_type":"two-door-navigation","trial_index":28,"time_elapsed":512225,"internal_node_id":"0.0-2.0-26.0"},{"group":"hexagon_bi","room_assignment":["grey","red","blue","yellow","purple","green"],"door_color_assignment":["black","white"],"door_generator_assignment":[1,0],"goal":2,"start":5,"action_noise":0,"location_history":"[5,0,1,2]","action_history":"[0,1,0]","door_history":"[1,0,1]","location_rts":"[446,296,304]","trial_type":"two-door-navigation","trial_index":29,"time_elapsed":520273,"internal_node_id":"0.0-2.0-27.0"},{"group":"hexagon_bi","room_assignment":["grey","red","blue","yellow","purple","green"],"door_color_assignment":["black","white"],"door_generator_assignment":[1,0],"goal":3,"start":2,"action_noise":0,"location_history":"[2,1,0,5,4,3]","action_history":"[0,1,0,1,0]","door_history":"[1,0,1,0,1]","location_rts":"[520,178,274,281,287]","trial_type":"two-door-navigation","trial_index":30,"time_elapsed":530826,"internal_node_id":"0.0-2.0-28.0"},{"group":"hexagon_bi","room_assignment":["grey","red","blue","yellow","purple","green"],"door_color_assignment":["black","white"],"door_generator_assignment":[1,0],"goal":1,"start":3,"action_noise":0,"location_history":"[3,4,5,0,1]","action_history":"[0,1,0,1]","door_history":"[1,0,1,0]","location_rts":"[303,207,183,72]","trial_type":"two-door-navigation","trial_index":31,"time_elapsed":539591,"internal_node_id":"0.0-2.0-29.0"},{"group":"hexagon_bi","room_assignment":["grey","red","blue","yellow","purple","green"],"door_color_assignment":["black","white"],"door_generator_assignment":[1,0],"goal":4,"start":1,"action_noise":0,"location_history":"[1,2,3,4]","action_history":"[0,1,0]","door_history":"[1,0,1]","location_rts":"[430,327,688]","trial_type":"two-door-navigation","trial_index":32,"time_elapsed":548041,"internal_node_id":"0.0-2.0-30.0"},{"group":"hexagon_bi","room_assignment":["grey","red","blue","yellow","purple","green"],"door_color_assignment":["black","white"],"door_generator_assignment":[1,0],"goal":5,"start":4,"action_noise":0,"location_history":"[4,3,2,1,0,5]","action_history":"[0,1,0,1,0]","door_history":"[1,0,1,0,1]","location_rts":"[278,271,343,232,229]","trial_type":"two-door-navigation","trial_index":33,"time_elapsed":558401,"internal_node_id":"0.0-2.0-31.0"},{"group":"hexagon_bi","room_assignment":["grey","red","blue","yellow","purple","green"],"door_color_assignment":["black","white"],"door_generator_assignment":[1,0],"goal":0,"start":5,"action_noise":0,"location_history":"[5,0]","action_history":"[0]","door_history":"[1]","location_rts":"[376]","trial_type":"two-door-navigation","trial_index":34,"time_elapsed":563779,"internal_node_id":"0.0-2.0-32.0"},{"group":"hexagon_bi","room_assignment":["grey","red","blue","yellow","purple","green"],"door_color_assignment":["black","white"],"door_generator_assignment":[1,0],"goal":2,"start":0,"action_noise":0,"location_history":"[0,5,4,3,2]","action_history":"[0,1,0,1]","door_history":"[1,0,1,0]","location_rts":"[469,270,205,278]","trial_type":"two-door-navigation","trial_index":35,"time_elapsed":573013,"internal_node_id":"0.0-2.0-33.0"},{"group":"hexagon_bi","room_assignment":["grey","red","blue","yellow","purple","green"],"door_color_assignment":["black","white"],"door_generator_assignment":[1,0],"goal":0,"start":2,"action_noise":0,"location_history":"[2,1,0]","action_history":"[0,1]","door_history":"[1,0]","location_rts":"[429,348]","trial_type":"two-door-navigation","trial_index":36,"time_elapsed":579793,"internal_node_id":"0.0-2.0-34.0"},{"group":"hexagon_bi","room_assignment":["grey","red","blue","yellow","purple","green"],"door_color_assignment":["black","white"],"door_generator_assignment":[1,0],"goal":5,"start":0,"action_noise":0,"location_history":"[0,5]","action_history":"[0]","door_history":"[1]","location_rts":"[413]","trial_type":"two-door-navigation","trial_index":37,"time_elapsed":585212,"internal_node_id":"0.0-2.0-35.0"},{"group":"hexagon_bi","room_assignment":["grey","red","blue","yellow","purple","green"],"door_color_assignment":["black","white"],"door_generator_assignment":[1,0],"goal":1,"start":5,"action_noise":0,"location_history":"[5,0,1]","action_history":"[0,1]","door_history":"[1,0]","location_rts":"[331,253]","trial_type":"two-door-navigation","trial_index":38,"time_elapsed":591807,"internal_node_id":"0.0-2.0-36.0"},{"group":"hexagon_bi","room_assignment":["grey","red","blue","yellow","purple","green"],"door_color_assignment":["black","white"],"door_generator_assignment":[1,0],"goal":4,"start":1,"action_noise":0,"location_history":"[1,2,3,4]","action_history":"[0,1,0]","door_history":"[1,0,1]","location_rts":"[247,429,695]","trial_type":"two-door-navigation","trial_index":39,"time_elapsed":600186,"internal_node_id":"0.0-2.0-37.0"},{"group":"hexagon_bi","room_assignment":["grey","red","blue","yellow","purple","green"],"door_color_assignment":["black","white"],"door_generator_assignment":[1,0],"goal":3,"start":4,"action_noise":0,"location_history":"[4,3]","action_history":"[0]","door_history":"[1]","location_rts":"[981]","trial_type":"two-door-navigation","trial_index":40,"time_elapsed":606171,"internal_node_id":"0.0-2.0-38.0"},{"group":"hexagon_bi","room_assignment":["grey","red","blue","yellow","purple","green"],"door_color_assignment":["black","white"],"door_generator_assignment":[1,0],"goal":5,"start":3,"action_noise":0,"location_history":"[3,4,5]","action_history":"[0,1]","door_history":"[1,0]","location_rts":"[262,309]","trial_type":"two-door-navigation","trial_index":41,"time_elapsed":612745,"internal_node_id":"0.0-2.0-39.0"},{"group":"hexagon_bi","room_assignment":["grey","red","blue","yellow","purple","green"],"door_color_assignment":["black","white"],"door_generator_assignment":[1,0],"goal":1,"start":5,"action_noise":0,"location_history":"[5,0,1]","action_history":"[0,1]","door_history":"[1,0]","location_rts":"[335,302]","trial_type":"two-door-navigation","trial_index":42,"time_elapsed":619385,"internal_node_id":"0.0-2.0-40.0"},{"group":"hexagon_bi","room_assignment":["grey","red","blue","yellow","purple","green"],"door_color_assignment":["black","white"],"door_generator_assignment":[1,0],"goal":2,"start":1,"action_noise":0,"location_history":"[1,2]","action_history":"[0]","door_history":"[1]","location_rts":"[276]","trial_type":"two-door-navigation","trial_index":43,"time_elapsed":624669,"internal_node_id":"0.0-2.0-41.0"},{"group":"hexagon_bi","room_assignment":["grey","red","blue","yellow","purple","green"],"door_color_assignment":["black","white"],"door_generator_assignment":[1,0],"goal":4,"start":2,"action_noise":0,"location_history":"[2,1,0,5,4]","action_history":"[0,1,0,1]","door_history":"[1,0,1,0]","location_rts":"[875,720,2329,54]","trial_type":"two-door-navigation","trial_index":44,"time_elapsed":636649,"internal_node_id":"0.0-2.0-42.0"},{"group":"hexagon_bi","room_assignment":["grey","red","blue","yellow","purple","green"],"door_color_assignment":["black","white"],"door_generator_assignment":[1,0],"goal":0,"start":4,"action_noise":0,"location_history":"[4,3,2,1,0]","action_history":"[0,1,0,1]","door_history":"[1,0,1,0]","location_rts":"[2181,174,345,295]","trial_type":"two-door-navigation","trial_index":45,"time_elapsed":647651,"internal_node_id":"0.0-2.0-43.0"},{"group":"hexagon_bi","room_assignment":["grey","red","blue","yellow","purple","green"],"door_color_assignment":["black","white"],"door_generator_assignment":[1,0],"goal":3,"start":0,"action_noise":0,"location_history":"[0,5,4,3]","action_history":"[0,1,0]","door_history":"[1,0,1]","location_rts":"[285,225,239]","trial_type":"two-door-navigation","trial_index":46,"time_elapsed":655401,"internal_node_id":"0.0-2.0-44.0"},{"group":"hexagon_bi","room_assignment":["grey","red","blue","yellow","purple","green"],"door_color_assignment":["black","white"],"door_generator_assignment":[1,0],"goal":0,"start":3,"action_noise":0,"location_history":"[3,4,5,0]","action_history":"[0,1,0]","door_history":"[1,0,1]","location_rts":"[327,23,200]","trial_type":"two-door-navigation","trial_index":47,"time_elapsed":662956,"internal_node_id":"0.0-2.0-45.0"},{"group":"hexagon_bi","room_assignment":["grey","red","blue","yellow","purple","green"],"door_color_assignment":["black","white"],"door_generator_assignment":[1,0],"goal":4,"start":0,"action_noise":0,"location_history":"[0,5,4]","action_history":"[0,1]","door_history":"[1,0]","location_rts":"[398,542]","trial_type":"two-door-navigation","trial_index":48,"time_elapsed":669899,"internal_node_id":"0.0-2.0-46.0"},{"group":"hexagon_bi","room_assignment":["grey","red","blue","yellow","purple","green"],"door_color_assignment":["black","white"],"door_generator_assignment":[1,0],"goal":5,"start":4,"action_noise":0,"location_history":"[4,3,2,1,0,5]","action_history":"[0,1,0,1,0]","door_history":"[1,0,1,0,1]","location_rts":"[438,303,181,402,253]","trial_type":"two-door-navigation","trial_index":49,"time_elapsed":680491,"internal_node_id":"0.0-2.0-47.0"},{"group":"hexagon_bi","room_assignment":["grey","red","blue","yellow","purple","green"],"door_color_assignment":["black","white"],"door_generator_assignment":[1,0],"goal":2,"start":5,"action_noise":0,"location_history":"[5,0,1,2]","action_history":"[0,1,0]","door_history":"[1,0,1]","location_rts":"[566,127,64]","trial_type":"two-door-navigation","trial_index":50,"time_elapsed":688250,"internal_node_id":"0.0-2.0-48.0"},{"group":"hexagon_bi","room_assignment":["grey","red","blue","yellow","purple","green"],"door_color_assignment":["black","white"],"door_generator_assignment":[1,0],"goal":1,"start":2,"action_noise":0,"location_history":"[2,1]","action_history":"[0]","door_history":"[1]","location_rts":"[309]","trial_type":"two-door-navigation","trial_index":51,"time_elapsed":693563,"internal_node_id":"0.0-2.0-49.0"},{"view_history":"[{\"page_index\":0,\"viewing_time\":16614}]","rt":16615,"trial_type":"instructions","trial_index":52,"time_elapsed":711178,"internal_node_id":"0.0-3.0"},{"view_history":"[{\"page_index\":0,\"viewing_time\":1332},{\"page_index\":1,\"viewing_time\":2824}]","rt":4156,"trial_type":"instructions","trial_index":53,"time_elapsed":716339,"internal_node_id":"0.0-4.0"},{"group":"hexagon_bi","fractal_assignment":["../images/gry_blk.png","../images/cyn_red.png","../images/blu_wht.png","../images/pnk_blu.png","../images/ylw_slt.png","../images/org_blu.png"],"mutagen_generator_assignment":[0,1],"goal":2,"start":1,"action_noise":0,"location_history":"[1,2]","action_history":"[0]","mutagen_history":"[0]","location_rts":"[10424]","trial_type":"fractal-mutation","trial_index":54,"time_elapsed":731791,"internal_node_id":"0.0-5.0-0.0"},{"group":"hexagon_bi","fractal_assignment":["../images/gry_blk.png","../images/cyn_red.png","../images/blu_wht.png","../images/pnk_blu.png","../images/ylw_slt.png","../images/org_blu.png"],"mutagen_generator_assignment":[0,1],"goal":0,"start":2,"action_noise":0,"location_history":"[2,1,0]","action_history":"[0,1]","mutagen_history":"[0,1]","location_rts":"[546,16]","trial_type":"fractal-mutation","trial_index":55,"time_elapsed":738394,"internal_node_id":"0.0-5.0-1.0"},{"group":"hexagon_bi","fractal_assignment":["../images/gry_blk.png","../images/cyn_red.png","../images/blu_wht.png","../images/pnk_blu.png","../images/ylw_slt.png","../images/org_blu.png"],"mutagen_generator_assignment":[0,1],"goal":5,"start":0,"action_noise":0,"location_history":"[0,5]","action_history":"[0]","mutagen_history":"[0]","location_rts":"[432]","trial_type":"fractal-mutation","trial_index":56,"time_elapsed":743844,"internal_node_id":"0.0-5.0-2.0"},{"group":"hexagon_bi","fractal_assignment":["../images/gry_blk.png","../images/cyn_red.png","../images/blu_wht.png","../images/pnk_blu.png","../images/ylw_slt.png","../images/org_blu.png"],"mutagen_generator_assignment":[0,1],"goal":1,"start":5,"action_noise":0,"location_history":"[5,0,5,0,5,0,5,0,1]","action_history":"[0,0,0,0,0,0,0,1]","mutagen_history":"[0,0,0,0,0,0,0,1]","location_rts":"[289,762,504,568,726,554,618,12]","trial_type":"fractal-mutation","trial_index":57,"time_elapsed":759974,"internal_node_id":"0.0-5.0-3.0"},{"group":"hexagon_bi","fractal_assignment":["../images/gry_blk.png","../images/cyn_red.png","../images/blu_wht.png","../images/pnk_blu.png","../images/ylw_slt.png","../images/org_blu.png"],"mutagen_generator_assignment":[0,1],"goal":3,"start":1,"action_noise":0,"location_history":"[1,2,1,2,1,0,5,4,3]","action_history":"[0,0,0,0,1,0,1,0]","mutagen_history":"[0,0,0,0,1,0,1,0]","location_rts":"[397,650,430,406,250,158,508,387]","trial_type":"fractal-mutation","trial_index":58,"time_elapsed":775245,"internal_node_id":"0.0-5.0-4.0"},{"group":"hexagon_bi","fractal_assignment":["../images/gry_blk.png","../images/cyn_red.png","../images/blu_wht.png","../images/pnk_blu.png","../images/ylw_slt.png","../images/org_blu.png"],"mutagen_generator_assignment":[0,1],"goal":5,"start":3,"action_noise":0,"location_history":"[3,4,5]","action_history":"[0,1]","mutagen_history":"[0,1]","location_rts":"[630,518]","trial_type":"fractal-mutation","trial_index":59,"time_elapsed":782429,"internal_node_id":"0.0-5.0-5.0"},{"group":"hexagon_bi","fractal_assignment":["../images/gry_blk.png","../images/cyn_red.png","../images/blu_wht.png","../images/pnk_blu.png","../images/ylw_slt.png","../images/org_blu.png"],"mutagen_generator_assignment":[0,1],"goal":4,"start":5,"action_noise":0,"location_history":"[5,0,5,4]","action_history":"[0,0,1]","mutagen_history":"[0,0,1]","location_rts":"[478,1308,268]","trial_type":"fractal-mutation","trial_index":60,"time_elapsed":791564,"internal_node_id":"0.0-5.0-6.0"},{"group":"hexagon_bi","fractal_assignment":["../images/gry_blk.png","../images/cyn_red.png","../images/blu_wht.png","../images/pnk_blu.png","../images/ylw_slt.png","../images/org_blu.png"],"mutagen_generator_assignment":[0,1],"goal":0,"start":4,"action_noise":0,"location_history":"[4,3,2,1,0]","action_history":"[0,1,0,1]","mutagen_history":"[0,1,0,1]","location_rts":"[468,201,271,234]","trial_type":"fractal-mutation","trial_index":61,"time_elapsed":800804,"internal_node_id":"0.0-5.0-7.0"},{"group":"hexagon_bi","fractal_assignment":["../images/gry_blk.png","../images/cyn_red.png","../images/blu_wht.png","../images/pnk_blu.png","../images/ylw_slt.png","../images/org_blu.png"],"mutagen_generator_assignment":[0,1],"goal":2,"start":0,"action_noise":0,"location_history":"[0,5,4,3,2]","action_history":"[0,1,0,1]","mutagen_history":"[0,1,0,1]","location_rts":"[403,242,562,272]","trial_type":"fractal-mutation","trial_index":62,"time_elapsed":810337,"internal_node_id":"0.0-5.0-8.0"},{"group":"hexagon_bi","fractal_assignment":["../images/gry_blk.png","../images/cyn_red.png","../images/blu_wht.png","../images/pnk_blu.png","../images/ylw_slt.png","../images/org_blu.png"],"mutagen_generator_assignment":[0,1],"goal":4,"start":2,"action_noise":0,"location_history":"[2,1,0,5,4]","action_history":"[0,1,0,1]","mutagen_history":"[0,1,0,1]","location_rts":"[337,214,285,218]","trial_type":"fractal-mutation","trial_index":63,"time_elapsed":819462,"internal_node_id":"0.0-5.0-9.0"},{"group":"hexagon_bi","fractal_assignment":["../images/gry_blk.png","../images/cyn_red.png","../images/blu_wht.png","../images/pnk_blu.png","../images/ylw_slt.png","../images/org_blu.png"],"mutagen_generator_assignment":[0,1],"goal":2,"start":4,"action_noise":0,"location_history":"[4,3,2]","action_history":"[0,1]","mutagen_history":"[0,1]","location_rts":"[533,330]","trial_type":"fractal-mutation","trial_index":64,"time_elapsed":826355,"internal_node_id":"0.0-5.0-10.0"},{"group":"hexagon_bi","fractal_assignment":["../images/gry_blk.png","../images/cyn_red.png","../images/blu_wht.png","../images/pnk_blu.png","../images/ylw_slt.png","../images/org_blu.png"],"mutagen_generator_assignment":[0,1],"goal":3,"start":2,"action_noise":0,"location_history":"[2,1,0,5,4,3]","action_history":"[0,1,0,1,0]","mutagen_history":"[0,1,0,1,0]","location_rts":"[534,229,346,241,258]","trial_type":"fractal-mutation","trial_index":65,"time_elapsed":837033,"internal_node_id":"0.0-5.0-11.0"},{"group":"hexagon_bi","fractal_assignment":["../images/gry_blk.png","../images/cyn_red.png","../images/blu_wht.png","../images/pnk_blu.png","../images/ylw_slt.png","../images/org_blu.png"],"mutagen_generator_assignment":[0,1],"goal":0,"start":3,"action_noise":0,"location_history":"[3,4,5,0]","action_history":"[0,1,0]","mutagen_history":"[0,1,0]","location_rts":"[586,276,318]","trial_type":"fractal-mutation","trial_index":66,"time_elapsed":845241,"internal_node_id":"0.0-5.0-12.0"},{"group":"hexagon_bi","fractal_assignment":["../images/gry_blk.png","../images/cyn_red.png","../images/blu_wht.png","../images/pnk_blu.png","../images/ylw_slt.png","../images/org_blu.png"],"mutagen_generator_assignment":[0,1],"goal":5,"start":0,"action_noise":0,"location_history":"[0,5]","action_history":"[0]","mutagen_history":"[0]","location_rts":"[396]","trial_type":"fractal-mutation","trial_index":67,"time_elapsed":850645,"internal_node_id":"0.0-5.0-13.0"},{"group":"hexagon_bi","fractal_assignment":["../images/gry_blk.png","../images/cyn_red.png","../images/blu_wht.png","../images/pnk_blu.png","../images/ylw_slt.png","../images/org_blu.png"],"mutagen_generator_assignment":[0,1],"goal":1,"start":5,"action_noise":0,"location_history":"[5,0,1]","action_history":"[0,1]","mutagen_history":"[0,1]","location_rts":"[396,393]","trial_type":"fractal-mutation","trial_index":68,"time_elapsed":857468,"internal_node_id":"0.0-5.0-14.0"},{"group":"hexagon_bi","fractal_assignment":["../images/gry_blk.png","../images/cyn_red.png","../images/blu_wht.png","../images/pnk_blu.png","../images/ylw_slt.png","../images/org_blu.png"],"mutagen_generator_assignment":[0,1],"goal":5,"start":1,"action_noise":0,"location_history":"[1,2,3,4,5]","action_history":"[0,1,0,1]","mutagen_history":"[0,1,0,1]","location_rts":"[569,212,242,83]","trial_type":"fractal-mutation","trial_index":69,"time_elapsed":866621,"internal_node_id":"0.0-5.0-15.0"},{"group":"hexagon_bi","fractal_assignment":["../images/gry_blk.png","../images/cyn_red.png","../images/blu_wht.png","../images/pnk_blu.png","../images/ylw_slt.png","../images/org_blu.png"],"mutagen_generator_assignment":[0,1],"goal":3,"start":5,"action_noise":0,"location_history":"[5,0,1,2,3]","action_history":"[0,1,0,1]","mutagen_history":"[0,1,0,1]","location_rts":"[349,237,208,178]","trial_type":"fractal-mutation","trial_index":70,"time_elapsed":875644,"internal_node_id":"0.0-5.0-16.0"},{"group":"hexagon_bi","fractal_assignment":["../images/gry_blk.png","../images/cyn_red.png","../images/blu_wht.png","../images/pnk_blu.png","../images/ylw_slt.png","../images/org_blu.png"],"mutagen_generator_assignment":[0,1],"goal":2,"start":3,"action_noise":0,"location_history":"[3,4,5,0,1,2]","action_history":"[0,1,0,1,0]","mutagen_history":"[0,1,0,1,0]","location_rts":"[255,260,238,186,147]","trial_type":"fractal-mutation","trial_index":71,"time_elapsed":885780,"internal_node_id":"0.0-5.0-17.0"},{"group":"hexagon_bi","fractal_assignment":["../images/gry_blk.png","../images/cyn_red.png","../images/blu_wht.png","../images/pnk_blu.png","../images/ylw_slt.png","../images/org_blu.png"],"mutagen_generator_assignment":[0,1],"goal":1,"start":2,"action_noise":0,"location_history":"[2,1]","action_history":"[0]","mutagen_history":"[0]","location_rts":"[317]","trial_type":"fractal-mutation","trial_index":72,"time_elapsed":891105,"internal_node_id":"0.0-5.0-18.0"},{"group":"hexagon_bi","fractal_assignment":["../images/gry_blk.png","../images/cyn_red.png","../images/blu_wht.png","../images/pnk_blu.png","../images/ylw_slt.png","../images/org_blu.png"],"mutagen_generator_assignment":[0,1],"goal":4,"start":1,"action_noise":0,"location_history":"[1,2,3,4]","action_history":"[0,1,0]","mutagen_history":"[0,1,0]","location_rts":"[291,196,99]","trial_type":"fractal-mutation","trial_index":73,"time_elapsed":898712,"internal_node_id":"0.0-5.0-19.0"},{"group":"hexagon_bi","fractal_assignment":["../images/gry_blk.png","../images/cyn_red.png","../images/blu_wht.png","../images/pnk_blu.png","../images/ylw_slt.png","../images/org_blu.png"],"mutagen_generator_assignment":[0,1],"goal":0,"start":4,"action_noise":0,"location_history":"[4,3,2,1,0]","action_history":"[0,1,0,1]","mutagen_history":"[0,1,0,1]","location_rts":"[297,237,241,56]","trial_type":"fractal-mutation","trial_index":74,"time_elapsed":907608,"internal_node_id":"0.0-5.0-20.0"},{"group":"hexagon_bi","fractal_assignment":["../images/gry_blk.png","../images/cyn_red.png","../images/blu_wht.png","../images/pnk_blu.png","../images/ylw_slt.png","../images/org_blu.png"],"mutagen_generator_assignment":[0,1],"goal":3,"start":0,"action_noise":0,"location_history":"[0,5,4,3]","action_history":"[0,1,0]","mutagen_history":"[0,1,0]","location_rts":"[297,130,80]","trial_type":"fractal-mutation","trial_index":75,"time_elapsed":915155,"internal_node_id":"0.0-5.0-21.0"},{"group":"hexagon_bi","fractal_assignment":["../images/gry_blk.png","../images/cyn_red.png","../images/blu_wht.png","../images/pnk_blu.png","../images/ylw_slt.png","../images/org_blu.png"],"mutagen_generator_assignment":[0,1],"goal":1,"start":3,"action_noise":0,"location_history":"[3,4,5,0,1]","action_history":"[0,1,0,1]","mutagen_history":"[0,1,0,1]","location_rts":"[273,222,209,224]","trial_type":"fractal-mutation","trial_index":76,"time_elapsed":924153,"internal_node_id":"0.0-5.0-22.0"},{"group":"hexagon_bi","fractal_assignment":["../images/gry_blk.png","../images/cyn_red.png","../images/blu_wht.png","../images/pnk_blu.png","../images/ylw_slt.png","../images/org_blu.png"],"mutagen_generator_assignment":[0,1],"goal":0,"start":1,"action_noise":0,"location_history":"[1,2,3,4,5,0]","action_history":"[0,1,0,1,0]","mutagen_history":"[0,1,0,1,0]","location_rts":"[337,243,386,234,290]","trial_type":"fractal-mutation","trial_index":77,"time_elapsed":934705,"internal_node_id":"0.0-5.0-23.0"},{"group":"hexagon_bi","fractal_assignment":["../images/gry_blk.png","../images/cyn_red.png","../images/blu_wht.png","../images/pnk_blu.png","../images/ylw_slt.png","../images/org_blu.png"],"mutagen_generator_assignment":[0,1],"goal":2,"start":0,"action_noise":0,"location_history":"[0,5,4,3,2]","action_history":"[0,1,0,1]","mutagen_history":"[0,1,0,1]","location_rts":"[337,293,362,285]","trial_type":"fractal-mutation","trial_index":78,"time_elapsed":944032,"internal_node_id":"0.0-5.0-24.0"},{"group":"hexagon_bi","fractal_assignment":["../images/gry_blk.png","../images/cyn_red.png","../images/blu_wht.png","../images/pnk_blu.png","../images/ylw_slt.png","../images/org_blu.png"],"mutagen_generator_assignment":[0,1],"goal":4,"start":2,"action_noise":0,"location_history":"[2,1,0,5,4]","action_history":"[0,1,0,1]","mutagen_history":"[0,1,0,1]","location_rts":"[459,154,217,185]","trial_type":"fractal-mutation","trial_index":79,"time_elapsed":953108,"internal_node_id":"0.0-5.0-25.0"},{"group":"hexagon_bi","fractal_assignment":["../images/gry_blk.png","../images/cyn_red.png","../images/blu_wht.png","../images/pnk_blu.png","../images/ylw_slt.png","../images/org_blu.png"],"mutagen_generator_assignment":[0,1],"goal":5,"start":4,"action_noise":0,"location_history":"[4,3,2,1,0,5]","action_history":"[0,1,0,1,0]","mutagen_history":"[0,1,0,1,0]","location_rts":"[365,107,334,141,149]","trial_type":"fractal-mutation","trial_index":80,"time_elapsed":963246,"internal_node_id":"0.0-5.0-26.0"},{"group":"hexagon_bi","fractal_assignment":["../images/gry_blk.png","../images/cyn_red.png","../images/blu_wht.png","../images/pnk_blu.png","../images/ylw_slt.png","../images/org_blu.png"],"mutagen_generator_assignment":[0,1],"goal":2,"start":5,"action_noise":0,"location_history":"[5,0,1,2]","action_history":"[0,1,0]","mutagen_history":"[0,1,0]","location_rts":"[436,292,128]","trial_type":"fractal-mutation","trial_index":81,"time_elapsed":971141,"internal_node_id":"0.0-5.0-27.0"},{"group":"hexagon_bi","fractal_assignment":["../images/gry_blk.png","../images/cyn_red.png","../images/blu_wht.png","../images/pnk_blu.png","../images/ylw_slt.png","../images/org_blu.png"],"mutagen_generator_assignment":[0,1],"goal":3,"start":2,"action_noise":0,"location_history":"[2,1,0,5,0,1,2,3]","action_history":"[0,1,0,0,1,0,1]","mutagen_history":"[0,1,0,0,1,0,1]","location_rts":"[884,278,380,700,58,132,114]","trial_type":"fractal-mutation","trial_index":82,"time_elapsed":984778,"internal_node_id":"0.0-5.0-28.0"},{"group":"hexagon_bi","fractal_assignment":["../images/gry_blk.png","../images/cyn_red.png","../images/blu_wht.png","../images/pnk_blu.png","../images/ylw_slt.png","../images/org_blu.png"],"mutagen_generator_assignment":[0,1],"goal":1,"start":3,"action_noise":0,"location_history":"[3,4,5,0,1]","action_history":"[0,1,0,1]","mutagen_history":"[0,1,0,1]","location_rts":"[288,168,221,104]","trial_type":"fractal-mutation","trial_index":83,"time_elapsed":993641,"internal_node_id":"0.0-5.0-29.0"},{"group":"hexagon_bi","fractal_assignment":["../images/gry_blk.png","../images/cyn_red.png","../images/blu_wht.png","../images/pnk_blu.png","../images/ylw_slt.png","../images/org_blu.png"],"mutagen_generator_assignment":[0,1],"goal":4,"start":1,"action_noise":0,"location_history":"[1,2,3,4]","action_history":"[0,1,0]","mutagen_history":"[0,1,0]","location_rts":"[315,228,219]","trial_type":"fractal-mutation","trial_index":84,"time_elapsed":1001436,"internal_node_id":"0.0-5.0-30.0"},{"group":"hexagon_bi","fractal_assignment":["../images/gry_blk.png","../images/cyn_red.png","../images/blu_wht.png","../images/pnk_blu.png","../images/ylw_slt.png","../images/org_blu.png"],"mutagen_generator_assignment":[0,1],"goal":5,"start":4,"action_noise":0,"location_history":"[4,3,2,1,0,5]","action_history":"[0,1,0,1,0]","mutagen_history":"[0,1,0,1,0]","location_rts":"[414,154,200,114,169]","trial_type":"fractal-mutation","trial_index":85,"time_elapsed":1011573,"internal_node_id":"0.0-5.0-31.0"},{"group":"hexagon_bi","fractal_assignment":["../images/gry_blk.png","../images/cyn_red.png","../images/blu_wht.png","../images/pnk_blu.png","../images/ylw_slt.png","../images/org_blu.png"],"mutagen_generator_assignment":[0,1],"goal":0,"start":5,"action_noise":0,"location_history":"[5,0]","action_history":"[0]","mutagen_history":"[0]","location_rts":"[583]","trial_type":"fractal-mutation","trial_index":86,"time_elapsed":1017166,"internal_node_id":"0.0-5.0-32.0"},{"group":"hexagon_bi","fractal_assignment":["../images/gry_blk.png","../images/cyn_red.png","../images/blu_wht.png","../images/pnk_blu.png","../images/ylw_slt.png","../images/org_blu.png"],"mutagen_generator_assignment":[0,1],"goal":2,"start":0,"action_noise":0,"location_history":"[0,5,4,3,2]","action_history":"[0,1,0,1]","mutagen_history":"[0,1,0,1]","location_rts":"[2639,228,230,172]","trial_type":"fractal-mutation","trial_index":87,"time_elapsed":1028499,"internal_node_id":"0.0-5.0-33.0"},{"group":"hexagon_bi","fractal_assignment":["../images/gry_blk.png","../images/cyn_red.png","../images/blu_wht.png","../images/pnk_blu.png","../images/ylw_slt.png","../images/org_blu.png"],"mutagen_generator_assignment":[0,1],"goal":0,"start":2,"action_noise":0,"location_history":"[2,1,0]","action_history":"[0,1]","mutagen_history":"[0,1]","location_rts":"[728,451]","trial_type":"fractal-mutation","trial_index":88,"time_elapsed":1035699,"internal_node_id":"0.0-5.0-34.0"},{"group":"hexagon_bi","fractal_assignment":["../images/gry_blk.png","../images/cyn_red.png","../images/blu_wht.png","../images/pnk_blu.png","../images/ylw_slt.png","../images/org_blu.png"],"mutagen_generator_assignment":[0,1],"goal":5,"start":0,"action_noise":0,"location_history":"[0,5]","action_history":"[0]","mutagen_history":"[0]","location_rts":"[425]","trial_type":"fractal-mutation","trial_index":89,"time_elapsed":1041134,"internal_node_id":"0.0-5.0-35.0"},{"group":"hexagon_bi","fractal_assignment":["../images/gry_blk.png","../images/cyn_red.png","../images/blu_wht.png","../images/pnk_blu.png","../images/ylw_slt.png","../images/org_blu.png"],"mutagen_generator_assignment":[0,1],"goal":1,"start":5,"action_noise":0,"location_history":"[5,0,1]","action_history":"[0,1]","mutagen_history":"[0,1]","location_rts":"[750,185]","trial_type":"fractal-mutation","trial_index":90,"time_elapsed":1048094,"internal_node_id":"0.0-5.0-36.0"},{"group":"hexagon_bi","fractal_assignment":["../images/gry_blk.png","../images/cyn_red.png","../images/blu_wht.png","../images/pnk_blu.png","../images/ylw_slt.png","../images/org_blu.png"],"mutagen_generator_assignment":[0,1],"goal":4,"start":1,"action_noise":0,"location_history":"[1,2,3,4]","action_history":"[0,1,0]","mutagen_history":"[0,1,0]","location_rts":"[749,208,75]","trial_type":"fractal-mutation","trial_index":91,"time_elapsed":1056172,"internal_node_id":"0.0-5.0-37.0"},{"group":"hexagon_bi","fractal_assignment":["../images/gry_blk.png","../images/cyn_red.png","../images/blu_wht.png","../images/pnk_blu.png","../images/ylw_slt.png","../images/org_blu.png"],"mutagen_generator_assignment":[0,1],"goal":3,"start":4,"action_noise":0,"location_history":"[4,3]","action_history":"[0]","mutagen_history":"[0]","location_rts":"[471]","trial_type":"fractal-mutation","trial_index":92,"time_elapsed":1061651,"internal_node_id":"0.0-5.0-38.0"},{"group":"hexagon_bi","fractal_assignment":["../images/gry_blk.png","../images/cyn_red.png","../images/blu_wht.png","../images/pnk_blu.png","../images/ylw_slt.png","../images/org_blu.png"],"mutagen_generator_assignment":[0,1],"goal":5,"start":3,"action_noise":0,"location_history":"[3,4,5]","action_history":"[0,1]","mutagen_history":"[0,1]","location_rts":"[482,1068]","trial_type":"fractal-mutation","trial_index":93,"time_elapsed":1069228,"internal_node_id":"0.0-5.0-39.0"},{"group":"hexagon_bi","fractal_assignment":["../images/gry_blk.png","../images/cyn_red.png","../images/blu_wht.png","../images/pnk_blu.png","../images/ylw_slt.png","../images/org_blu.png"],"mutagen_generator_assignment":[0,1],"goal":1,"start":5,"action_noise":0,"location_history":"[5,0,1]","action_history":"[0,1]","mutagen_history":"[0,1]","location_rts":"[670,1059]","trial_type":"fractal-mutation","trial_index":94,"time_elapsed":1076997,"internal_node_id":"0.0-5.0-40.0"},{"group":"hexagon_bi","fractal_assignment":["../images/gry_blk.png","../images/cyn_red.png","../images/blu_wht.png","../images/pnk_blu.png","../images/ylw_slt.png","../images/org_blu.png"],"mutagen_generator_assignment":[0,1],"goal":2,"start":1,"action_noise":0,"location_history":"[1,2]","action_history":"[0]","mutagen_history":"[0]","location_rts":"[629]","trial_type":"fractal-mutation","trial_index":95,"time_elapsed":1082635,"internal_node_id":"0.0-5.0-41.0"},{"group":"hexagon_bi","fractal_assignment":["../images/gry_blk.png","../images/cyn_red.png","../images/blu_wht.png","../images/pnk_blu.png","../images/ylw_slt.png","../images/org_blu.png"],"mutagen_generator_assignment":[0,1],"goal":4,"start":2,"action_noise":0,"location_history":"[2,1,0,5,4]","action_history":"[0,1,0,1]","mutagen_history":"[0,1,0,1]","location_rts":"[479,274,277,200]","trial_type":"fractal-mutation","trial_index":96,"time_elapsed":1091944,"internal_node_id":"0.0-5.0-42.0"},{"group":"hexagon_bi","fractal_assignment":["../images/gry_blk.png","../images/cyn_red.png","../images/blu_wht.png","../images/pnk_blu.png","../images/ylw_slt.png","../images/org_blu.png"],"mutagen_generator_assignment":[0,1],"goal":0,"start":4,"action_noise":0,"location_history":"[4,3,2,1,0]","action_history":"[0,1,0,1]","mutagen_history":"[0,1,0,1]","location_rts":"[410,22,166,98]","trial_type":"fractal-mutation","trial_index":97,"time_elapsed":1100713,"internal_node_id":"0.0-5.0-43.0"},{"group":"hexagon_bi","fractal_assignment":["../images/gry_blk.png","../images/cyn_red.png","../images/blu_wht.png","../images/pnk_blu.png","../images/ylw_slt.png","../images/org_blu.png"],"mutagen_generator_assignment":[0,1],"goal":3,"start":0,"action_noise":0,"location_history":"[0,5,4,3]","action_history":"[0,1,0]","mutagen_history":"[0,1,0]","location_rts":"[354,200,222]","trial_type":"fractal-mutation","trial_index":98,"time_elapsed":1108531,"internal_node_id":"0.0-5.0-44.0"},{"group":"hexagon_bi","fractal_assignment":["../images/gry_blk.png","../images/cyn_red.png","../images/blu_wht.png","../images/pnk_blu.png","../images/ylw_slt.png","../images/org_blu.png"],"mutagen_generator_assignment":[0,1],"goal":0,"start":3,"action_noise":0,"location_history":"[3,4,5,0]","action_history":"[0,1,0]","mutagen_history":"[0,1,0]","location_rts":"[551,429,221]","trial_type":"fractal-mutation","trial_index":99,"time_elapsed":1116782,"internal_node_id":"0.0-5.0-45.0"},{"group":"hexagon_bi","fractal_assignment":["../images/gry_blk.png","../images/cyn_red.png","../images/blu_wht.png","../images/pnk_blu.png","../images/ylw_slt.png","../images/org_blu.png"],"mutagen_generator_assignment":[0,1],"goal":4,"start":0,"action_noise":0,"location_history":"[0,5,4]","action_history":"[0,1]","mutagen_history":"[0,1]","location_rts":"[5358,256]","trial_type":"fractal-mutation","trial_index":100,"time_elapsed":1128438,"internal_node_id":"0.0-5.0-46.0"},{"group":"hexagon_bi","fractal_assignment":["../images/gry_blk.png","../images/cyn_red.png","../images/blu_wht.png","../images/pnk_blu.png","../images/ylw_slt.png","../images/org_blu.png"],"mutagen_generator_assignment":[0,1],"goal":5,"start":4,"action_noise":0,"location_history":"[4,5]","action_history":"[1]","mutagen_history":"[1]","location_rts":"[620]","trial_type":"fractal-mutation","trial_index":101,"time_elapsed":1134092,"internal_node_id":"0.0-5.0-47.0"},{"group":"hexagon_bi","fractal_assignment":["../images/gry_blk.png","../images/cyn_red.png","../images/blu_wht.png","../images/pnk_blu.png","../images/ylw_slt.png","../images/org_blu.png"],"mutagen_generator_assignment":[0,1],"goal":2,"start":5,"action_noise":0,"location_history":"[5,0,1,2]","action_history":"[0,1,0]","mutagen_history":"[0,1,0]","location_rts":"[1760,515,1062]","trial_type":"fractal-mutation","trial_index":102,"time_elapsed":1144469,"internal_node_id":"0.0-5.0-48.0"},{"group":"hexagon_bi","fractal_assignment":["../images/gry_blk.png","../images/cyn_red.png","../images/blu_wht.png","../images/pnk_blu.png","../images/ylw_slt.png","../images/org_blu.png"],"mutagen_generator_assignment":[0,1],"goal":1,"start":2,"action_noise":0,"location_history":"[2,1]","action_history":"[0]","mutagen_history":"[0]","location_rts":"[17607]","trial_type":"fractal-mutation","trial_index":103,"time_elapsed":1167085,"internal_node_id":"0.0-5.0-49.0"},{"view_history":"[{\"page_index\":0,\"viewing_time\":40383}]","rt":40384,"trial_type":"instructions","trial_index":104,"time_elapsed":1208467,"internal_node_id":"0.0-6.0"},{"rt":31076,"responses":"{\"Q0\":\"I'm not sure. \"}","trial_type":"survey-text","trial_index":105,"time_elapsed":1240553,"internal_node_id":"0.0-7.0-0.0"},{"rt":120404,"responses":"{\"Q0\":\"I'm not sure.\"}","trial_type":"survey-text","trial_index":106,"time_elapsed":1361963,"internal_node_id":"0.0-7.0-1.0"},{"rt":52331,"responses":"{\"Q0\":\"<img src='../images/diagrams/hexagon_tri.png'>\"}","trial_type":"survey-multi-choice","trial_index":107,"time_elapsed":1415304,"internal_node_id":"0.0-7.0-2.0"},{"rt":107222,"assignments":["../images/gry_blk.png","../images/org_blu.png","../images/pnk_blu.png","../images/blu_wht.png","../images/cyn_red.png","../images/ylw_slt.png"],"trial_type":"drag-drop-on-image","trial_index":108,"time_elapsed":1523531,"internal_node_id":"0.0-7.0-3.0"},{"rt":14072,"responses":"{\"Q0\":\"0\"}","trial_type":"survey-likert","trial_index":109,"time_elapsed":1538613,"internal_node_id":"0.0-7.0-4.0"},{"rt":62170,"responses":"{\"Q0\":\"I did not notice any similarities.\"}","trial_type":"survey-text","trial_index":110,"time_elapsed":1601784,"internal_node_id":"0.0-7.0-5.0"},{"rt":101221,"responses":"{\"Q0\":\"No\"}","trial_type":"survey-multi-choice","trial_index":111,"time_elapsed":1704012,"internal_node_id":"0.0-7.0-6.0"},{"rt":8398,"responses":"{\"Q0\":\"Did not notice\"}","trial_type":"survey-multi-choice","trial_index":112,"time_elapsed":1713420,"internal_node_id":"0.0-7.0-7.0"},{"rt":2531,"responses":"{\"Q0\":\"\"}","trial_type":"survey-text","trial_index":113,"time_elapsed":1716953,"internal_node_id":"0.0-7.0-8.0"},{"rt":33285,"responses":"{\"Q0\":\"1\"}","trial_type":"survey-likert","trial_index":114,"time_elapsed":1751243,"internal_node_id":"0.0-7.0-9.0"},{"rt":6491,"responses":"{\"Q0\":\"Different structure\"}","trial_type":"survey-multi-choice","trial_index":115,"time_elapsed":1758738,"internal_node_id":"0.0-7.0-10.0"},{"rt":19792,"responses":"{\"Q0\":\"left (black) door = acid, right (white) door = ray\",\"Q1\":\"Not at all confident\"}","trial_type":"survey-multi-choice","trial_index":116,"time_elapsed":1779541,"internal_node_id":"0.0-7.0-11.0"},{"rt":41159,"responses":"{\"Q0\":\"25-35\",\"Q1\":\"Bachelor's degree\",\"Q2\":\"Male\",\"Q3\":\"White\"}","trial_type":"survey-multi-choice","trial_index":117,"time_elapsed":1821726,"internal_node_id":"0.0-8.0"},{"rt":158667,"responses":"{\"Q0\":\"Thank You!\"}","trial_type":"survey-text","trial_index":118,"time_elapsed":1981395,"internal_node_id":"0.0-9.0"}]