[{"view_history":"[{\"page_index\":0,\"viewing_time\":7542},{\"page_index\":1,\"viewing_time\":4639}]","rt":12182,"trial_type":"instructions","trial_index":0,"time_elapsed":12186,"internal_node_id":"0.0-0.0"},{"view_history":"[{\"page_index\":0,\"viewing_time\":6902},{\"page_index\":1,\"viewing_time\":3433}]","rt":10336,"trial_type":"instructions","trial_index":1,"time_elapsed":23527,"internal_node_id":"0.0-1.0"},{"group":"hexagon_bi","room_assignment":["blue","red","purple","grey","yellow","green"],"door_color_assignment":["black","white"],"door_generator_assignment":[1,0],"goal":2,"start":1,"action_noise":0,"location_history":"[1,0,5,4,3,2]","action_history":"[1,0,1,0,1]","door_history":"[0,1,0,1,0]","location_rts":"[7619,3002,643,384,400]","trial_type":"two-door-navigation","trial_index":2,"time_elapsed":45144,"internal_node_id":"0.0-2.0-0.0"},{"group":"hexagon_bi","room_assignment":["blue","red","purple","grey","yellow","green"],"door_color_assignment":["black","white"],"door_generator_assignment":[1,0],"goal":0,"start":2,"action_noise":0,"location_history":"[2,3,4,5,0]","action_history":"[1,0,1,0]","door_history":"[0,1,0,1]","location_rts":"[5640,548,340,395]","trial_type":"two-door-navigation","trial_index":3,"time_elapsed":60556,"internal_node_id":"0.0-2.0-1.0"},{"group":"hexagon_bi","room_assignment":["blue","red","purple","grey","yellow","green"],"door_color_assignment":["black","white"],"door_generator_assignment":[1,0],"goal":5,"start":0,"action_noise":0,"location_history":"[0,1,2,3,4,5]","action_history":"[1,0,1,0,1]","door_history":"[0,1,0,1,0]","location_rts":"[8039,476,446,365,392]","trial_type":"two-door-navigation","trial_index":4,"time_elapsed":80838,"internal_node_id":"0.0-2.0-2.0"},{"group":"hexagon_bi","room_assignment":["blue","red","purple","grey","yellow","green"],"door_color_assignment":["black","white"],"door_generator_assignment":[1,0],"goal":1,"start":5,"action_noise":0,"location_history":"[5,4,3,2,1]","action_history":"[1,0,1,0]","door_history":"[0,1,0,1]","location_rts":"[2568,352,347,487]","trial_type":"two-door-navigation","trial_index":5,"time_elapsed":93001,"internal_node_id":"0.0-2.0-3.0"},{"group":"hexagon_bi","room_assignment":["blue","red","purple","grey","yellow","green"],"door_color_assignment":["black","white"],"door_generator_assignment":[1,0],"goal":3,"start":1,"action_noise":0,"location_history":"[1,2,3]","action_history":"[0,1]","door_history":"[1,0]","location_rts":"[1636,374]","trial_type":"two-door-navigation","trial_index":6,"time_elapsed":101890,"internal_node_id":"0.0-2.0-4.0"},{"group":"hexagon_bi","room_assignment":["blue","red","purple","grey","yellow","green"],"door_color_assignment":["black","white"],"door_generator_assignment":[1,0],"goal":5,"start":3,"action_noise":0,"location_history":"[3,2,1,0,5]","action_history":"[1,0,1,0]","door_history":"[0,1,0,1]","location_rts":"[2958,446,630,582]","trial_type":"two-door-navigation","trial_index":7,"time_elapsed":114810,"internal_node_id":"0.0-2.0-5.0"},{"group":"hexagon_bi","room_assignment":["blue","red","purple","grey","yellow","green"],"door_color_assignment":["black","white"],"door_generator_assignment":[1,0],"goal":4,"start":5,"action_noise":0,"location_history":"[5,0,5,4]","action_history":"[0,0,1]","door_history":"[1,1,0]","location_rts":"[4339,742,453]","trial_type":"two-door-navigation","trial_index":8,"time_elapsed":127733,"internal_node_id":"0.0-2.0-6.0"},{"group":"hexagon_bi","room_assignment":["blue","red","purple","grey","yellow","green"],"door_color_assignment":["black","white"],"door_generator_assignment":[1,0],"goal":0,"start":4,"action_noise":0,"location_history":"[4,3,2,1,0]","action_history":"[0,1,0,1]","door_history":"[1,0,1,0]","location_rts":"[5944,380,436,1041]","trial_type":"two-door-navigation","trial_index":9,"time_elapsed":143985,"internal_node_id":"0.0-2.0-7.0"},{"group":"hexagon_bi","room_assignment":["blue","red","purple","grey","yellow","green"],"door_color_assignment":["black","white"],"door_generator_assignment":[1,0],"goal":2,"start":0,"action_noise":0,"location_history":"[0,5,4,3,2]","action_history":"[0,1,0,1]","door_history":"[1,0,1,0]","location_rts":"[2800,314,328,358]","trial_type":"two-door-navigation","trial_index":10,"time_elapsed":156249,"internal_node_id":"0.0-2.0-8.0"},{"group":"hexagon_bi","room_assignment":["blue","red","purple","grey","yellow","green"],"door_color_assignment":["black","white"],"door_generator_assignment":[1,0],"goal":4,"start":2,"action_noise":0,"location_history":"[2,3,4]","action_history":"[1,0]","door_history":"[0,1]","location_rts":"[3302,404]","trial_type":"two-door-navigation","trial_index":11,"time_elapsed":166308,"internal_node_id":"0.0-2.0-9.0"},{"group":"hexagon_bi","room_assignment":["blue","red","purple","grey","yellow","green"],"door_color_assignment":["black","white"],"door_generator_assignment":[1,0],"goal":2,"start":4,"action_noise":0,"location_history":"[4,3,2]","action_history":"[0,1]","door_history":"[1,0]","location_rts":"[19436,414]","trial_type":"two-door-navigation","trial_index":12,"time_elapsed":192328,"internal_node_id":"0.0-2.0-10.0"},{"group":"hexagon_bi","room_assignment":["blue","red","purple","grey","yellow","green"],"door_color_assignment":["black","white"],"door_generator_assignment":[1,0],"goal":3,"start":2,"action_noise":0,"location_history":"[2,3]","action_history":"[1]","door_history":"[0]","location_rts":"[3918]","trial_type":"two-door-navigation","trial_index":13,"time_elapsed":201388,"internal_node_id":"0.0-2.0-11.0"},{"group":"hexagon_bi","room_assignment":["blue","red","purple","grey","yellow","green"],"door_color_assignment":["black","white"],"door_generator_assignment":[1,0],"goal":0,"start":3,"action_noise":0,"location_history":"[3,4,5,0]","action_history":"[0,1,0]","door_history":"[1,0,1]","location_rts":"[13203,378,1273]","trial_type":"two-door-navigation","trial_index":14,"time_elapsed":223623,"internal_node_id":"0.0-2.0-12.0"},{"group":"hexagon_bi","room_assignment":["blue","red","purple","grey","yellow","green"],"door_color_assignment":["black","white"],"door_generator_assignment":[1,0],"goal":5,"start":0,"action_noise":0,"location_history":"[0,1,2,3,4,5]","action_history":"[1,0,1,0,1]","door_history":"[0,1,0,1,0]","location_rts":"[1638,582,213,405,342]","trial_type":"two-door-navigation","trial_index":15,"time_elapsed":236504,"internal_node_id":"0.0-2.0-13.0"},{"group":"hexagon_bi","room_assignment":["blue","red","purple","grey","yellow","green"],"door_color_assignment":["black","white"],"door_generator_assignment":[1,0],"goal":1,"start":5,"action_noise":0,"location_history":"[5,4,3,2,1]","action_history":"[1,0,1,0]","door_history":"[0,1,0,1]","location_rts":"[11214,2307,513,2443]","trial_type":"two-door-navigation","trial_index":16,"time_elapsed":261476,"internal_node_id":"0.0-2.0-14.0"},{"group":"hexagon_bi","room_assignment":["blue","red","purple","grey","yellow","green"],"door_color_assignment":["black","white"],"door_generator_assignment":[1,0],"goal":5,"start":1,"action_noise":0,"location_history":"[1,0,5]","action_history":"[1,0]","door_history":"[0,1]","location_rts":"[13410,399]","trial_type":"two-door-navigation","trial_index":17,"time_elapsed":281566,"internal_node_id":"0.0-2.0-15.0"},{"group":"hexagon_bi","room_assignment":["blue","red","purple","grey","yellow","green"],"door_color_assignment":["black","white"],"door_generator_assignment":[1,0],"goal":3,"start":5,"action_noise":0,"location_history":"[5,0,1,2,3]","action_history":"[0,1,0,1]","door_history":"[1,0,1,0]","location_rts":"[1909,436,345,353]","trial_type":"two-door-navigation","trial_index":18,"time_elapsed":293117,"internal_node_id":"0.0-2.0-16.0"},{"group":"hexagon_bi","room_assignment":["blue","red","purple","grey","yellow","green"],"door_color_assignment":["black","white"],"door_generator_assignment":[1,0],"goal":2,"start":3,"action_noise":0,"location_history":"[3,2]","action_history":"[1]","door_history":"[0]","location_rts":"[4950]","trial_type":"two-door-navigation","trial_index":19,"time_elapsed":303240,"internal_node_id":"0.0-2.0-17.0"},{"group":"hexagon_bi","room_assignment":["blue","red","purple","grey","yellow","green"],"door_color_assignment":["black","white"],"door_generator_assignment":[1,0],"goal":1,"start":2,"action_noise":0,"location_history":"[2,1]","action_history":"[0]","door_history":"[1]","location_rts":"[9260]","trial_type":"two-door-navigation","trial_index":20,"time_elapsed":317642,"internal_node_id":"0.0-2.0-18.0"},{"group":"hexagon_bi","room_assignment":["blue","red","purple","grey","yellow","green"],"door_color_assignment":["black","white"],"door_generator_assignment":[1,0],"goal":4,"start":1,"action_noise":0,"location_history":"[1,2,3,2,1,0,5,4]","action_history":"[0,1,1,0,1,0,1]","door_history":"[1,0,0,1,0,1,0]","location_rts":"[3136,647,391,371,393,390,379]","trial_type":"two-door-navigation","trial_index":21,"time_elapsed":334997,"internal_node_id":"0.0-2.0-19.0"},{"group":"hexagon_bi","room_assignment":["blue","red","purple","grey","yellow","green"],"door_color_assignment":["black","white"],"door_generator_assignment":[1,0],"goal":0,"start":4,"action_noise":0,"location_history":"[4,5,0]","action_history":"[1,0]","door_history":"[0,1]","location_rts":"[12495,755]","trial_type":"two-door-navigation","trial_index":22,"time_elapsed":354400,"internal_node_id":"0.0-2.0-20.0"},{"group":"hexagon_bi","room_assignment":["blue","red","purple","grey","yellow","green"],"door_color_assignment":["black","white"],"door_generator_assignment":[1,0],"goal":3,"start":0,"action_noise":0,"location_history":"[0,1,2,3]","action_history":"[1,0,1]","door_history":"[0,1,0]","location_rts":"[14813,4026,352]","trial_type":"two-door-navigation","trial_index":23,"time_elapsed":380865,"internal_node_id":"0.0-2.0-21.0"},{"group":"hexagon_bi","room_assignment":["blue","red","purple","grey","yellow","green"],"door_color_assignment":["black","white"],"door_generator_assignment":[1,0],"goal":1,"start":3,"action_noise":0,"location_history":"[3,2,1]","action_history":"[1,0]","door_history":"[0,1]","location_rts":"[3537,339]","trial_type":"two-door-navigation","trial_index":24,"time_elapsed":391133,"internal_node_id":"0.0-2.0-22.0"},{"group":"hexagon_bi","room_assignment":["blue","red","purple","grey","yellow","green"],"door_color_assignment":["black","white"],"door_generator_assignment":[1,0],"goal":0,"start":1,"action_noise":0,"location_history":"[1,0]","action_history":"[1]","door_history":"[0]","location_rts":"[19852]","trial_type":"two-door-navigation","trial_index":25,"time_elapsed":416146,"internal_node_id":"0.0-2.0-23.0"},{"group":"hexagon_bi","room_assignment":["blue","red","purple","grey","yellow","green"],"door_color_assignment":["black","white"],"door_generator_assignment":[1,0],"goal":2,"start":0,"action_noise":0,"location_history":"[0,1,2]","action_history":"[1,0]","door_history":"[0,1]","location_rts":"[15566,361]","trial_type":"two-door-navigation","trial_index":26,"time_elapsed":438232,"internal_node_id":"0.0-2.0-24.0"},{"group":"hexagon_bi","room_assignment":["blue","red","purple","grey","yellow","green"],"door_color_assignment":["black","white"],"door_generator_assignment":[1,0],"goal":4,"start":2,"action_noise":0,"location_history":"[2,1,0,5,4]","action_history":"[0,1,0,1]","door_history":"[1,0,1,0]","location_rts":"[11557,392,398,737]","trial_type":"two-door-navigation","trial_index":27,"time_elapsed":459660,"internal_node_id":"0.0-2.0-25.0"},{"group":"hexagon_bi","room_assignment":["blue","red","purple","grey","yellow","green"],"door_color_assignment":["black","white"],"door_generator_assignment":[1,0],"goal":5,"start":4,"action_noise":0,"location_history":"[4,5]","action_history":"[1]","door_history":"[0]","location_rts":"[16956]","trial_type":"two-door-navigation","trial_index":28,"time_elapsed":481713,"internal_node_id":"0.0-2.0-26.0"},{"group":"hexagon_bi","room_assignment":["blue","red","purple","grey","yellow","green"],"door_color_assignment":["black","white"],"door_generator_assignment":[1,0],"goal":2,"start":5,"action_noise":0,"location_history":"[5,0,1,2]","action_history":"[0,1,0]","door_history":"[1,0,1]","location_rts":"[2046,865,354]","trial_type":"two-door-navigation","trial_index":29,"time_elapsed":492248,"internal_node_id":"0.0-2.0-27.0"},{"group":"hexagon_bi","room_assignment":["blue","red","purple","grey","yellow","green"],"door_color_assignment":["black","white"],"door_generator_assignment":[1,0],"goal":3,"start":2,"action_noise":0,"location_history":"[2,3]","action_history":"[1]","door_history":"[0]","location_rts":"[13571]","trial_type":"two-door-navigation","trial_index":30,"time_elapsed":511291,"internal_node_id":"0.0-2.0-28.0"},{"group":"hexagon_bi","room_assignment":["blue","red","purple","grey","yellow","green"],"door_color_assignment":["black","white"],"door_generator_assignment":[1,0],"goal":1,"start":3,"action_noise":0,"location_history":"[3,2,1]","action_history":"[1,0]","door_history":"[0,1]","location_rts":"[1955,393]","trial_type":"two-door-navigation","trial_index":31,"time_elapsed":520037,"internal_node_id":"0.0-2.0-29.0"},{"group":"hexagon_bi","room_assignment":["blue","red","purple","grey","yellow","green"],"door_color_assignment":["black","white"],"door_generator_assignment":[1,0],"goal":4,"start":1,"action_noise":0,"location_history":"[1,0,5,4]","action_history":"[1,0,1]","door_history":"[0,1,0]","location_rts":"[20905,372,421]","trial_type":"two-door-navigation","trial_index":32,"time_elapsed":548985,"internal_node_id":"0.0-2.0-30.0"},{"group":"hexagon_bi","room_assignment":["blue","red","purple","grey","yellow","green"],"door_color_assignment":["black","white"],"door_generator_assignment":[1,0],"goal":5,"start":4,"action_noise":0,"location_history":"[4,5]","action_history":"[1]","door_history":"[0]","location_rts":"[4892]","trial_type":"two-door-navigation","trial_index":33,"time_elapsed":558964,"internal_node_id":"0.0-2.0-31.0"},{"group":"hexagon_bi","room_assignment":["blue","red","purple","grey","yellow","green"],"door_color_assignment":["black","white"],"door_generator_assignment":[1,0],"goal":0,"start":5,"action_noise":0,"location_history":"[5,4,3,2,1,0]","action_history":"[1,0,1,0,1]","door_history":"[0,1,0,1,0]","location_rts":"[2351,364,385,386,685]","trial_type":"two-door-navigation","trial_index":34,"time_elapsed":572594,"internal_node_id":"0.0-2.0-32.0"},{"group":"hexagon_bi","room_assignment":["blue","red","purple","grey","yellow","green"],"door_color_assignment":["black","white"],"door_generator_assignment":[1,0],"goal":2,"start":0,"action_noise":0,"location_history":"[0,1,2]","action_history":"[1,0]","door_history":"[0,1]","location_rts":"[16616,425]","trial_type":"two-door-navigation","trial_index":35,"time_elapsed":595838,"internal_node_id":"0.0-2.0-33.0"},{"group":"hexagon_bi","room_assignment":["blue","red","purple","grey","yellow","green"],"door_color_assignment":["black","white"],"door_generator_assignment":[1,0],"goal":0,"start":2,"action_noise":0,"location_history":"[2,3,4,5,0]","action_history":"[1,0,1,0]","door_history":"[0,1,0,1]","location_rts":"[2585,471,570,507]","trial_type":"two-door-navigation","trial_index":36,"time_elapsed":608378,"internal_node_id":"0.0-2.0-34.0"},{"group":"hexagon_bi","room_assignment":["blue","red","purple","grey","yellow","green"],"door_color_assignment":["black","white"],"door_generator_assignment":[1,0],"goal":5,"start":0,"action_noise":0,"location_history":"[0,1,2,3,4,5]","action_history":"[1,0,1,0,1]","door_history":"[0,1,0,1,0]","location_rts":"[3718,1217,434,396,438]","trial_type":"two-door-navigation","trial_index":37,"time_elapsed":624397,"internal_node_id":"0.0-2.0-35.0"},{"group":"hexagon_bi","room_assignment":["blue","red","purple","grey","yellow","green"],"door_color_assignment":["black","white"],"door_generator_assignment":[1,0],"goal":1,"start":5,"action_noise":0,"location_history":"[5,0,1]","action_history":"[0,1]","door_history":"[1,0]","location_rts":"[5410,1843]","trial_type":"two-door-navigation","trial_index":38,"time_elapsed":637814,"internal_node_id":"0.0-2.0-36.0"},{"group":"hexagon_bi","room_assignment":["blue","red","purple","grey","yellow","green"],"door_color_assignment":["black","white"],"door_generator_assignment":[1,0],"goal":4,"start":1,"action_noise":0,"location_history":"[1,2,3,4]","action_history":"[0,1,0]","door_history":"[1,0,1]","location_rts":"[9786,562,805]","trial_type":"two-door-navigation","trial_index":39,"time_elapsed":656400,"internal_node_id":"0.0-2.0-37.0"},{"group":"hexagon_bi","room_assignment":["blue","red","purple","grey","yellow","green"],"door_color_assignment":["black","white"],"door_generator_assignment":[1,0],"goal":3,"start":4,"action_noise":0,"location_history":"[4,5,0,1,2,3]","action_history":"[1,0,1,0,1]","door_history":"[0,1,0,1,0]","location_rts":"[1278,383,417,357,341]","trial_type":"two-door-navigation","trial_index":40,"time_elapsed":668596,"internal_node_id":"0.0-2.0-38.0"},{"group":"hexagon_bi","room_assignment":["blue","red","purple","grey","yellow","green"],"door_color_assignment":["black","white"],"door_generator_assignment":[1,0],"goal":5,"start":3,"action_noise":0,"location_history":"[3,2,1,0,5]","action_history":"[1,0,1,0]","door_history":"[0,1,0,1]","location_rts":"[10234,350,356,380]","trial_type":"two-door-navigation","trial_index":41,"time_elapsed":688486,"internal_node_id":"0.0-2.0-39.0"},{"group":"hexagon_bi","room_assignment":["blue","red","purple","grey","yellow","green"],"door_color_assignment":["black","white"],"door_generator_assignment":[1,0],"goal":1,"start":5,"action_noise":0,"location_history":"[5,4,3,2,1]","action_history":"[1,0,1,0]","door_history":"[0,1,0,1]","location_rts":"[1561,346,330,388]","trial_type":"two-door-navigation","trial_index":42,"time_elapsed":699446,"internal_node_id":"0.0-2.0-40.0"},{"group":"hexagon_bi","room_assignment":["blue","red","purple","grey","yellow","green"],"door_color_assignment":["black","white"],"door_generator_assignment":[1,0],"goal":2,"start":1,"action_noise":0,"location_history":"[1,0,5,4,5,0,1,2]","action_history":"[1,0,1,1,0,1,0]","door_history":"[0,1,0,0,1,0,1]","location_rts":"[1827,395,383,3647,370,444,390]","trial_type":"two-door-navigation","trial_index":43,"time_elapsed":718946,"internal_node_id":"0.0-2.0-41.0"},{"group":"hexagon_bi","room_assignment":["blue","red","purple","grey","yellow","green"],"door_color_assignment":["black","white"],"door_generator_assignment":[1,0],"goal":4,"start":2,"action_noise":0,"location_history":"[2,3,4]","action_history":"[1,0]","door_history":"[0,1]","location_rts":"[1380,426]","trial_type":"two-door-navigation","trial_index":44,"time_elapsed":727023,"internal_node_id":"0.0-2.0-42.0"},{"group":"hexagon_bi","room_assignment":["blue","red","purple","grey","yellow","green"],"door_color_assignment":["black","white"],"door_generator_assignment":[1,0],"goal":0,"start":4,"action_noise":0,"location_history":"[4,5,0]","action_history":"[1,0]","door_history":"[0,1]","location_rts":"[1331,434]","trial_type":"two-door-navigation","trial_index":45,"time_elapsed":735175,"internal_node_id":"0.0-2.0-43.0"},{"group":"hexagon_bi","room_assignment":["blue","red","purple","grey","yellow","green"],"door_color_assignment":["black","white"],"door_generator_assignment":[1,0],"goal":3,"start":0,"action_noise":0,"location_history":"[0,1,2,3]","action_history":"[1,0,1]","door_history":"[0,1,0]","location_rts":"[1758,328,391]","trial_type":"two-door-navigation","trial_index":46,"time_elapsed":744987,"internal_node_id":"0.0-2.0-44.0"},{"group":"hexagon_bi","room_assignment":["blue","red","purple","grey","yellow","green"],"door_color_assignment":["black","white"],"door_generator_assignment":[1,0],"goal":0,"start":3,"action_noise":0,"location_history":"[3,2,1,0]","action_history":"[1,0,1]","door_history":"[0,1,0]","location_rts":"[4333,354,351]","trial_type":"two-door-navigation","trial_index":47,"time_elapsed":757366,"internal_node_id":"0.0-2.0-45.0"},{"group":"hexagon_bi","room_assignment":["blue","red","purple","grey","yellow","green"],"door_color_assignment":["black","white"],"door_generator_assignment":[1,0],"goal":4,"start":0,"action_noise":0,"location_history":"[0,1,2,3,4]","action_history":"[1,0,1,0]","door_history":"[0,1,0,1]","location_rts":"[5539,1253,368,331]","trial_type":"two-door-navigation","trial_index":48,"time_elapsed":773229,"internal_node_id":"0.0-2.0-46.0"},{"group":"hexagon_bi","room_assignment":["blue","red","purple","grey","yellow","green"],"door_color_assignment":["black","white"],"door_generator_assignment":[1,0],"goal":5,"start":4,"action_noise":0,"location_history":"[4,5]","action_history":"[1]","door_history":"[0]","location_rts":"[1393]","trial_type":"two-door-navigation","trial_index":49,"time_elapsed":780062,"internal_node_id":"0.0-2.0-47.0"},{"group":"hexagon_bi","room_assignment":["blue","red","purple","grey","yellow","green"],"door_color_assignment":["black","white"],"door_generator_assignment":[1,0],"goal":2,"start":5,"action_noise":0,"location_history":"[5,0,1,2]","action_history":"[0,1,0]","door_history":"[1,0,1]","location_rts":"[967,407,350]","trial_type":"two-door-navigation","trial_index":50,"time_elapsed":789232,"internal_node_id":"0.0-2.0-48.0"},{"group":"hexagon_bi","room_assignment":["blue","red","purple","grey","yellow","green"],"door_color_assignment":["black","white"],"door_generator_assignment":[1,0],"goal":1,"start":2,"action_noise":0,"location_history":"[2,3,4,5,0,1]","action_history":"[1,0,1,0,1]","door_history":"[0,1,0,1,0]","location_rts":"[6620,5966,3091,372,1521]","trial_type":"two-door-navigation","trial_index":51,"time_elapsed":816272,"internal_node_id":"0.0-2.0-49.0"},{"view_history":"[{\"page_index\":0,\"viewing_time\":6256}]","rt":6256,"trial_type":"instructions","trial_index":52,"time_elapsed":823531,"internal_node_id":"0.0-3.0"},{"view_history":"[{\"page_index\":0,\"viewing_time\":13851},{\"page_index\":1,\"viewing_time\":4955}]","rt":18807,"trial_type":"instructions","trial_index":53,"time_elapsed":843340,"internal_node_id":"0.0-4.0"},{"group":"hexagon_tri","fractal_assignment":["../images/pnk_blu.png","../images/gry_blk.png","../images/org_blu.png","../images/cyn_red.png","../images/blu_wht.png","../images/ylw_slt.png"],"mutagen_generator_assignment":[1,0],"goal":2,"start":1,"action_noise":0,"location_history":"[1,3,4,0,5,4,2]","action_history":"[0,1,0,0,0,1]","mutagen_history":"[1,0,1,1,1,0]","location_rts":"[3525,1198,832,457,1695,901]","trial_type":"fractal-mutation","trial_index":54,"time_elapsed":862965,"internal_node_id":"0.0-5.0-0.0"},{"group":"hexagon_tri","fractal_assignment":["../images/pnk_blu.png","../images/gry_blk.png","../images/org_blu.png","../images/cyn_red.png","../images/blu_wht.png","../images/ylw_slt.png"],"mutagen_generator_assignment":[1,0],"goal":0,"start":2,"action_noise":0,"location_history":"[2,1,5,0]","action_history":"[0,1,1]","mutagen_history":"[1,0,0]","location_rts":"[13315,1070,629]","trial_type":"fractal-mutation","trial_index":55,"time_elapsed":885400,"internal_node_id":"0.0-5.0-1.0"},{"group":"hexagon_tri","fractal_assignment":["../images/pnk_blu.png","../images/gry_blk.png","../images/org_blu.png","../images/cyn_red.png","../images/blu_wht.png","../images/ylw_slt.png"],"mutagen_generator_assignment":[1,0],"goal":5,"start":0,"action_noise":0,"location_history":"[0,5]","action_history":"[0]","mutagen_history":"[1]","location_rts":"[14290]","trial_type":"fractal-mutation","trial_index":56,"time_elapsed":904993,"internal_node_id":"0.0-5.0-2.0"},{"group":"hexagon_tri","fractal_assignment":["../images/pnk_blu.png","../images/gry_blk.png","../images/org_blu.png","../images/cyn_red.png","../images/blu_wht.png","../images/ylw_slt.png"],"mutagen_generator_assignment":[1,0],"goal":1,"start":5,"action_noise":0,"location_history":"[5,4,2,3,2,1]","action_history":"[0,1,1,0,0]","mutagen_history":"[1,0,0,1,1]","location_rts":"[3457,927,5682,1261,536]","trial_type":"fractal-mutation","trial_index":57,"time_elapsed":926870,"internal_node_id":"0.0-5.0-3.0"},{"group":"hexagon_tri","fractal_assignment":["../images/pnk_blu.png","../images/gry_blk.png","../images/org_blu.png","../images/cyn_red.png","../images/blu_wht.png","../images/ylw_slt.png"],"mutagen_generator_assignment":[1,0],"goal":3,"start":1,"action_noise":0,"location_history":"[1,3]","action_history":"[0]","mutagen_history":"[1]","location_rts":"[11391]","trial_type":"fractal-mutation","trial_index":58,"time_elapsed":943417,"internal_node_id":"0.0-5.0-4.0"},{"group":"hexagon_tri","fractal_assignment":["../images/pnk_blu.png","../images/gry_blk.png","../images/org_blu.png","../images/cyn_red.png","../images/blu_wht.png","../images/ylw_slt.png"],"mutagen_generator_assignment":[1,0],"goal":5,"start":3,"action_noise":0,"location_history":"[3,4,2,1,5]","action_history":"[1,1,0,1]","mutagen_history":"[0,0,1,0]","location_rts":"[2368,3318,991,889]","trial_type":"fractal-mutation","trial_index":59,"time_elapsed":959572,"internal_node_id":"0.0-5.0-5.0"},{"group":"hexagon_tri","fractal_assignment":["../images/pnk_blu.png","../images/gry_blk.png","../images/org_blu.png","../images/cyn_red.png","../images/blu_wht.png","../images/ylw_slt.png"],"mutagen_generator_assignment":[1,0],"goal":4,"start":5,"action_noise":0,"location_history":"[5,4]","action_history":"[0]","mutagen_history":"[1]","location_rts":"[3484]","trial_type":"fractal-mutation","trial_index":60,"time_elapsed":968173,"internal_node_id":"0.0-5.0-6.0"},{"group":"hexagon_tri","fractal_assignment":["../images/pnk_blu.png","../images/gry_blk.png","../images/org_blu.png","../images/cyn_red.png","../images/blu_wht.png","../images/ylw_slt.png"],"mutagen_generator_assignment":[1,0],"goal":0,"start":4,"action_noise":0,"location_history":"[4,2,1,5,4,2,3,2,1,3,4,2,3,2,1,3,2,3,4,2,1,5,4,2,3,4,0]","action_history":"[1,0,1,0,1,1,0,0,0,1,1,1,0,0,0,0,1,1,1,0,1,0,1,1,1,0]","mutagen_history":"[0,1,0,1,0,0,1,1,1,0,0,0,1,1,1,1,0,0,0,1,0,1,0,0,0,1]","location_rts":"[3721,8318,4891,28595,1081,891,931,5806,1047,1239,522,911,1110,4515,912,776,1278,334,766,1062,661,1563,1798,415,59,37]","trial_type":"fractal-mutation","trial_index":61,"time_elapsed":1074923,"internal_node_id":"0.0-5.0-7.0"},{"group":"hexagon_tri","fractal_assignment":["../images/pnk_blu.png","../images/gry_blk.png","../images/org_blu.png","../images/cyn_red.png","../images/blu_wht.png","../images/ylw_slt.png"],"mutagen_generator_assignment":[1,0],"goal":2,"start":0,"action_noise":0,"location_history":"[0,1,3,2]","action_history":"[1,0,0]","mutagen_history":"[0,1,1]","location_rts":"[4227,2640,1087]","trial_type":"fractal-mutation","trial_index":62,"time_elapsed":1090236,"internal_node_id":"0.0-5.0-8.0"},{"group":"hexagon_tri","fractal_assignment":["../images/pnk_blu.png","../images/gry_blk.png","../images/org_blu.png","../images/cyn_red.png","../images/blu_wht.png","../images/ylw_slt.png"],"mutagen_generator_assignment":[1,0],"goal":4,"start":2,"action_noise":0,"location_history":"[2,3,2,1,5,0,1,3,4]","action_history":"[1,0,0,1,1,1,0,1]","mutagen_history":"[0,1,1,0,0,0,1,0]","location_rts":"[2117,1643,590,364,424,1238,577,886]","trial_type":"fractal-mutation","trial_index":63,"time_elapsed":1110875,"internal_node_id":"0.0-5.0-9.0"},{"group":"hexagon_tri","fractal_assignment":["../images/pnk_blu.png","../images/gry_blk.png","../images/org_blu.png","../images/cyn_red.png","../images/blu_wht.png","../images/ylw_slt.png"],"mutagen_generator_assignment":[1,0],"goal":2,"start":4,"action_noise":0,"location_history":"[4,0,5,0,1,3,2]","action_history":"[0,0,1,1,0,0]","mutagen_history":"[1,1,0,0,1,1]","location_rts":"[1895,855,1325,901,520,579]","trial_type":"fractal-mutation","trial_index":64,"time_elapsed":1127820,"internal_node_id":"0.0-5.0-10.0"},{"group":"hexagon_tri","fractal_assignment":["../images/pnk_blu.png","../images/gry_blk.png","../images/org_blu.png","../images/cyn_red.png","../images/blu_wht.png","../images/ylw_slt.png"],"mutagen_generator_assignment":[1,0],"goal":3,"start":2,"action_noise":0,"location_history":"[2,1,5,0,5,4,2,1,3]","action_history":"[0,1,1,0,0,1,0,0]","mutagen_history":"[1,0,0,1,1,0,1,1]","location_rts":"[18892,1107,557,1160,596,2483,842,445]","trial_type":"fractal-mutation","trial_index":65,"time_elapsed":1167018,"internal_node_id":"0.0-5.0-11.0"},{"group":"hexagon_tri","fractal_assignment":["../images/pnk_blu.png","../images/gry_blk.png","../images/org_blu.png","../images/cyn_red.png","../images/blu_wht.png","../images/ylw_slt.png"],"mutagen_generator_assignment":[1,0],"goal":0,"start":3,"action_noise":0,"location_history":"[3,2,3,4,2,1,3,2,3,4,2,1,3,2,1,3,4,0]","action_history":"[0,1,1,1,0,0,0,1,1,1,0,0,0,0,0,1,0]","mutagen_history":"[1,0,0,0,1,1,1,0,0,0,1,1,1,1,1,0,1]","location_rts":"[1857,888,1179,547,769,425,8181,2314,1788,1898,1721,1137,130422,3634,6720,1125,2015]","trial_type":"fractal-mutation","trial_index":66,"time_elapsed":1356730,"internal_node_id":"0.0-5.0-12.0"},{"group":"hexagon_tri","fractal_assignment":["../images/pnk_blu.png","../images/gry_blk.png","../images/org_blu.png","../images/cyn_red.png","../images/blu_wht.png","../images/ylw_slt.png"],"mutagen_generator_assignment":[1,0],"goal":5,"start":0,"action_noise":0,"location_history":"[0,5]","action_history":"[0]","mutagen_history":"[1]","location_rts":"[12527]","trial_type":"fractal-mutation","trial_index":67,"time_elapsed":1374390,"internal_node_id":"0.0-5.0-13.0"},{"group":"hexagon_tri","fractal_assignment":["../images/pnk_blu.png","../images/gry_blk.png","../images/org_blu.png","../images/cyn_red.png","../images/blu_wht.png","../images/ylw_slt.png"],"mutagen_generator_assignment":[1,0],"goal":1,"start":5,"action_noise":0,"location_history":"[5,4,2,3,2,1]","action_history":"[0,1,1,0,0]","mutagen_history":"[1,0,0,1,1]","location_rts":"[24607,985,616,1170,903]","trial_type":"fractal-mutation","trial_index":68,"time_elapsed":1412200,"internal_node_id":"0.0-5.0-14.0"},{"group":"hexagon_tri","fractal_assignment":["../images/pnk_blu.png","../images/gry_blk.png","../images/org_blu.png","../images/cyn_red.png","../images/blu_wht.png","../images/ylw_slt.png"],"mutagen_generator_assignment":[1,0],"goal":5,"start":1,"action_noise":0,"location_history":"[1,3,2,3,2,1,3,2,1,5]","action_history":"[0,0,1,0,0,0,0,0,1]","mutagen_history":"[1,1,0,1,1,1,1,1,0]","location_rts":"[44332,1374,777,16052,1669,11513,1284,9648,28375]","trial_type":"fractal-mutation","trial_index":69,"time_elapsed":1541898,"internal_node_id":"0.0-5.0-15.0"},{"group":"hexagon_tri","fractal_assignment":["../images/pnk_blu.png","../images/gry_blk.png","../images/org_blu.png","../images/cyn_red.png","../images/blu_wht.png","../images/ylw_slt.png"],"mutagen_generator_assignment":[1,0],"goal":3,"start":5,"action_noise":0,"location_history":"[5,4,0,1,3]","action_history":"[0,0,1,0]","mutagen_history":"[1,1,0,1]","location_rts":"[18350,30526,1175,9866]","trial_type":"fractal-mutation","trial_index":70,"time_elapsed":1610412,"internal_node_id":"0.0-5.0-16.0"},{"group":"hexagon_tri","fractal_assignment":["../images/pnk_blu.png","../images/gry_blk.png","../images/org_blu.png","../images/cyn_red.png","../images/blu_wht.png","../images/ylw_slt.png"],"mutagen_generator_assignment":[1,0],"goal":2,"start":3,"action_noise":0,"location_history":"[3,4,0,1,5,0,1,3,2]","action_history":"[1,0,1,1,1,1,0,0]","mutagen_history":"[0,1,0,0,0,0,1,1]","location_rts":"[15571,5804,689,2871,1165,662,323,1289]","trial_type":"fractal-mutation","trial_index":71,"time_elapsed":1652193,"internal_node_id":"0.0-5.0-17.0"},{"group":"hexagon_tri","fractal_assignment":["../images/pnk_blu.png","../images/gry_blk.png","../images/org_blu.png","../images/cyn_red.png","../images/blu_wht.png","../images/ylw_slt.png"],"mutagen_generator_assignment":[1,0],"goal":1,"start":2,"action_noise":0,"location_history":"[2,1]","action_history":"[0]","mutagen_history":"[1]","location_rts":"[3234]","trial_type":"fractal-mutation","trial_index":72,"time_elapsed":1660651,"internal_node_id":"0.0-5.0-18.0"},{"group":"hexagon_tri","fractal_assignment":["../images/pnk_blu.png","../images/gry_blk.png","../images/org_blu.png","../images/cyn_red.png","../images/blu_wht.png","../images/ylw_slt.png"],"mutagen_generator_assignment":[1,0],"goal":4,"start":1,"action_noise":0,"location_history":"[1,5,4]","action_history":"[1,0]","mutagen_history":"[0,1]","location_rts":"[5893,25429]","trial_type":"fractal-mutation","trial_index":73,"time_elapsed":1698386,"internal_node_id":"0.0-5.0-19.0"},{"group":"hexagon_tri","fractal_assignment":["../images/pnk_blu.png","../images/gry_blk.png","../images/org_blu.png","../images/cyn_red.png","../images/blu_wht.png","../images/ylw_slt.png"],"mutagen_generator_assignment":[1,0],"goal":0,"start":4,"action_noise":0,"location_history":"[4,0]","action_history":"[0]","mutagen_history":"[1]","location_rts":"[7589]","trial_type":"fractal-mutation","trial_index":74,"time_elapsed":1711118,"internal_node_id":"0.0-5.0-20.0"},{"group":"hexagon_tri","fractal_assignment":["../images/pnk_blu.png","../images/gry_blk.png","../images/org_blu.png","../images/cyn_red.png","../images/blu_wht.png","../images/ylw_slt.png"],"mutagen_generator_assignment":[1,0],"goal":3,"start":0,"action_noise":0,"location_history":"[0,1,3]","action_history":"[1,0]","mutagen_history":"[0,1]","location_rts":"[1884,1099]","trial_type":"fractal-mutation","trial_index":75,"time_elapsed":1720359,"internal_node_id":"0.0-5.0-21.0"},{"group":"hexagon_tri","fractal_assignment":["../images/pnk_blu.png","../images/gry_blk.png","../images/org_blu.png","../images/cyn_red.png","../images/blu_wht.png","../images/ylw_slt.png"],"mutagen_generator_assignment":[1,0],"goal":1,"start":3,"action_noise":0,"location_history":"[3,2,1]","action_history":"[0,0]","mutagen_history":"[1,1]","location_rts":"[2338,1638]","trial_type":"fractal-mutation","trial_index":76,"time_elapsed":1730693,"internal_node_id":"0.0-5.0-22.0"},{"group":"hexagon_tri","fractal_assignment":["../images/pnk_blu.png","../images/gry_blk.png","../images/org_blu.png","../images/cyn_red.png","../images/blu_wht.png","../images/ylw_slt.png"],"mutagen_generator_assignment":[1,0],"goal":0,"start":1,"action_noise":0,"location_history":"[1,5,0]","action_history":"[1,1]","mutagen_history":"[0,0]","location_rts":"[3225,946]","trial_type":"fractal-mutation","trial_index":77,"time_elapsed":1741198,"internal_node_id":"0.0-5.0-23.0"},{"group":"hexagon_tri","fractal_assignment":["../images/pnk_blu.png","../images/gry_blk.png","../images/org_blu.png","../images/cyn_red.png","../images/blu_wht.png","../images/ylw_slt.png"],"mutagen_generator_assignment":[1,0],"goal":2,"start":0,"action_noise":0,"location_history":"[0,5,4,2]","action_history":"[0,0,1]","mutagen_history":"[1,1,0]","location_rts":"[1881,1010,1699]","trial_type":"fractal-mutation","trial_index":78,"time_elapsed":1753233,"internal_node_id":"0.0-5.0-24.0"},{"group":"hexagon_tri","fractal_assignment":["../images/pnk_blu.png","../images/gry_blk.png","../images/org_blu.png","../images/cyn_red.png","../images/blu_wht.png","../images/ylw_slt.png"],"mutagen_generator_assignment":[1,0],"goal":4,"start":2,"action_noise":0,"location_history":"[2,1,3,4]","action_history":"[0,0,1]","mutagen_history":"[1,1,0]","location_rts":"[17222,7369,6567]","trial_type":"fractal-mutation","trial_index":79,"time_elapsed":1791961,"internal_node_id":"0.0-5.0-25.0"},{"group":"hexagon_tri","fractal_assignment":["../images/pnk_blu.png","../images/gry_blk.png","../images/org_blu.png","../images/cyn_red.png","../images/blu_wht.png","../images/ylw_slt.png"],"mutagen_generator_assignment":[1,0],"goal":5,"start":4,"action_noise":0,"location_history":"[4,0,1,5]","action_history":"[0,1,1]","mutagen_history":"[1,0,0]","location_rts":"[10013,2455,1435]","trial_type":"fractal-mutation","trial_index":80,"time_elapsed":1813130,"internal_node_id":"0.0-5.0-26.0"},{"group":"hexagon_tri","fractal_assignment":["../images/pnk_blu.png","../images/gry_blk.png","../images/org_blu.png","../images/cyn_red.png","../images/blu_wht.png","../images/ylw_slt.png"],"mutagen_generator_assignment":[1,0],"goal":2,"start":5,"action_noise":0,"location_history":"[5,4,0,1,5,4,0,1,5,0,1,3,2]","action_history":"[0,0,1,1,0,0,1,1,1,1,0,0]","mutagen_history":"[1,1,0,0,1,1,0,0,0,0,1,1]","location_rts":"[6702,42923,67397,4729,368,620,611,80937,5442,1454,530,604]","trial_type":"fractal-mutation","trial_index":81,"time_elapsed":2043456,"internal_node_id":"0.0-5.0-27.0"},{"group":"hexagon_tri","fractal_assignment":["../images/pnk_blu.png","../images/gry_blk.png","../images/org_blu.png","../images/cyn_red.png","../images/blu_wht.png","../images/ylw_slt.png"],"mutagen_generator_assignment":[1,0],"goal":3,"start":2,"action_noise":0,"location_history":"[2,1,3]","action_history":"[0,0]","mutagen_history":"[1,1]","location_rts":"[12144,3794]","trial_type":"fractal-mutation","trial_index":82,"time_elapsed":2065659,"internal_node_id":"0.0-5.0-28.0"},{"group":"hexagon_tri","fractal_assignment":["../images/pnk_blu.png","../images/gry_blk.png","../images/org_blu.png","../images/cyn_red.png","../images/blu_wht.png","../images/ylw_slt.png"],"mutagen_generator_assignment":[1,0],"goal":1,"start":3,"action_noise":0,"location_history":"[3,4,2,1]","action_history":"[1,1,0]","mutagen_history":"[0,0,1]","location_rts":"[1889,15870,5941]","trial_type":"fractal-mutation","trial_index":83,"time_elapsed":2096961,"internal_node_id":"0.0-5.0-29.0"},{"group":"hexagon_tri","fractal_assignment":["../images/pnk_blu.png","../images/gry_blk.png","../images/org_blu.png","../images/cyn_red.png","../images/blu_wht.png","../images/ylw_slt.png"],"mutagen_generator_assignment":[1,0],"goal":4,"start":1,"action_noise":0,"location_history":"[1,5,4]","action_history":"[1,0]","mutagen_history":"[0,1]","location_rts":"[6389,23635]","trial_type":"fractal-mutation","trial_index":84,"time_elapsed":2133352,"internal_node_id":"0.0-5.0-30.0"},{"group":"hexagon_tri","fractal_assignment":["../images/pnk_blu.png","../images/gry_blk.png","../images/org_blu.png","../images/cyn_red.png","../images/blu_wht.png","../images/ylw_slt.png"],"mutagen_generator_assignment":[1,0],"goal":5,"start":4,"action_noise":0,"location_history":"[4,0,5]","action_history":"[0,0]","mutagen_history":"[1,1]","location_rts":"[11327,1090]","trial_type":"fractal-mutation","trial_index":85,"time_elapsed":2152055,"internal_node_id":"0.0-5.0-31.0"},{"group":"hexagon_tri","fractal_assignment":["../images/pnk_blu.png","../images/gry_blk.png","../images/org_blu.png","../images/cyn_red.png","../images/blu_wht.png","../images/ylw_slt.png"],"mutagen_generator_assignment":[1,0],"goal":0,"start":5,"action_noise":0,"location_history":"[5,0]","action_history":"[1]","mutagen_history":"[0]","location_rts":"[32886]","trial_type":"fractal-mutation","trial_index":86,"time_elapsed":2190054,"internal_node_id":"0.0-5.0-32.0"},{"group":"hexagon_tri","fractal_assignment":["../images/pnk_blu.png","../images/gry_blk.png","../images/org_blu.png","../images/cyn_red.png","../images/blu_wht.png","../images/ylw_slt.png"],"mutagen_generator_assignment":[1,0],"goal":2,"start":0,"action_noise":0,"location_history":"[0,5,0,5,0,1,3,2]","action_history":"[0,1,0,1,1,0,0]","mutagen_history":"[1,0,1,0,0,1,1]","location_rts":"[1384,970,444,765,418,2450,1420]","trial_type":"fractal-mutation","trial_index":87,"time_elapsed":2210067,"internal_node_id":"0.0-5.0-33.0"},{"group":"hexagon_tri","fractal_assignment":["../images/pnk_blu.png","../images/gry_blk.png","../images/org_blu.png","../images/cyn_red.png","../images/blu_wht.png","../images/ylw_slt.png"],"mutagen_generator_assignment":[1,0],"goal":0,"start":2,"action_noise":0,"location_history":"[2,1,3,2,3,4,0]","action_history":"[0,0,0,1,1,0]","mutagen_history":"[1,1,1,0,0,1]","location_rts":"[4755,807,801,1750,854,768]","trial_type":"fractal-mutation","trial_index":88,"time_elapsed":2230746,"internal_node_id":"0.0-5.0-34.0"},{"group":"hexagon_tri","fractal_assignment":["../images/pnk_blu.png","../images/gry_blk.png","../images/org_blu.png","../images/cyn_red.png","../images/blu_wht.png","../images/ylw_slt.png"],"mutagen_generator_assignment":[1,0],"goal":5,"start":0,"action_noise":0,"location_history":"[0,5]","action_history":"[0]","mutagen_history":"[1]","location_rts":"[11784]","trial_type":"fractal-mutation","trial_index":89,"time_elapsed":2247686,"internal_node_id":"0.0-5.0-35.0"},{"group":"hexagon_tri","fractal_assignment":["../images/pnk_blu.png","../images/gry_blk.png","../images/org_blu.png","../images/cyn_red.png","../images/blu_wht.png","../images/ylw_slt.png"],"mutagen_generator_assignment":[1,0],"goal":1,"start":5,"action_noise":0,"location_history":"[5,4,2,1]","action_history":"[0,1,0]","mutagen_history":"[1,0,1]","location_rts":"[10282,1268,4454]","trial_type":"fractal-mutation","trial_index":90,"time_elapsed":2271110,"internal_node_id":"0.0-5.0-36.0"},{"group":"hexagon_tri","fractal_assignment":["../images/pnk_blu.png","../images/gry_blk.png","../images/org_blu.png","../images/cyn_red.png","../images/blu_wht.png","../images/ylw_slt.png"],"mutagen_generator_assignment":[1,0],"goal":4,"start":1,"action_noise":0,"location_history":"[1,5,0,5,4]","action_history":"[1,1,0,0]","mutagen_history":"[0,0,1,1]","location_rts":"[2977,2195,1137,948]","trial_type":"fractal-mutation","trial_index":91,"time_elapsed":2286872,"internal_node_id":"0.0-5.0-37.0"},{"group":"hexagon_tri","fractal_assignment":["../images/pnk_blu.png","../images/gry_blk.png","../images/org_blu.png","../images/cyn_red.png","../images/blu_wht.png","../images/ylw_slt.png"],"mutagen_generator_assignment":[1,0],"goal":3,"start":4,"action_noise":0,"location_history":"[4,2,1,3]","action_history":"[1,0,0]","mutagen_history":"[0,1,1]","location_rts":"[2461,1143,1639]","trial_type":"fractal-mutation","trial_index":92,"time_elapsed":2299551,"internal_node_id":"0.0-5.0-38.0"},{"group":"hexagon_tri","fractal_assignment":["../images/pnk_blu.png","../images/gry_blk.png","../images/org_blu.png","../images/cyn_red.png","../images/blu_wht.png","../images/ylw_slt.png"],"mutagen_generator_assignment":[1,0],"goal":5,"start":3,"action_noise":0,"location_history":"[3,4,2,1,3,2,3,4,0,1,5]","action_history":"[1,1,0,0,0,1,1,0,1,1]","mutagen_history":"[0,0,1,1,1,0,0,1,0,0]","location_rts":"[15154,1253,425,441,783,493,526,1483,2895,3164]","trial_type":"fractal-mutation","trial_index":93,"time_elapsed":2341559,"internal_node_id":"0.0-5.0-39.0"},{"group":"hexagon_tri","fractal_assignment":["../images/pnk_blu.png","../images/gry_blk.png","../images/org_blu.png","../images/cyn_red.png","../images/blu_wht.png","../images/ylw_slt.png"],"mutagen_generator_assignment":[1,0],"goal":1,"start":5,"action_noise":0,"location_history":"[5,4,2,1]","action_history":"[0,1,0]","mutagen_history":"[1,0,1]","location_rts":"[10566,1375,963]","trial_type":"fractal-mutation","trial_index":94,"time_elapsed":2362039,"internal_node_id":"0.0-5.0-40.0"},{"group":"hexagon_tri","fractal_assignment":["../images/pnk_blu.png","../images/gry_blk.png","../images/org_blu.png","../images/cyn_red.png","../images/blu_wht.png","../images/ylw_slt.png"],"mutagen_generator_assignment":[1,0],"goal":2,"start":1,"action_noise":0,"location_history":"[1,5,4,0,1,5,0,5,0,1,3,4,2]","action_history":"[1,0,0,1,1,1,0,1,1,0,1,1]","mutagen_history":"[0,1,1,0,0,0,1,0,0,1,0,0]","location_rts":"[2000,617,548,497,458,434,796,428,442,1020,1589,468]","trial_type":"fractal-mutation","trial_index":95,"time_elapsed":2389248,"internal_node_id":"0.0-5.0-41.0"},{"group":"hexagon_tri","fractal_assignment":["../images/pnk_blu.png","../images/gry_blk.png","../images/org_blu.png","../images/cyn_red.png","../images/blu_wht.png","../images/ylw_slt.png"],"mutagen_generator_assignment":[1,0],"goal":4,"start":2,"action_noise":0,"location_history":"[2,3,2,1,5,0,1,3,2,1,5,0,5,4]","action_history":"[1,0,0,1,1,1,0,0,0,1,1,0,0]","mutagen_history":"[0,1,1,0,0,0,1,1,1,0,0,1,1]","location_rts":"[53455,744,515,562,508,4246,556,1385,2476,514,403,606,962]","trial_type":"fractal-mutation","trial_index":96,"time_elapsed":2475072,"internal_node_id":"0.0-5.0-42.0"},{"group":"hexagon_tri","fractal_assignment":["../images/pnk_blu.png","../images/gry_blk.png","../images/org_blu.png","../images/cyn_red.png","../images/blu_wht.png","../images/ylw_slt.png"],"mutagen_generator_assignment":[1,0],"goal":0,"start":4,"action_noise":0,"location_history":"[4,0]","action_history":"[0]","mutagen_history":"[1]","location_rts":"[1787]","trial_type":"fractal-mutation","trial_index":97,"time_elapsed":2482141,"internal_node_id":"0.0-5.0-43.0"},{"group":"hexagon_tri","fractal_assignment":["../images/pnk_blu.png","../images/gry_blk.png","../images/org_blu.png","../images/cyn_red.png","../images/blu_wht.png","../images/ylw_slt.png"],"mutagen_generator_assignment":[1,0],"goal":3,"start":0,"action_noise":0,"location_history":"[0,5,4,0,5,0,1,5,0,5,4,2,3]","action_history":"[0,0,0,0,1,1,1,1,0,0,1,1]","mutagen_history":"[1,1,1,1,0,0,0,0,1,1,0,0]","location_rts":"[61600,920,515,663,431,963,695,693,455,717,729,768]","trial_type":"fractal-mutation","trial_index":98,"time_elapsed":2569060,"internal_node_id":"0.0-5.0-44.0"},{"group":"hexagon_tri","fractal_assignment":["../images/pnk_blu.png","../images/gry_blk.png","../images/org_blu.png","../images/cyn_red.png","../images/blu_wht.png","../images/ylw_slt.png"],"mutagen_generator_assignment":[1,0],"goal":0,"start":3,"action_noise":0,"location_history":"[3,2,1,5,4,0]","action_history":"[0,0,1,0,0]","mutagen_history":"[1,1,0,1,1]","location_rts":"[5080,653,48482,1361,597]","trial_type":"fractal-mutation","trial_index":99,"time_elapsed":2634935,"internal_node_id":"0.0-5.0-45.0"},{"group":"hexagon_tri","fractal_assignment":["../images/pnk_blu.png","../images/gry_blk.png","../images/org_blu.png","../images/cyn_red.png","../images/blu_wht.png","../images/ylw_slt.png"],"mutagen_generator_assignment":[1,0],"goal":4,"start":0,"action_noise":0,"location_history":"[0,1,3,2,3,4]","action_history":"[1,0,0,1,1]","mutagen_history":"[0,1,1,0,0]","location_rts":"[1828,748,1077,568,919]","trial_type":"fractal-mutation","trial_index":100,"time_elapsed":2649989,"internal_node_id":"0.0-5.0-46.0"},{"group":"hexagon_tri","fractal_assignment":["../images/pnk_blu.png","../images/gry_blk.png","../images/org_blu.png","../images/cyn_red.png","../images/blu_wht.png","../images/ylw_slt.png"],"mutagen_generator_assignment":[1,0],"goal":5,"start":4,"action_noise":0,"location_history":"[4,0,1,3,4,2,3,2,3,2,1,5]","action_history":"[0,1,0,1,1,1,0,1,0,0,1]","mutagen_history":"[1,0,1,0,0,0,1,0,1,1,0]","location_rts":"[2361,1219,912,825,600,1924,560,569,480,473,1144]","trial_type":"fractal-mutation","trial_index":101,"time_elapsed":2677586,"internal_node_id":"0.0-5.0-47.0"},{"group":"hexagon_tri","fractal_assignment":["../images/pnk_blu.png","../images/gry_blk.png","../images/org_blu.png","../images/cyn_red.png","../images/blu_wht.png","../images/ylw_slt.png"],"mutagen_generator_assignment":[1,0],"goal":2,"start":5,"action_noise":0,"location_history":"[5,4,0,1,3,4,2]","action_history":"[0,0,1,0,1,1]","mutagen_history":"[1,1,0,1,0,0]","location_rts":"[20354,572,2069,2715,695,605]","trial_type":"fractal-mutation","trial_index":102,"time_elapsed":2715533,"internal_node_id":"0.0-5.0-48.0"},{"group":"hexagon_tri","fractal_assignment":["../images/pnk_blu.png","../images/gry_blk.png","../images/org_blu.png","../images/cyn_red.png","../images/blu_wht.png","../images/ylw_slt.png"],"mutagen_generator_assignment":[1,0],"goal":1,"start":2,"action_noise":0,"location_history":"[2,1]","action_history":"[0]","mutagen_history":"[1]","location_rts":"[1921]","trial_type":"fractal-mutation","trial_index":103,"time_elapsed":2722631,"internal_node_id":"0.0-5.0-49.0"},{"view_history":"[{\"page_index\":0,\"viewing_time\":4991}]","rt":4992,"trial_type":"instructions","trial_index":104,"time_elapsed":2728627,"internal_node_id":"0.0-6.0"},{"rt":9208,"responses":"{\"Q0\":\"How people make decisions\"}","trial_type":"survey-text","trial_index":105,"time_elapsed":2738851,"internal_node_id":"0.0-7.0-0.0"},{"rt":13267,"responses":"{\"Q0\":\"How people make decisions\"}","trial_type":"survey-text","trial_index":106,"time_elapsed":2753131,"internal_node_id":"0.0-7.0-1.0"},{"rt":24070,"responses":"{\"Q0\":\"<img src='../images/diagrams/hexagon_tri.png'>\"}","trial_type":"survey-multi-choice","trial_index":107,"time_elapsed":2778218,"internal_node_id":"0.0-7.0-2.0"},{"rt":43835,"assignments":["../images/pnk_blu.png","../images/ylw_slt.png","../images/gry_blk.png","../images/org_blu.png","../images/cyn_red.png","../images/blu_wht.png"],"trial_type":"drag-drop-on-image","trial_index":108,"time_elapsed":2823070,"internal_node_id":"0.0-7.0-3.0"},{"rt":4769,"responses":"{\"Q0\":\"2\"}","trial_type":"survey-likert","trial_index":109,"time_elapsed":2828885,"internal_node_id":"0.0-7.0-4.0"},{"rt":34561,"responses":"{\"Q0\":\"It was kind of the same concept you had to try and figure out what the pattern was or if there was one at all\"}","trial_type":"survey-text","trial_index":110,"time_elapsed":2864458,"internal_node_id":"0.0-7.0-5.0"},{"rt":5503,"responses":"{\"Q0\":\"No\"}","trial_type":"survey-multi-choice","trial_index":111,"time_elapsed":2870980,"internal_node_id":"0.0-7.0-6.0"},{"rt":4614,"responses":"{\"Q0\":\"Did not notice\"}","trial_type":"survey-multi-choice","trial_index":112,"time_elapsed":2876609,"internal_node_id":"0.0-7.0-7.0"},{"rt":2694,"responses":"{\"Q0\":\"\"}","trial_type":"survey-text","trial_index":113,"time_elapsed":2880309,"internal_node_id":"0.0-7.0-8.0"},{"rt":5951,"responses":"{\"Q0\":\"0\"}","trial_type":"survey-likert","trial_index":114,"time_elapsed":2887288,"internal_node_id":"0.0-7.0-9.0"},{"rt":9357,"responses":"{\"Q0\":\"Different structure\"}","trial_type":"survey-multi-choice","trial_index":115,"time_elapsed":2897669,"internal_node_id":"0.0-7.0-10.0"},{"rt":31278,"assignments":["../images/org_blu.png","../images/blu_wht.png","../images/ylw_slt.png","../images/gry_blk.png","../images/cyn_red.png","../images/pnk_blu.png"],"background_order":[1,0,4,3,5,2],"trial_type":"drag-drop-on-image","trial_index":116,"time_elapsed":2929965,"internal_node_id":"0.0-7.0-11.0"},{"rt":21710,"responses":"{\"Q0\":\"left (black) door = acid, right (white) door = ray\",\"Q1\":\"Pretty confident\"}","trial_type":"survey-multi-choice","trial_index":117,"time_elapsed":2952763,"internal_node_id":"0.0-7.0-12.0"},{"rt":15365,"responses":"{\"Q0\":\"25-35\",\"Q1\":\"High school degree or GED\",\"Q2\":\"Female\",\"Q3\":\"White\"}","trial_type":"survey-multi-choice","trial_index":118,"time_elapsed":2969183,"internal_node_id":"0.0-8.0"},{"rt":36990,"responses":"{\"Q0\":\"It was really fun\"}","trial_type":"survey-text","trial_index":119,"time_elapsed":3007179,"internal_node_id":"0.0-9.0"}]