[{"view_history":"[{\"page_index\":0,\"viewing_time\":1804},{\"page_index\":1,\"viewing_time\":6294}]","rt":8099,"trial_type":"instructions","trial_index":0,"time_elapsed":8101,"internal_node_id":"0.0-0.0"},{"view_history":"[{\"page_index\":0,\"viewing_time\":3048},{\"page_index\":1,\"viewing_time\":5942}]","rt":8991,"trial_type":"instructions","trial_index":1,"time_elapsed":18096,"internal_node_id":"0.0-1.0"},{"group":"hexagon_bi","room_assignment":["green","purple","yellow","blue","red","grey"],"door_color_assignment":["white","black"],"door_generator_assignment":[0,1],"goal":2,"start":1,"action_noise":0,"location_history":"[1,0,1,2]","action_history":"[1,1,0]","door_history":"[1,1,0]","location_rts":"[1968,1987,982]","trial_type":"two-door-navigation","trial_index":2,"time_elapsed":30326,"internal_node_id":"0.0-2.0-0.0"},{"group":"hexagon_bi","room_assignment":["green","purple","yellow","blue","red","grey"],"door_color_assignment":["white","black"],"door_generator_assignment":[0,1],"goal":0,"start":2,"action_noise":0,"location_history":"[2,1,0]","action_history":"[0,1]","door_history":"[0,1]","location_rts":"[36250,416]","trial_type":"two-door-navigation","trial_index":3,"time_elapsed":73156,"internal_node_id":"0.0-2.0-1.0"},{"group":"hexagon_bi","room_assignment":["green","purple","yellow","blue","red","grey"],"door_color_assignment":["white","black"],"door_generator_assignment":[0,1],"goal":5,"start":0,"action_noise":0,"location_history":"[0,5]","action_history":"[0]","door_history":"[0]","location_rts":"[1752]","trial_type":"two-door-navigation","trial_index":4,"time_elapsed":79983,"internal_node_id":"0.0-2.0-2.0"},{"group":"hexagon_bi","room_assignment":["green","purple","yellow","blue","red","grey"],"door_color_assignment":["white","black"],"door_generator_assignment":[0,1],"goal":1,"start":5,"action_noise":0,"location_history":"[5,0,1]","action_history":"[0,1]","door_history":"[0,1]","location_rts":"[6936,524]","trial_type":"two-door-navigation","trial_index":5,"time_elapsed":93589,"internal_node_id":"0.0-2.0-3.0"},{"group":"hexagon_bi","room_assignment":["green","purple","yellow","blue","red","grey"],"door_color_assignment":["white","black"],"door_generator_assignment":[0,1],"goal":3,"start":1,"action_noise":0,"location_history":"[1,2,3]","action_history":"[0,1]","door_history":"[0,1]","location_rts":"[7943,1154]","trial_type":"two-door-navigation","trial_index":6,"time_elapsed":108841,"internal_node_id":"0.0-2.0-4.0"},{"group":"hexagon_bi","room_assignment":["green","purple","yellow","blue","red","grey"],"door_color_assignment":["white","black"],"door_generator_assignment":[0,1],"goal":5,"start":3,"action_noise":0,"location_history":"[3,4,5]","action_history":"[0,1]","door_history":"[0,1]","location_rts":"[8527,418]","trial_type":"two-door-navigation","trial_index":7,"time_elapsed":123911,"internal_node_id":"0.0-2.0-5.0"},{"group":"hexagon_bi","room_assignment":["green","purple","yellow","blue","red","grey"],"door_color_assignment":["white","black"],"door_generator_assignment":[0,1],"goal":4,"start":5,"action_noise":0,"location_history":"[5,4]","action_history":"[1]","door_history":"[1]","location_rts":"[3518]","trial_type":"two-door-navigation","trial_index":8,"time_elapsed":132522,"internal_node_id":"0.0-2.0-6.0"},{"group":"hexagon_bi","room_assignment":["green","purple","yellow","blue","red","grey"],"door_color_assignment":["white","black"],"door_generator_assignment":[0,1],"goal":0,"start":4,"action_noise":0,"location_history":"[4,5,0]","action_history":"[1,0]","door_history":"[1,0]","location_rts":"[4027,459]","trial_type":"two-door-navigation","trial_index":9,"time_elapsed":143166,"internal_node_id":"0.0-2.0-7.0"},{"group":"hexagon_bi","room_assignment":["green","purple","yellow","blue","red","grey"],"door_color_assignment":["white","black"],"door_generator_assignment":[0,1],"goal":2,"start":0,"action_noise":0,"location_history":"[0,1,2]","action_history":"[1,0]","door_history":"[1,0]","location_rts":"[4479,647]","trial_type":"two-door-navigation","trial_index":10,"time_elapsed":154481,"internal_node_id":"0.0-2.0-8.0"},{"group":"hexagon_bi","room_assignment":["green","purple","yellow","blue","red","grey"],"door_color_assignment":["white","black"],"door_generator_assignment":[0,1],"goal":4,"start":2,"action_noise":0,"location_history":"[2,3,4]","action_history":"[1,0]","door_history":"[1,0]","location_rts":"[8304,994]","trial_type":"two-door-navigation","trial_index":11,"time_elapsed":169911,"internal_node_id":"0.0-2.0-9.0"},{"group":"hexagon_bi","room_assignment":["green","purple","yellow","blue","red","grey"],"door_color_assignment":["white","black"],"door_generator_assignment":[0,1],"goal":2,"start":4,"action_noise":0,"location_history":"[4,3,2]","action_history":"[0,1]","door_history":"[0,1]","location_rts":"[7130,187]","trial_type":"two-door-navigation","trial_index":12,"time_elapsed":183393,"internal_node_id":"0.0-2.0-10.0"},{"group":"hexagon_bi","room_assignment":["green","purple","yellow","blue","red","grey"],"door_color_assignment":["white","black"],"door_generator_assignment":[0,1],"goal":3,"start":2,"action_noise":0,"location_history":"[2,3]","action_history":"[1]","door_history":"[1]","location_rts":"[3596]","trial_type":"two-door-navigation","trial_index":13,"time_elapsed":192076,"internal_node_id":"0.0-2.0-11.0"},{"group":"hexagon_bi","room_assignment":["green","purple","yellow","blue","red","grey"],"door_color_assignment":["white","black"],"door_generator_assignment":[0,1],"goal":0,"start":3,"action_noise":0,"location_history":"[3,4,5,0]","action_history":"[0,1,0]","door_history":"[0,1,0]","location_rts":"[13087,442,1340]","trial_type":"two-door-navigation","trial_index":14,"time_elapsed":214160,"internal_node_id":"0.0-2.0-12.0"},{"group":"hexagon_bi","room_assignment":["green","purple","yellow","blue","red","grey"],"door_color_assignment":["white","black"],"door_generator_assignment":[0,1],"goal":5,"start":0,"action_noise":0,"location_history":"[0,5]","action_history":"[0]","door_history":"[0]","location_rts":"[1760]","trial_type":"two-door-navigation","trial_index":15,"time_elapsed":221010,"internal_node_id":"0.0-2.0-13.0"},{"group":"hexagon_bi","room_assignment":["green","purple","yellow","blue","red","grey"],"door_color_assignment":["white","black"],"door_generator_assignment":[0,1],"goal":1,"start":5,"action_noise":0,"location_history":"[5,0,1]","action_history":"[0,1]","door_history":"[0,1]","location_rts":"[4102,461]","trial_type":"two-door-navigation","trial_index":16,"time_elapsed":231722,"internal_node_id":"0.0-2.0-14.0"},{"group":"hexagon_bi","room_assignment":["green","purple","yellow","blue","red","grey"],"door_color_assignment":["white","black"],"door_generator_assignment":[0,1],"goal":5,"start":1,"action_noise":0,"location_history":"[1,0,5]","action_history":"[1,0]","door_history":"[1,0]","location_rts":"[5081,445]","trial_type":"two-door-navigation","trial_index":17,"time_elapsed":243380,"internal_node_id":"0.0-2.0-15.0"},{"group":"hexagon_bi","room_assignment":["green","purple","yellow","blue","red","grey"],"door_color_assignment":["white","black"],"door_generator_assignment":[0,1],"goal":3,"start":5,"action_noise":0,"location_history":"[5,4,3]","action_history":"[1,0]","door_history":"[1,0]","location_rts":"[4159,449]","trial_type":"two-door-navigation","trial_index":18,"time_elapsed":254164,"internal_node_id":"0.0-2.0-16.0"},{"group":"hexagon_bi","room_assignment":["green","purple","yellow","blue","red","grey"],"door_color_assignment":["white","black"],"door_generator_assignment":[0,1],"goal":2,"start":3,"action_noise":0,"location_history":"[3,2]","action_history":"[1]","door_history":"[1]","location_rts":"[3652]","trial_type":"two-door-navigation","trial_index":19,"time_elapsed":262895,"internal_node_id":"0.0-2.0-17.0"},{"group":"hexagon_bi","room_assignment":["green","purple","yellow","blue","red","grey"],"door_color_assignment":["white","black"],"door_generator_assignment":[0,1],"goal":1,"start":2,"action_noise":0,"location_history":"[2,1]","action_history":"[0]","door_history":"[0]","location_rts":"[3251]","trial_type":"two-door-navigation","trial_index":20,"time_elapsed":271229,"internal_node_id":"0.0-2.0-18.0"},{"group":"hexagon_bi","room_assignment":["green","purple","yellow","blue","red","grey"],"door_color_assignment":["white","black"],"door_generator_assignment":[0,1],"goal":4,"start":1,"action_noise":0,"location_history":"[1,2,3,4]","action_history":"[0,1,0]","door_history":"[0,1,0]","location_rts":"[8443,493,311]","trial_type":"two-door-navigation","trial_index":21,"time_elapsed":287710,"internal_node_id":"0.0-2.0-19.0"},{"group":"hexagon_bi","room_assignment":["green","purple","yellow","blue","red","grey"],"door_color_assignment":["white","black"],"door_generator_assignment":[0,1],"goal":0,"start":4,"action_noise":0,"location_history":"[4,5,0]","action_history":"[1,0]","door_history":"[1,0]","location_rts":"[3044,2468]","trial_type":"two-door-navigation","trial_index":22,"time_elapsed":299418,"internal_node_id":"0.0-2.0-20.0"},{"group":"hexagon_bi","room_assignment":["green","purple","yellow","blue","red","grey"],"door_color_assignment":["white","black"],"door_generator_assignment":[0,1],"goal":3,"start":0,"action_noise":0,"location_history":"[0,5,4,3]","action_history":"[0,1,0]","door_history":"[0,1,0]","location_rts":"[11367,440,293]","trial_type":"two-door-navigation","trial_index":23,"time_elapsed":318750,"internal_node_id":"0.0-2.0-21.0"},{"group":"hexagon_bi","room_assignment":["green","purple","yellow","blue","red","grey"],"door_color_assignment":["white","black"],"door_generator_assignment":[0,1],"goal":1,"start":3,"action_noise":0,"location_history":"[3,2,1]","action_history":"[1,0]","door_history":"[1,0]","location_rts":"[5454,411]","trial_type":"two-door-navigation","trial_index":24,"time_elapsed":330758,"internal_node_id":"0.0-2.0-22.0"},{"group":"hexagon_bi","room_assignment":["green","purple","yellow","blue","red","grey"],"door_color_assignment":["white","black"],"door_generator_assignment":[0,1],"goal":0,"start":1,"action_noise":0,"location_history":"[1,0]","action_history":"[1]","door_history":"[1]","location_rts":"[3075]","trial_type":"two-door-navigation","trial_index":25,"time_elapsed":338903,"internal_node_id":"0.0-2.0-23.0"},{"group":"hexagon_bi","room_assignment":["green","purple","yellow","blue","red","grey"],"door_color_assignment":["white","black"],"door_generator_assignment":[0,1],"goal":2,"start":0,"action_noise":0,"location_history":"[0,5,0,1,2]","action_history":"[0,0,1,0]","door_history":"[0,0,1,0]","location_rts":"[6736,6886,1859,508]","trial_type":"two-door-navigation","trial_index":26,"time_elapsed":363208,"internal_node_id":"0.0-2.0-24.0"},{"group":"hexagon_bi","room_assignment":["green","purple","yellow","blue","red","grey"],"door_color_assignment":["white","black"],"door_generator_assignment":[0,1],"goal":4,"start":2,"action_noise":0,"location_history":"[2,3,4]","action_history":"[1,0]","door_history":"[1,0]","location_rts":"[8458,407]","trial_type":"two-door-navigation","trial_index":27,"time_elapsed":378238,"internal_node_id":"0.0-2.0-25.0"},{"group":"hexagon_bi","room_assignment":["green","purple","yellow","blue","red","grey"],"door_color_assignment":["white","black"],"door_generator_assignment":[0,1],"goal":5,"start":4,"action_noise":0,"location_history":"[4,5]","action_history":"[1]","door_history":"[1]","location_rts":"[5700]","trial_type":"two-door-navigation","trial_index":28,"time_elapsed":389021,"internal_node_id":"0.0-2.0-26.0"},{"group":"hexagon_bi","room_assignment":["green","purple","yellow","blue","red","grey"],"door_color_assignment":["white","black"],"door_generator_assignment":[0,1],"goal":2,"start":5,"action_noise":0,"location_history":"[5,4,5,0,1,2]","action_history":"[1,1,0,1,0]","door_history":"[1,1,0,1,0]","location_rts":"[19739,2904,2214,376,2662]","trial_type":"two-door-navigation","trial_index":29,"time_elapsed":426265,"internal_node_id":"0.0-2.0-27.0"},{"group":"hexagon_bi","room_assignment":["green","purple","yellow","blue","red","grey"],"door_color_assignment":["white","black"],"door_generator_assignment":[0,1],"goal":3,"start":2,"action_noise":0,"location_history":"[2,3]","action_history":"[1]","door_history":"[1]","location_rts":"[4567]","trial_type":"two-door-navigation","trial_index":30,"time_elapsed":435935,"internal_node_id":"0.0-2.0-28.0"},{"group":"hexagon_bi","room_assignment":["green","purple","yellow","blue","red","grey"],"door_color_assignment":["white","black"],"door_generator_assignment":[0,1],"goal":1,"start":3,"action_noise":0,"location_history":"[3,2,1]","action_history":"[1,0]","door_history":"[1,0]","location_rts":"[9547,486]","trial_type":"two-door-navigation","trial_index":31,"time_elapsed":452103,"internal_node_id":"0.0-2.0-29.0"},{"group":"hexagon_bi","room_assignment":["green","purple","yellow","blue","red","grey"],"door_color_assignment":["white","black"],"door_generator_assignment":[0,1],"goal":4,"start":1,"action_noise":0,"location_history":"[1,2,3,4]","action_history":"[0,1,0]","door_history":"[0,1,0]","location_rts":"[8517,388,19357]","trial_type":"two-door-navigation","trial_index":32,"time_elapsed":487573,"internal_node_id":"0.0-2.0-30.0"},{"group":"hexagon_bi","room_assignment":["green","purple","yellow","blue","red","grey"],"door_color_assignment":["white","black"],"door_generator_assignment":[0,1],"goal":5,"start":4,"action_noise":0,"location_history":"[4,5]","action_history":"[1]","door_history":"[1]","location_rts":"[4817]","trial_type":"two-door-navigation","trial_index":33,"time_elapsed":497454,"internal_node_id":"0.0-2.0-31.0"},{"group":"hexagon_bi","room_assignment":["green","purple","yellow","blue","red","grey"],"door_color_assignment":["white","black"],"door_generator_assignment":[0,1],"goal":0,"start":5,"action_noise":0,"location_history":"[5,0]","action_history":"[0]","door_history":"[0]","location_rts":"[2755]","trial_type":"two-door-navigation","trial_index":34,"time_elapsed":505283,"internal_node_id":"0.0-2.0-32.0"},{"group":"hexagon_bi","room_assignment":["green","purple","yellow","blue","red","grey"],"door_color_assignment":["white","black"],"door_generator_assignment":[0,1],"goal":2,"start":0,"action_noise":0,"location_history":"[0,1,2]","action_history":"[1,0]","door_history":"[1,0]","location_rts":"[4655,359]","trial_type":"two-door-navigation","trial_index":35,"time_elapsed":516460,"internal_node_id":"0.0-2.0-33.0"},{"group":"hexagon_bi","room_assignment":["green","purple","yellow","blue","red","grey"],"door_color_assignment":["white","black"],"door_generator_assignment":[0,1],"goal":0,"start":2,"action_noise":0,"location_history":"[2,1,0]","action_history":"[0,1]","door_history":"[0,1]","location_rts":"[10163,503]","trial_type":"two-door-navigation","trial_index":36,"time_elapsed":533295,"internal_node_id":"0.0-2.0-34.0"},{"group":"hexagon_bi","room_assignment":["green","purple","yellow","blue","red","grey"],"door_color_assignment":["white","black"],"door_generator_assignment":[0,1],"goal":5,"start":0,"action_noise":0,"location_history":"[0,5]","action_history":"[0]","door_history":"[0]","location_rts":"[1632]","trial_type":"two-door-navigation","trial_index":37,"time_elapsed":540008,"internal_node_id":"0.0-2.0-35.0"},{"group":"hexagon_bi","room_assignment":["green","purple","yellow","blue","red","grey"],"door_color_assignment":["white","black"],"door_generator_assignment":[0,1],"goal":1,"start":5,"action_noise":0,"location_history":"[5,0,1]","action_history":"[0,1]","door_history":"[0,1]","location_rts":"[11694,499]","trial_type":"two-door-navigation","trial_index":38,"time_elapsed":558334,"internal_node_id":"0.0-2.0-36.0"},{"group":"hexagon_bi","room_assignment":["green","purple","yellow","blue","red","grey"],"door_color_assignment":["white","black"],"door_generator_assignment":[0,1],"goal":4,"start":1,"action_noise":0,"location_history":"[1,2,3,4]","action_history":"[0,1,0]","door_history":"[0,1,0]","location_rts":"[17595,261,191]","trial_type":"two-door-navigation","trial_index":39,"time_elapsed":583636,"internal_node_id":"0.0-2.0-37.0"},{"group":"hexagon_bi","room_assignment":["green","purple","yellow","blue","red","grey"],"door_color_assignment":["white","black"],"door_generator_assignment":[0,1],"goal":3,"start":4,"action_noise":0,"location_history":"[4,3]","action_history":"[0]","door_history":"[0]","location_rts":"[1755]","trial_type":"two-door-navigation","trial_index":40,"time_elapsed":590488,"internal_node_id":"0.0-2.0-38.0"},{"group":"hexagon_bi","room_assignment":["green","purple","yellow","blue","red","grey"],"door_color_assignment":["white","black"],"door_generator_assignment":[0,1],"goal":5,"start":3,"action_noise":0,"location_history":"[3,4,5]","action_history":"[0,1]","door_history":"[0,1]","location_rts":"[17066,459]","trial_type":"two-door-navigation","trial_index":41,"time_elapsed":614175,"internal_node_id":"0.0-2.0-39.0"},{"group":"hexagon_bi","room_assignment":["green","purple","yellow","blue","red","grey"],"door_color_assignment":["white","black"],"door_generator_assignment":[0,1],"goal":1,"start":5,"action_noise":0,"location_history":"[5,0,1]","action_history":"[0,1]","door_history":"[0,1]","location_rts":"[40772,1186]","trial_type":"two-door-navigation","trial_index":42,"time_elapsed":662285,"internal_node_id":"0.0-2.0-40.0"},{"group":"hexagon_bi","room_assignment":["green","purple","yellow","blue","red","grey"],"door_color_assignment":["white","black"],"door_generator_assignment":[0,1],"goal":2,"start":1,"action_noise":0,"location_history":"[1,2]","action_history":"[0]","door_history":"[0]","location_rts":"[2962]","trial_type":"two-door-navigation","trial_index":43,"time_elapsed":670325,"internal_node_id":"0.0-2.0-41.0"},{"group":"hexagon_bi","room_assignment":["green","purple","yellow","blue","red","grey"],"door_color_assignment":["white","black"],"door_generator_assignment":[0,1],"goal":4,"start":2,"action_noise":0,"location_history":"[2,3,4]","action_history":"[1,0]","door_history":"[1,0]","location_rts":"[4471,1247]","trial_type":"two-door-navigation","trial_index":44,"time_elapsed":682216,"internal_node_id":"0.0-2.0-42.0"},{"group":"hexagon_bi","room_assignment":["green","purple","yellow","blue","red","grey"],"door_color_assignment":["white","black"],"door_generator_assignment":[0,1],"goal":0,"start":4,"action_noise":0,"location_history":"[4,5,0]","action_history":"[1,0]","door_history":"[1,0]","location_rts":"[15363,471]","trial_type":"two-door-navigation","trial_index":45,"time_elapsed":704206,"internal_node_id":"0.0-2.0-43.0"},{"group":"hexagon_bi","room_assignment":["green","purple","yellow","blue","red","grey"],"door_color_assignment":["white","black"],"door_generator_assignment":[0,1],"goal":3,"start":0,"action_noise":0,"location_history":"[0,5,4,3]","action_history":"[0,1,0]","door_history":"[0,1,0]","location_rts":"[7834,1202,2683]","trial_type":"two-door-navigation","trial_index":46,"time_elapsed":723136,"internal_node_id":"0.0-2.0-44.0"},{"group":"hexagon_bi","room_assignment":["green","purple","yellow","blue","red","grey"],"door_color_assignment":["white","black"],"door_generator_assignment":[0,1],"goal":0,"start":3,"action_noise":0,"location_history":"[3,4,5,0]","action_history":"[0,1,0]","door_history":"[0,1,0]","location_rts":"[14343,277,419]","trial_type":"two-door-navigation","trial_index":47,"time_elapsed":745375,"internal_node_id":"0.0-2.0-45.0"},{"group":"hexagon_bi","room_assignment":["green","purple","yellow","blue","red","grey"],"door_color_assignment":["white","black"],"door_generator_assignment":[0,1],"goal":4,"start":0,"action_noise":0,"location_history":"[0,5,4]","action_history":"[0,1]","door_history":"[0,1]","location_rts":"[10783,492]","trial_type":"two-door-navigation","trial_index":48,"time_elapsed":762802,"internal_node_id":"0.0-2.0-46.0"},{"group":"hexagon_bi","room_assignment":["green","purple","yellow","blue","red","grey"],"door_color_assignment":["white","black"],"door_generator_assignment":[0,1],"goal":5,"start":4,"action_noise":0,"location_history":"[4,5]","action_history":"[1]","door_history":"[1]","location_rts":"[3076]","trial_type":"two-door-navigation","trial_index":49,"time_elapsed":770964,"internal_node_id":"0.0-2.0-47.0"},{"group":"hexagon_bi","room_assignment":["green","purple","yellow","blue","red","grey"],"door_color_assignment":["white","black"],"door_generator_assignment":[0,1],"goal":2,"start":5,"action_noise":0,"location_history":"[5,0,1,2]","action_history":"[0,1,0]","door_history":"[0,1,0]","location_rts":"[7248,442,377]","trial_type":"two-door-navigation","trial_index":50,"time_elapsed":786307,"internal_node_id":"0.0-2.0-48.0"},{"group":"hexagon_bi","room_assignment":["green","purple","yellow","blue","red","grey"],"door_color_assignment":["white","black"],"door_generator_assignment":[0,1],"goal":1,"start":2,"action_noise":0,"location_history":"[2,1]","action_history":"[0]","door_history":"[0]","location_rts":"[6758]","trial_type":"two-door-navigation","trial_index":51,"time_elapsed":798159,"internal_node_id":"0.0-2.0-49.0"},{"view_history":"[{\"page_index\":0,\"viewing_time\":1299}]","rt":1299,"trial_type":"instructions","trial_index":52,"time_elapsed":800460,"internal_node_id":"0.0-3.0"},{"view_history":"[{\"page_index\":0,\"viewing_time\":1481},{\"page_index\":1,\"viewing_time\":41506}]","rt":42987,"trial_type":"instructions","trial_index":53,"time_elapsed":844449,"internal_node_id":"0.0-4.0"},{"group":"hexagon_tri","fractal_assignment":["../images/gry_blk.png","../images/pnk_blu.png","../images/ylw_slt.png","../images/blu_wht.png","../images/cyn_red.png","../images/org_blu.png"],"mutagen_generator_assignment":[0,1],"goal":2,"start":1,"action_noise":0,"location_history":"[1,3,2]","action_history":"[0,0]","mutagen_history":"[0,0]","location_rts":"[3132,473]","trial_type":"fractal-mutation","trial_index":54,"time_elapsed":854313,"internal_node_id":"0.0-5.0-0.0"},{"group":"hexagon_tri","fractal_assignment":["../images/gry_blk.png","../images/pnk_blu.png","../images/ylw_slt.png","../images/blu_wht.png","../images/cyn_red.png","../images/org_blu.png"],"mutagen_generator_assignment":[0,1],"goal":0,"start":2,"action_noise":0,"location_history":"[2,3,4,0]","action_history":"[1,1,0]","mutagen_history":"[1,1,0]","location_rts":"[1323,843,391]","trial_type":"fractal-mutation","trial_index":55,"time_elapsed":864303,"internal_node_id":"0.0-5.0-1.0"},{"group":"hexagon_tri","fractal_assignment":["../images/gry_blk.png","../images/pnk_blu.png","../images/ylw_slt.png","../images/blu_wht.png","../images/cyn_red.png","../images/org_blu.png"],"mutagen_generator_assignment":[0,1],"goal":5,"start":0,"action_noise":0,"location_history":"[0,5]","action_history":"[0]","mutagen_history":"[0]","location_rts":"[1411]","trial_type":"fractal-mutation","trial_index":56,"time_elapsed":870831,"internal_node_id":"0.0-5.0-2.0"},{"group":"hexagon_tri","fractal_assignment":["../images/gry_blk.png","../images/pnk_blu.png","../images/ylw_slt.png","../images/blu_wht.png","../images/cyn_red.png","../images/org_blu.png"],"mutagen_generator_assignment":[0,1],"goal":1,"start":5,"action_noise":0,"location_history":"[5,0,1]","action_history":"[1,1]","mutagen_history":"[1,1]","location_rts":"[1054,643]","trial_type":"fractal-mutation","trial_index":57,"time_elapsed":878795,"internal_node_id":"0.0-5.0-3.0"},{"group":"hexagon_tri","fractal_assignment":["../images/gry_blk.png","../images/pnk_blu.png","../images/ylw_slt.png","../images/blu_wht.png","../images/cyn_red.png","../images/org_blu.png"],"mutagen_generator_assignment":[0,1],"goal":3,"start":1,"action_noise":0,"location_history":"[1,3]","action_history":"[0]","mutagen_history":"[0]","location_rts":"[1689]","trial_type":"fractal-mutation","trial_index":58,"time_elapsed":885600,"internal_node_id":"0.0-5.0-4.0"},{"group":"hexagon_tri","fractal_assignment":["../images/gry_blk.png","../images/pnk_blu.png","../images/ylw_slt.png","../images/blu_wht.png","../images/cyn_red.png","../images/org_blu.png"],"mutagen_generator_assignment":[0,1],"goal":5,"start":3,"action_noise":0,"location_history":"[3,4,0,5]","action_history":"[1,0,0]","mutagen_history":"[1,0,0]","location_rts":"[1003,917,490]","trial_type":"fractal-mutation","trial_index":59,"time_elapsed":895399,"internal_node_id":"0.0-5.0-5.0"},{"group":"hexagon_tri","fractal_assignment":["../images/gry_blk.png","../images/pnk_blu.png","../images/ylw_slt.png","../images/blu_wht.png","../images/cyn_red.png","../images/org_blu.png"],"mutagen_generator_assignment":[0,1],"goal":4,"start":5,"action_noise":0,"location_history":"[5,4]","action_history":"[0]","mutagen_history":"[0]","location_rts":"[1127]","trial_type":"fractal-mutation","trial_index":60,"time_elapsed":901645,"internal_node_id":"0.0-5.0-6.0"},{"group":"hexagon_tri","fractal_assignment":["../images/gry_blk.png","../images/pnk_blu.png","../images/ylw_slt.png","../images/blu_wht.png","../images/cyn_red.png","../images/org_blu.png"],"mutagen_generator_assignment":[0,1],"goal":0,"start":4,"action_noise":0,"location_history":"[4,0]","action_history":"[0]","mutagen_history":"[0]","location_rts":"[1039]","trial_type":"fractal-mutation","trial_index":61,"time_elapsed":907806,"internal_node_id":"0.0-5.0-7.0"},{"group":"hexagon_tri","fractal_assignment":["../images/gry_blk.png","../images/pnk_blu.png","../images/ylw_slt.png","../images/blu_wht.png","../images/cyn_red.png","../images/org_blu.png"],"mutagen_generator_assignment":[0,1],"goal":2,"start":0,"action_noise":0,"location_history":"[0,1,5,0,1,3,2]","action_history":"[1,1,1,1,0,0]","mutagen_history":"[1,1,1,1,0,0]","location_rts":"[999,825,347,996,315,502]","trial_type":"fractal-mutation","trial_index":62,"time_elapsed":922620,"internal_node_id":"0.0-5.0-8.0"},{"group":"hexagon_tri","fractal_assignment":["../images/gry_blk.png","../images/pnk_blu.png","../images/ylw_slt.png","../images/blu_wht.png","../images/cyn_red.png","../images/org_blu.png"],"mutagen_generator_assignment":[0,1],"goal":4,"start":2,"action_noise":0,"location_history":"[2,3,4]","action_history":"[1,1]","mutagen_history":"[1,1]","location_rts":"[1446,1483]","trial_type":"fractal-mutation","trial_index":63,"time_elapsed":931789,"internal_node_id":"0.0-5.0-9.0"},{"group":"hexagon_tri","fractal_assignment":["../images/gry_blk.png","../images/pnk_blu.png","../images/ylw_slt.png","../images/blu_wht.png","../images/cyn_red.png","../images/org_blu.png"],"mutagen_generator_assignment":[0,1],"goal":2,"start":4,"action_noise":0,"location_history":"[4,2]","action_history":"[1]","mutagen_history":"[1]","location_rts":"[985]","trial_type":"fractal-mutation","trial_index":64,"time_elapsed":937888,"internal_node_id":"0.0-5.0-10.0"},{"group":"hexagon_tri","fractal_assignment":["../images/gry_blk.png","../images/pnk_blu.png","../images/ylw_slt.png","../images/blu_wht.png","../images/cyn_red.png","../images/org_blu.png"],"mutagen_generator_assignment":[0,1],"goal":3,"start":2,"action_noise":0,"location_history":"[2,3]","action_history":"[1]","mutagen_history":"[1]","location_rts":"[2987]","trial_type":"fractal-mutation","trial_index":65,"time_elapsed":945992,"internal_node_id":"0.0-5.0-11.0"},{"group":"hexagon_tri","fractal_assignment":["../images/gry_blk.png","../images/pnk_blu.png","../images/ylw_slt.png","../images/blu_wht.png","../images/cyn_red.png","../images/org_blu.png"],"mutagen_generator_assignment":[0,1],"goal":0,"start":3,"action_noise":0,"location_history":"[3,4,0]","action_history":"[1,0]","mutagen_history":"[1,0]","location_rts":"[1088,822]","trial_type":"fractal-mutation","trial_index":66,"time_elapsed":954111,"internal_node_id":"0.0-5.0-12.0"},{"group":"hexagon_tri","fractal_assignment":["../images/gry_blk.png","../images/pnk_blu.png","../images/ylw_slt.png","../images/blu_wht.png","../images/cyn_red.png","../images/org_blu.png"],"mutagen_generator_assignment":[0,1],"goal":5,"start":0,"action_noise":0,"location_history":"[0,5]","action_history":"[0]","mutagen_history":"[0]","location_rts":"[3125]","trial_type":"fractal-mutation","trial_index":67,"time_elapsed":962328,"internal_node_id":"0.0-5.0-13.0"},{"group":"hexagon_tri","fractal_assignment":["../images/gry_blk.png","../images/pnk_blu.png","../images/ylw_slt.png","../images/blu_wht.png","../images/cyn_red.png","../images/org_blu.png"],"mutagen_generator_assignment":[0,1],"goal":1,"start":5,"action_noise":0,"location_history":"[5,0,1]","action_history":"[1,1]","mutagen_history":"[1,1]","location_rts":"[941,1139]","trial_type":"fractal-mutation","trial_index":68,"time_elapsed":970666,"internal_node_id":"0.0-5.0-14.0"},{"group":"hexagon_tri","fractal_assignment":["../images/gry_blk.png","../images/pnk_blu.png","../images/ylw_slt.png","../images/blu_wht.png","../images/cyn_red.png","../images/org_blu.png"],"mutagen_generator_assignment":[0,1],"goal":5,"start":1,"action_noise":0,"location_history":"[1,5]","action_history":"[1]","mutagen_history":"[1]","location_rts":"[1239]","trial_type":"fractal-mutation","trial_index":69,"time_elapsed":977040,"internal_node_id":"0.0-5.0-15.0"},{"group":"hexagon_tri","fractal_assignment":["../images/gry_blk.png","../images/pnk_blu.png","../images/ylw_slt.png","../images/blu_wht.png","../images/cyn_red.png","../images/org_blu.png"],"mutagen_generator_assignment":[0,1],"goal":3,"start":5,"action_noise":0,"location_history":"[5,0,1,3]","action_history":"[1,1,0]","mutagen_history":"[1,1,0]","location_rts":"[1010,895,504]","trial_type":"fractal-mutation","trial_index":70,"time_elapsed":986818,"internal_node_id":"0.0-5.0-16.0"},{"group":"hexagon_tri","fractal_assignment":["../images/gry_blk.png","../images/pnk_blu.png","../images/ylw_slt.png","../images/blu_wht.png","../images/cyn_red.png","../images/org_blu.png"],"mutagen_generator_assignment":[0,1],"goal":2,"start":3,"action_noise":0,"location_history":"[3,2]","action_history":"[0]","mutagen_history":"[0]","location_rts":"[1005]","trial_type":"fractal-mutation","trial_index":71,"time_elapsed":992926,"internal_node_id":"0.0-5.0-17.0"},{"group":"hexagon_tri","fractal_assignment":["../images/gry_blk.png","../images/pnk_blu.png","../images/ylw_slt.png","../images/blu_wht.png","../images/cyn_red.png","../images/org_blu.png"],"mutagen_generator_assignment":[0,1],"goal":1,"start":2,"action_noise":0,"location_history":"[2,1]","action_history":"[0]","mutagen_history":"[0]","location_rts":"[1255]","trial_type":"fractal-mutation","trial_index":72,"time_elapsed":999315,"internal_node_id":"0.0-5.0-18.0"},{"group":"hexagon_tri","fractal_assignment":["../images/gry_blk.png","../images/pnk_blu.png","../images/ylw_slt.png","../images/blu_wht.png","../images/cyn_red.png","../images/org_blu.png"],"mutagen_generator_assignment":[0,1],"goal":4,"start":1,"action_noise":0,"location_history":"[1,5,4]","action_history":"[1,0]","mutagen_history":"[1,0]","location_rts":"[1131,958]","trial_type":"fractal-mutation","trial_index":73,"time_elapsed":1007699,"internal_node_id":"0.0-5.0-19.0"},{"group":"hexagon_tri","fractal_assignment":["../images/gry_blk.png","../images/pnk_blu.png","../images/ylw_slt.png","../images/blu_wht.png","../images/cyn_red.png","../images/org_blu.png"],"mutagen_generator_assignment":[0,1],"goal":0,"start":4,"action_noise":0,"location_history":"[4,0]","action_history":"[0]","mutagen_history":"[0]","location_rts":"[1474]","trial_type":"fractal-mutation","trial_index":74,"time_elapsed":1014291,"internal_node_id":"0.0-5.0-20.0"},{"group":"hexagon_tri","fractal_assignment":["../images/gry_blk.png","../images/pnk_blu.png","../images/ylw_slt.png","../images/blu_wht.png","../images/cyn_red.png","../images/org_blu.png"],"mutagen_generator_assignment":[0,1],"goal":3,"start":0,"action_noise":0,"location_history":"[0,1,3]","action_history":"[1,0]","mutagen_history":"[1,0]","location_rts":"[1285,927]","trial_type":"fractal-mutation","trial_index":75,"time_elapsed":1022752,"internal_node_id":"0.0-5.0-21.0"},{"group":"hexagon_tri","fractal_assignment":["../images/gry_blk.png","../images/pnk_blu.png","../images/ylw_slt.png","../images/blu_wht.png","../images/cyn_red.png","../images/org_blu.png"],"mutagen_generator_assignment":[0,1],"goal":1,"start":3,"action_noise":0,"location_history":"[3,2,1]","action_history":"[0,0]","mutagen_history":"[0,0]","location_rts":"[1202,627]","trial_type":"fractal-mutation","trial_index":76,"time_elapsed":1030829,"internal_node_id":"0.0-5.0-22.0"},{"group":"hexagon_tri","fractal_assignment":["../images/gry_blk.png","../images/pnk_blu.png","../images/ylw_slt.png","../images/blu_wht.png","../images/cyn_red.png","../images/org_blu.png"],"mutagen_generator_assignment":[0,1],"goal":0,"start":1,"action_noise":0,"location_history":"[1,5,4,0]","action_history":"[1,0,0]","mutagen_history":"[1,0,0]","location_rts":"[1146,760,836]","trial_type":"fractal-mutation","trial_index":77,"time_elapsed":1041005,"internal_node_id":"0.0-5.0-23.0"},{"group":"hexagon_tri","fractal_assignment":["../images/gry_blk.png","../images/pnk_blu.png","../images/ylw_slt.png","../images/blu_wht.png","../images/cyn_red.png","../images/org_blu.png"],"mutagen_generator_assignment":[0,1],"goal":2,"start":0,"action_noise":0,"location_history":"[0,1,3,2]","action_history":"[1,0,0]","mutagen_history":"[1,0,0]","location_rts":"[975,918,1019]","trial_type":"fractal-mutation","trial_index":78,"time_elapsed":1051393,"internal_node_id":"0.0-5.0-24.0"},{"group":"hexagon_tri","fractal_assignment":["../images/gry_blk.png","../images/pnk_blu.png","../images/ylw_slt.png","../images/blu_wht.png","../images/cyn_red.png","../images/org_blu.png"],"mutagen_generator_assignment":[0,1],"goal":4,"start":2,"action_noise":0,"location_history":"[2,3,2,3,4]","action_history":"[1,0,1,1]","mutagen_history":"[1,0,1,1]","location_rts":"[1448,612,311,276]","trial_type":"fractal-mutation","trial_index":79,"time_elapsed":1062625,"internal_node_id":"0.0-5.0-25.0"},{"group":"hexagon_tri","fractal_assignment":["../images/gry_blk.png","../images/pnk_blu.png","../images/ylw_slt.png","../images/blu_wht.png","../images/cyn_red.png","../images/org_blu.png"],"mutagen_generator_assignment":[0,1],"goal":5,"start":4,"action_noise":0,"location_history":"[4,0,5]","action_history":"[0,0]","mutagen_history":"[0,0]","location_rts":"[2601,636]","trial_type":"fractal-mutation","trial_index":80,"time_elapsed":1072069,"internal_node_id":"0.0-5.0-26.0"},{"group":"hexagon_tri","fractal_assignment":["../images/gry_blk.png","../images/pnk_blu.png","../images/ylw_slt.png","../images/blu_wht.png","../images/cyn_red.png","../images/org_blu.png"],"mutagen_generator_assignment":[0,1],"goal":2,"start":5,"action_noise":0,"location_history":"[5,0,1,3,2]","action_history":"[1,1,0,0]","mutagen_history":"[1,1,0,0]","location_rts":"[992,1296,980,613]","trial_type":"fractal-mutation","trial_index":81,"time_elapsed":1084556,"internal_node_id":"0.0-5.0-27.0"},{"group":"hexagon_tri","fractal_assignment":["../images/gry_blk.png","../images/pnk_blu.png","../images/ylw_slt.png","../images/blu_wht.png","../images/cyn_red.png","../images/org_blu.png"],"mutagen_generator_assignment":[0,1],"goal":3,"start":2,"action_noise":0,"location_history":"[2,1,3]","action_history":"[0,0]","mutagen_history":"[0,0]","location_rts":"[2018,1041]","trial_type":"fractal-mutation","trial_index":82,"time_elapsed":1093840,"internal_node_id":"0.0-5.0-28.0"},{"group":"hexagon_tri","fractal_assignment":["../images/gry_blk.png","../images/pnk_blu.png","../images/ylw_slt.png","../images/blu_wht.png","../images/cyn_red.png","../images/org_blu.png"],"mutagen_generator_assignment":[0,1],"goal":1,"start":3,"action_noise":0,"location_history":"[3,2,1]","action_history":"[0,0]","mutagen_history":"[0,0]","location_rts":"[1949,1994]","trial_type":"fractal-mutation","trial_index":83,"time_elapsed":1103998,"internal_node_id":"0.0-5.0-29.0"},{"group":"hexagon_tri","fractal_assignment":["../images/gry_blk.png","../images/pnk_blu.png","../images/ylw_slt.png","../images/blu_wht.png","../images/cyn_red.png","../images/org_blu.png"],"mutagen_generator_assignment":[0,1],"goal":4,"start":1,"action_noise":0,"location_history":"[1,5,4]","action_history":"[1,0]","mutagen_history":"[1,0]","location_rts":"[1044,764]","trial_type":"fractal-mutation","trial_index":84,"time_elapsed":1112073,"internal_node_id":"0.0-5.0-30.0"},{"group":"hexagon_tri","fractal_assignment":["../images/gry_blk.png","../images/pnk_blu.png","../images/ylw_slt.png","../images/blu_wht.png","../images/cyn_red.png","../images/org_blu.png"],"mutagen_generator_assignment":[0,1],"goal":5,"start":4,"action_noise":0,"location_history":"[4,0,5]","action_history":"[0,0]","mutagen_history":"[0,0]","location_rts":"[1909,871]","trial_type":"fractal-mutation","trial_index":85,"time_elapsed":1121061,"internal_node_id":"0.0-5.0-31.0"},{"group":"hexagon_tri","fractal_assignment":["../images/gry_blk.png","../images/pnk_blu.png","../images/ylw_slt.png","../images/blu_wht.png","../images/cyn_red.png","../images/org_blu.png"],"mutagen_generator_assignment":[0,1],"goal":0,"start":5,"action_noise":0,"location_history":"[5,4,2,1,5,4,0]","action_history":"[0,1,0,1,0,0]","mutagen_history":"[0,1,0,1,0,0]","location_rts":"[1180,1167,787,869,853,720]","trial_type":"fractal-mutation","trial_index":86,"time_elapsed":1137306,"internal_node_id":"0.0-5.0-32.0"},{"group":"hexagon_tri","fractal_assignment":["../images/gry_blk.png","../images/pnk_blu.png","../images/ylw_slt.png","../images/blu_wht.png","../images/cyn_red.png","../images/org_blu.png"],"mutagen_generator_assignment":[0,1],"goal":2,"start":0,"action_noise":0,"location_history":"[0,5,0,1,3,2]","action_history":"[0,1,1,0,0]","mutagen_history":"[0,1,1,0,0]","location_rts":"[7094,819,659,4778,1232]","trial_type":"fractal-mutation","trial_index":87,"time_elapsed":1161411,"internal_node_id":"0.0-5.0-33.0"},{"group":"hexagon_tri","fractal_assignment":["../images/gry_blk.png","../images/pnk_blu.png","../images/ylw_slt.png","../images/blu_wht.png","../images/cyn_red.png","../images/org_blu.png"],"mutagen_generator_assignment":[0,1],"goal":0,"start":2,"action_noise":0,"location_history":"[2,3,4,0]","action_history":"[1,1,0]","mutagen_history":"[1,1,0]","location_rts":"[10254,940,636]","trial_type":"fractal-mutation","trial_index":88,"time_elapsed":1180605,"internal_node_id":"0.0-5.0-34.0"},{"group":"hexagon_tri","fractal_assignment":["../images/gry_blk.png","../images/pnk_blu.png","../images/ylw_slt.png","../images/blu_wht.png","../images/cyn_red.png","../images/org_blu.png"],"mutagen_generator_assignment":[0,1],"goal":5,"start":0,"action_noise":0,"location_history":"[0,5]","action_history":"[0]","mutagen_history":"[0]","location_rts":"[1320]","trial_type":"fractal-mutation","trial_index":89,"time_elapsed":1187043,"internal_node_id":"0.0-5.0-35.0"},{"group":"hexagon_tri","fractal_assignment":["../images/gry_blk.png","../images/pnk_blu.png","../images/ylw_slt.png","../images/blu_wht.png","../images/cyn_red.png","../images/org_blu.png"],"mutagen_generator_assignment":[0,1],"goal":1,"start":5,"action_noise":0,"location_history":"[5,0,1]","action_history":"[1,1]","mutagen_history":"[1,1]","location_rts":"[2758,1278]","trial_type":"fractal-mutation","trial_index":90,"time_elapsed":1197385,"internal_node_id":"0.0-5.0-36.0"},{"group":"hexagon_tri","fractal_assignment":["../images/gry_blk.png","../images/pnk_blu.png","../images/ylw_slt.png","../images/blu_wht.png","../images/cyn_red.png","../images/org_blu.png"],"mutagen_generator_assignment":[0,1],"goal":4,"start":1,"action_noise":0,"location_history":"[1,5,4]","action_history":"[1,0]","mutagen_history":"[1,0]","location_rts":"[1208,1063]","trial_type":"fractal-mutation","trial_index":91,"time_elapsed":1205920,"internal_node_id":"0.0-5.0-37.0"},{"group":"hexagon_tri","fractal_assignment":["../images/gry_blk.png","../images/pnk_blu.png","../images/ylw_slt.png","../images/blu_wht.png","../images/cyn_red.png","../images/org_blu.png"],"mutagen_generator_assignment":[0,1],"goal":3,"start":4,"action_noise":0,"location_history":"[4,2,1,3]","action_history":"[1,0,0]","mutagen_history":"[1,0,0]","location_rts":"[2550,1872,1237]","trial_type":"fractal-mutation","trial_index":92,"time_elapsed":1218923,"internal_node_id":"0.0-5.0-38.0"},{"group":"hexagon_tri","fractal_assignment":["../images/gry_blk.png","../images/pnk_blu.png","../images/ylw_slt.png","../images/blu_wht.png","../images/cyn_red.png","../images/org_blu.png"],"mutagen_generator_assignment":[0,1],"goal":5,"start":3,"action_noise":0,"location_history":"[3,4,0,5]","action_history":"[1,0,0]","mutagen_history":"[1,0,0]","location_rts":"[26966,1005,1459]","trial_type":"fractal-mutation","trial_index":93,"time_elapsed":1255713,"internal_node_id":"0.0-5.0-39.0"},{"group":"hexagon_tri","fractal_assignment":["../images/gry_blk.png","../images/pnk_blu.png","../images/ylw_slt.png","../images/blu_wht.png","../images/cyn_red.png","../images/org_blu.png"],"mutagen_generator_assignment":[0,1],"goal":1,"start":5,"action_noise":0,"location_history":"[5,0,1]","action_history":"[1,1]","mutagen_history":"[1,1]","location_rts":"[23788,606]","trial_type":"fractal-mutation","trial_index":94,"time_elapsed":1286346,"internal_node_id":"0.0-5.0-40.0"},{"group":"hexagon_tri","fractal_assignment":["../images/gry_blk.png","../images/pnk_blu.png","../images/ylw_slt.png","../images/blu_wht.png","../images/cyn_red.png","../images/org_blu.png"],"mutagen_generator_assignment":[0,1],"goal":2,"start":1,"action_noise":0,"location_history":"[1,3,2]","action_history":"[0,0]","mutagen_history":"[0,0]","location_rts":"[3636,1002]","trial_type":"fractal-mutation","trial_index":95,"time_elapsed":1297181,"internal_node_id":"0.0-5.0-41.0"},{"group":"hexagon_tri","fractal_assignment":["../images/gry_blk.png","../images/pnk_blu.png","../images/ylw_slt.png","../images/blu_wht.png","../images/cyn_red.png","../images/org_blu.png"],"mutagen_generator_assignment":[0,1],"goal":4,"start":2,"action_noise":0,"location_history":"[2,3,4]","action_history":"[1,1]","mutagen_history":"[1,1]","location_rts":"[1930,1096]","trial_type":"fractal-mutation","trial_index":96,"time_elapsed":1306489,"internal_node_id":"0.0-5.0-42.0"},{"group":"hexagon_tri","fractal_assignment":["../images/gry_blk.png","../images/pnk_blu.png","../images/ylw_slt.png","../images/blu_wht.png","../images/cyn_red.png","../images/org_blu.png"],"mutagen_generator_assignment":[0,1],"goal":0,"start":4,"action_noise":0,"location_history":"[4,0]","action_history":"[0]","mutagen_history":"[0]","location_rts":"[30366]","trial_type":"fractal-mutation","trial_index":97,"time_elapsed":1341977,"internal_node_id":"0.0-5.0-43.0"},{"group":"hexagon_tri","fractal_assignment":["../images/gry_blk.png","../images/pnk_blu.png","../images/ylw_slt.png","../images/blu_wht.png","../images/cyn_red.png","../images/org_blu.png"],"mutagen_generator_assignment":[0,1],"goal":3,"start":0,"action_noise":0,"location_history":"[0,1,3]","action_history":"[1,0]","mutagen_history":"[1,0]","location_rts":"[1120,1173]","trial_type":"fractal-mutation","trial_index":98,"time_elapsed":1350485,"internal_node_id":"0.0-5.0-44.0"},{"group":"hexagon_tri","fractal_assignment":["../images/gry_blk.png","../images/pnk_blu.png","../images/ylw_slt.png","../images/blu_wht.png","../images/cyn_red.png","../images/org_blu.png"],"mutagen_generator_assignment":[0,1],"goal":0,"start":3,"action_noise":0,"location_history":"[3,4,0]","action_history":"[1,0]","mutagen_history":"[1,0]","location_rts":"[987,993]","trial_type":"fractal-mutation","trial_index":99,"time_elapsed":1358746,"internal_node_id":"0.0-5.0-45.0"},{"group":"hexagon_tri","fractal_assignment":["../images/gry_blk.png","../images/pnk_blu.png","../images/ylw_slt.png","../images/blu_wht.png","../images/cyn_red.png","../images/org_blu.png"],"mutagen_generator_assignment":[0,1],"goal":4,"start":0,"action_noise":0,"location_history":"[0,1,5,4]","action_history":"[1,1,0]","mutagen_history":"[1,1,0]","location_rts":"[1412,1235,1035]","trial_type":"fractal-mutation","trial_index":100,"time_elapsed":1369793,"internal_node_id":"0.0-5.0-46.0"},{"group":"hexagon_tri","fractal_assignment":["../images/gry_blk.png","../images/pnk_blu.png","../images/ylw_slt.png","../images/blu_wht.png","../images/cyn_red.png","../images/org_blu.png"],"mutagen_generator_assignment":[0,1],"goal":5,"start":4,"action_noise":0,"location_history":"[4,0,5]","action_history":"[0,0]","mutagen_history":"[0,0]","location_rts":"[8017,1090]","trial_type":"fractal-mutation","trial_index":101,"time_elapsed":1385129,"internal_node_id":"0.0-5.0-47.0"},{"group":"hexagon_tri","fractal_assignment":["../images/gry_blk.png","../images/pnk_blu.png","../images/ylw_slt.png","../images/blu_wht.png","../images/cyn_red.png","../images/org_blu.png"],"mutagen_generator_assignment":[0,1],"goal":2,"start":5,"action_noise":0,"location_history":"[5,0,1,3,2]","action_history":"[1,1,0,0]","mutagen_history":"[1,1,0,0]","location_rts":"[9604,1378,612,736]","trial_type":"fractal-mutation","trial_index":102,"time_elapsed":1405929,"internal_node_id":"0.0-5.0-48.0"},{"group":"hexagon_tri","fractal_assignment":["../images/gry_blk.png","../images/pnk_blu.png","../images/ylw_slt.png","../images/blu_wht.png","../images/cyn_red.png","../images/org_blu.png"],"mutagen_generator_assignment":[0,1],"goal":1,"start":2,"action_noise":0,"location_history":"[2,1]","action_history":"[0]","mutagen_history":"[0]","location_rts":"[18179]","trial_type":"fractal-mutation","trial_index":103,"time_elapsed":1429200,"internal_node_id":"0.0-5.0-49.0"},{"view_history":"[{\"page_index\":0,\"viewing_time\":14554}]","rt":14554,"trial_type":"instructions","trial_index":104,"time_elapsed":1444757,"internal_node_id":"0.0-6.0"},{"rt":9534,"responses":"{\"Q0\":\"not sure\"}","trial_type":"survey-text","trial_index":105,"time_elapsed":1455302,"internal_node_id":"0.0-7.0-0.0"},{"rt":3802,"responses":"{\"Q0\":\"unsure\"}","trial_type":"survey-text","trial_index":106,"time_elapsed":1460111,"internal_node_id":"0.0-7.0-1.0"},{"rt":16442,"responses":"{\"Q0\":\"<img src='../images/diagrams/hexagon_bi.png'>\"}","trial_type":"survey-multi-choice","trial_index":107,"time_elapsed":1477566,"internal_node_id":"0.0-7.0-2.0"},{"rt":36300,"assignments":["../images/gry_blk.png","../images/blu_wht.png","../images/ylw_slt.png","../images/pnk_blu.png","../images/cyn_red.png","../images/org_blu.png"],"trial_type":"drag-drop-on-image","trial_index":108,"time_elapsed":1514930,"internal_node_id":"0.0-7.0-3.0"},{"rt":16441,"responses":"{\"Q0\":\"2\"}","trial_type":"survey-likert","trial_index":109,"time_elapsed":1532384,"internal_node_id":"0.0-7.0-4.0"},{"rt":31863,"responses":"{\"Q0\":\"cant say i noticed any\"}","trial_type":"survey-text","trial_index":110,"time_elapsed":1565254,"internal_node_id":"0.0-7.0-5.0"},{"rt":3654,"responses":"{\"Q0\":\"No\"}","trial_type":"survey-multi-choice","trial_index":111,"time_elapsed":1569921,"internal_node_id":"0.0-7.0-6.0"},{"rt":12443,"responses":"{\"Q0\":\"Did not notice\"}","trial_type":"survey-multi-choice","trial_index":112,"time_elapsed":1583381,"internal_node_id":"0.0-7.0-7.0"},{"rt":5260,"responses":"{\"Q0\":\"\"}","trial_type":"survey-text","trial_index":113,"time_elapsed":1589648,"internal_node_id":"0.0-7.0-8.0"},{"rt":5177,"responses":"{\"Q0\":\"1\"}","trial_type":"survey-likert","trial_index":114,"time_elapsed":1595830,"internal_node_id":"0.0-7.0-9.0"},{"rt":11874,"responses":"{\"Q0\":\"Different structure\"}","trial_type":"survey-multi-choice","trial_index":115,"time_elapsed":1608716,"internal_node_id":"0.0-7.0-10.0"},{"rt":40278,"assignments":["../images/cyn_red.png","../images/gry_blk.png","../images/ylw_slt.png","../images/pnk_blu.png","../images/blu_wht.png","../images/org_blu.png"],"background_order":[1,4,0,2,5,3],"trial_type":"drag-drop-on-image","trial_index":116,"time_elapsed":1650003,"internal_node_id":"0.0-7.0-11.0"},{"rt":53860,"responses":"{\"Q0\":\"left (white) door = ray, right (black) door = acid\",\"Q1\":\"Not at all confident\"}","trial_type":"survey-multi-choice","trial_index":117,"time_elapsed":1704880,"internal_node_id":"0.0-7.0-12.0"},{"rt":28896,"responses":"{\"Q0\":\"35-45\",\"Q1\":\"Some college\",\"Q2\":\"Male\",\"Q3\":\"Hispanic\"}","trial_type":"survey-multi-choice","trial_index":118,"time_elapsed":1734806,"internal_node_id":"0.0-8.0"},{"rt":7405,"responses":"{\"Q0\":\"none\"}","trial_type":"survey-text","trial_index":119,"time_elapsed":1743220,"internal_node_id":"0.0-9.0"}]