[{"view_history":"[{\"page_index\":0,\"viewing_time\":1998},{\"page_index\":1,\"viewing_time\":3841}]","rt":5839,"trial_type":"instructions","trial_index":0,"time_elapsed":5839,"internal_node_id":"0.0-0.0"},{"view_history":"[{\"page_index\":0,\"viewing_time\":1707},{\"page_index\":1,\"viewing_time\":10944}]","rt":12651,"trial_type":"instructions","trial_index":1,"time_elapsed":19491,"internal_node_id":"0.0-1.0"},{"group":"hexagon_bi","room_assignment":["grey","blue","purple","yellow","red","green"],"door_color_assignment":["white","black"],"door_generator_assignment":[1,0],"goal":2,"start":1,"action_noise":0,"location_history":"[1,2]","action_history":"[0]","door_history":"[1]","location_rts":"[3280]","trial_type":"two-door-navigation","trial_index":2,"time_elapsed":27809,"internal_node_id":"0.0-2.0-0.0"},{"group":"hexagon_bi","room_assignment":["grey","blue","purple","yellow","red","green"],"door_color_assignment":["white","black"],"door_generator_assignment":[1,0],"goal":0,"start":2,"action_noise":0,"location_history":"[2,3,2,1,2,1,0]","action_history":"[1,1,0,0,0,1]","door_history":"[0,0,1,1,1,0]","location_rts":"[4969,1868,841,1636,3838,776]","trial_type":"two-door-navigation","trial_index":3,"time_elapsed":51895,"internal_node_id":"0.0-2.0-1.0"},{"group":"hexagon_bi","room_assignment":["grey","blue","purple","yellow","red","green"],"door_color_assignment":["white","black"],"door_generator_assignment":[1,0],"goal":5,"start":0,"action_noise":0,"location_history":"[0,1,0,5]","action_history":"[1,1,0]","door_history":"[0,0,1]","location_rts":"[4697,1664,1290]","trial_type":"two-door-navigation","trial_index":4,"time_elapsed":66629,"internal_node_id":"0.0-2.0-2.0"},{"group":"hexagon_bi","room_assignment":["grey","blue","purple","yellow","red","green"],"door_color_assignment":["white","black"],"door_generator_assignment":[1,0],"goal":1,"start":5,"action_noise":0,"location_history":"[5,0,1]","action_history":"[0,1]","door_history":"[1,0]","location_rts":"[17788,8442]","trial_type":"two-door-navigation","trial_index":5,"time_elapsed":98918,"internal_node_id":"0.0-2.0-3.0"},{"group":"hexagon_bi","room_assignment":["grey","blue","purple","yellow","red","green"],"door_color_assignment":["white","black"],"door_generator_assignment":[1,0],"goal":3,"start":1,"action_noise":0,"location_history":"[1,2,3]","action_history":"[0,1]","door_history":"[1,0]","location_rts":"[15472,1455]","trial_type":"two-door-navigation","trial_index":6,"time_elapsed":121905,"internal_node_id":"0.0-2.0-4.0"},{"group":"hexagon_bi","room_assignment":["grey","blue","purple","yellow","red","green"],"door_color_assignment":["white","black"],"door_generator_assignment":[1,0],"goal":5,"start":3,"action_noise":0,"location_history":"[3,4,5]","action_history":"[0,1]","door_history":"[1,0]","location_rts":"[20252,6160]","trial_type":"two-door-navigation","trial_index":7,"time_elapsed":154378,"internal_node_id":"0.0-2.0-5.0"},{"group":"hexagon_bi","room_assignment":["grey","blue","purple","yellow","red","green"],"door_color_assignment":["white","black"],"door_generator_assignment":[1,0],"goal":4,"start":5,"action_noise":0,"location_history":"[5,4]","action_history":"[1]","door_history":"[0]","location_rts":"[3661]","trial_type":"two-door-navigation","trial_index":8,"time_elapsed":163070,"internal_node_id":"0.0-2.0-6.0"},{"group":"hexagon_bi","room_assignment":["grey","blue","purple","yellow","red","green"],"door_color_assignment":["white","black"],"door_generator_assignment":[1,0],"goal":0,"start":4,"action_noise":0,"location_history":"[4,5,0]","action_history":"[1,0]","door_history":"[0,1]","location_rts":"[9451,9377]","trial_type":"two-door-navigation","trial_index":9,"time_elapsed":187939,"internal_node_id":"0.0-2.0-7.0"},{"group":"hexagon_bi","room_assignment":["grey","blue","purple","yellow","red","green"],"door_color_assignment":["white","black"],"door_generator_assignment":[1,0],"goal":2,"start":0,"action_noise":0,"location_history":"[0,1,0,1,2]","action_history":"[1,1,1,0]","door_history":"[0,0,0,1]","location_rts":"[12056,2257,2012,376]","trial_type":"two-door-navigation","trial_index":10,"time_elapsed":212714,"internal_node_id":"0.0-2.0-8.0"},{"group":"hexagon_bi","room_assignment":["grey","blue","purple","yellow","red","green"],"door_color_assignment":["white","black"],"door_generator_assignment":[1,0],"goal":4,"start":2,"action_noise":0,"location_history":"[2,3,4]","action_history":"[1,0]","door_history":"[0,1]","location_rts":"[8556,4124]","trial_type":"two-door-navigation","trial_index":11,"time_elapsed":231438,"internal_node_id":"0.0-2.0-9.0"},{"group":"hexagon_bi","room_assignment":["grey","blue","purple","yellow","red","green"],"door_color_assignment":["white","black"],"door_generator_assignment":[1,0],"goal":2,"start":4,"action_noise":0,"location_history":"[4,3,2]","action_history":"[0,1]","door_history":"[1,0]","location_rts":"[6400,4845]","trial_type":"two-door-navigation","trial_index":12,"time_elapsed":248723,"internal_node_id":"0.0-2.0-10.0"},{"group":"hexagon_bi","room_assignment":["grey","blue","purple","yellow","red","green"],"door_color_assignment":["white","black"],"door_generator_assignment":[1,0],"goal":3,"start":2,"action_noise":0,"location_history":"[2,3]","action_history":"[1]","door_history":"[0]","location_rts":"[3883]","trial_type":"two-door-navigation","trial_index":13,"time_elapsed":257625,"internal_node_id":"0.0-2.0-11.0"},{"group":"hexagon_bi","room_assignment":["grey","blue","purple","yellow","red","green"],"door_color_assignment":["white","black"],"door_generator_assignment":[1,0],"goal":0,"start":3,"action_noise":0,"location_history":"[3,2,1,0]","action_history":"[1,0,1]","door_history":"[0,1,0]","location_rts":"[11568,7722,2207]","trial_type":"two-door-navigation","trial_index":14,"time_elapsed":286178,"internal_node_id":"0.0-2.0-12.0"},{"group":"hexagon_bi","room_assignment":["grey","blue","purple","yellow","red","green"],"door_color_assignment":["white","black"],"door_generator_assignment":[1,0],"goal":5,"start":0,"action_noise":0,"location_history":"[0,5]","action_history":"[0]","door_history":"[1]","location_rts":"[3979]","trial_type":"two-door-navigation","trial_index":15,"time_elapsed":295180,"internal_node_id":"0.0-2.0-13.0"},{"group":"hexagon_bi","room_assignment":["grey","blue","purple","yellow","red","green"],"door_color_assignment":["white","black"],"door_generator_assignment":[1,0],"goal":1,"start":5,"action_noise":0,"location_history":"[5,0,1]","action_history":"[0,1]","door_history":"[1,0]","location_rts":"[18542,1287]","trial_type":"two-door-navigation","trial_index":16,"time_elapsed":321052,"internal_node_id":"0.0-2.0-14.0"},{"group":"hexagon_bi","room_assignment":["grey","blue","purple","yellow","red","green"],"door_color_assignment":["white","black"],"door_generator_assignment":[1,0],"goal":5,"start":1,"action_noise":0,"location_history":"[1,0,1,0,5]","action_history":"[1,1,1,0]","door_history":"[0,0,0,1]","location_rts":"[12949,7704,2794,581]","trial_type":"two-door-navigation","trial_index":17,"time_elapsed":353145,"internal_node_id":"0.0-2.0-15.0"},{"group":"hexagon_bi","room_assignment":["grey","blue","purple","yellow","red","green"],"door_color_assignment":["white","black"],"door_generator_assignment":[1,0],"goal":3,"start":5,"action_noise":0,"location_history":"[5,4,5,4,3]","action_history":"[1,1,1,0]","door_history":"[0,0,0,1]","location_rts":"[10768,2148,1801,917]","trial_type":"two-door-navigation","trial_index":18,"time_elapsed":376859,"internal_node_id":"0.0-2.0-16.0"},{"group":"hexagon_bi","room_assignment":["grey","blue","purple","yellow","red","green"],"door_color_assignment":["white","black"],"door_generator_assignment":[1,0],"goal":2,"start":3,"action_noise":0,"location_history":"[3,2]","action_history":"[1]","door_history":"[0]","location_rts":"[7235]","trial_type":"two-door-navigation","trial_index":19,"time_elapsed":389118,"internal_node_id":"0.0-2.0-17.0"},{"group":"hexagon_bi","room_assignment":["grey","blue","purple","yellow","red","green"],"door_color_assignment":["white","black"],"door_generator_assignment":[1,0],"goal":1,"start":2,"action_noise":0,"location_history":"[2,1]","action_history":"[0]","door_history":"[1]","location_rts":"[6027]","trial_type":"two-door-navigation","trial_index":20,"time_elapsed":400166,"internal_node_id":"0.0-2.0-18.0"},{"group":"hexagon_bi","room_assignment":["grey","blue","purple","yellow","red","green"],"door_color_assignment":["white","black"],"door_generator_assignment":[1,0],"goal":4,"start":1,"action_noise":0,"location_history":"[1,2,3,2,3,4]","action_history":"[0,1,1,1,0]","door_history":"[1,0,0,0,1]","location_rts":"[12081,2437,878,2670,521]","trial_type":"two-door-navigation","trial_index":21,"time_elapsed":427853,"internal_node_id":"0.0-2.0-19.0"},{"group":"hexagon_bi","room_assignment":["grey","blue","purple","yellow","red","green"],"door_color_assignment":["white","black"],"door_generator_assignment":[1,0],"goal":0,"start":4,"action_noise":0,"location_history":"[4,5,4,5,0]","action_history":"[1,1,1,0]","door_history":"[0,0,0,1]","location_rts":"[7172,2416,1306,438]","trial_type":"two-door-navigation","trial_index":22,"time_elapsed":447254,"internal_node_id":"0.0-2.0-20.0"},{"group":"hexagon_bi","room_assignment":["grey","blue","purple","yellow","red","green"],"door_color_assignment":["white","black"],"door_generator_assignment":[1,0],"goal":3,"start":0,"action_noise":0,"location_history":"[0,1,2,3]","action_history":"[1,0,1]","door_history":"[0,1,0]","location_rts":"[28607,1151,1146]","trial_type":"two-door-navigation","trial_index":23,"time_elapsed":485218,"internal_node_id":"0.0-2.0-21.0"},{"group":"hexagon_bi","room_assignment":["grey","blue","purple","yellow","red","green"],"door_color_assignment":["white","black"],"door_generator_assignment":[1,0],"goal":1,"start":3,"action_noise":0,"location_history":"[3,2,3,2,1]","action_history":"[1,1,1,0]","door_history":"[0,0,0,1]","location_rts":"[15999,5868,420,288]","trial_type":"two-door-navigation","trial_index":24,"time_elapsed":515863,"internal_node_id":"0.0-2.0-22.0"},{"group":"hexagon_bi","room_assignment":["grey","blue","purple","yellow","red","green"],"door_color_assignment":["white","black"],"door_generator_assignment":[1,0],"goal":0,"start":1,"action_noise":0,"location_history":"[1,0]","action_history":"[1]","door_history":"[0]","location_rts":"[4014]","trial_type":"two-door-navigation","trial_index":25,"time_elapsed":524910,"internal_node_id":"0.0-2.0-23.0"},{"group":"hexagon_bi","room_assignment":["grey","blue","purple","yellow","red","green"],"door_color_assignment":["white","black"],"door_generator_assignment":[1,0],"goal":2,"start":0,"action_noise":0,"location_history":"[0,1,2]","action_history":"[1,0]","door_history":"[0,1]","location_rts":"[10519,7585]","trial_type":"two-door-navigation","trial_index":26,"time_elapsed":549072,"internal_node_id":"0.0-2.0-24.0"},{"group":"hexagon_bi","room_assignment":["grey","blue","purple","yellow","red","green"],"door_color_assignment":["white","black"],"door_generator_assignment":[1,0],"goal":4,"start":2,"action_noise":0,"location_history":"[2,3,2,3,4]","action_history":"[1,1,1,0]","door_history":"[0,0,0,1]","location_rts":"[5655,763,981,281]","trial_type":"two-door-navigation","trial_index":27,"time_elapsed":564881,"internal_node_id":"0.0-2.0-25.0"},{"group":"hexagon_bi","room_assignment":["grey","blue","purple","yellow","red","green"],"door_color_assignment":["white","black"],"door_generator_assignment":[1,0],"goal":5,"start":4,"action_noise":0,"location_history":"[4,5]","action_history":"[1]","door_history":"[0]","location_rts":"[4764]","trial_type":"two-door-navigation","trial_index":28,"time_elapsed":574673,"internal_node_id":"0.0-2.0-26.0"},{"group":"hexagon_bi","room_assignment":["grey","blue","purple","yellow","red","green"],"door_color_assignment":["white","black"],"door_generator_assignment":[1,0],"goal":2,"start":5,"action_noise":0,"location_history":"[5,4,3,2]","action_history":"[1,0,1]","door_history":"[0,1,0]","location_rts":"[10642,3301,4429]","trial_type":"two-door-navigation","trial_index":29,"time_elapsed":600124,"internal_node_id":"0.0-2.0-27.0"},{"group":"hexagon_bi","room_assignment":["grey","blue","purple","yellow","red","green"],"door_color_assignment":["white","black"],"door_generator_assignment":[1,0],"goal":3,"start":2,"action_noise":0,"location_history":"[2,3]","action_history":"[1]","door_history":"[0]","location_rts":"[2457]","trial_type":"two-door-navigation","trial_index":30,"time_elapsed":607607,"internal_node_id":"0.0-2.0-28.0"},{"group":"hexagon_bi","room_assignment":["grey","blue","purple","yellow","red","green"],"door_color_assignment":["white","black"],"door_generator_assignment":[1,0],"goal":1,"start":3,"action_noise":0,"location_history":"[3,4,3,2,3,2,1]","action_history":"[0,0,1,1,1,0]","door_history":"[1,1,0,0,0,1]","location_rts":"[8976,1853,1116,703,2011,6257]","trial_type":"two-door-navigation","trial_index":31,"time_elapsed":638669,"internal_node_id":"0.0-2.0-29.0"},{"group":"hexagon_bi","room_assignment":["grey","blue","purple","yellow","red","green"],"door_color_assignment":["white","black"],"door_generator_assignment":[1,0],"goal":4,"start":1,"action_noise":0,"location_history":"[1,0,1,2,3,4]","action_history":"[1,1,0,1,0]","door_history":"[0,0,1,0,1]","location_rts":"[12521,2133,831,905,4875]","trial_type":"two-door-navigation","trial_index":32,"time_elapsed":669042,"internal_node_id":"0.0-2.0-30.0"},{"group":"hexagon_bi","room_assignment":["grey","blue","purple","yellow","red","green"],"door_color_assignment":["white","black"],"door_generator_assignment":[1,0],"goal":5,"start":4,"action_noise":0,"location_history":"[4,5]","action_history":"[1]","door_history":"[0]","location_rts":"[5516]","trial_type":"two-door-navigation","trial_index":33,"time_elapsed":679580,"internal_node_id":"0.0-2.0-31.0"},{"group":"hexagon_bi","room_assignment":["grey","blue","purple","yellow","red","green"],"door_color_assignment":["white","black"],"door_generator_assignment":[1,0],"goal":0,"start":5,"action_noise":0,"location_history":"[5,0]","action_history":"[0]","door_history":"[1]","location_rts":"[7125]","trial_type":"two-door-navigation","trial_index":34,"time_elapsed":691723,"internal_node_id":"0.0-2.0-32.0"},{"group":"hexagon_bi","room_assignment":["grey","blue","purple","yellow","red","green"],"door_color_assignment":["white","black"],"door_generator_assignment":[1,0],"goal":2,"start":0,"action_noise":0,"location_history":"[0,5,4,3,2]","action_history":"[0,1,0,1]","door_history":"[1,0,1,0]","location_rts":"[10626,16639,710,10901]","trial_type":"two-door-navigation","trial_index":35,"time_elapsed":738670,"internal_node_id":"0.0-2.0-33.0"},{"group":"hexagon_bi","room_assignment":["grey","blue","purple","yellow","red","green"],"door_color_assignment":["white","black"],"door_generator_assignment":[1,0],"goal":0,"start":2,"action_noise":0,"location_history":"[2,1,0]","action_history":"[0,1]","door_history":"[1,0]","location_rts":"[16205,1540]","trial_type":"two-door-navigation","trial_index":36,"time_elapsed":762453,"internal_node_id":"0.0-2.0-34.0"},{"group":"hexagon_bi","room_assignment":["grey","blue","purple","yellow","red","green"],"door_color_assignment":["white","black"],"door_generator_assignment":[1,0],"goal":5,"start":0,"action_noise":0,"location_history":"[0,5]","action_history":"[0]","door_history":"[1]","location_rts":"[3959]","trial_type":"two-door-navigation","trial_index":37,"time_elapsed":771429,"internal_node_id":"0.0-2.0-35.0"},{"group":"hexagon_bi","room_assignment":["grey","blue","purple","yellow","red","green"],"door_color_assignment":["white","black"],"door_generator_assignment":[1,0],"goal":1,"start":5,"action_noise":0,"location_history":"[5,0,1]","action_history":"[0,1]","door_history":"[1,0]","location_rts":"[9839,4497]","trial_type":"two-door-navigation","trial_index":38,"time_elapsed":791802,"internal_node_id":"0.0-2.0-36.0"},{"group":"hexagon_bi","room_assignment":["grey","blue","purple","yellow","red","green"],"door_color_assignment":["white","black"],"door_generator_assignment":[1,0],"goal":4,"start":1,"action_noise":0,"location_history":"[1,2,3,4]","action_history":"[0,1,0]","door_history":"[1,0,1]","location_rts":"[12040,2309,7787]","trial_type":"two-door-navigation","trial_index":39,"time_elapsed":820997,"internal_node_id":"0.0-2.0-37.0"},{"group":"hexagon_bi","room_assignment":["grey","blue","purple","yellow","red","green"],"door_color_assignment":["white","black"],"door_generator_assignment":[1,0],"goal":3,"start":4,"action_noise":0,"location_history":"[4,3]","action_history":"[0]","door_history":"[1]","location_rts":"[4474]","trial_type":"two-door-navigation","trial_index":40,"time_elapsed":830492,"internal_node_id":"0.0-2.0-38.0"},{"group":"hexagon_bi","room_assignment":["grey","blue","purple","yellow","red","green"],"door_color_assignment":["white","black"],"door_generator_assignment":[1,0],"goal":5,"start":3,"action_noise":0,"location_history":"[3,4,5]","action_history":"[0,1]","door_history":"[1,0]","location_rts":"[8386,4926]","trial_type":"two-door-navigation","trial_index":41,"time_elapsed":849846,"internal_node_id":"0.0-2.0-39.0"},{"group":"hexagon_bi","room_assignment":["grey","blue","purple","yellow","red","green"],"door_color_assignment":["white","black"],"door_generator_assignment":[1,0],"goal":1,"start":5,"action_noise":0,"location_history":"[5,4,3,2,1]","action_history":"[1,0,1,0]","door_history":"[0,1,0,1]","location_rts":"[4373,20196,2641,7766]","trial_type":"two-door-navigation","trial_index":42,"time_elapsed":892894,"internal_node_id":"0.0-2.0-40.0"},{"group":"hexagon_bi","room_assignment":["grey","blue","purple","yellow","red","green"],"door_color_assignment":["white","black"],"door_generator_assignment":[1,0],"goal":2,"start":1,"action_noise":0,"location_history":"[1,2]","action_history":"[0]","door_history":"[1]","location_rts":"[4646]","trial_type":"two-door-navigation","trial_index":43,"time_elapsed":902558,"internal_node_id":"0.0-2.0-41.0"},{"group":"hexagon_bi","room_assignment":["grey","blue","purple","yellow","red","green"],"door_color_assignment":["white","black"],"door_generator_assignment":[1,0],"goal":4,"start":2,"action_noise":0,"location_history":"[2,3,4]","action_history":"[1,0]","door_history":"[0,1]","location_rts":"[5631,2389]","trial_type":"two-door-navigation","trial_index":44,"time_elapsed":916619,"internal_node_id":"0.0-2.0-42.0"},{"group":"hexagon_bi","room_assignment":["grey","blue","purple","yellow","red","green"],"door_color_assignment":["white","black"],"door_generator_assignment":[1,0],"goal":0,"start":4,"action_noise":0,"location_history":"[4,5,0]","action_history":"[1,0]","door_history":"[0,1]","location_rts":"[7397,4465]","trial_type":"two-door-navigation","trial_index":45,"time_elapsed":934514,"internal_node_id":"0.0-2.0-43.0"},{"group":"hexagon_bi","room_assignment":["grey","blue","purple","yellow","red","green"],"door_color_assignment":["white","black"],"door_generator_assignment":[1,0],"goal":3,"start":0,"action_noise":0,"location_history":"[0,1,0,5,4,3]","action_history":"[1,1,0,1,0]","door_history":"[0,0,1,0,1]","location_rts":"[10766,3279,9155,12581,4589]","trial_type":"two-door-navigation","trial_index":46,"time_elapsed":983969,"internal_node_id":"0.0-2.0-44.0"},{"group":"hexagon_bi","room_assignment":["grey","blue","purple","yellow","red","green"],"door_color_assignment":["white","black"],"door_generator_assignment":[1,0],"goal":0,"start":3,"action_noise":0,"location_history":"[3,4,5,4,3,4,3,2,1,0]","action_history":"[0,1,1,0,0,0,1,0,1]","door_history":"[1,0,0,1,1,1,0,1,0]","location_rts":"[18318,637,612,660,917,1524,814,6705,4895]","trial_type":"two-door-navigation","trial_index":47,"time_elapsed":1032202,"internal_node_id":"0.0-2.0-45.0"},{"group":"hexagon_bi","room_assignment":["grey","blue","purple","yellow","red","green"],"door_color_assignment":["white","black"],"door_generator_assignment":[1,0],"goal":4,"start":0,"action_noise":0,"location_history":"[0,5,4]","action_history":"[0,1]","door_history":"[1,0]","location_rts":"[146998,2210]","trial_type":"two-door-navigation","trial_index":48,"time_elapsed":1187448,"internal_node_id":"0.0-2.0-46.0"},{"group":"hexagon_bi","room_assignment":["grey","blue","purple","yellow","red","green"],"door_color_assignment":["white","black"],"door_generator_assignment":[1,0],"goal":5,"start":4,"action_noise":0,"location_history":"[4,5]","action_history":"[1]","door_history":"[0]","location_rts":"[3232]","trial_type":"two-door-navigation","trial_index":49,"time_elapsed":1195698,"internal_node_id":"0.0-2.0-47.0"},{"group":"hexagon_bi","room_assignment":["grey","blue","purple","yellow","red","green"],"door_color_assignment":["white","black"],"door_generator_assignment":[1,0],"goal":2,"start":5,"action_noise":0,"location_history":"[5,4,3,2]","action_history":"[1,0,1]","door_history":"[0,1,0]","location_rts":"[15069,10419,2473]","trial_type":"two-door-navigation","trial_index":50,"time_elapsed":1230713,"internal_node_id":"0.0-2.0-48.0"},{"group":"hexagon_bi","room_assignment":["grey","blue","purple","yellow","red","green"],"door_color_assignment":["white","black"],"door_generator_assignment":[1,0],"goal":1,"start":2,"action_noise":0,"location_history":"[2,1]","action_history":"[0]","door_history":"[1]","location_rts":"[3202]","trial_type":"two-door-navigation","trial_index":51,"time_elapsed":1238936,"internal_node_id":"0.0-2.0-49.0"},{"view_history":"[{\"page_index\":0,\"viewing_time\":1631}]","rt":1631,"trial_type":"instructions","trial_index":52,"time_elapsed":1241568,"internal_node_id":"0.0-3.0"},{"view_history":"[{\"page_index\":0,\"viewing_time\":1117},{\"page_index\":1,\"viewing_time\":2119}]","rt":3236,"trial_type":"instructions","trial_index":53,"time_elapsed":1245805,"internal_node_id":"0.0-4.0"},{"group":"hexagon_tri","fractal_assignment":["../images/org_blu.png","../images/cyn_red.png","../images/gry_blk.png","../images/ylw_slt.png","../images/blu_wht.png","../images/pnk_blu.png"],"mutagen_generator_assignment":[1,0],"goal":2,"start":1,"action_noise":0,"location_history":"[1,3,4,0,5,4,2]","action_history":"[0,1,0,0,0,1]","mutagen_history":"[1,0,1,1,1,0]","location_rts":"[5754,1332,889,498,1098,1116]","trial_type":"fractal-mutation","trial_index":54,"time_elapsed":1266676,"internal_node_id":"0.0-5.0-0.0"},{"group":"hexagon_tri","fractal_assignment":["../images/org_blu.png","../images/cyn_red.png","../images/gry_blk.png","../images/ylw_slt.png","../images/blu_wht.png","../images/pnk_blu.png"],"mutagen_generator_assignment":[1,0],"goal":0,"start":2,"action_noise":0,"location_history":"[2,3,2,1,3,2,1,5,0]","action_history":"[1,0,0,0,0,0,1,1]","mutagen_history":"[0,1,1,1,1,1,0,0]","location_rts":"[2161,999,829,1244,1069,974,825,1613]","trial_type":"fractal-mutation","trial_index":55,"time_elapsed":1288616,"internal_node_id":"0.0-5.0-1.0"},{"group":"hexagon_tri","fractal_assignment":["../images/org_blu.png","../images/cyn_red.png","../images/gry_blk.png","../images/ylw_slt.png","../images/blu_wht.png","../images/pnk_blu.png"],"mutagen_generator_assignment":[1,0],"goal":5,"start":0,"action_noise":0,"location_history":"[0,5]","action_history":"[0]","mutagen_history":"[1]","location_rts":"[2936]","trial_type":"fractal-mutation","trial_index":56,"time_elapsed":1296599,"internal_node_id":"0.0-5.0-2.0"},{"group":"hexagon_tri","fractal_assignment":["../images/org_blu.png","../images/cyn_red.png","../images/gry_blk.png","../images/ylw_slt.png","../images/blu_wht.png","../images/pnk_blu.png"],"mutagen_generator_assignment":[1,0],"goal":1,"start":5,"action_noise":0,"location_history":"[5,4,0,1]","action_history":"[0,0,1]","mutagen_history":"[1,1,0]","location_rts":"[3696,1143,1252]","trial_type":"fractal-mutation","trial_index":57,"time_elapsed":1309770,"internal_node_id":"0.0-5.0-3.0"},{"group":"hexagon_tri","fractal_assignment":["../images/org_blu.png","../images/cyn_red.png","../images/gry_blk.png","../images/ylw_slt.png","../images/blu_wht.png","../images/pnk_blu.png"],"mutagen_generator_assignment":[1,0],"goal":3,"start":1,"action_noise":0,"location_history":"[1,3]","action_history":"[0]","mutagen_history":"[1]","location_rts":"[4436]","trial_type":"fractal-mutation","trial_index":58,"time_elapsed":1319242,"internal_node_id":"0.0-5.0-4.0"},{"group":"hexagon_tri","fractal_assignment":["../images/org_blu.png","../images/cyn_red.png","../images/gry_blk.png","../images/ylw_slt.png","../images/blu_wht.png","../images/pnk_blu.png"],"mutagen_generator_assignment":[1,0],"goal":5,"start":3,"action_noise":0,"location_history":"[3,2,1,5]","action_history":"[0,0,1]","mutagen_history":"[1,1,0]","location_rts":"[3963,1867,555]","trial_type":"fractal-mutation","trial_index":59,"time_elapsed":1332718,"internal_node_id":"0.0-5.0-5.0"},{"group":"hexagon_tri","fractal_assignment":["../images/org_blu.png","../images/cyn_red.png","../images/gry_blk.png","../images/ylw_slt.png","../images/blu_wht.png","../images/pnk_blu.png"],"mutagen_generator_assignment":[1,0],"goal":4,"start":5,"action_noise":0,"location_history":"[5,0,1,5,4]","action_history":"[1,1,1,0]","mutagen_history":"[0,0,0,1]","location_rts":"[2105,1187,1411,2283]","trial_type":"fractal-mutation","trial_index":60,"time_elapsed":1347802,"internal_node_id":"0.0-5.0-6.0"},{"group":"hexagon_tri","fractal_assignment":["../images/org_blu.png","../images/cyn_red.png","../images/gry_blk.png","../images/ylw_slt.png","../images/blu_wht.png","../images/pnk_blu.png"],"mutagen_generator_assignment":[1,0],"goal":0,"start":4,"action_noise":0,"location_history":"[4,0]","action_history":"[0]","mutagen_history":"[1]","location_rts":"[3708]","trial_type":"fractal-mutation","trial_index":61,"time_elapsed":1356547,"internal_node_id":"0.0-5.0-7.0"},{"group":"hexagon_tri","fractal_assignment":["../images/org_blu.png","../images/cyn_red.png","../images/gry_blk.png","../images/ylw_slt.png","../images/blu_wht.png","../images/pnk_blu.png"],"mutagen_generator_assignment":[1,0],"goal":2,"start":0,"action_noise":0,"location_history":"[0,1,5,0,5,4,2]","action_history":"[1,1,1,0,0,1]","mutagen_history":"[0,0,0,1,1,0]","location_rts":"[3882,1011,876,602,1100,946]","trial_type":"fractal-mutation","trial_index":62,"time_elapsed":1375118,"internal_node_id":"0.0-5.0-8.0"},{"group":"hexagon_tri","fractal_assignment":["../images/org_blu.png","../images/cyn_red.png","../images/gry_blk.png","../images/ylw_slt.png","../images/blu_wht.png","../images/pnk_blu.png"],"mutagen_generator_assignment":[1,0],"goal":4,"start":2,"action_noise":0,"location_history":"[2,1,3,4]","action_history":"[0,0,1]","mutagen_history":"[1,1,0]","location_rts":"[2978,986,733]","trial_type":"fractal-mutation","trial_index":63,"time_elapsed":1386908,"internal_node_id":"0.0-5.0-9.0"},{"group":"hexagon_tri","fractal_assignment":["../images/org_blu.png","../images/cyn_red.png","../images/gry_blk.png","../images/ylw_slt.png","../images/blu_wht.png","../images/pnk_blu.png"],"mutagen_generator_assignment":[1,0],"goal":2,"start":4,"action_noise":0,"location_history":"[4,2]","action_history":"[1]","mutagen_history":"[0]","location_rts":"[2467]","trial_type":"fractal-mutation","trial_index":64,"time_elapsed":1394406,"internal_node_id":"0.0-5.0-10.0"},{"group":"hexagon_tri","fractal_assignment":["../images/org_blu.png","../images/cyn_red.png","../images/gry_blk.png","../images/ylw_slt.png","../images/blu_wht.png","../images/pnk_blu.png"],"mutagen_generator_assignment":[1,0],"goal":3,"start":2,"action_noise":0,"location_history":"[2,1,3]","action_history":"[0,0]","mutagen_history":"[1,1]","location_rts":"[4647,1027]","trial_type":"fractal-mutation","trial_index":65,"time_elapsed":1406165,"internal_node_id":"0.0-5.0-11.0"},{"group":"hexagon_tri","fractal_assignment":["../images/org_blu.png","../images/cyn_red.png","../images/gry_blk.png","../images/ylw_slt.png","../images/blu_wht.png","../images/pnk_blu.png"],"mutagen_generator_assignment":[1,0],"goal":0,"start":3,"action_noise":0,"location_history":"[3,4,2,1,3,4,2,1,3,2,1,5,0]","action_history":"[1,1,0,0,1,1,0,0,0,0,1,1]","mutagen_history":"[0,0,1,1,0,0,1,1,1,1,0,0]","location_rts":"[24978,864,1053,771,1025,1305,1689,521,1239,2289,679,2197]","trial_type":"fractal-mutation","trial_index":66,"time_elapsed":1461097,"internal_node_id":"0.0-5.0-12.0"},{"group":"hexagon_tri","fractal_assignment":["../images/org_blu.png","../images/cyn_red.png","../images/gry_blk.png","../images/ylw_slt.png","../images/blu_wht.png","../images/pnk_blu.png"],"mutagen_generator_assignment":[1,0],"goal":5,"start":0,"action_noise":0,"location_history":"[0,5]","action_history":"[0]","mutagen_history":"[1]","location_rts":"[1935]","trial_type":"fractal-mutation","trial_index":67,"time_elapsed":1468082,"internal_node_id":"0.0-5.0-13.0"},{"group":"hexagon_tri","fractal_assignment":["../images/org_blu.png","../images/cyn_red.png","../images/gry_blk.png","../images/ylw_slt.png","../images/blu_wht.png","../images/pnk_blu.png"],"mutagen_generator_assignment":[1,0],"goal":1,"start":5,"action_noise":0,"location_history":"[5,4,0,5,0,1]","action_history":"[0,0,0,1,1]","mutagen_history":"[1,1,1,0,0]","location_rts":"[4402,858,636,793,1444]","trial_type":"fractal-mutation","trial_index":68,"time_elapsed":1485335,"internal_node_id":"0.0-5.0-14.0"},{"group":"hexagon_tri","fractal_assignment":["../images/org_blu.png","../images/cyn_red.png","../images/gry_blk.png","../images/ylw_slt.png","../images/blu_wht.png","../images/pnk_blu.png"],"mutagen_generator_assignment":[1,0],"goal":5,"start":1,"action_noise":0,"location_history":"[1,3,2,1,5]","action_history":"[0,0,0,1]","mutagen_history":"[1,1,1,0]","location_rts":"[1592,883,768,746]","trial_type":"fractal-mutation","trial_index":69,"time_elapsed":1497435,"internal_node_id":"0.0-5.0-15.0"},{"group":"hexagon_tri","fractal_assignment":["../images/org_blu.png","../images/cyn_red.png","../images/gry_blk.png","../images/ylw_slt.png","../images/blu_wht.png","../images/pnk_blu.png"],"mutagen_generator_assignment":[1,0],"goal":3,"start":5,"action_noise":0,"location_history":"[5,0,1,5,4,2,3]","action_history":"[1,1,1,0,1,1]","mutagen_history":"[0,0,0,1,0,0]","location_rts":"[2450,2198,740,731,729,922]","trial_type":"fractal-mutation","trial_index":70,"time_elapsed":1515353,"internal_node_id":"0.0-5.0-16.0"},{"group":"hexagon_tri","fractal_assignment":["../images/org_blu.png","../images/cyn_red.png","../images/gry_blk.png","../images/ylw_slt.png","../images/blu_wht.png","../images/pnk_blu.png"],"mutagen_generator_assignment":[1,0],"goal":2,"start":3,"action_noise":0,"location_history":"[3,4,2]","action_history":"[1,1]","mutagen_history":"[0,0]","location_rts":"[1467,881]","trial_type":"fractal-mutation","trial_index":71,"time_elapsed":1523753,"internal_node_id":"0.0-5.0-17.0"},{"group":"hexagon_tri","fractal_assignment":["../images/org_blu.png","../images/cyn_red.png","../images/gry_blk.png","../images/ylw_slt.png","../images/blu_wht.png","../images/pnk_blu.png"],"mutagen_generator_assignment":[1,0],"goal":1,"start":2,"action_noise":0,"location_history":"[2,1]","action_history":"[0]","mutagen_history":"[1]","location_rts":"[1493]","trial_type":"fractal-mutation","trial_index":72,"time_elapsed":1530284,"internal_node_id":"0.0-5.0-18.0"},{"group":"hexagon_tri","fractal_assignment":["../images/org_blu.png","../images/cyn_red.png","../images/gry_blk.png","../images/ylw_slt.png","../images/blu_wht.png","../images/pnk_blu.png"],"mutagen_generator_assignment":[1,0],"goal":4,"start":1,"action_noise":0,"location_history":"[1,3,2,1,5,0,1,5,4]","action_history":"[0,0,0,1,1,1,1,0]","mutagen_history":"[1,1,1,0,0,0,0,1]","location_rts":"[4891,1065,1945,795,810,777,1168,666]","trial_type":"fractal-mutation","trial_index":73,"time_elapsed":1554614,"internal_node_id":"0.0-5.0-19.0"},{"group":"hexagon_tri","fractal_assignment":["../images/org_blu.png","../images/cyn_red.png","../images/gry_blk.png","../images/ylw_slt.png","../images/blu_wht.png","../images/pnk_blu.png"],"mutagen_generator_assignment":[1,0],"goal":0,"start":4,"action_noise":0,"location_history":"[4,2,1,3,4,2,1,3,2,3,4,0]","action_history":"[1,0,0,1,1,0,0,0,1,1,0]","mutagen_history":"[0,1,1,0,0,1,1,1,0,0,1]","location_rts":"[1455,827,988,1172,825,1197,1472,1641,760,1545,640]","trial_type":"fractal-mutation","trial_index":74,"time_elapsed":1582426,"internal_node_id":"0.0-5.0-20.0"},{"group":"hexagon_tri","fractal_assignment":["../images/org_blu.png","../images/cyn_red.png","../images/gry_blk.png","../images/ylw_slt.png","../images/blu_wht.png","../images/pnk_blu.png"],"mutagen_generator_assignment":[1,0],"goal":3,"start":0,"action_noise":0,"location_history":"[0,1,5,0,5,4,0,1,5,4,0,5,0,1,3]","action_history":"[1,1,1,0,0,0,1,1,0,0,0,1,1,0]","mutagen_history":"[0,0,0,1,1,1,0,0,1,1,1,0,0,1]","location_rts":"[1636,1396,1711,866,1043,1047,1142,1156,802,1157,2647,766,1537,780]","trial_type":"fractal-mutation","trial_index":75,"time_elapsed":1618468,"internal_node_id":"0.0-5.0-21.0"},{"group":"hexagon_tri","fractal_assignment":["../images/org_blu.png","../images/cyn_red.png","../images/gry_blk.png","../images/ylw_slt.png","../images/blu_wht.png","../images/pnk_blu.png"],"mutagen_generator_assignment":[1,0],"goal":1,"start":3,"action_noise":0,"location_history":"[3,4,0,5,4,2,1]","action_history":"[1,0,0,0,1,0]","mutagen_history":"[0,1,1,1,0,1]","location_rts":"[2634,1100,709,742,960,1016]","trial_type":"fractal-mutation","trial_index":76,"time_elapsed":1635790,"internal_node_id":"0.0-5.0-22.0"},{"group":"hexagon_tri","fractal_assignment":["../images/org_blu.png","../images/cyn_red.png","../images/gry_blk.png","../images/ylw_slt.png","../images/blu_wht.png","../images/pnk_blu.png"],"mutagen_generator_assignment":[1,0],"goal":0,"start":1,"action_noise":0,"location_history":"[1,5,4,0]","action_history":"[1,0,0]","mutagen_history":"[0,1,1]","location_rts":"[1232,1075,805]","trial_type":"fractal-mutation","trial_index":77,"time_elapsed":1645981,"internal_node_id":"0.0-5.0-23.0"},{"group":"hexagon_tri","fractal_assignment":["../images/org_blu.png","../images/cyn_red.png","../images/gry_blk.png","../images/ylw_slt.png","../images/blu_wht.png","../images/pnk_blu.png"],"mutagen_generator_assignment":[1,0],"goal":2,"start":0,"action_noise":0,"location_history":"[0,1,5,4,0,1,5,0,5,4,2]","action_history":"[1,1,0,0,1,1,1,0,0,1]","mutagen_history":"[0,0,1,1,0,0,0,1,1,0]","location_rts":"[1665,712,723,1249,785,847,800,913,1943,1240]","trial_type":"fractal-mutation","trial_index":78,"time_elapsed":1671115,"internal_node_id":"0.0-5.0-24.0"},{"group":"hexagon_tri","fractal_assignment":["../images/org_blu.png","../images/cyn_red.png","../images/gry_blk.png","../images/ylw_slt.png","../images/blu_wht.png","../images/pnk_blu.png"],"mutagen_generator_assignment":[1,0],"goal":4,"start":2,"action_noise":0,"location_history":"[2,1,3,4]","action_history":"[0,0,1]","mutagen_history":"[1,1,0]","location_rts":"[3580,1614,863]","trial_type":"fractal-mutation","trial_index":79,"time_elapsed":1684247,"internal_node_id":"0.0-5.0-25.0"},{"group":"hexagon_tri","fractal_assignment":["../images/org_blu.png","../images/cyn_red.png","../images/gry_blk.png","../images/ylw_slt.png","../images/blu_wht.png","../images/pnk_blu.png"],"mutagen_generator_assignment":[1,0],"goal":5,"start":4,"action_noise":0,"location_history":"[4,0,1,3,2,1,5]","action_history":"[0,1,0,0,0,1]","mutagen_history":"[1,0,1,1,1,0]","location_rts":"[1623,662,619,647,1070,573]","trial_type":"fractal-mutation","trial_index":80,"time_elapsed":1699614,"internal_node_id":"0.0-5.0-26.0"},{"group":"hexagon_tri","fractal_assignment":["../images/org_blu.png","../images/cyn_red.png","../images/gry_blk.png","../images/ylw_slt.png","../images/blu_wht.png","../images/pnk_blu.png"],"mutagen_generator_assignment":[1,0],"goal":2,"start":5,"action_noise":0,"location_history":"[5,0,5,0,1,3,4,2]","action_history":"[1,0,1,1,0,1,1]","mutagen_history":"[0,1,0,0,1,0,0]","location_rts":"[1858,787,710,536,1267,1204,1499]","trial_type":"fractal-mutation","trial_index":81,"time_elapsed":1718661,"internal_node_id":"0.0-5.0-27.0"},{"group":"hexagon_tri","fractal_assignment":["../images/org_blu.png","../images/cyn_red.png","../images/gry_blk.png","../images/ylw_slt.png","../images/blu_wht.png","../images/pnk_blu.png"],"mutagen_generator_assignment":[1,0],"goal":3,"start":2,"action_noise":0,"location_history":"[2,1,3]","action_history":"[0,0]","mutagen_history":"[1,1]","location_rts":"[4017,765]","trial_type":"fractal-mutation","trial_index":82,"time_elapsed":1729516,"internal_node_id":"0.0-5.0-28.0"},{"group":"hexagon_tri","fractal_assignment":["../images/org_blu.png","../images/cyn_red.png","../images/gry_blk.png","../images/ylw_slt.png","../images/blu_wht.png","../images/pnk_blu.png"],"mutagen_generator_assignment":[1,0],"goal":1,"start":3,"action_noise":0,"location_history":"[3,4,0,5,4,2,3,4,2,1]","action_history":"[1,0,0,0,1,1,1,1,0]","mutagen_history":"[0,1,1,1,0,0,0,0,1]","location_rts":"[1705,872,1022,1185,1323,1187,1118,1244,682]","trial_type":"fractal-mutation","trial_index":83,"time_elapsed":1753094,"internal_node_id":"0.0-5.0-29.0"},{"group":"hexagon_tri","fractal_assignment":["../images/org_blu.png","../images/cyn_red.png","../images/gry_blk.png","../images/ylw_slt.png","../images/blu_wht.png","../images/pnk_blu.png"],"mutagen_generator_assignment":[1,0],"goal":4,"start":1,"action_noise":0,"location_history":"[1,5,4]","action_history":"[1,0]","mutagen_history":"[0,1]","location_rts":"[1840,1801]","trial_type":"fractal-mutation","trial_index":84,"time_elapsed":1763745,"internal_node_id":"0.0-5.0-30.0"},{"group":"hexagon_tri","fractal_assignment":["../images/org_blu.png","../images/cyn_red.png","../images/gry_blk.png","../images/ylw_slt.png","../images/blu_wht.png","../images/pnk_blu.png"],"mutagen_generator_assignment":[1,0],"goal":5,"start":4,"action_noise":0,"location_history":"[4,0,5]","action_history":"[0,0]","mutagen_history":"[1,1]","location_rts":"[2742,960]","trial_type":"fractal-mutation","trial_index":85,"time_elapsed":1773504,"internal_node_id":"0.0-5.0-31.0"},{"group":"hexagon_tri","fractal_assignment":["../images/org_blu.png","../images/cyn_red.png","../images/gry_blk.png","../images/ylw_slt.png","../images/blu_wht.png","../images/pnk_blu.png"],"mutagen_generator_assignment":[1,0],"goal":0,"start":5,"action_noise":0,"location_history":"[5,0]","action_history":"[1]","mutagen_history":"[0]","location_rts":"[2853]","trial_type":"fractal-mutation","trial_index":86,"time_elapsed":1781384,"internal_node_id":"0.0-5.0-32.0"},{"group":"hexagon_tri","fractal_assignment":["../images/org_blu.png","../images/cyn_red.png","../images/gry_blk.png","../images/ylw_slt.png","../images/blu_wht.png","../images/pnk_blu.png"],"mutagen_generator_assignment":[1,0],"goal":2,"start":0,"action_noise":0,"location_history":"[0,1,3,2]","action_history":"[1,0,0]","mutagen_history":"[0,1,1]","location_rts":"[4222,756,794]","trial_type":"fractal-mutation","trial_index":87,"time_elapsed":1794232,"internal_node_id":"0.0-5.0-33.0"},{"group":"hexagon_tri","fractal_assignment":["../images/org_blu.png","../images/cyn_red.png","../images/gry_blk.png","../images/ylw_slt.png","../images/blu_wht.png","../images/pnk_blu.png"],"mutagen_generator_assignment":[1,0],"goal":0,"start":2,"action_noise":0,"location_history":"[2,1,3,2,3,4,2,1,3,4,2,3,4,2,1,3,2,1,5,4,2,3,2,3,4,2,1,5,0]","action_history":"[0,0,0,1,1,1,0,0,1,1,1,1,1,0,0,0,0,1,0,1,1,0,1,1,1,0,1,1]","mutagen_history":"[1,1,1,0,0,0,1,1,0,0,0,0,0,1,1,1,1,0,1,0,0,1,0,0,0,1,0,0]","location_rts":"[4750,678,894,1193,1268,696,1171,705,811,1409,871,875,822,1104,541,1885,1614,555,2678,934,891,1067,617,2800,1500,771,1405,1055]","trial_type":"fractal-mutation","trial_index":88,"time_elapsed":1862537,"internal_node_id":"0.0-5.0-34.0"},{"group":"hexagon_tri","fractal_assignment":["../images/org_blu.png","../images/cyn_red.png","../images/gry_blk.png","../images/ylw_slt.png","../images/blu_wht.png","../images/pnk_blu.png"],"mutagen_generator_assignment":[1,0],"goal":5,"start":0,"action_noise":0,"location_history":"[0,1,3,2,3,2,1,5]","action_history":"[1,0,0,1,0,0,1]","mutagen_history":"[0,1,1,0,1,1,0]","location_rts":"[1778,931,670,849,654,760,552]","trial_type":"fractal-mutation","trial_index":89,"time_elapsed":1879925,"internal_node_id":"0.0-5.0-35.0"},{"group":"hexagon_tri","fractal_assignment":["../images/org_blu.png","../images/cyn_red.png","../images/gry_blk.png","../images/ylw_slt.png","../images/blu_wht.png","../images/pnk_blu.png"],"mutagen_generator_assignment":[1,0],"goal":1,"start":5,"action_noise":0,"location_history":"[5,0,1]","action_history":"[1,1]","mutagen_history":"[0,0]","location_rts":"[3779,1322]","trial_type":"fractal-mutation","trial_index":90,"time_elapsed":1891066,"internal_node_id":"0.0-5.0-36.0"},{"group":"hexagon_tri","fractal_assignment":["../images/org_blu.png","../images/cyn_red.png","../images/gry_blk.png","../images/ylw_slt.png","../images/blu_wht.png","../images/pnk_blu.png"],"mutagen_generator_assignment":[1,0],"goal":4,"start":1,"action_noise":0,"location_history":"[1,3,4]","action_history":"[0,1]","mutagen_history":"[1,0]","location_rts":"[4379,823]","trial_type":"fractal-mutation","trial_index":91,"time_elapsed":1902327,"internal_node_id":"0.0-5.0-37.0"},{"group":"hexagon_tri","fractal_assignment":["../images/org_blu.png","../images/cyn_red.png","../images/gry_blk.png","../images/ylw_slt.png","../images/blu_wht.png","../images/pnk_blu.png"],"mutagen_generator_assignment":[1,0],"goal":3,"start":4,"action_noise":0,"location_history":"[4,2,1,3]","action_history":"[1,0,0]","mutagen_history":"[0,1,1]","location_rts":"[2150,781,640]","trial_type":"fractal-mutation","trial_index":92,"time_elapsed":1912981,"internal_node_id":"0.0-5.0-38.0"},{"group":"hexagon_tri","fractal_assignment":["../images/org_blu.png","../images/cyn_red.png","../images/gry_blk.png","../images/ylw_slt.png","../images/blu_wht.png","../images/pnk_blu.png"],"mutagen_generator_assignment":[1,0],"goal":5,"start":3,"action_noise":0,"location_history":"[3,2,3,2,3,4,0,5]","action_history":"[0,1,0,1,1,0,0]","mutagen_history":"[1,0,1,0,0,1,1]","location_rts":"[2912,1309,778,2282,1201,734,1064]","trial_type":"fractal-mutation","trial_index":93,"time_elapsed":1934449,"internal_node_id":"0.0-5.0-39.0"},{"group":"hexagon_tri","fractal_assignment":["../images/org_blu.png","../images/cyn_red.png","../images/gry_blk.png","../images/ylw_slt.png","../images/blu_wht.png","../images/pnk_blu.png"],"mutagen_generator_assignment":[1,0],"goal":1,"start":5,"action_noise":0,"location_history":"[5,4,2,1]","action_history":"[0,1,0]","mutagen_history":"[1,0,1]","location_rts":"[2555,1742,1104]","trial_type":"fractal-mutation","trial_index":94,"time_elapsed":1946949,"internal_node_id":"0.0-5.0-40.0"},{"group":"hexagon_tri","fractal_assignment":["../images/org_blu.png","../images/cyn_red.png","../images/gry_blk.png","../images/ylw_slt.png","../images/blu_wht.png","../images/pnk_blu.png"],"mutagen_generator_assignment":[1,0],"goal":2,"start":1,"action_noise":0,"location_history":"[1,5,4,2]","action_history":"[1,0,1]","mutagen_history":"[0,1,0]","location_rts":"[3578,1181,1117]","trial_type":"fractal-mutation","trial_index":95,"time_elapsed":1959916,"internal_node_id":"0.0-5.0-41.0"},{"group":"hexagon_tri","fractal_assignment":["../images/org_blu.png","../images/cyn_red.png","../images/gry_blk.png","../images/ylw_slt.png","../images/blu_wht.png","../images/pnk_blu.png"],"mutagen_generator_assignment":[1,0],"goal":4,"start":2,"action_noise":0,"location_history":"[2,3,4]","action_history":"[1,1]","mutagen_history":"[0,0]","location_rts":"[1551,1428]","trial_type":"fractal-mutation","trial_index":96,"time_elapsed":1968944,"internal_node_id":"0.0-5.0-42.0"},{"group":"hexagon_tri","fractal_assignment":["../images/org_blu.png","../images/cyn_red.png","../images/gry_blk.png","../images/ylw_slt.png","../images/blu_wht.png","../images/pnk_blu.png"],"mutagen_generator_assignment":[1,0],"goal":0,"start":4,"action_noise":0,"location_history":"[4,2,3,2,3,4,0]","action_history":"[1,1,0,1,1,0]","mutagen_history":"[0,0,1,0,0,1]","location_rts":"[3870,1227,621,1376,1093,789]","trial_type":"fractal-mutation","trial_index":97,"time_elapsed":1988069,"internal_node_id":"0.0-5.0-43.0"},{"group":"hexagon_tri","fractal_assignment":["../images/org_blu.png","../images/cyn_red.png","../images/gry_blk.png","../images/ylw_slt.png","../images/blu_wht.png","../images/pnk_blu.png"],"mutagen_generator_assignment":[1,0],"goal":3,"start":0,"action_noise":0,"location_history":"[0,1,5,4,2,3]","action_history":"[1,1,0,1,1]","mutagen_history":"[0,0,1,0,0]","location_rts":"[2599,1177,1096,910,932]","trial_type":"fractal-mutation","trial_index":98,"time_elapsed":2003918,"internal_node_id":"0.0-5.0-44.0"},{"group":"hexagon_tri","fractal_assignment":["../images/org_blu.png","../images/cyn_red.png","../images/gry_blk.png","../images/ylw_slt.png","../images/blu_wht.png","../images/pnk_blu.png"],"mutagen_generator_assignment":[1,0],"goal":0,"start":3,"action_noise":0,"location_history":"[3,2,1,3,4,2,3,2,3,4,0]","action_history":"[0,0,0,1,1,1,0,1,1,0]","mutagen_history":"[1,1,1,0,0,0,1,0,0,1]","location_rts":"[3609,1261,761,904,771,1077,1017,738,948,1623]","trial_type":"fractal-mutation","trial_index":99,"time_elapsed":2030870,"internal_node_id":"0.0-5.0-45.0"},{"group":"hexagon_tri","fractal_assignment":["../images/org_blu.png","../images/cyn_red.png","../images/gry_blk.png","../images/ylw_slt.png","../images/blu_wht.png","../images/pnk_blu.png"],"mutagen_generator_assignment":[1,0],"goal":4,"start":0,"action_noise":0,"location_history":"[0,5,4]","action_history":"[0,0]","mutagen_history":"[1,1]","location_rts":"[6589,1395]","trial_type":"fractal-mutation","trial_index":100,"time_elapsed":2044914,"internal_node_id":"0.0-5.0-46.0"},{"group":"hexagon_tri","fractal_assignment":["../images/org_blu.png","../images/cyn_red.png","../images/gry_blk.png","../images/ylw_slt.png","../images/blu_wht.png","../images/pnk_blu.png"],"mutagen_generator_assignment":[1,0],"goal":5,"start":4,"action_noise":0,"location_history":"[4,0,1,3,2,1,3,4,2,3,2,3,4,0,5]","action_history":"[0,1,0,0,0,0,1,1,1,0,1,1,0,0]","mutagen_history":"[1,0,1,1,1,1,0,0,0,1,0,0,1,1]","location_rts":"[2579,813,684,655,566,1459,929,1044,875,928,1167,925,873,894]","trial_type":"fractal-mutation","trial_index":101,"time_elapsed":2077663,"internal_node_id":"0.0-5.0-47.0"},{"group":"hexagon_tri","fractal_assignment":["../images/org_blu.png","../images/cyn_red.png","../images/gry_blk.png","../images/ylw_slt.png","../images/blu_wht.png","../images/pnk_blu.png"],"mutagen_generator_assignment":[1,0],"goal":2,"start":5,"action_noise":0,"location_history":"[5,0,5,0,1,3,4,2]","action_history":"[1,0,1,1,0,1,1]","mutagen_history":"[0,1,0,0,1,0,0]","location_rts":"[1831,1244,1566,1324,1697,664,776]","trial_type":"fractal-mutation","trial_index":102,"time_elapsed":2097951,"internal_node_id":"0.0-5.0-48.0"},{"group":"hexagon_tri","fractal_assignment":["../images/org_blu.png","../images/cyn_red.png","../images/gry_blk.png","../images/ylw_slt.png","../images/blu_wht.png","../images/pnk_blu.png"],"mutagen_generator_assignment":[1,0],"goal":1,"start":2,"action_noise":0,"location_history":"[2,1]","action_history":"[0]","mutagen_history":"[1]","location_rts":"[1644]","trial_type":"fractal-mutation","trial_index":103,"time_elapsed":2104634,"internal_node_id":"0.0-5.0-49.0"},{"view_history":"[{\"page_index\":0,\"viewing_time\":2821}]","rt":2821,"trial_type":"instructions","trial_index":104,"time_elapsed":2108456,"internal_node_id":"0.0-6.0"},{"rt":19325,"responses":"{\"Q0\":\"memory\"}","trial_type":"survey-text","trial_index":105,"time_elapsed":2128787,"internal_node_id":"0.0-7.0-0.0"},{"rt":14235,"responses":"{\"Q0\":\"visual memory\"}","trial_type":"survey-text","trial_index":106,"time_elapsed":2144023,"internal_node_id":"0.0-7.0-1.0"},{"rt":47819,"responses":"{\"Q0\":\"<img src='../images/diagrams/hexagon_bi.png'>\"}","trial_type":"survey-multi-choice","trial_index":107,"time_elapsed":2192847,"internal_node_id":"0.0-7.0-2.0"},{"rt":30938,"assignments":["../images/org_blu.png","../images/pnk_blu.png","../images/cyn_red.png","../images/blu_wht.png","../images/gry_blk.png","../images/ylw_slt.png"],"trial_type":"drag-drop-on-image","trial_index":108,"time_elapsed":2224787,"internal_node_id":"0.0-7.0-3.0"},{"rt":13874,"responses":"{\"Q0\":\"1\"}","trial_type":"survey-likert","trial_index":109,"time_elapsed":2239667,"internal_node_id":"0.0-7.0-4.0"},{"rt":90565,"responses":"{\"Q0\":\"I thought the first one was easy to memorize what door went to each color but struggled with the second one. Other then the goal I did not find them similar at all.\"}","trial_type":"survey-text","trial_index":110,"time_elapsed":2331232,"internal_node_id":"0.0-7.0-5.0"},{"rt":7084,"responses":"{\"Q0\":\"No\"}","trial_type":"survey-multi-choice","trial_index":111,"time_elapsed":2339318,"internal_node_id":"0.0-7.0-6.0"},{"rt":11387,"responses":"{\"Q0\":\"During these questions/I wasn't aware until you pointed it out\"}","trial_type":"survey-multi-choice","trial_index":112,"time_elapsed":2351708,"internal_node_id":"0.0-7.0-7.0"},{"rt":5977,"responses":"{\"Q0\":\"\"}","trial_type":"survey-text","trial_index":113,"time_elapsed":2358686,"internal_node_id":"0.0-7.0-8.0"},{"rt":6299,"responses":"{\"Q0\":\"1\"}","trial_type":"survey-likert","trial_index":114,"time_elapsed":2365988,"internal_node_id":"0.0-7.0-9.0"},{"rt":12234,"responses":"{\"Q0\":\"Different structure\"}","trial_type":"survey-multi-choice","trial_index":115,"time_elapsed":2379226,"internal_node_id":"0.0-7.0-10.0"},{"rt":29645,"responses":"{\"Q0\":\"left (white) door = acid, right (black) door = ray\",\"Q1\":\"Not at all confident\"}","trial_type":"survey-multi-choice","trial_index":116,"time_elapsed":2409877,"internal_node_id":"0.0-7.0-11.0"},{"rt":12268,"responses":"{\"Q0\":\"55-65\",\"Q1\":\"Associates or other two-year degree\",\"Q2\":\"Female\",\"Q3\":\"White\"}","trial_type":"survey-multi-choice","trial_index":117,"time_elapsed":2423153,"internal_node_id":"0.0-8.0"},{"rt":7221,"responses":"{\"Q0\":\"no\"}","trial_type":"survey-text","trial_index":118,"time_elapsed":2431376,"internal_node_id":"0.0-9.0"}]