[{"view_history":"[{\"page_index\":0,\"viewing_time\":211480},{\"page_index\":1,\"viewing_time\":12532}]","rt":224015,"trial_type":"instructions","trial_index":0,"time_elapsed":224018,"internal_node_id":"0.0-0.0"},{"view_history":"[{\"page_index\":0,\"viewing_time\":1705},{\"page_index\":1,\"viewing_time\":1722}]","rt":3428,"trial_type":"instructions","trial_index":1,"time_elapsed":228448,"internal_node_id":"0.0-1.0"},{"group":"hexagon_tri","room_assignment":["purple","yellow","red","blue","grey","green"],"door_color_assignment":["black","white"],"door_generator_assignment":[1,0],"goal":2,"start":1,"action_noise":0,"location_history":"[1,3,4,0,5,0,5,4,0,1,5,0,1,3,4,2]","action_history":"[0,1,0,0,1,0,0,0,1,1,1,1,0,1,1]","door_history":"[1,0,1,1,0,1,1,1,0,0,0,0,1,0,0]","location_rts":"[3318,2051,566,528,818,408,375,429,1157,1203,2125,799,727,647,349]","trial_type":"two-door-navigation","trial_index":2,"time_elapsed":263689,"internal_node_id":"0.0-2.0-0.0"},{"group":"hexagon_tri","room_assignment":["purple","yellow","red","blue","grey","green"],"door_color_assignment":["black","white"],"door_generator_assignment":[1,0],"goal":0,"start":2,"action_noise":0,"location_history":"[2,3,2,1,5,0]","action_history":"[1,0,0,1,1]","door_history":"[0,1,1,0,0]","location_rts":"[3932,440,419,630,448]","trial_type":"two-door-navigation","trial_index":3,"time_elapsed":278732,"internal_node_id":"0.0-2.0-1.0"},{"group":"hexagon_tri","room_assignment":["purple","yellow","red","blue","grey","green"],"door_color_assignment":["black","white"],"door_generator_assignment":[1,0],"goal":5,"start":0,"action_noise":0,"location_history":"[0,1,3,4,2,3,4,2,1,3,2,1,3,4,0,1,3,4,0,5]","action_history":"[1,0,1,1,1,1,1,0,0,0,0,0,1,0,1,0,1,0,0]","door_history":"[0,1,0,0,0,0,0,1,1,1,1,1,0,1,0,1,0,1,1]","location_rts":"[2079,4139,695,290,340,404,614,308,446,389,428,396,322,1492,1148,2588,385,20,213]","trial_type":"two-door-navigation","trial_index":4,"time_elapsed":319283,"internal_node_id":"0.0-2.0-2.0"},{"group":"hexagon_tri","room_assignment":["purple","yellow","red","blue","grey","green"],"door_color_assignment":["black","white"],"door_generator_assignment":[1,0],"goal":1,"start":5,"action_noise":0,"location_history":"[5,4,2,1]","action_history":"[0,1,0]","door_history":"[1,0,1]","location_rts":"[3210,2198,647]","trial_type":"two-door-navigation","trial_index":5,"time_elapsed":332417,"internal_node_id":"0.0-2.0-3.0"},{"group":"hexagon_tri","room_assignment":["purple","yellow","red","blue","grey","green"],"door_color_assignment":["black","white"],"door_generator_assignment":[1,0],"goal":3,"start":1,"action_noise":0,"location_history":"[1,3]","action_history":"[0]","door_history":"[1]","location_rts":"[2539]","trial_type":"two-door-navigation","trial_index":6,"time_elapsed":340038,"internal_node_id":"0.0-2.0-4.0"},{"group":"hexagon_tri","room_assignment":["purple","yellow","red","blue","grey","green"],"door_color_assignment":["black","white"],"door_generator_assignment":[1,0],"goal":5,"start":3,"action_noise":0,"location_history":"[3,4,2,1,3,4,2,1,5]","action_history":"[1,1,0,0,1,1,0,1]","door_history":"[0,0,1,1,0,0,1,0]","location_rts":"[2690,3528,854,2451,761,497,909,2160]","trial_type":"two-door-navigation","trial_index":7,"time_elapsed":366103,"internal_node_id":"0.0-2.0-5.0"},{"group":"hexagon_tri","room_assignment":["purple","yellow","red","blue","grey","green"],"door_color_assignment":["black","white"],"door_generator_assignment":[1,0],"goal":4,"start":5,"action_noise":0,"location_history":"[5,0,5,0,1,5,4]","action_history":"[1,0,1,1,1,0]","door_history":"[0,1,0,0,0,1]","location_rts":"[2792,571,582,431,385,330]","trial_type":"two-door-navigation","trial_index":8,"time_elapsed":381359,"internal_node_id":"0.0-2.0-6.0"},{"group":"hexagon_tri","room_assignment":["purple","yellow","red","blue","grey","green"],"door_color_assignment":["black","white"],"door_generator_assignment":[1,0],"goal":0,"start":4,"action_noise":0,"location_history":"[4,2,1,5,4,2,3,4,2,3,2,1,3,2,3,2,3,2,3,4,2,3,2,1,3,2,1,3,2,1,5,0]","action_history":"[1,0,1,0,1,1,1,1,1,0,0,0,0,1,0,1,0,1,1,1,1,0,0,0,0,0,0,0,0,1,1]","door_history":"[0,1,0,1,0,0,0,0,0,1,1,1,1,0,1,0,1,0,0,0,0,1,1,1,1,1,1,1,1,0,0]","location_rts":"[1057,1546,1037,387,1646,399,492,594,390,309,234,233,300,878,301,297,277,292,300,338,355,432,259,482,340,328,304,285,250,619,156]","trial_type":"two-door-navigation","trial_index":9,"time_elapsed":432850,"internal_node_id":"0.0-2.0-7.0"},{"group":"hexagon_tri","room_assignment":["purple","yellow","red","blue","grey","green"],"door_color_assignment":["black","white"],"door_generator_assignment":[1,0],"goal":2,"start":0,"action_noise":0,"location_history":"[0,1,3,4,2]","action_history":"[1,0,1,1]","door_history":"[0,1,0,0]","location_rts":"[3276,315,989,625]","trial_type":"two-door-navigation","trial_index":10,"time_elapsed":446184,"internal_node_id":"0.0-2.0-8.0"},{"group":"hexagon_tri","room_assignment":["purple","yellow","red","blue","grey","green"],"door_color_assignment":["black","white"],"door_generator_assignment":[1,0],"goal":4,"start":2,"action_noise":0,"location_history":"[2,1,5,0,5,4]","action_history":"[0,1,1,0,0]","door_history":"[1,0,0,1,1]","location_rts":"[494,270,396,304,442]","trial_type":"two-door-navigation","trial_index":11,"time_elapsed":457258,"internal_node_id":"0.0-2.0-9.0"},{"group":"hexagon_tri","room_assignment":["purple","yellow","red","blue","grey","green"],"door_color_assignment":["black","white"],"door_generator_assignment":[1,0],"goal":2,"start":4,"action_noise":0,"location_history":"[4,2]","action_history":"[1]","door_history":"[0]","location_rts":"[506]","trial_type":"two-door-navigation","trial_index":12,"time_elapsed":462794,"internal_node_id":"0.0-2.0-10.0"},{"group":"hexagon_tri","room_assignment":["purple","yellow","red","blue","grey","green"],"door_color_assignment":["black","white"],"door_generator_assignment":[1,0],"goal":3,"start":2,"action_noise":0,"location_history":"[2,1,3]","action_history":"[0,0]","door_history":"[1,1]","location_rts":"[1589,3118]","trial_type":"two-door-navigation","trial_index":13,"time_elapsed":473573,"internal_node_id":"0.0-2.0-11.0"},{"group":"hexagon_tri","room_assignment":["purple","yellow","red","blue","grey","green"],"door_color_assignment":["black","white"],"door_generator_assignment":[1,0],"goal":0,"start":3,"action_noise":0,"location_history":"[3,4,0]","action_history":"[1,0]","door_history":"[0,1]","location_rts":"[3826,579]","trial_type":"two-door-navigation","trial_index":14,"time_elapsed":484086,"internal_node_id":"0.0-2.0-12.0"},{"group":"hexagon_tri","room_assignment":["purple","yellow","red","blue","grey","green"],"door_color_assignment":["black","white"],"door_generator_assignment":[1,0],"goal":5,"start":0,"action_noise":0,"location_history":"[0,5]","action_history":"[0]","door_history":"[1]","location_rts":"[2884]","trial_type":"two-door-navigation","trial_index":15,"time_elapsed":492002,"internal_node_id":"0.0-2.0-13.0"},{"group":"hexagon_tri","room_assignment":["purple","yellow","red","blue","grey","green"],"door_color_assignment":["black","white"],"door_generator_assignment":[1,0],"goal":1,"start":5,"action_noise":0,"location_history":"[5,4,2,1]","action_history":"[0,1,0]","door_history":"[1,0,1]","location_rts":"[3080,356,420]","trial_type":"two-door-navigation","trial_index":16,"time_elapsed":502963,"internal_node_id":"0.0-2.0-14.0"},{"group":"hexagon_tri","room_assignment":["purple","yellow","red","blue","grey","green"],"door_color_assignment":["black","white"],"door_generator_assignment":[1,0],"goal":5,"start":1,"action_noise":0,"location_history":"[1,5]","action_history":"[1]","door_history":"[0]","location_rts":"[2110]","trial_type":"two-door-navigation","trial_index":17,"time_elapsed":510107,"internal_node_id":"0.0-2.0-15.0"},{"group":"hexagon_tri","room_assignment":["purple","yellow","red","blue","grey","green"],"door_color_assignment":["black","white"],"door_generator_assignment":[1,0],"goal":3,"start":5,"action_noise":0,"location_history":"[5,0,5,0,5,4,2,1,3]","action_history":"[1,0,1,0,0,1,0,0]","door_history":"[0,1,0,1,1,0,1,1]","location_rts":"[3569,292,1738,1023,1593,1288,635,532]","trial_type":"two-door-navigation","trial_index":18,"time_elapsed":533021,"internal_node_id":"0.0-2.0-16.0"},{"group":"hexagon_tri","room_assignment":["purple","yellow","red","blue","grey","green"],"door_color_assignment":["black","white"],"door_generator_assignment":[1,0],"goal":2,"start":3,"action_noise":0,"location_history":"[3,4,0,1,5,4,2]","action_history":"[1,0,1,1,0,1]","door_history":"[0,1,0,0,1,0]","location_rts":"[2149,451,2416,790,1592,808]","trial_type":"two-door-navigation","trial_index":19,"time_elapsed":551496,"internal_node_id":"0.0-2.0-17.0"},{"group":"hexagon_tri","room_assignment":["purple","yellow","red","blue","grey","green"],"door_color_assignment":["black","white"],"door_generator_assignment":[1,0],"goal":1,"start":2,"action_noise":0,"location_history":"[2,1]","action_history":"[0]","door_history":"[1]","location_rts":"[2826]","trial_type":"two-door-navigation","trial_index":20,"time_elapsed":559364,"internal_node_id":"0.0-2.0-18.0"},{"group":"hexagon_tri","room_assignment":["purple","yellow","red","blue","grey","green"],"door_color_assignment":["black","white"],"door_generator_assignment":[1,0],"goal":4,"start":1,"action_noise":0,"location_history":"[1,5,4]","action_history":"[1,0]","door_history":"[0,1]","location_rts":"[1788,726]","trial_type":"two-door-navigation","trial_index":21,"time_elapsed":567943,"internal_node_id":"0.0-2.0-19.0"},{"group":"hexagon_tri","room_assignment":["purple","yellow","red","blue","grey","green"],"door_color_assignment":["black","white"],"door_generator_assignment":[1,0],"goal":0,"start":4,"action_noise":0,"location_history":"[4,2,3,2,1,5,4,2,1,3,2,3,4,2,1,5,0]","action_history":"[1,1,0,0,1,0,1,0,0,0,1,1,1,0,1,1]","door_history":"[0,0,1,1,0,1,0,1,1,1,0,0,0,1,0,0]","location_rts":"[735,3201,536,1322,3441,1280,1866,1211,526,594,536,503,519,1233,511,1960]","trial_type":"two-door-navigation","trial_index":22,"time_elapsed":608652,"internal_node_id":"0.0-2.0-20.0"},{"group":"hexagon_tri","room_assignment":["purple","yellow","red","blue","grey","green"],"door_color_assignment":["black","white"],"door_generator_assignment":[1,0],"goal":3,"start":0,"action_noise":0,"location_history":"[0,5,0,5,4,0,5,0,5,4,2,3]","action_history":"[0,1,0,0,0,0,1,0,0,1,1]","door_history":"[1,0,1,1,1,1,0,1,1,0,0]","location_rts":"[1625,1433,2225,801,611,621,497,1391,2203,417,731]","trial_type":"two-door-navigation","trial_index":23,"time_elapsed":636719,"internal_node_id":"0.0-2.0-21.0"},{"group":"hexagon_tri","room_assignment":["purple","yellow","red","blue","grey","green"],"door_color_assignment":["black","white"],"door_generator_assignment":[1,0],"goal":1,"start":3,"action_noise":0,"location_history":"[3,2,3,2,1]","action_history":"[0,1,0,0]","door_history":"[1,0,1,1]","location_rts":"[803,1773,785,1154]","trial_type":"two-door-navigation","trial_index":24,"time_elapsed":649365,"internal_node_id":"0.0-2.0-22.0"},{"group":"hexagon_tri","room_assignment":["purple","yellow","red","blue","grey","green"],"door_color_assignment":["black","white"],"door_generator_assignment":[1,0],"goal":0,"start":1,"action_noise":0,"location_history":"[1,3,4,2,1,5,0]","action_history":"[0,1,1,0,1,1]","door_history":"[1,0,0,1,0,0]","location_rts":"[1998,732,564,757,613,4372]","trial_type":"two-door-navigation","trial_index":25,"time_elapsed":668593,"internal_node_id":"0.0-2.0-23.0"},{"group":"hexagon_tri","room_assignment":["purple","yellow","red","blue","grey","green"],"door_color_assignment":["black","white"],"door_generator_assignment":[1,0],"goal":2,"start":0,"action_noise":0,"location_history":"[0,5,4,0,1,3,4,2]","action_history":"[0,0,0,1,0,1,1]","door_history":"[1,1,1,0,1,0,0]","location_rts":"[749,1763,1391,1392,2478,1042,393]","trial_type":"two-door-navigation","trial_index":26,"time_elapsed":689053,"internal_node_id":"0.0-2.0-24.0"},{"group":"hexagon_tri","room_assignment":["purple","yellow","red","blue","grey","green"],"door_color_assignment":["black","white"],"door_generator_assignment":[1,0],"goal":4,"start":2,"action_noise":0,"location_history":"[2,1,5,0,5,4]","action_history":"[0,1,1,0,0]","door_history":"[1,0,0,1,1]","location_rts":"[772,518,518,457,1277]","trial_type":"two-door-navigation","trial_index":27,"time_elapsed":701742,"internal_node_id":"0.0-2.0-25.0"},{"group":"hexagon_tri","room_assignment":["purple","yellow","red","blue","grey","green"],"door_color_assignment":["black","white"],"door_generator_assignment":[1,0],"goal":5,"start":4,"action_noise":0,"location_history":"[4,2,1,3,4,2,1,3,2,1,5]","action_history":"[1,0,0,1,1,0,0,0,0,1]","door_history":"[0,1,1,0,0,1,1,1,1,0]","location_rts":"[2005,1313,1072,1000,733,1185,394,468,434,783]","trial_type":"two-door-navigation","trial_index":28,"time_elapsed":725470,"internal_node_id":"0.0-2.0-26.0"},{"group":"hexagon_tri","room_assignment":["purple","yellow","red","blue","grey","green"],"door_color_assignment":["black","white"],"door_generator_assignment":[1,0],"goal":2,"start":5,"action_noise":0,"location_history":"[5,4,2]","action_history":"[0,1]","door_history":"[1,0]","location_rts":"[2416,818]","trial_type":"two-door-navigation","trial_index":29,"time_elapsed":734760,"internal_node_id":"0.0-2.0-27.0"},{"group":"hexagon_tri","room_assignment":["purple","yellow","red","blue","grey","green"],"door_color_assignment":["black","white"],"door_generator_assignment":[1,0],"goal":3,"start":2,"action_noise":0,"location_history":"[2,1,5,0,5,0,5,4,2,3]","action_history":"[0,1,1,0,1,0,0,1,1]","door_history":"[1,0,0,1,0,1,1,0,0]","location_rts":"[1196,1423,626,692,28957,937,728,1232,689]","trial_type":"two-door-navigation","trial_index":30,"time_elapsed":784503,"internal_node_id":"0.0-2.0-28.0"},{"group":"hexagon_tri","room_assignment":["purple","yellow","red","blue","grey","green"],"door_color_assignment":["black","white"],"door_generator_assignment":[1,0],"goal":1,"start":3,"action_noise":0,"location_history":"[3,2,3,2,1]","action_history":"[0,1,0,0]","door_history":"[1,0,1,1]","location_rts":"[1281,2254,837,1136]","trial_type":"two-door-navigation","trial_index":31,"time_elapsed":798158,"internal_node_id":"0.0-2.0-29.0"},{"group":"hexagon_tri","room_assignment":["purple","yellow","red","blue","grey","green"],"door_color_assignment":["black","white"],"door_generator_assignment":[1,0],"goal":4,"start":1,"action_noise":0,"location_history":"[1,3,4]","action_history":"[0,1]","door_history":"[1,0]","location_rts":"[2015,670]","trial_type":"two-door-navigation","trial_index":32,"time_elapsed":806925,"internal_node_id":"0.0-2.0-30.0"},{"group":"hexagon_tri","room_assignment":["purple","yellow","red","blue","grey","green"],"door_color_assignment":["black","white"],"door_generator_assignment":[1,0],"goal":5,"start":4,"action_noise":0,"location_history":"[4,2,1,5]","action_history":"[1,0,1]","door_history":"[0,1,0]","location_rts":"[1664,1254,1223]","trial_type":"two-door-navigation","trial_index":33,"time_elapsed":818171,"internal_node_id":"0.0-2.0-31.0"},{"group":"hexagon_tri","room_assignment":["purple","yellow","red","blue","grey","green"],"door_color_assignment":["black","white"],"door_generator_assignment":[1,0],"goal":0,"start":5,"action_noise":0,"location_history":"[5,4,2,3,2,1,5,0]","action_history":"[0,1,1,0,0,1,1]","door_history":"[1,0,0,1,1,0,0]","location_rts":"[2930,1587,738,1173,476,591,608]","trial_type":"two-door-navigation","trial_index":34,"time_elapsed":837518,"internal_node_id":"0.0-2.0-32.0"},{"group":"hexagon_tri","room_assignment":["purple","yellow","red","blue","grey","green"],"door_color_assignment":["black","white"],"door_generator_assignment":[1,0],"goal":2,"start":0,"action_noise":0,"location_history":"[0,5,0,5,4,0,5,0,1,3,4,2]","action_history":"[0,1,0,0,0,0,1,1,0,1,1]","door_history":"[1,0,1,1,1,1,0,0,1,0,0]","location_rts":"[1193,486,2561,1283,768,476,306,1075,3092,1047,581]","trial_type":"two-door-navigation","trial_index":35,"time_elapsed":865771,"internal_node_id":"0.0-2.0-33.0"},{"group":"hexagon_tri","room_assignment":["purple","yellow","red","blue","grey","green"],"door_color_assignment":["black","white"],"door_generator_assignment":[1,0],"goal":0,"start":2,"action_noise":0,"location_history":"[2,1,5,0]","action_history":"[0,1,1]","door_history":"[1,0,0]","location_rts":"[924,1463,4622]","trial_type":"two-door-navigation","trial_index":36,"time_elapsed":879934,"internal_node_id":"0.0-2.0-34.0"},{"group":"hexagon_tri","room_assignment":["purple","yellow","red","blue","grey","green"],"door_color_assignment":["black","white"],"door_generator_assignment":[1,0],"goal":5,"start":0,"action_noise":0,"location_history":"[0,5]","action_history":"[0]","door_history":"[1]","location_rts":"[1505]","trial_type":"two-door-navigation","trial_index":37,"time_elapsed":886482,"internal_node_id":"0.0-2.0-35.0"},{"group":"hexagon_tri","room_assignment":["purple","yellow","red","blue","grey","green"],"door_color_assignment":["black","white"],"door_generator_assignment":[1,0],"goal":1,"start":5,"action_noise":0,"location_history":"[5,4,2,1]","action_history":"[0,1,0]","door_history":"[1,0,1]","location_rts":"[3924,3104,1995]","trial_type":"two-door-navigation","trial_index":38,"time_elapsed":902582,"internal_node_id":"0.0-2.0-36.0"},{"group":"hexagon_tri","room_assignment":["purple","yellow","red","blue","grey","green"],"door_color_assignment":["black","white"],"door_generator_assignment":[1,0],"goal":4,"start":1,"action_noise":0,"location_history":"[1,5,4]","action_history":"[1,0]","door_history":"[0,1]","location_rts":"[3041,874]","trial_type":"two-door-navigation","trial_index":39,"time_elapsed":912551,"internal_node_id":"0.0-2.0-37.0"},{"group":"hexagon_tri","room_assignment":["purple","yellow","red","blue","grey","green"],"door_color_assignment":["black","white"],"door_generator_assignment":[1,0],"goal":3,"start":4,"action_noise":0,"location_history":"[4,0,5,0,1,5,4,0,1,5,0,1,3]","action_history":"[0,0,1,1,1,0,0,1,1,1,1,0]","door_history":"[1,1,0,0,0,1,1,0,0,0,0,1]","location_rts":"[2060,3869,1208,478,1260,517,1205,748,363,701,560,1025]","trial_type":"two-door-navigation","trial_index":40,"time_elapsed":943068,"internal_node_id":"0.0-2.0-38.0"},{"group":"hexagon_tri","room_assignment":["purple","yellow","red","blue","grey","green"],"door_color_assignment":["black","white"],"door_generator_assignment":[1,0],"goal":5,"start":3,"action_noise":0,"location_history":"[3,2,3,4,2,1,3,2,3,4,0,5]","action_history":"[0,1,1,1,0,0,0,1,1,0,0]","door_history":"[1,0,0,0,1,1,1,0,0,1,1]","location_rts":"[1176,1249,782,1003,906,882,945,912,556,990,3175]","trial_type":"two-door-navigation","trial_index":41,"time_elapsed":971000,"internal_node_id":"0.0-2.0-39.0"},{"group":"hexagon_tri","room_assignment":["purple","yellow","red","blue","grey","green"],"door_color_assignment":["black","white"],"door_generator_assignment":[1,0],"goal":1,"start":5,"action_noise":0,"location_history":"[5,4,2,1]","action_history":"[0,1,0]","door_history":"[1,0,1]","location_rts":"[1661,1355,540]","trial_type":"two-door-navigation","trial_index":42,"time_elapsed":981646,"internal_node_id":"0.0-2.0-40.0"},{"group":"hexagon_tri","room_assignment":["purple","yellow","red","blue","grey","green"],"door_color_assignment":["black","white"],"door_generator_assignment":[1,0],"goal":2,"start":1,"action_noise":0,"location_history":"[1,3,4,2]","action_history":"[0,1,1]","door_history":"[1,0,0]","location_rts":"[2960,1031,547]","trial_type":"two-door-navigation","trial_index":43,"time_elapsed":993249,"internal_node_id":"0.0-2.0-41.0"},{"group":"hexagon_tri","room_assignment":["purple","yellow","red","blue","grey","green"],"door_color_assignment":["black","white"],"door_generator_assignment":[1,0],"goal":4,"start":2,"action_noise":0,"location_history":"[2,1,5,0,5,4]","action_history":"[0,1,1,0,0]","door_history":"[1,0,0,1,1]","location_rts":"[2652,768,1486,406,295]","trial_type":"two-door-navigation","trial_index":44,"time_elapsed":1008184,"internal_node_id":"0.0-2.0-42.0"},{"group":"hexagon_tri","room_assignment":["purple","yellow","red","blue","grey","green"],"door_color_assignment":["black","white"],"door_generator_assignment":[1,0],"goal":0,"start":4,"action_noise":0,"location_history":"[4,0]","action_history":"[0]","door_history":"[1]","location_rts":"[2772]","trial_type":"two-door-navigation","trial_index":45,"time_elapsed":1016076,"internal_node_id":"0.0-2.0-43.0"},{"group":"hexagon_tri","room_assignment":["purple","yellow","red","blue","grey","green"],"door_color_assignment":["black","white"],"door_generator_assignment":[1,0],"goal":3,"start":0,"action_noise":0,"location_history":"[0,5,0,5,4,2,1,5,0,5,4,0,5,0,1,5,4,0,5,0,1,5,0,1,3]","action_history":"[0,1,0,0,1,0,1,1,0,0,0,0,1,1,1,0,0,0,1,1,1,1,1,0]","door_history":"[1,0,1,1,0,1,0,0,1,1,1,1,0,0,0,1,1,1,0,0,0,0,0,1]","location_rts":"[1211,923,1466,978,1926,1497,1193,583,583,400,578,821,888,433,2657,1380,728,594,35,387,273,418,503,384]","trial_type":"two-door-navigation","trial_index":46,"time_elapsed":1065667,"internal_node_id":"0.0-2.0-44.0"},{"group":"hexagon_tri","room_assignment":["purple","yellow","red","blue","grey","green"],"door_color_assignment":["black","white"],"door_generator_assignment":[1,0],"goal":0,"start":3,"action_noise":0,"location_history":"[3,2,1,3,2,3,4,2,1,5,0]","action_history":"[0,0,0,0,1,1,1,0,1,1]","door_history":"[1,1,1,1,0,0,0,1,0,0]","location_rts":"[872,1451,2403,608,428,417,716,2851,1097,453]","trial_type":"two-door-navigation","trial_index":47,"time_elapsed":1091270,"internal_node_id":"0.0-2.0-45.0"},{"group":"hexagon_tri","room_assignment":["purple","yellow","red","blue","grey","green"],"door_color_assignment":["black","white"],"door_generator_assignment":[1,0],"goal":4,"start":0,"action_noise":0,"location_history":"[0,1,3,2,3,2,3,4]","action_history":"[1,0,0,1,0,1,1]","door_history":"[0,1,1,0,1,0,0]","location_rts":"[1345,633,1495,1216,484,246,594]","trial_type":"two-door-navigation","trial_index":48,"time_elapsed":1108464,"internal_node_id":"0.0-2.0-46.0"},{"group":"hexagon_tri","room_assignment":["purple","yellow","red","blue","grey","green"],"door_color_assignment":["black","white"],"door_generator_assignment":[1,0],"goal":5,"start":4,"action_noise":0,"location_history":"[4,0,1,5]","action_history":"[0,1,1]","door_history":"[1,0,0]","location_rts":"[963,1405,1349]","trial_type":"two-door-navigation","trial_index":49,"time_elapsed":1119274,"internal_node_id":"0.0-2.0-47.0"},{"group":"hexagon_tri","room_assignment":["purple","yellow","red","blue","grey","green"],"door_color_assignment":["black","white"],"door_generator_assignment":[1,0],"goal":2,"start":5,"action_noise":0,"location_history":"[5,4,2]","action_history":"[0,1]","door_history":"[1,0]","location_rts":"[1775,1583]","trial_type":"two-door-navigation","trial_index":50,"time_elapsed":1128884,"internal_node_id":"0.0-2.0-48.0"},{"group":"hexagon_tri","room_assignment":["purple","yellow","red","blue","grey","green"],"door_color_assignment":["black","white"],"door_generator_assignment":[1,0],"goal":1,"start":2,"action_noise":0,"location_history":"[2,1]","action_history":"[0]","door_history":"[1]","location_rts":"[706]","trial_type":"two-door-navigation","trial_index":51,"time_elapsed":1134682,"internal_node_id":"0.0-2.0-49.0"},{"view_history":"[{\"page_index\":0,\"viewing_time\":1836}]","rt":1837,"trial_type":"instructions","trial_index":52,"time_elapsed":1137520,"internal_node_id":"0.0-3.0"},{"view_history":"[{\"page_index\":0,\"viewing_time\":1143},{\"page_index\":1,\"viewing_time\":2312}]","rt":3456,"trial_type":"instructions","trial_index":53,"time_elapsed":1141977,"internal_node_id":"0.0-4.0"},{"group":"hexagon_bi","fractal_assignment":["../images/pnk_blu.png","../images/gry_blk.png","../images/org_blu.png","../images/blu_wht.png","../images/cyn_red.png","../images/ylw_slt.png"],"mutagen_generator_assignment":[1,0],"goal":2,"start":1,"action_noise":0,"location_history":"[1,0,5,0,1,2]","action_history":"[1,0,0,1,0]","mutagen_history":"[0,1,1,0,1]","location_rts":"[13616,827,1237,1400,1163]","trial_type":"fractal-mutation","trial_index":54,"time_elapsed":1169651,"internal_node_id":"0.0-5.0-0.0"},{"group":"hexagon_bi","fractal_assignment":["../images/pnk_blu.png","../images/gry_blk.png","../images/org_blu.png","../images/blu_wht.png","../images/cyn_red.png","../images/ylw_slt.png"],"mutagen_generator_assignment":[1,0],"goal":0,"start":2,"action_noise":0,"location_history":"[2,3,4,3,2,3,4,3,2,1,2,3,4,3,4,3,2,3,2,3,4,5,0]","action_history":"[1,0,0,1,1,0,0,1,0,0,1,0,0,0,0,1,1,1,1,0,1,0]","mutagen_history":"[0,1,1,0,0,1,1,0,1,1,0,1,1,1,1,0,0,0,0,1,0,1]","location_rts":"[2927,740,497,459,1279,1322,1207,811,922,669,1373,517,100,654,137,946,872,521,816,415,1025,1306]","trial_type":"fractal-mutation","trial_index":55,"time_elapsed":1216970,"internal_node_id":"0.0-5.0-1.0"},{"group":"hexagon_bi","fractal_assignment":["../images/pnk_blu.png","../images/gry_blk.png","../images/org_blu.png","../images/blu_wht.png","../images/cyn_red.png","../images/ylw_slt.png"],"mutagen_generator_assignment":[1,0],"goal":5,"start":0,"action_noise":0,"location_history":"[0,1,2,3,4,3,4,5]","action_history":"[1,0,1,0,0,0,1]","mutagen_history":"[0,1,0,1,1,1,0]","location_rts":"[2637,525,564,676,519,655,619]","trial_type":"fractal-mutation","trial_index":56,"time_elapsed":1234666,"internal_node_id":"0.0-5.0-2.0"},{"group":"hexagon_bi","fractal_assignment":["../images/pnk_blu.png","../images/gry_blk.png","../images/org_blu.png","../images/blu_wht.png","../images/cyn_red.png","../images/ylw_slt.png"],"mutagen_generator_assignment":[1,0],"goal":1,"start":5,"action_noise":0,"location_history":"[5,0,1]","action_history":"[0,1]","mutagen_history":"[1,0]","location_rts":"[790,744]","trial_type":"fractal-mutation","trial_index":57,"time_elapsed":1242396,"internal_node_id":"0.0-5.0-3.0"},{"group":"hexagon_bi","fractal_assignment":["../images/pnk_blu.png","../images/gry_blk.png","../images/org_blu.png","../images/blu_wht.png","../images/cyn_red.png","../images/ylw_slt.png"],"mutagen_generator_assignment":[1,0],"goal":3,"start":1,"action_noise":0,"location_history":"[1,2,3]","action_history":"[0,1]","mutagen_history":"[1,0]","location_rts":"[2296,881]","trial_type":"fractal-mutation","trial_index":58,"time_elapsed":1251719,"internal_node_id":"0.0-5.0-4.0"},{"group":"hexagon_bi","fractal_assignment":["../images/pnk_blu.png","../images/gry_blk.png","../images/org_blu.png","../images/blu_wht.png","../images/cyn_red.png","../images/ylw_slt.png"],"mutagen_generator_assignment":[1,0],"goal":5,"start":3,"action_noise":0,"location_history":"[3,4,3,2,3,4,3,4,5]","action_history":"[0,0,1,1,0,0,0,1]","mutagen_history":"[1,1,0,0,1,1,1,0]","location_rts":"[575,879,834,441,469,1249,1322,488]","trial_type":"fractal-mutation","trial_index":59,"time_elapsed":1270718,"internal_node_id":"0.0-5.0-5.0"},{"group":"hexagon_bi","fractal_assignment":["../images/pnk_blu.png","../images/gry_blk.png","../images/org_blu.png","../images/blu_wht.png","../images/cyn_red.png","../images/ylw_slt.png"],"mutagen_generator_assignment":[1,0],"goal":4,"start":5,"action_noise":0,"location_history":"[5,4]","action_history":"[1]","mutagen_history":"[0]","location_rts":"[2443]","trial_type":"fractal-mutation","trial_index":60,"time_elapsed":1278260,"internal_node_id":"0.0-5.0-6.0"},{"group":"hexagon_bi","fractal_assignment":["../images/pnk_blu.png","../images/gry_blk.png","../images/org_blu.png","../images/blu_wht.png","../images/cyn_red.png","../images/ylw_slt.png"],"mutagen_generator_assignment":[1,0],"goal":0,"start":4,"action_noise":0,"location_history":"[4,3,4,3,2,1,0]","action_history":"[0,0,0,1,0,1]","mutagen_history":"[1,1,1,0,1,0]","location_rts":"[1171,858,674,1533,577,897]","trial_type":"fractal-mutation","trial_index":61,"time_elapsed":1294527,"internal_node_id":"0.0-5.0-7.0"},{"group":"hexagon_bi","fractal_assignment":["../images/pnk_blu.png","../images/gry_blk.png","../images/org_blu.png","../images/blu_wht.png","../images/cyn_red.png","../images/ylw_slt.png"],"mutagen_generator_assignment":[1,0],"goal":2,"start":0,"action_noise":0,"location_history":"[0,5,4,3,4,5,4,5,0,1,2]","action_history":"[0,1,0,0,1,1,1,0,1,0]","mutagen_history":"[1,0,1,1,0,0,0,1,0,1]","location_rts":"[508,841,978,1399,1032,534,878,837,1200,774]","trial_type":"fractal-mutation","trial_index":62,"time_elapsed":1318291,"internal_node_id":"0.0-5.0-8.0"},{"group":"hexagon_bi","fractal_assignment":["../images/pnk_blu.png","../images/gry_blk.png","../images/org_blu.png","../images/blu_wht.png","../images/cyn_red.png","../images/ylw_slt.png"],"mutagen_generator_assignment":[1,0],"goal":4,"start":2,"action_noise":0,"location_history":"[2,1,0,1,2,1,0,1,2,1,2,3,2,1,2,1,0,5,4]","action_history":"[0,1,1,0,0,1,1,0,0,0,1,1,0,0,0,1,0,1]","mutagen_history":"[1,0,0,1,1,0,0,1,1,1,0,0,1,1,1,0,1,0]","location_rts":"[2693,1629,554,487,573,365,37,28,977,829,1401,686,741,613,548,441,1251,932]","trial_type":"fractal-mutation","trial_index":63,"time_elapsed":1356803,"internal_node_id":"0.0-5.0-9.0"},{"group":"hexagon_bi","fractal_assignment":["../images/pnk_blu.png","../images/gry_blk.png","../images/org_blu.png","../images/blu_wht.png","../images/cyn_red.png","../images/ylw_slt.png"],"mutagen_generator_assignment":[1,0],"goal":2,"start":4,"action_noise":0,"location_history":"[4,3,2]","action_history":"[0,1]","mutagen_history":"[1,0]","location_rts":"[62,855]","trial_type":"fractal-mutation","trial_index":64,"time_elapsed":1363881,"internal_node_id":"0.0-5.0-10.0"},{"group":"hexagon_bi","fractal_assignment":["../images/pnk_blu.png","../images/gry_blk.png","../images/org_blu.png","../images/blu_wht.png","../images/cyn_red.png","../images/ylw_slt.png"],"mutagen_generator_assignment":[1,0],"goal":3,"start":2,"action_noise":0,"location_history":"[2,1,0,5,0,5,4,5,4,5,0,5,0,1,2,1,0,1,0,5,0,5,0,5,4,3]","action_history":"[0,1,0,0,0,1,1,1,1,0,0,0,1,0,0,1,1,1,0,0,0,0,0,1,0]","mutagen_history":"[1,0,1,1,1,0,0,0,0,1,1,1,0,1,1,0,0,0,1,1,1,1,1,0,1]","location_rts":"[535,1497,668,447,497,508,790,80,669,1742,642,445,654,1147,74,128,9,366,2319,646,775,456,356,354,451]","trial_type":"fractal-mutation","trial_index":65,"time_elapsed":1411189,"internal_node_id":"0.0-5.0-11.0"},{"group":"hexagon_bi","fractal_assignment":["../images/pnk_blu.png","../images/gry_blk.png","../images/org_blu.png","../images/blu_wht.png","../images/cyn_red.png","../images/ylw_slt.png"],"mutagen_generator_assignment":[1,0],"goal":0,"start":3,"action_noise":0,"location_history":"[3,2,1,0]","action_history":"[1,0,1]","mutagen_history":"[0,1,0]","location_rts":"[601,1825,1030]","trial_type":"fractal-mutation","trial_index":66,"time_elapsed":1421824,"internal_node_id":"0.0-5.0-12.0"},{"group":"hexagon_bi","fractal_assignment":["../images/pnk_blu.png","../images/gry_blk.png","../images/org_blu.png","../images/blu_wht.png","../images/cyn_red.png","../images/ylw_slt.png"],"mutagen_generator_assignment":[1,0],"goal":5,"start":0,"action_noise":0,"location_history":"[0,5]","action_history":"[0]","mutagen_history":"[1]","location_rts":"[3477]","trial_type":"fractal-mutation","trial_index":67,"time_elapsed":1430436,"internal_node_id":"0.0-5.0-13.0"},{"group":"hexagon_bi","fractal_assignment":["../images/pnk_blu.png","../images/gry_blk.png","../images/org_blu.png","../images/blu_wht.png","../images/cyn_red.png","../images/ylw_slt.png"],"mutagen_generator_assignment":[1,0],"goal":1,"start":5,"action_noise":0,"location_history":"[5,4,5,0,1]","action_history":"[1,1,0,1]","mutagen_history":"[0,0,1,0]","location_rts":"[1707,2474,1728,669]","trial_type":"fractal-mutation","trial_index":68,"time_elapsed":1445247,"internal_node_id":"0.0-5.0-14.0"},{"group":"hexagon_bi","fractal_assignment":["../images/pnk_blu.png","../images/gry_blk.png","../images/org_blu.png","../images/blu_wht.png","../images/cyn_red.png","../images/ylw_slt.png"],"mutagen_generator_assignment":[1,0],"goal":5,"start":1,"action_noise":0,"location_history":"[1,0,5]","action_history":"[1,0]","mutagen_history":"[0,1]","location_rts":"[481,1695]","trial_type":"fractal-mutation","trial_index":69,"time_elapsed":1453574,"internal_node_id":"0.0-5.0-15.0"},{"group":"hexagon_bi","fractal_assignment":["../images/pnk_blu.png","../images/gry_blk.png","../images/org_blu.png","../images/blu_wht.png","../images/cyn_red.png","../images/ylw_slt.png"],"mutagen_generator_assignment":[1,0],"goal":3,"start":5,"action_noise":0,"location_history":"[5,4,5,0,5,4,5,0,5,0,5,4,5,0,5,0,1,0,5,4,3]","action_history":"[1,1,0,0,1,1,0,0,0,0,1,1,0,0,0,1,1,0,1,0]","mutagen_history":"[0,0,1,1,0,0,1,1,1,1,0,0,1,1,1,0,0,1,0,1]","location_rts":"[601,2511,1981,490,768,673,835,638,4819,592,346,590,577,621,932,452,250,3605,1538,900]","trial_type":"fractal-mutation","trial_index":70,"time_elapsed":1502771,"internal_node_id":"0.0-5.0-16.0"},{"group":"hexagon_bi","fractal_assignment":["../images/pnk_blu.png","../images/gry_blk.png","../images/org_blu.png","../images/blu_wht.png","../images/cyn_red.png","../images/ylw_slt.png"],"mutagen_generator_assignment":[1,0],"goal":2,"start":3,"action_noise":0,"location_history":"[3,4,5,4,3,4,5,0,5,4,3,4,3,2]","action_history":"[0,1,1,0,0,1,0,0,1,0,0,0,1]","mutagen_history":"[1,0,0,1,1,0,1,1,0,1,1,1,0]","location_rts":"[83085,1222,3241,1106,686,1870,1099,830,1848,1271,671,1449,1723]","trial_type":"fractal-mutation","trial_index":71,"time_elapsed":1620756,"internal_node_id":"0.0-5.0-17.0"},{"group":"hexagon_bi","fractal_assignment":["../images/pnk_blu.png","../images/gry_blk.png","../images/org_blu.png","../images/blu_wht.png","../images/cyn_red.png","../images/ylw_slt.png"],"mutagen_generator_assignment":[1,0],"goal":1,"start":2,"action_noise":0,"location_history":"[2,1]","action_history":"[0]","mutagen_history":"[1]","location_rts":"[59410]","trial_type":"fractal-mutation","trial_index":72,"time_elapsed":1685290,"internal_node_id":"0.0-5.0-18.0"},{"group":"hexagon_bi","fractal_assignment":["../images/pnk_blu.png","../images/gry_blk.png","../images/org_blu.png","../images/blu_wht.png","../images/cyn_red.png","../images/ylw_slt.png"],"mutagen_generator_assignment":[1,0],"goal":4,"start":1,"action_noise":0,"location_history":"[1,0,5,4]","action_history":"[1,0,1]","mutagen_history":"[0,1,0]","location_rts":"[2303,1456,1105]","trial_type":"fractal-mutation","trial_index":73,"time_elapsed":1697360,"internal_node_id":"0.0-5.0-19.0"},{"group":"hexagon_bi","fractal_assignment":["../images/pnk_blu.png","../images/gry_blk.png","../images/org_blu.png","../images/blu_wht.png","../images/cyn_red.png","../images/ylw_slt.png"],"mutagen_generator_assignment":[1,0],"goal":0,"start":4,"action_noise":0,"location_history":"[4,3,2,1,2,3,2,1,0]","action_history":"[0,1,0,0,1,1,0,1]","mutagen_history":"[1,0,1,1,0,0,1,0]","location_rts":"[3668,1507,1519,1592,1323,727,2053,1061]","trial_type":"fractal-mutation","trial_index":74,"time_elapsed":1723374,"internal_node_id":"0.0-5.0-20.0"},{"group":"hexagon_bi","fractal_assignment":["../images/pnk_blu.png","../images/gry_blk.png","../images/org_blu.png","../images/blu_wht.png","../images/cyn_red.png","../images/ylw_slt.png"],"mutagen_generator_assignment":[1,0],"goal":3,"start":0,"action_noise":0,"location_history":"[0,1,2,1,2,3]","action_history":"[1,0,0,0,1]","mutagen_history":"[0,1,1,1,0]","location_rts":"[2122,1052,705,941,586]","trial_type":"fractal-mutation","trial_index":75,"time_elapsed":1738134,"internal_node_id":"0.0-5.0-21.0"},{"group":"hexagon_bi","fractal_assignment":["../images/pnk_blu.png","../images/gry_blk.png","../images/org_blu.png","../images/blu_wht.png","../images/cyn_red.png","../images/ylw_slt.png"],"mutagen_generator_assignment":[1,0],"goal":1,"start":3,"action_noise":0,"location_history":"[3,4,3,2,3,4,5,4,3,4,5,4,5,0,1]","action_history":"[0,0,1,1,0,1,1,0,0,1,1,1,0,1]","mutagen_history":"[1,1,0,0,1,0,0,1,1,0,0,0,1,0]","location_rts":"[3793,959,1864,620,1302,1790,767,1193,552,1060,526,948,797,2643]","trial_type":"fractal-mutation","trial_index":76,"time_elapsed":1775897,"internal_node_id":"0.0-5.0-22.0"},{"group":"hexagon_bi","fractal_assignment":["../images/pnk_blu.png","../images/gry_blk.png","../images/org_blu.png","../images/blu_wht.png","../images/cyn_red.png","../images/ylw_slt.png"],"mutagen_generator_assignment":[1,0],"goal":0,"start":1,"action_noise":0,"location_history":"[1,2,3,4,3,2,3,4,3,2,1,2,1,0]","action_history":"[0,1,0,0,1,1,0,0,1,0,0,0,1]","mutagen_history":"[1,0,1,1,0,0,1,1,0,1,1,1,0]","location_rts":"[2466,1793,1389,900,8586,21105,701,510,572,596,1004,1579,97106]","trial_type":"fractal-mutation","trial_index":77,"time_elapsed":1932341,"internal_node_id":"0.0-5.0-23.0"},{"group":"hexagon_bi","fractal_assignment":["../images/pnk_blu.png","../images/gry_blk.png","../images/org_blu.png","../images/blu_wht.png","../images/cyn_red.png","../images/ylw_slt.png"],"mutagen_generator_assignment":[1,0],"goal":2,"start":0,"action_noise":0,"location_history":"[0,5,4,3,2]","action_history":"[0,1,0,1]","mutagen_history":"[1,0,1,0]","location_rts":"[1405,1228,688,732]","trial_type":"fractal-mutation","trial_index":78,"time_elapsed":1944714,"internal_node_id":"0.0-5.0-24.0"},{"group":"hexagon_bi","fractal_assignment":["../images/pnk_blu.png","../images/gry_blk.png","../images/org_blu.png","../images/blu_wht.png","../images/cyn_red.png","../images/ylw_slt.png"],"mutagen_generator_assignment":[1,0],"goal":4,"start":2,"action_noise":0,"location_history":"[2,1,2,3,4]","action_history":"[0,0,1,0]","mutagen_history":"[1,1,0,1]","location_rts":"[499,117,1794,556]","trial_type":"fractal-mutation","trial_index":79,"time_elapsed":1956295,"internal_node_id":"0.0-5.0-25.0"},{"group":"hexagon_bi","fractal_assignment":["../images/pnk_blu.png","../images/gry_blk.png","../images/org_blu.png","../images/blu_wht.png","../images/cyn_red.png","../images/ylw_slt.png"],"mutagen_generator_assignment":[1,0],"goal":5,"start":4,"action_noise":0,"location_history":"[4,5]","action_history":"[1]","mutagen_history":"[0]","location_rts":"[1407]","trial_type":"fractal-mutation","trial_index":80,"time_elapsed":1962771,"internal_node_id":"0.0-5.0-26.0"},{"group":"hexagon_bi","fractal_assignment":["../images/pnk_blu.png","../images/gry_blk.png","../images/org_blu.png","../images/blu_wht.png","../images/cyn_red.png","../images/ylw_slt.png"],"mutagen_generator_assignment":[1,0],"goal":2,"start":5,"action_noise":0,"location_history":"[5,0,1,0,5,4,3,4,5,0,1,0,5,4,5,0,1,0,5,0,5,4,3,4,3,4,5,4,5,0,5,0,1,0,5,4,3,4,3,4,5,4,5,0,1,0,5,0,5,4,5,0,5,0,1,0,1,2]","action_history":"[0,1,1,0,1,0,0,1,0,1,1,0,1,1,0,1,1,0,0,0,1,0,0,0,0,1,1,1,0,0,0,1,1,0,1,0,0,0,0,1,1,1,0,1,1,0,0,0,1,1,0,0,0,1,1,1,0]","mutagen_history":"[1,0,0,1,0,1,1,0,1,0,0,1,0,0,1,0,0,1,1,1,0,1,1,1,1,0,0,0,1,1,1,0,0,1,0,1,1,1,1,0,0,0,1,0,0,1,1,1,0,0,1,1,1,0,0,0,1]","location_rts":"[2789,990,611,1124,1099,956,394,1098,1990,581,521,556,1057,612,777,1146,1326,1131,412,407,620,935,664,346,1442,959,1900,1402,432,275,787,421,1620,1532,950,311,333,400,387,160,426,464,378,1963,1321,1456,597,1089,282,606,1084,25,429,367,709,959,600]","trial_type":"fractal-mutation","trial_index":81,"time_elapsed":2076265,"internal_node_id":"0.0-5.0-27.0"},{"group":"hexagon_bi","fractal_assignment":["../images/pnk_blu.png","../images/gry_blk.png","../images/org_blu.png","../images/blu_wht.png","../images/cyn_red.png","../images/ylw_slt.png"],"mutagen_generator_assignment":[1,0],"goal":3,"start":2,"action_noise":0,"location_history":"[2,3]","action_history":"[1]","mutagen_history":"[0]","location_rts":"[1756]","trial_type":"fractal-mutation","trial_index":82,"time_elapsed":2083075,"internal_node_id":"0.0-5.0-28.0"},{"group":"hexagon_bi","fractal_assignment":["../images/pnk_blu.png","../images/gry_blk.png","../images/org_blu.png","../images/blu_wht.png","../images/cyn_red.png","../images/ylw_slt.png"],"mutagen_generator_assignment":[1,0],"goal":1,"start":3,"action_noise":0,"location_history":"[3,4,5,4,3,2,3,2,1]","action_history":"[0,1,1,0,1,1,1,0]","mutagen_history":"[1,0,0,1,0,0,0,1]","location_rts":"[5418,932,578,362,1475,3297,1044,1066]","trial_type":"fractal-mutation","trial_index":83,"time_elapsed":2110096,"internal_node_id":"0.0-5.0-29.0"},{"group":"hexagon_bi","fractal_assignment":["../images/pnk_blu.png","../images/gry_blk.png","../images/org_blu.png","../images/blu_wht.png","../images/cyn_red.png","../images/ylw_slt.png"],"mutagen_generator_assignment":[1,0],"goal":4,"start":1,"action_noise":0,"location_history":"[1,0,5,0,1,0,5,0,5,0,1,0,5,0,1,2,1,2,3,2,3,4]","action_history":"[1,0,0,1,1,0,0,0,0,1,1,0,0,1,0,0,0,1,1,1,0]","mutagen_history":"[0,1,1,0,0,1,1,1,1,0,0,1,1,0,1,1,1,0,0,0,1]","location_rts":"[1379,1185,574,535,332,1701,422,513,800,2305,313,978,346,342,250,1337,686,285,480,967,1040]","trial_type":"fractal-mutation","trial_index":84,"time_elapsed":2153443,"internal_node_id":"0.0-5.0-30.0"},{"group":"hexagon_bi","fractal_assignment":["../images/pnk_blu.png","../images/gry_blk.png","../images/org_blu.png","../images/blu_wht.png","../images/cyn_red.png","../images/ylw_slt.png"],"mutagen_generator_assignment":[1,0],"goal":5,"start":4,"action_noise":0,"location_history":"[4,5]","action_history":"[1]","mutagen_history":"[0]","location_rts":"[1406]","trial_type":"fractal-mutation","trial_index":85,"time_elapsed":2159906,"internal_node_id":"0.0-5.0-31.0"},{"group":"hexagon_bi","fractal_assignment":["../images/pnk_blu.png","../images/gry_blk.png","../images/org_blu.png","../images/blu_wht.png","../images/cyn_red.png","../images/ylw_slt.png"],"mutagen_generator_assignment":[1,0],"goal":0,"start":5,"action_noise":0,"location_history":"[5,4,3,2,3,4,5,0]","action_history":"[1,0,1,1,0,1,0]","mutagen_history":"[0,1,0,0,1,0,1]","location_rts":"[1140,809,1182,926,4668,715,782]","trial_type":"fractal-mutation","trial_index":86,"time_elapsed":2181683,"internal_node_id":"0.0-5.0-32.0"},{"group":"hexagon_bi","fractal_assignment":["../images/pnk_blu.png","../images/gry_blk.png","../images/org_blu.png","../images/blu_wht.png","../images/cyn_red.png","../images/ylw_slt.png"],"mutagen_generator_assignment":[1,0],"goal":2,"start":0,"action_noise":0,"location_history":"[0,1,2]","action_history":"[1,0]","mutagen_history":"[0,1]","location_rts":"[1049,591]","trial_type":"fractal-mutation","trial_index":87,"time_elapsed":2189491,"internal_node_id":"0.0-5.0-33.0"},{"group":"hexagon_bi","fractal_assignment":["../images/pnk_blu.png","../images/gry_blk.png","../images/org_blu.png","../images/blu_wht.png","../images/cyn_red.png","../images/ylw_slt.png"],"mutagen_generator_assignment":[1,0],"goal":0,"start":2,"action_noise":0,"location_history":"[2,1,0]","action_history":"[0,1]","mutagen_history":"[1,0]","location_rts":"[6200,592]","trial_type":"fractal-mutation","trial_index":88,"time_elapsed":2202480,"internal_node_id":"0.0-5.0-34.0"},{"group":"hexagon_bi","fractal_assignment":["../images/pnk_blu.png","../images/gry_blk.png","../images/org_blu.png","../images/blu_wht.png","../images/cyn_red.png","../images/ylw_slt.png"],"mutagen_generator_assignment":[1,0],"goal":5,"start":0,"action_noise":0,"location_history":"[0,5]","action_history":"[0]","mutagen_history":"[1]","location_rts":"[91]","trial_type":"fractal-mutation","trial_index":89,"time_elapsed":2207661,"internal_node_id":"0.0-5.0-35.0"},{"group":"hexagon_bi","fractal_assignment":["../images/pnk_blu.png","../images/gry_blk.png","../images/org_blu.png","../images/blu_wht.png","../images/cyn_red.png","../images/ylw_slt.png"],"mutagen_generator_assignment":[1,0],"goal":1,"start":5,"action_noise":0,"location_history":"[5,4,3,2,1]","action_history":"[1,0,1,0]","mutagen_history":"[0,1,0,1]","location_rts":"[1921,660,1140,690]","trial_type":"fractal-mutation","trial_index":90,"time_elapsed":2220431,"internal_node_id":"0.0-5.0-36.0"},{"group":"hexagon_bi","fractal_assignment":["../images/pnk_blu.png","../images/gry_blk.png","../images/org_blu.png","../images/blu_wht.png","../images/cyn_red.png","../images/ylw_slt.png"],"mutagen_generator_assignment":[1,0],"goal":4,"start":1,"action_noise":0,"location_history":"[1,2,1,0,1,2,3,2,1,2,3,4]","action_history":"[0,0,1,1,0,1,1,0,0,1,0]","mutagen_history":"[1,1,0,0,1,0,0,1,1,0,1]","location_rts":"[1463,540,450,1058,1033,925,1142,707,501,595,928]","trial_type":"fractal-mutation","trial_index":91,"time_elapsed":2245673,"internal_node_id":"0.0-5.0-37.0"},{"group":"hexagon_bi","fractal_assignment":["../images/pnk_blu.png","../images/gry_blk.png","../images/org_blu.png","../images/blu_wht.png","../images/cyn_red.png","../images/ylw_slt.png"],"mutagen_generator_assignment":[1,0],"goal":3,"start":4,"action_noise":0,"location_history":"[4,5,4,3]","action_history":"[1,1,0]","mutagen_history":"[0,0,1]","location_rts":"[1955,503,568]","trial_type":"fractal-mutation","trial_index":92,"time_elapsed":2255955,"internal_node_id":"0.0-5.0-38.0"},{"group":"hexagon_bi","fractal_assignment":["../images/pnk_blu.png","../images/gry_blk.png","../images/org_blu.png","../images/blu_wht.png","../images/cyn_red.png","../images/ylw_slt.png"],"mutagen_generator_assignment":[1,0],"goal":5,"start":3,"action_noise":0,"location_history":"[3,4,5]","action_history":"[0,1]","mutagen_history":"[1,0]","location_rts":"[651,627]","trial_type":"fractal-mutation","trial_index":93,"time_elapsed":2263454,"internal_node_id":"0.0-5.0-39.0"},{"group":"hexagon_bi","fractal_assignment":["../images/pnk_blu.png","../images/gry_blk.png","../images/org_blu.png","../images/blu_wht.png","../images/cyn_red.png","../images/ylw_slt.png"],"mutagen_generator_assignment":[1,0],"goal":1,"start":5,"action_noise":0,"location_history":"[5,4,5,0,5,0,5,4,5,4,3,4,3,2,1]","action_history":"[1,1,0,0,0,0,1,1,1,0,0,0,1,0]","mutagen_history":"[0,0,1,1,1,1,0,0,0,1,1,1,0,1]","location_rts":"[1447,824,308,646,461,406,319,714,595,637,1430,382,512,617]","trial_type":"fractal-mutation","trial_index":94,"time_elapsed":2291771,"internal_node_id":"0.0-5.0-40.0"},{"group":"hexagon_bi","fractal_assignment":["../images/pnk_blu.png","../images/gry_blk.png","../images/org_blu.png","../images/blu_wht.png","../images/cyn_red.png","../images/ylw_slt.png"],"mutagen_generator_assignment":[1,0],"goal":2,"start":1,"action_noise":0,"location_history":"[1,2]","action_history":"[0]","mutagen_history":"[1]","location_rts":"[7704]","trial_type":"fractal-mutation","trial_index":95,"time_elapsed":2304584,"internal_node_id":"0.0-5.0-41.0"},{"group":"hexagon_bi","fractal_assignment":["../images/pnk_blu.png","../images/gry_blk.png","../images/org_blu.png","../images/blu_wht.png","../images/cyn_red.png","../images/ylw_slt.png"],"mutagen_generator_assignment":[1,0],"goal":4,"start":2,"action_noise":0,"location_history":"[2,3,4]","action_history":"[1,0]","mutagen_history":"[0,1]","location_rts":"[853,882]","trial_type":"fractal-mutation","trial_index":96,"time_elapsed":2312449,"internal_node_id":"0.0-5.0-42.0"},{"group":"hexagon_bi","fractal_assignment":["../images/pnk_blu.png","../images/gry_blk.png","../images/org_blu.png","../images/blu_wht.png","../images/cyn_red.png","../images/ylw_slt.png"],"mutagen_generator_assignment":[1,0],"goal":0,"start":4,"action_noise":0,"location_history":"[4,3,2,1,0]","action_history":"[0,1,0,1]","mutagen_history":"[1,0,1,0]","location_rts":"[871,1047,709,719]","trial_type":"fractal-mutation","trial_index":97,"time_elapsed":2324614,"internal_node_id":"0.0-5.0-43.0"},{"group":"hexagon_bi","fractal_assignment":["../images/pnk_blu.png","../images/gry_blk.png","../images/org_blu.png","../images/blu_wht.png","../images/cyn_red.png","../images/ylw_slt.png"],"mutagen_generator_assignment":[1,0],"goal":3,"start":0,"action_noise":0,"location_history":"[0,5,0,1,2,1,0,1,0,5,4,3]","action_history":"[0,0,1,0,0,1,1,1,0,1,0]","mutagen_history":"[1,1,0,1,1,0,0,0,1,0,1]","location_rts":"[514,170,400,3031,757,373,576,100,384,848,1526]","trial_type":"fractal-mutation","trial_index":98,"time_elapsed":2349213,"internal_node_id":"0.0-5.0-44.0"},{"group":"hexagon_bi","fractal_assignment":["../images/pnk_blu.png","../images/gry_blk.png","../images/org_blu.png","../images/blu_wht.png","../images/cyn_red.png","../images/ylw_slt.png"],"mutagen_generator_assignment":[1,0],"goal":0,"start":3,"action_noise":0,"location_history":"[3,4,5,4,5,0]","action_history":"[0,1,1,1,0]","mutagen_history":"[1,0,0,0,1]","location_rts":"[490,382,532,774,374]","trial_type":"fractal-mutation","trial_index":99,"time_elapsed":2361247,"internal_node_id":"0.0-5.0-45.0"},{"group":"hexagon_bi","fractal_assignment":["../images/pnk_blu.png","../images/gry_blk.png","../images/org_blu.png","../images/blu_wht.png","../images/cyn_red.png","../images/ylw_slt.png"],"mutagen_generator_assignment":[1,0],"goal":4,"start":0,"action_noise":0,"location_history":"[0,5,4]","action_history":"[0,1]","mutagen_history":"[1,0]","location_rts":"[646,674]","trial_type":"fractal-mutation","trial_index":100,"time_elapsed":2368715,"internal_node_id":"0.0-5.0-46.0"},{"group":"hexagon_bi","fractal_assignment":["../images/pnk_blu.png","../images/gry_blk.png","../images/org_blu.png","../images/blu_wht.png","../images/cyn_red.png","../images/ylw_slt.png"],"mutagen_generator_assignment":[1,0],"goal":5,"start":4,"action_noise":0,"location_history":"[4,5]","action_history":"[1]","mutagen_history":"[0]","location_rts":"[1590]","trial_type":"fractal-mutation","trial_index":101,"time_elapsed":2375356,"internal_node_id":"0.0-5.0-47.0"},{"group":"hexagon_bi","fractal_assignment":["../images/pnk_blu.png","../images/gry_blk.png","../images/org_blu.png","../images/blu_wht.png","../images/cyn_red.png","../images/ylw_slt.png"],"mutagen_generator_assignment":[1,0],"goal":2,"start":5,"action_noise":0,"location_history":"[5,0,5,0,1,0,5,4,5,0,5,0,1,0,1,2]","action_history":"[0,0,0,1,1,0,1,1,0,0,0,1,1,1,0]","mutagen_history":"[1,1,1,0,0,1,0,0,1,1,1,0,0,0,1]","location_rts":"[2223,1497,541,368,812,588,997,945,806,413,658,118,29,1024,342]","trial_type":"fractal-mutation","trial_index":102,"time_elapsed":2406831,"internal_node_id":"0.0-5.0-48.0"},{"group":"hexagon_bi","fractal_assignment":["../images/pnk_blu.png","../images/gry_blk.png","../images/org_blu.png","../images/blu_wht.png","../images/cyn_red.png","../images/ylw_slt.png"],"mutagen_generator_assignment":[1,0],"goal":1,"start":2,"action_noise":0,"location_history":"[2,1]","action_history":"[0]","mutagen_history":"[1]","location_rts":"[542]","trial_type":"fractal-mutation","trial_index":103,"time_elapsed":2412534,"internal_node_id":"0.0-5.0-49.0"},{"view_history":"[{\"page_index\":0,\"viewing_time\":3599}]","rt":3601,"trial_type":"instructions","trial_index":104,"time_elapsed":2417135,"internal_node_id":"0.0-6.0"},{"rt":47716,"responses":"{\"Q0\":\"I am uncertain. To determine how quickly we can learn something through repeating it. \"}","trial_type":"survey-text","trial_index":105,"time_elapsed":2465865,"internal_node_id":"0.0-7.0-0.0"},{"rt":20674,"responses":"{\"Q0\":\"Learning pace and repeating it. \"}","trial_type":"survey-text","trial_index":106,"time_elapsed":2487545,"internal_node_id":"0.0-7.0-1.0"},{"rt":24523,"responses":"{\"Q0\":\"<img src='../images/diagrams/hexagon_bi.png'>\"}","trial_type":"survey-multi-choice","trial_index":107,"time_elapsed":2513086,"internal_node_id":"0.0-7.0-2.0"},{"rt":52815,"assignments":["../images/pnk_blu.png","../images/ylw_slt.png","../images/blu_wht.png","../images/gry_blk.png","../images/cyn_red.png","../images/org_blu.png"],"trial_type":"drag-drop-on-image","trial_index":108,"time_elapsed":2566908,"internal_node_id":"0.0-7.0-3.0"},{"rt":6890,"responses":"{\"Q0\":\"2\"}","trial_type":"survey-likert","trial_index":109,"time_elapsed":2574812,"internal_node_id":"0.0-7.0-4.0"},{"rt":36829,"responses":"{\"Q0\":\"The only thing I noticed was certain patterns or colors were tied together. \"}","trial_type":"survey-text","trial_index":110,"time_elapsed":2612647,"internal_node_id":"0.0-7.0-5.0"},{"rt":4297,"responses":"{\"Q0\":\"No\"}","trial_type":"survey-multi-choice","trial_index":111,"time_elapsed":2617957,"internal_node_id":"0.0-7.0-6.0"},{"rt":5830,"responses":"{\"Q0\":\"Did not notice\"}","trial_type":"survey-multi-choice","trial_index":112,"time_elapsed":2624808,"internal_node_id":"0.0-7.0-7.0"},{"rt":6471,"responses":"{\"Q0\":\"\"}","trial_type":"survey-text","trial_index":113,"time_elapsed":2632284,"internal_node_id":"0.0-7.0-8.0"},{"rt":6639,"responses":"{\"Q0\":\"1\"}","trial_type":"survey-likert","trial_index":114,"time_elapsed":2639929,"internal_node_id":"0.0-7.0-9.0"},{"rt":10833,"responses":"{\"Q0\":\"Same structure\"}","trial_type":"survey-multi-choice","trial_index":115,"time_elapsed":2651784,"internal_node_id":"0.0-7.0-10.0"},{"rt":28643,"assignments":["../images/ylw_slt.png","../images/blu_wht.png","../images/pnk_blu.png","../images/org_blu.png","../images/gry_blk.png","../images/cyn_red.png"],"background_order":[1,2,4,0,5,3],"trial_type":"drag-drop-on-image","trial_index":116,"time_elapsed":2681433,"internal_node_id":"0.0-7.0-11.0"},{"rt":15867,"responses":"{\"Q0\":\"left (black) door = acid, right (white) door = ray\",\"Q1\":\"Not at all confident\"}","trial_type":"survey-multi-choice","trial_index":117,"time_elapsed":2698315,"internal_node_id":"0.0-7.0-12.0"},{"rt":10485,"responses":"{\"Q0\":\"45-55\",\"Q1\":\"Bachelor's degree\",\"Q2\":\"Female\",\"Q3\":\"Black or African American\"}","trial_type":"survey-multi-choice","trial_index":118,"time_elapsed":2709859,"internal_node_id":"0.0-8.0"},{"rt":6258,"responses":"{\"Q0\":\"none\"}","trial_type":"survey-text","trial_index":119,"time_elapsed":2717122,"internal_node_id":"0.0-9.0"}]