[{"view_history":"[{\"page_index\":0,\"viewing_time\":43664},{\"page_index\":1,\"viewing_time\":27725}]","rt":71391,"trial_type":"instructions","trial_index":0,"time_elapsed":71391,"internal_node_id":"0.0-0.0"},{"view_history":"[{\"page_index\":0,\"viewing_time\":1227},{\"page_index\":1,\"viewing_time\":1313}]","rt":2541,"trial_type":"instructions","trial_index":1,"time_elapsed":74934,"internal_node_id":"0.0-1.0"},{"group":"hexagon_tri","room_assignment":["purple","green","blue","red","yellow","grey"],"door_color_assignment":["black","white"],"door_generator_assignment":[1,0],"goal":2,"start":1,"action_noise":0,"location_history":"[1,5,0,1,3,4,2]","action_history":"[1,1,1,0,1,1]","door_history":"[0,0,0,1,0,0]","location_rts":"[2285,1385,948,362,1051,477]","trial_type":"two-door-navigation","trial_index":2,"time_elapsed":91593,"internal_node_id":"0.0-2.0-0.0"},{"group":"hexagon_tri","room_assignment":["purple","green","blue","red","yellow","grey"],"door_color_assignment":["black","white"],"door_generator_assignment":[1,0],"goal":0,"start":2,"action_noise":0,"location_history":"[2,1,3,2,3,4,0]","action_history":"[0,0,0,1,1,0]","door_history":"[1,1,1,0,0,1]","location_rts":"[1869,652,996,600,484,782]","trial_type":"two-door-navigation","trial_index":3,"time_elapsed":107114,"internal_node_id":"0.0-2.0-1.0"},{"group":"hexagon_tri","room_assignment":["purple","green","blue","red","yellow","grey"],"door_color_assignment":["black","white"],"door_generator_assignment":[1,0],"goal":5,"start":0,"action_noise":0,"location_history":"[0,5]","action_history":"[0]","door_history":"[1]","location_rts":"[1276]","trial_type":"two-door-navigation","trial_index":4,"time_elapsed":113423,"internal_node_id":"0.0-2.0-2.0"},{"group":"hexagon_tri","room_assignment":["purple","green","blue","red","yellow","grey"],"door_color_assignment":["black","white"],"door_generator_assignment":[1,0],"goal":1,"start":5,"action_noise":0,"location_history":"[5,0,1]","action_history":"[1,1]","door_history":"[0,0]","location_rts":"[2377,1252]","trial_type":"two-door-navigation","trial_index":5,"time_elapsed":123096,"internal_node_id":"0.0-2.0-3.0"},{"group":"hexagon_tri","room_assignment":["purple","green","blue","red","yellow","grey"],"door_color_assignment":["black","white"],"door_generator_assignment":[1,0],"goal":3,"start":1,"action_noise":0,"location_history":"[1,5,0,1,3]","action_history":"[1,1,1,0]","door_history":"[0,0,0,1]","location_rts":"[2967,1251,725,450]","trial_type":"two-door-navigation","trial_index":6,"time_elapsed":136601,"internal_node_id":"0.0-2.0-4.0"},{"group":"hexagon_tri","room_assignment":["purple","green","blue","red","yellow","grey"],"door_color_assignment":["black","white"],"door_generator_assignment":[1,0],"goal":5,"start":3,"action_noise":0,"location_history":"[3,2,1,5]","action_history":"[0,0,1]","door_history":"[1,1,0]","location_rts":"[3664,618,1084]","trial_type":"two-door-navigation","trial_index":7,"time_elapsed":149036,"internal_node_id":"0.0-2.0-5.0"},{"group":"hexagon_tri","room_assignment":["purple","green","blue","red","yellow","grey"],"door_color_assignment":["black","white"],"door_generator_assignment":[1,0],"goal":4,"start":5,"action_noise":0,"location_history":"[5,4]","action_history":"[0]","door_history":"[1]","location_rts":"[1299]","trial_type":"two-door-navigation","trial_index":8,"time_elapsed":155362,"internal_node_id":"0.0-2.0-6.0"},{"group":"hexagon_tri","room_assignment":["purple","green","blue","red","yellow","grey"],"door_color_assignment":["black","white"],"door_generator_assignment":[1,0],"goal":0,"start":4,"action_noise":0,"location_history":"[4,0]","action_history":"[0]","door_history":"[1]","location_rts":"[1549]","trial_type":"two-door-navigation","trial_index":9,"time_elapsed":161937,"internal_node_id":"0.0-2.0-7.0"},{"group":"hexagon_tri","room_assignment":["purple","green","blue","red","yellow","grey"],"door_color_assignment":["black","white"],"door_generator_assignment":[1,0],"goal":2,"start":0,"action_noise":0,"location_history":"[0,5,4,2]","action_history":"[0,0,1]","door_history":"[1,1,0]","location_rts":"[2423,659,365]","trial_type":"two-door-navigation","trial_index":10,"time_elapsed":172450,"internal_node_id":"0.0-2.0-8.0"},{"group":"hexagon_tri","room_assignment":["purple","green","blue","red","yellow","grey"],"door_color_assignment":["black","white"],"door_generator_assignment":[1,0],"goal":4,"start":2,"action_noise":0,"location_history":"[2,3,2,1,3,2,1,5,4]","action_history":"[1,0,0,0,0,0,1,0]","door_history":"[0,1,1,1,1,1,0,1]","location_rts":"[2052,1275,558,567,500,1204,283,1042]","trial_type":"two-door-navigation","trial_index":11,"time_elapsed":192150,"internal_node_id":"0.0-2.0-9.0"},{"group":"hexagon_tri","room_assignment":["purple","green","blue","red","yellow","grey"],"door_color_assignment":["black","white"],"door_generator_assignment":[1,0],"goal":2,"start":4,"action_noise":0,"location_history":"[4,2]","action_history":"[1]","door_history":"[0]","location_rts":"[20257]","trial_type":"two-door-navigation","trial_index":12,"time_elapsed":217434,"internal_node_id":"0.0-2.0-10.0"},{"group":"hexagon_tri","room_assignment":["purple","green","blue","red","yellow","grey"],"door_color_assignment":["black","white"],"door_generator_assignment":[1,0],"goal":3,"start":2,"action_noise":0,"location_history":"[2,1,3]","action_history":"[0,0]","door_history":"[1,1]","location_rts":"[3734,821]","trial_type":"two-door-navigation","trial_index":13,"time_elapsed":228033,"internal_node_id":"0.0-2.0-11.0"},{"group":"hexagon_tri","room_assignment":["purple","green","blue","red","yellow","grey"],"door_color_assignment":["black","white"],"door_generator_assignment":[1,0],"goal":0,"start":3,"action_noise":0,"location_history":"[3,4,0]","action_history":"[1,0]","door_history":"[0,1]","location_rts":"[10359,1141]","trial_type":"two-door-navigation","trial_index":14,"time_elapsed":245575,"internal_node_id":"0.0-2.0-12.0"},{"group":"hexagon_tri","room_assignment":["purple","green","blue","red","yellow","grey"],"door_color_assignment":["black","white"],"door_generator_assignment":[1,0],"goal":5,"start":0,"action_noise":0,"location_history":"[0,5]","action_history":"[0]","door_history":"[1]","location_rts":"[1601]","trial_type":"two-door-navigation","trial_index":15,"time_elapsed":252209,"internal_node_id":"0.0-2.0-13.0"},{"group":"hexagon_tri","room_assignment":["purple","green","blue","red","yellow","grey"],"door_color_assignment":["black","white"],"door_generator_assignment":[1,0],"goal":1,"start":5,"action_noise":0,"location_history":"[5,0,5,4,2,3,4,0,1]","action_history":"[1,0,0,1,1,1,0,1]","door_history":"[0,1,1,0,0,0,1,0]","location_rts":"[2856,787,466,603,419,370,586,10125]","trial_type":"two-door-navigation","trial_index":16,"time_elapsed":280610,"internal_node_id":"0.0-2.0-14.0"},{"group":"hexagon_tri","room_assignment":["purple","green","blue","red","yellow","grey"],"door_color_assignment":["black","white"],"door_generator_assignment":[1,0],"goal":5,"start":1,"action_noise":0,"location_history":"[1,3,2,3,4,0,5]","action_history":"[0,0,1,1,0,0]","door_history":"[1,1,0,0,1,1]","location_rts":"[6102,987,1692,468,555,381]","trial_type":"two-door-navigation","trial_index":17,"time_elapsed":300944,"internal_node_id":"0.0-2.0-15.0"},{"group":"hexagon_tri","room_assignment":["purple","green","blue","red","yellow","grey"],"door_color_assignment":["black","white"],"door_generator_assignment":[1,0],"goal":3,"start":5,"action_noise":0,"location_history":"[5,4,2,3]","action_history":"[0,1,1]","door_history":"[1,0,0]","location_rts":"[1824,669,437]","trial_type":"two-door-navigation","trial_index":18,"time_elapsed":310985,"internal_node_id":"0.0-2.0-16.0"},{"group":"hexagon_tri","room_assignment":["purple","green","blue","red","yellow","grey"],"door_color_assignment":["black","white"],"door_generator_assignment":[1,0],"goal":2,"start":3,"action_noise":0,"location_history":"[3,4,2]","action_history":"[1,1]","door_history":"[0,0]","location_rts":"[2336,538]","trial_type":"two-door-navigation","trial_index":19,"time_elapsed":319905,"internal_node_id":"0.0-2.0-17.0"},{"group":"hexagon_tri","room_assignment":["purple","green","blue","red","yellow","grey"],"door_color_assignment":["black","white"],"door_generator_assignment":[1,0],"goal":1,"start":2,"action_noise":0,"location_history":"[2,3,4,2,3,4,0,1]","action_history":"[1,1,1,1,1,0,1]","door_history":"[0,0,0,0,0,1,0]","location_rts":"[2822,475,419,302,452,261,517]","trial_type":"two-door-navigation","trial_index":20,"time_elapsed":336320,"internal_node_id":"0.0-2.0-18.0"},{"group":"hexagon_tri","room_assignment":["purple","green","blue","red","yellow","grey"],"door_color_assignment":["black","white"],"door_generator_assignment":[1,0],"goal":4,"start":1,"action_noise":0,"location_history":"[1,3,4]","action_history":"[0,1]","door_history":"[1,0]","location_rts":"[2079,754]","trial_type":"two-door-navigation","trial_index":21,"time_elapsed":345203,"internal_node_id":"0.0-2.0-19.0"},{"group":"hexagon_tri","room_assignment":["purple","green","blue","red","yellow","grey"],"door_color_assignment":["black","white"],"door_generator_assignment":[1,0],"goal":0,"start":4,"action_noise":0,"location_history":"[4,0]","action_history":"[0]","door_history":"[1]","location_rts":"[1124]","trial_type":"two-door-navigation","trial_index":22,"time_elapsed":351386,"internal_node_id":"0.0-2.0-20.0"},{"group":"hexagon_tri","room_assignment":["purple","green","blue","red","yellow","grey"],"door_color_assignment":["black","white"],"door_generator_assignment":[1,0],"goal":3,"start":0,"action_noise":0,"location_history":"[0,5,0,1,5,0,5,4,2,3]","action_history":"[0,1,1,1,1,0,0,1,1]","door_history":"[1,0,0,0,0,1,1,0,0]","location_rts":"[1416,1851,634,1116,1004,2157,515,237,412]","trial_type":"two-door-navigation","trial_index":23,"time_elapsed":373933,"internal_node_id":"0.0-2.0-21.0"},{"group":"hexagon_tri","room_assignment":["purple","green","blue","red","yellow","grey"],"door_color_assignment":["black","white"],"door_generator_assignment":[1,0],"goal":1,"start":3,"action_noise":0,"location_history":"[3,2,3,4,2,1]","action_history":"[0,1,1,1,0]","door_history":"[1,0,0,0,1]","location_rts":"[3588,955,292,2749,651]","trial_type":"two-door-navigation","trial_index":24,"time_elapsed":391272,"internal_node_id":"0.0-2.0-22.0"},{"group":"hexagon_tri","room_assignment":["purple","green","blue","red","yellow","grey"],"door_color_assignment":["black","white"],"door_generator_assignment":[1,0],"goal":0,"start":1,"action_noise":0,"location_history":"[1,3,2,3,4,0]","action_history":"[0,0,1,1,0]","door_history":"[1,1,0,0,1]","location_rts":"[2025,1537,986,472,955]","trial_type":"two-door-navigation","trial_index":25,"time_elapsed":406394,"internal_node_id":"0.0-2.0-23.0"},{"group":"hexagon_tri","room_assignment":["purple","green","blue","red","yellow","grey"],"door_color_assignment":["black","white"],"door_generator_assignment":[1,0],"goal":2,"start":0,"action_noise":0,"location_history":"[0,1,5,0,5,4,2]","action_history":"[1,1,1,0,0,1]","door_history":"[0,0,0,1,1,0]","location_rts":"[5782,1061,858,1036,484,369]","trial_type":"two-door-navigation","trial_index":26,"time_elapsed":426120,"internal_node_id":"0.0-2.0-24.0"},{"group":"hexagon_tri","room_assignment":["purple","green","blue","red","yellow","grey"],"door_color_assignment":["black","white"],"door_generator_assignment":[1,0],"goal":4,"start":2,"action_noise":0,"location_history":"[2,1,3,2,3,4]","action_history":"[0,0,0,1,1]","door_history":"[1,1,1,0,0]","location_rts":"[6826,676,1515,387,444]","trial_type":"two-door-navigation","trial_index":27,"time_elapsed":445224,"internal_node_id":"0.0-2.0-25.0"},{"group":"hexagon_tri","room_assignment":["purple","green","blue","red","yellow","grey"],"door_color_assignment":["black","white"],"door_generator_assignment":[1,0],"goal":5,"start":4,"action_noise":0,"location_history":"[4,0,5]","action_history":"[0,0]","door_history":"[1,1]","location_rts":"[1496,420]","trial_type":"two-door-navigation","trial_index":28,"time_elapsed":453184,"internal_node_id":"0.0-2.0-26.0"},{"group":"hexagon_tri","room_assignment":["purple","green","blue","red","yellow","grey"],"door_color_assignment":["black","white"],"door_generator_assignment":[1,0],"goal":2,"start":5,"action_noise":0,"location_history":"[5,4,2]","action_history":"[0,1]","door_history":"[1,0]","location_rts":"[2071,700]","trial_type":"two-door-navigation","trial_index":29,"time_elapsed":462024,"internal_node_id":"0.0-2.0-27.0"},{"group":"hexagon_tri","room_assignment":["purple","green","blue","red","yellow","grey"],"door_color_assignment":["black","white"],"door_generator_assignment":[1,0],"goal":3,"start":2,"action_noise":0,"location_history":"[2,3]","action_history":"[1]","door_history":"[0]","location_rts":"[1671]","trial_type":"two-door-navigation","trial_index":30,"time_elapsed":468718,"internal_node_id":"0.0-2.0-28.0"},{"group":"hexagon_tri","room_assignment":["purple","green","blue","red","yellow","grey"],"door_color_assignment":["black","white"],"door_generator_assignment":[1,0],"goal":1,"start":3,"action_noise":0,"location_history":"[3,4,2,3,2,1]","action_history":"[1,1,1,0,0]","door_history":"[0,0,0,1,1]","location_rts":"[2410,501,363,8859,518]","trial_type":"two-door-navigation","trial_index":31,"time_elapsed":490481,"internal_node_id":"0.0-2.0-29.0"},{"group":"hexagon_tri","room_assignment":["purple","green","blue","red","yellow","grey"],"door_color_assignment":["black","white"],"door_generator_assignment":[1,0],"goal":4,"start":1,"action_noise":0,"location_history":"[1,3,4]","action_history":"[0,1]","door_history":"[1,0]","location_rts":"[1207,811]","trial_type":"two-door-navigation","trial_index":32,"time_elapsed":498547,"internal_node_id":"0.0-2.0-30.0"},{"group":"hexagon_tri","room_assignment":["purple","green","blue","red","yellow","grey"],"door_color_assignment":["black","white"],"door_generator_assignment":[1,0],"goal":5,"start":4,"action_noise":0,"location_history":"[4,0,5]","action_history":"[0,0]","door_history":"[1,1]","location_rts":"[1117,428]","trial_type":"two-door-navigation","trial_index":33,"time_elapsed":506136,"internal_node_id":"0.0-2.0-31.0"},{"group":"hexagon_tri","room_assignment":["purple","green","blue","red","yellow","grey"],"door_color_assignment":["black","white"],"door_generator_assignment":[1,0],"goal":0,"start":5,"action_noise":0,"location_history":"[5,4,0]","action_history":"[0,0]","door_history":"[1,1]","location_rts":"[1497,386]","trial_type":"two-door-navigation","trial_index":34,"time_elapsed":514064,"internal_node_id":"0.0-2.0-32.0"},{"group":"hexagon_tri","room_assignment":["purple","green","blue","red","yellow","grey"],"door_color_assignment":["black","white"],"door_generator_assignment":[1,0],"goal":2,"start":0,"action_noise":0,"location_history":"[0,5,4,2]","action_history":"[0,0,1]","door_history":"[1,1,0]","location_rts":"[38862,1644,326]","trial_type":"two-door-navigation","trial_index":35,"time_elapsed":561988,"internal_node_id":"0.0-2.0-33.0"},{"group":"hexagon_tri","room_assignment":["purple","green","blue","red","yellow","grey"],"door_color_assignment":["black","white"],"door_generator_assignment":[1,0],"goal":0,"start":2,"action_noise":0,"location_history":"[2,1,3,4,0]","action_history":"[0,0,1,0]","door_history":"[1,1,0,1]","location_rts":"[4107,717,1195,863]","trial_type":"two-door-navigation","trial_index":36,"time_elapsed":576959,"internal_node_id":"0.0-2.0-34.0"},{"group":"hexagon_tri","room_assignment":["purple","green","blue","red","yellow","grey"],"door_color_assignment":["black","white"],"door_generator_assignment":[1,0],"goal":5,"start":0,"action_noise":0,"location_history":"[0,5]","action_history":"[0]","door_history":"[1]","location_rts":"[1297]","trial_type":"two-door-navigation","trial_index":37,"time_elapsed":583320,"internal_node_id":"0.0-2.0-35.0"},{"group":"hexagon_tri","room_assignment":["purple","green","blue","red","yellow","grey"],"door_color_assignment":["black","white"],"door_generator_assignment":[1,0],"goal":1,"start":5,"action_noise":0,"location_history":"[5,0,1]","action_history":"[1,1]","door_history":"[0,0]","location_rts":"[1535,459]","trial_type":"two-door-navigation","trial_index":38,"time_elapsed":591381,"internal_node_id":"0.0-2.0-36.0"},{"group":"hexagon_tri","room_assignment":["purple","green","blue","red","yellow","grey"],"door_color_assignment":["black","white"],"door_generator_assignment":[1,0],"goal":4,"start":1,"action_noise":0,"location_history":"[1,3,2,1,5,4]","action_history":"[0,0,0,1,0]","door_history":"[1,1,1,0,1]","location_rts":"[2435,634,637,875,636]","trial_type":"two-door-navigation","trial_index":39,"time_elapsed":605724,"internal_node_id":"0.0-2.0-37.0"},{"group":"hexagon_tri","room_assignment":["purple","green","blue","red","yellow","grey"],"door_color_assignment":["black","white"],"door_generator_assignment":[1,0],"goal":3,"start":4,"action_noise":0,"location_history":"[4,2,3]","action_history":"[1,1]","door_history":"[0,0]","location_rts":"[3637,887]","trial_type":"two-door-navigation","trial_index":40,"time_elapsed":616304,"internal_node_id":"0.0-2.0-38.0"},{"group":"hexagon_tri","room_assignment":["purple","green","blue","red","yellow","grey"],"door_color_assignment":["black","white"],"door_generator_assignment":[1,0],"goal":5,"start":3,"action_noise":0,"location_history":"[3,4,0,5]","action_history":"[1,0,0]","door_history":"[0,1,1]","location_rts":"[2544,1079,979]","trial_type":"two-door-navigation","trial_index":41,"time_elapsed":627977,"internal_node_id":"0.0-2.0-39.0"},{"group":"hexagon_tri","room_assignment":["purple","green","blue","red","yellow","grey"],"door_color_assignment":["black","white"],"door_generator_assignment":[1,0],"goal":1,"start":5,"action_noise":0,"location_history":"[5,0,1]","action_history":"[1,1]","door_history":"[0,0]","location_rts":"[1655,443]","trial_type":"two-door-navigation","trial_index":42,"time_elapsed":636120,"internal_node_id":"0.0-2.0-40.0"},{"group":"hexagon_tri","room_assignment":["purple","green","blue","red","yellow","grey"],"door_color_assignment":["black","white"],"door_generator_assignment":[1,0],"goal":2,"start":1,"action_noise":0,"location_history":"[1,5,0,5,0,1,3,4,2]","action_history":"[1,1,0,1,1,0,1,1]","door_history":"[0,0,1,0,0,1,0,0]","location_rts":"[2346,1003,1021,492,299,329,561,557]","trial_type":"two-door-navigation","trial_index":43,"time_elapsed":654936,"internal_node_id":"0.0-2.0-41.0"},{"group":"hexagon_tri","room_assignment":["purple","green","blue","red","yellow","grey"],"door_color_assignment":["black","white"],"door_generator_assignment":[1,0],"goal":4,"start":2,"action_noise":0,"location_history":"[2,3,2,3,4]","action_history":"[1,0,1,1]","door_history":"[0,1,0,0]","location_rts":"[2599,770,654,194]","trial_type":"two-door-navigation","trial_index":44,"time_elapsed":667238,"internal_node_id":"0.0-2.0-42.0"},{"group":"hexagon_tri","room_assignment":["purple","green","blue","red","yellow","grey"],"door_color_assignment":["black","white"],"door_generator_assignment":[1,0],"goal":0,"start":4,"action_noise":0,"location_history":"[4,0]","action_history":"[0]","door_history":"[1]","location_rts":"[1249]","trial_type":"two-door-navigation","trial_index":45,"time_elapsed":673513,"internal_node_id":"0.0-2.0-43.0"},{"group":"hexagon_tri","room_assignment":["purple","green","blue","red","yellow","grey"],"door_color_assignment":["black","white"],"door_generator_assignment":[1,0],"goal":3,"start":0,"action_noise":0,"location_history":"[0,5,4,2,3]","action_history":"[0,0,1,1]","door_history":"[1,1,0,0]","location_rts":"[2543,739,251,478]","trial_type":"two-door-navigation","trial_index":46,"time_elapsed":685640,"internal_node_id":"0.0-2.0-44.0"},{"group":"hexagon_tri","room_assignment":["purple","green","blue","red","yellow","grey"],"door_color_assignment":["black","white"],"door_generator_assignment":[1,0],"goal":0,"start":3,"action_noise":0,"location_history":"[3,4,0]","action_history":"[1,0]","door_history":"[0,1]","location_rts":"[8169,761]","trial_type":"two-door-navigation","trial_index":47,"time_elapsed":700695,"internal_node_id":"0.0-2.0-45.0"},{"group":"hexagon_tri","room_assignment":["purple","green","blue","red","yellow","grey"],"door_color_assignment":["black","white"],"door_generator_assignment":[1,0],"goal":4,"start":0,"action_noise":0,"location_history":"[0,5,4]","action_history":"[0,0]","door_history":"[1,1]","location_rts":"[2243,435]","trial_type":"two-door-navigation","trial_index":48,"time_elapsed":709420,"internal_node_id":"0.0-2.0-46.0"},{"group":"hexagon_tri","room_assignment":["purple","green","blue","red","yellow","grey"],"door_color_assignment":["black","white"],"door_generator_assignment":[1,0],"goal":5,"start":4,"action_noise":0,"location_history":"[4,0,5]","action_history":"[0,0]","door_history":"[1,1]","location_rts":"[1620,391]","trial_type":"two-door-navigation","trial_index":49,"time_elapsed":717472,"internal_node_id":"0.0-2.0-47.0"},{"group":"hexagon_tri","room_assignment":["purple","green","blue","red","yellow","grey"],"door_color_assignment":["black","white"],"door_generator_assignment":[1,0],"goal":2,"start":5,"action_noise":0,"location_history":"[5,4,2]","action_history":"[0,1]","door_history":"[1,0]","location_rts":"[1776,619]","trial_type":"two-door-navigation","trial_index":50,"time_elapsed":725926,"internal_node_id":"0.0-2.0-48.0"},{"group":"hexagon_tri","room_assignment":["purple","green","blue","red","yellow","grey"],"door_color_assignment":["black","white"],"door_generator_assignment":[1,0],"goal":1,"start":2,"action_noise":0,"location_history":"[2,3,2,1]","action_history":"[1,0,0]","door_history":"[0,1,1]","location_rts":"[1955,684,442]","trial_type":"two-door-navigation","trial_index":51,"time_elapsed":736069,"internal_node_id":"0.0-2.0-49.0"},{"view_history":"[{\"page_index\":0,\"viewing_time\":949}]","rt":949,"trial_type":"instructions","trial_index":52,"time_elapsed":738019,"internal_node_id":"0.0-3.0"},{"view_history":"[{\"page_index\":0,\"viewing_time\":1160},{\"page_index\":1,\"viewing_time\":1704}]","rt":2864,"trial_type":"instructions","trial_index":53,"time_elapsed":741883,"internal_node_id":"0.0-4.0"},{"group":"hexagon_bi","fractal_assignment":["../images/ylw_slt.png","../images/cyn_red.png","../images/blu_wht.png","../images/pnk_blu.png","../images/gry_blk.png","../images/org_blu.png"],"mutagen_generator_assignment":[1,0],"goal":2,"start":1,"action_noise":0,"location_history":"[1,2]","action_history":"[0]","mutagen_history":"[1]","location_rts":"[5404]","trial_type":"fractal-mutation","trial_index":54,"time_elapsed":752435,"internal_node_id":"0.0-5.0-0.0"},{"group":"hexagon_bi","fractal_assignment":["../images/ylw_slt.png","../images/cyn_red.png","../images/blu_wht.png","../images/pnk_blu.png","../images/gry_blk.png","../images/org_blu.png"],"mutagen_generator_assignment":[1,0],"goal":0,"start":2,"action_noise":0,"location_history":"[2,3,4,5,0]","action_history":"[1,0,1,0]","mutagen_history":"[0,1,0,1]","location_rts":"[1515,1142,656,325]","trial_type":"fractal-mutation","trial_index":55,"time_elapsed":764515,"internal_node_id":"0.0-5.0-1.0"},{"group":"hexagon_bi","fractal_assignment":["../images/ylw_slt.png","../images/cyn_red.png","../images/blu_wht.png","../images/pnk_blu.png","../images/gry_blk.png","../images/org_blu.png"],"mutagen_generator_assignment":[1,0],"goal":5,"start":0,"action_noise":0,"location_history":"[0,5]","action_history":"[0]","mutagen_history":"[1]","location_rts":"[2230]","trial_type":"fractal-mutation","trial_index":56,"time_elapsed":771875,"internal_node_id":"0.0-5.0-2.0"},{"group":"hexagon_bi","fractal_assignment":["../images/ylw_slt.png","../images/cyn_red.png","../images/blu_wht.png","../images/pnk_blu.png","../images/gry_blk.png","../images/org_blu.png"],"mutagen_generator_assignment":[1,0],"goal":1,"start":5,"action_noise":0,"location_history":"[5,4,3,2,1]","action_history":"[1,0,1,0]","mutagen_history":"[0,1,0,1]","location_rts":"[5854,1058,288,412]","trial_type":"fractal-mutation","trial_index":57,"time_elapsed":787892,"internal_node_id":"0.0-5.0-3.0"},{"group":"hexagon_bi","fractal_assignment":["../images/ylw_slt.png","../images/cyn_red.png","../images/blu_wht.png","../images/pnk_blu.png","../images/gry_blk.png","../images/org_blu.png"],"mutagen_generator_assignment":[1,0],"goal":3,"start":1,"action_noise":0,"location_history":"[1,2,3]","action_history":"[0,1]","mutagen_history":"[1,0]","location_rts":"[2990,288]","trial_type":"fractal-mutation","trial_index":58,"time_elapsed":797375,"internal_node_id":"0.0-5.0-4.0"},{"group":"hexagon_bi","fractal_assignment":["../images/ylw_slt.png","../images/cyn_red.png","../images/blu_wht.png","../images/pnk_blu.png","../images/gry_blk.png","../images/org_blu.png"],"mutagen_generator_assignment":[1,0],"goal":5,"start":3,"action_noise":0,"location_history":"[3,4,5]","action_history":"[0,1]","mutagen_history":"[1,0]","location_rts":"[1298,667]","trial_type":"fractal-mutation","trial_index":59,"time_elapsed":805542,"internal_node_id":"0.0-5.0-5.0"},{"group":"hexagon_bi","fractal_assignment":["../images/ylw_slt.png","../images/cyn_red.png","../images/blu_wht.png","../images/pnk_blu.png","../images/gry_blk.png","../images/org_blu.png"],"mutagen_generator_assignment":[1,0],"goal":4,"start":5,"action_noise":0,"location_history":"[5,4]","action_history":"[1]","mutagen_history":"[0]","location_rts":"[11300]","trial_type":"fractal-mutation","trial_index":60,"time_elapsed":821915,"internal_node_id":"0.0-5.0-6.0"},{"group":"hexagon_bi","fractal_assignment":["../images/ylw_slt.png","../images/cyn_red.png","../images/blu_wht.png","../images/pnk_blu.png","../images/gry_blk.png","../images/org_blu.png"],"mutagen_generator_assignment":[1,0],"goal":0,"start":4,"action_noise":0,"location_history":"[4,3,2,1,0]","action_history":"[0,1,0,1]","mutagen_history":"[1,0,1,0]","location_rts":"[1510,595,242,78]","trial_type":"fractal-mutation","trial_index":61,"time_elapsed":832755,"internal_node_id":"0.0-5.0-7.0"},{"group":"hexagon_bi","fractal_assignment":["../images/ylw_slt.png","../images/cyn_red.png","../images/blu_wht.png","../images/pnk_blu.png","../images/gry_blk.png","../images/org_blu.png"],"mutagen_generator_assignment":[1,0],"goal":2,"start":0,"action_noise":0,"location_history":"[0,1,2]","action_history":"[1,0]","mutagen_history":"[0,1]","location_rts":"[3526,460]","trial_type":"fractal-mutation","trial_index":62,"time_elapsed":842995,"internal_node_id":"0.0-5.0-8.0"},{"group":"hexagon_bi","fractal_assignment":["../images/ylw_slt.png","../images/cyn_red.png","../images/blu_wht.png","../images/pnk_blu.png","../images/gry_blk.png","../images/org_blu.png"],"mutagen_generator_assignment":[1,0],"goal":4,"start":2,"action_noise":0,"location_history":"[2,3,4]","action_history":"[1,0]","mutagen_history":"[0,1]","location_rts":"[2038,259]","trial_type":"fractal-mutation","trial_index":63,"time_elapsed":851503,"internal_node_id":"0.0-5.0-9.0"},{"group":"hexagon_bi","fractal_assignment":["../images/ylw_slt.png","../images/cyn_red.png","../images/blu_wht.png","../images/pnk_blu.png","../images/gry_blk.png","../images/org_blu.png"],"mutagen_generator_assignment":[1,0],"goal":2,"start":4,"action_noise":0,"location_history":"[4,3,2]","action_history":"[0,1]","mutagen_history":"[1,0]","location_rts":"[2690,415]","trial_type":"fractal-mutation","trial_index":64,"time_elapsed":860819,"internal_node_id":"0.0-5.0-10.0"},{"group":"hexagon_bi","fractal_assignment":["../images/ylw_slt.png","../images/cyn_red.png","../images/blu_wht.png","../images/pnk_blu.png","../images/gry_blk.png","../images/org_blu.png"],"mutagen_generator_assignment":[1,0],"goal":3,"start":2,"action_noise":0,"location_history":"[2,3]","action_history":"[1]","mutagen_history":"[0]","location_rts":"[1909]","trial_type":"fractal-mutation","trial_index":65,"time_elapsed":867845,"internal_node_id":"0.0-5.0-11.0"},{"group":"hexagon_bi","fractal_assignment":["../images/ylw_slt.png","../images/cyn_red.png","../images/blu_wht.png","../images/pnk_blu.png","../images/gry_blk.png","../images/org_blu.png"],"mutagen_generator_assignment":[1,0],"goal":0,"start":3,"action_noise":0,"location_history":"[3,4,5,0]","action_history":"[0,1,0]","mutagen_history":"[1,0,1]","location_rts":"[3762,697,259]","trial_type":"fractal-mutation","trial_index":66,"time_elapsed":879891,"internal_node_id":"0.0-5.0-12.0"},{"group":"hexagon_bi","fractal_assignment":["../images/ylw_slt.png","../images/cyn_red.png","../images/blu_wht.png","../images/pnk_blu.png","../images/gry_blk.png","../images/org_blu.png"],"mutagen_generator_assignment":[1,0],"goal":5,"start":0,"action_noise":0,"location_history":"[0,5]","action_history":"[0]","mutagen_history":"[1]","location_rts":"[3269]","trial_type":"fractal-mutation","trial_index":67,"time_elapsed":888307,"internal_node_id":"0.0-5.0-13.0"},{"group":"hexagon_bi","fractal_assignment":["../images/ylw_slt.png","../images/cyn_red.png","../images/blu_wht.png","../images/pnk_blu.png","../images/gry_blk.png","../images/org_blu.png"],"mutagen_generator_assignment":[1,0],"goal":1,"start":5,"action_noise":0,"location_history":"[5,4,3,2,1]","action_history":"[1,0,1,0]","mutagen_history":"[0,1,0,1]","location_rts":"[5391,690,263,300]","trial_type":"fractal-mutation","trial_index":68,"time_elapsed":903374,"internal_node_id":"0.0-5.0-14.0"},{"group":"hexagon_bi","fractal_assignment":["../images/ylw_slt.png","../images/cyn_red.png","../images/blu_wht.png","../images/pnk_blu.png","../images/gry_blk.png","../images/org_blu.png"],"mutagen_generator_assignment":[1,0],"goal":5,"start":1,"action_noise":0,"location_history":"[1,0,5]","action_history":"[1,0]","mutagen_history":"[0,1]","location_rts":"[6811,377]","trial_type":"fractal-mutation","trial_index":69,"time_elapsed":916825,"internal_node_id":"0.0-5.0-15.0"},{"group":"hexagon_bi","fractal_assignment":["../images/ylw_slt.png","../images/cyn_red.png","../images/blu_wht.png","../images/pnk_blu.png","../images/gry_blk.png","../images/org_blu.png"],"mutagen_generator_assignment":[1,0],"goal":3,"start":5,"action_noise":0,"location_history":"[5,0,1,2,3]","action_history":"[0,1,0,1]","mutagen_history":"[1,0,1,0]","location_rts":"[3788,633,151,20]","trial_type":"fractal-mutation","trial_index":70,"time_elapsed":929833,"internal_node_id":"0.0-5.0-16.0"},{"group":"hexagon_bi","fractal_assignment":["../images/ylw_slt.png","../images/cyn_red.png","../images/blu_wht.png","../images/pnk_blu.png","../images/gry_blk.png","../images/org_blu.png"],"mutagen_generator_assignment":[1,0],"goal":2,"start":3,"action_noise":0,"location_history":"[3,4,5,0,1,2]","action_history":"[0,1,0,1,0]","mutagen_history":"[1,0,1,0,1]","location_rts":"[7032,651,171,65,408]","trial_type":"fractal-mutation","trial_index":71,"time_elapsed":947702,"internal_node_id":"0.0-5.0-17.0"},{"group":"hexagon_bi","fractal_assignment":["../images/ylw_slt.png","../images/cyn_red.png","../images/blu_wht.png","../images/pnk_blu.png","../images/gry_blk.png","../images/org_blu.png"],"mutagen_generator_assignment":[1,0],"goal":1,"start":2,"action_noise":0,"location_history":"[2,1]","action_history":"[0]","mutagen_history":"[1]","location_rts":"[2565]","trial_type":"fractal-mutation","trial_index":72,"time_elapsed":955411,"internal_node_id":"0.0-5.0-18.0"},{"group":"hexagon_bi","fractal_assignment":["../images/ylw_slt.png","../images/cyn_red.png","../images/blu_wht.png","../images/pnk_blu.png","../images/gry_blk.png","../images/org_blu.png"],"mutagen_generator_assignment":[1,0],"goal":4,"start":1,"action_noise":0,"location_history":"[1,2,3,4]","action_history":"[0,1,0]","mutagen_history":"[1,0,1]","location_rts":"[2341,133,601]","trial_type":"fractal-mutation","trial_index":73,"time_elapsed":965875,"internal_node_id":"0.0-5.0-19.0"},{"group":"hexagon_bi","fractal_assignment":["../images/ylw_slt.png","../images/cyn_red.png","../images/blu_wht.png","../images/pnk_blu.png","../images/gry_blk.png","../images/org_blu.png"],"mutagen_generator_assignment":[1,0],"goal":0,"start":4,"action_noise":0,"location_history":"[4,5,0]","action_history":"[1,0]","mutagen_history":"[0,1]","location_rts":"[2126,380]","trial_type":"fractal-mutation","trial_index":74,"time_elapsed":974585,"internal_node_id":"0.0-5.0-20.0"},{"group":"hexagon_bi","fractal_assignment":["../images/ylw_slt.png","../images/cyn_red.png","../images/blu_wht.png","../images/pnk_blu.png","../images/gry_blk.png","../images/org_blu.png"],"mutagen_generator_assignment":[1,0],"goal":3,"start":0,"action_noise":0,"location_history":"[0,1,2,3]","action_history":"[1,0,1]","mutagen_history":"[0,1,0]","location_rts":"[16775,198,81]","trial_type":"fractal-mutation","trial_index":75,"time_elapsed":998918,"internal_node_id":"0.0-5.0-21.0"},{"group":"hexagon_bi","fractal_assignment":["../images/ylw_slt.png","../images/cyn_red.png","../images/blu_wht.png","../images/pnk_blu.png","../images/gry_blk.png","../images/org_blu.png"],"mutagen_generator_assignment":[1,0],"goal":1,"start":3,"action_noise":0,"location_history":"[3,2,1]","action_history":"[1,0]","mutagen_history":"[0,1]","location_rts":"[5811,167]","trial_type":"fractal-mutation","trial_index":76,"time_elapsed":1011103,"internal_node_id":"0.0-5.0-22.0"},{"group":"hexagon_bi","fractal_assignment":["../images/ylw_slt.png","../images/cyn_red.png","../images/blu_wht.png","../images/pnk_blu.png","../images/gry_blk.png","../images/org_blu.png"],"mutagen_generator_assignment":[1,0],"goal":0,"start":1,"action_noise":0,"location_history":"[1,0]","action_history":"[1]","mutagen_history":"[0]","location_rts":"[4315]","trial_type":"fractal-mutation","trial_index":77,"time_elapsed":1020498,"internal_node_id":"0.0-5.0-23.0"},{"group":"hexagon_bi","fractal_assignment":["../images/ylw_slt.png","../images/cyn_red.png","../images/blu_wht.png","../images/pnk_blu.png","../images/gry_blk.png","../images/org_blu.png"],"mutagen_generator_assignment":[1,0],"goal":2,"start":0,"action_noise":0,"location_history":"[0,1,2]","action_history":"[1,0]","mutagen_history":"[0,1]","location_rts":"[1607,106]","trial_type":"fractal-mutation","trial_index":78,"time_elapsed":1028413,"internal_node_id":"0.0-5.0-24.0"},{"group":"hexagon_bi","fractal_assignment":["../images/ylw_slt.png","../images/cyn_red.png","../images/blu_wht.png","../images/pnk_blu.png","../images/gry_blk.png","../images/org_blu.png"],"mutagen_generator_assignment":[1,0],"goal":4,"start":2,"action_noise":0,"location_history":"[2,1,0,5,4]","action_history":"[0,1,0,1]","mutagen_history":"[1,0,1,0]","location_rts":"[2212,426,143,131]","trial_type":"fractal-mutation","trial_index":79,"time_elapsed":1039744,"internal_node_id":"0.0-5.0-25.0"},{"group":"hexagon_bi","fractal_assignment":["../images/ylw_slt.png","../images/cyn_red.png","../images/blu_wht.png","../images/pnk_blu.png","../images/gry_blk.png","../images/org_blu.png"],"mutagen_generator_assignment":[1,0],"goal":5,"start":4,"action_noise":0,"location_history":"[4,5]","action_history":"[1]","mutagen_history":"[0]","location_rts":"[2393]","trial_type":"fractal-mutation","trial_index":80,"time_elapsed":1047213,"internal_node_id":"0.0-5.0-26.0"},{"group":"hexagon_bi","fractal_assignment":["../images/ylw_slt.png","../images/cyn_red.png","../images/blu_wht.png","../images/pnk_blu.png","../images/gry_blk.png","../images/org_blu.png"],"mutagen_generator_assignment":[1,0],"goal":2,"start":5,"action_noise":0,"location_history":"[5,4,3,2]","action_history":"[1,0,1]","mutagen_history":"[0,1,0]","location_rts":"[3203,688,96]","trial_type":"fractal-mutation","trial_index":81,"time_elapsed":1058468,"internal_node_id":"0.0-5.0-27.0"},{"group":"hexagon_bi","fractal_assignment":["../images/ylw_slt.png","../images/cyn_red.png","../images/blu_wht.png","../images/pnk_blu.png","../images/gry_blk.png","../images/org_blu.png"],"mutagen_generator_assignment":[1,0],"goal":3,"start":2,"action_noise":0,"location_history":"[2,3]","action_history":"[1]","mutagen_history":"[0]","location_rts":"[2477]","trial_type":"fractal-mutation","trial_index":82,"time_elapsed":1066033,"internal_node_id":"0.0-5.0-28.0"},{"group":"hexagon_bi","fractal_assignment":["../images/ylw_slt.png","../images/cyn_red.png","../images/blu_wht.png","../images/pnk_blu.png","../images/gry_blk.png","../images/org_blu.png"],"mutagen_generator_assignment":[1,0],"goal":1,"start":3,"action_noise":0,"location_history":"[3,2,1]","action_history":"[1,0]","mutagen_history":"[0,1]","location_rts":"[3025,746]","trial_type":"fractal-mutation","trial_index":83,"time_elapsed":1076092,"internal_node_id":"0.0-5.0-29.0"},{"group":"hexagon_bi","fractal_assignment":["../images/ylw_slt.png","../images/cyn_red.png","../images/blu_wht.png","../images/pnk_blu.png","../images/gry_blk.png","../images/org_blu.png"],"mutagen_generator_assignment":[1,0],"goal":4,"start":1,"action_noise":0,"location_history":"[1,2,3,4]","action_history":"[0,1,0]","mutagen_history":"[1,0,1]","location_rts":"[1636,161,137]","trial_type":"fractal-mutation","trial_index":84,"time_elapsed":1085383,"internal_node_id":"0.0-5.0-30.0"},{"group":"hexagon_bi","fractal_assignment":["../images/ylw_slt.png","../images/cyn_red.png","../images/blu_wht.png","../images/pnk_blu.png","../images/gry_blk.png","../images/org_blu.png"],"mutagen_generator_assignment":[1,0],"goal":5,"start":4,"action_noise":0,"location_history":"[4,5]","action_history":"[1]","mutagen_history":"[0]","location_rts":"[1776]","trial_type":"fractal-mutation","trial_index":85,"time_elapsed":1092242,"internal_node_id":"0.0-5.0-31.0"},{"group":"hexagon_bi","fractal_assignment":["../images/ylw_slt.png","../images/cyn_red.png","../images/blu_wht.png","../images/pnk_blu.png","../images/gry_blk.png","../images/org_blu.png"],"mutagen_generator_assignment":[1,0],"goal":0,"start":5,"action_noise":0,"location_history":"[5,0]","action_history":"[0]","mutagen_history":"[1]","location_rts":"[3094]","trial_type":"fractal-mutation","trial_index":86,"time_elapsed":1100460,"internal_node_id":"0.0-5.0-32.0"},{"group":"hexagon_bi","fractal_assignment":["../images/ylw_slt.png","../images/cyn_red.png","../images/blu_wht.png","../images/pnk_blu.png","../images/gry_blk.png","../images/org_blu.png"],"mutagen_generator_assignment":[1,0],"goal":2,"start":0,"action_noise":0,"location_history":"[0,1,2]","action_history":"[1,0]","mutagen_history":"[0,1]","location_rts":"[1878,283]","trial_type":"fractal-mutation","trial_index":87,"time_elapsed":1108825,"internal_node_id":"0.0-5.0-33.0"},{"group":"hexagon_bi","fractal_assignment":["../images/ylw_slt.png","../images/cyn_red.png","../images/blu_wht.png","../images/pnk_blu.png","../images/gry_blk.png","../images/org_blu.png"],"mutagen_generator_assignment":[1,0],"goal":0,"start":2,"action_noise":0,"location_history":"[2,1,0]","action_history":"[0,1]","mutagen_history":"[1,0]","location_rts":"[3509,228]","trial_type":"fractal-mutation","trial_index":88,"time_elapsed":1118763,"internal_node_id":"0.0-5.0-34.0"},{"group":"hexagon_bi","fractal_assignment":["../images/ylw_slt.png","../images/cyn_red.png","../images/blu_wht.png","../images/pnk_blu.png","../images/gry_blk.png","../images/org_blu.png"],"mutagen_generator_assignment":[1,0],"goal":5,"start":0,"action_noise":0,"location_history":"[0,5]","action_history":"[0]","mutagen_history":"[1]","location_rts":"[2381]","trial_type":"fractal-mutation","trial_index":89,"time_elapsed":1126274,"internal_node_id":"0.0-5.0-35.0"},{"group":"hexagon_bi","fractal_assignment":["../images/ylw_slt.png","../images/cyn_red.png","../images/blu_wht.png","../images/pnk_blu.png","../images/gry_blk.png","../images/org_blu.png"],"mutagen_generator_assignment":[1,0],"goal":1,"start":5,"action_noise":0,"location_history":"[5,0,1]","action_history":"[0,1]","mutagen_history":"[1,0]","location_rts":"[5319,216]","trial_type":"fractal-mutation","trial_index":90,"time_elapsed":1138003,"internal_node_id":"0.0-5.0-36.0"},{"group":"hexagon_bi","fractal_assignment":["../images/ylw_slt.png","../images/cyn_red.png","../images/blu_wht.png","../images/pnk_blu.png","../images/gry_blk.png","../images/org_blu.png"],"mutagen_generator_assignment":[1,0],"goal":4,"start":1,"action_noise":0,"location_history":"[1,2,3,4]","action_history":"[0,1,0]","mutagen_history":"[1,0,1]","location_rts":"[3742,89,105]","trial_type":"fractal-mutation","trial_index":91,"time_elapsed":1149256,"internal_node_id":"0.0-5.0-37.0"},{"group":"hexagon_bi","fractal_assignment":["../images/ylw_slt.png","../images/cyn_red.png","../images/blu_wht.png","../images/pnk_blu.png","../images/gry_blk.png","../images/org_blu.png"],"mutagen_generator_assignment":[1,0],"goal":3,"start":4,"action_noise":0,"location_history":"[4,3]","action_history":"[0]","mutagen_history":"[1]","location_rts":"[3521]","trial_type":"fractal-mutation","trial_index":92,"time_elapsed":1157898,"internal_node_id":"0.0-5.0-38.0"},{"group":"hexagon_bi","fractal_assignment":["../images/ylw_slt.png","../images/cyn_red.png","../images/blu_wht.png","../images/pnk_blu.png","../images/gry_blk.png","../images/org_blu.png"],"mutagen_generator_assignment":[1,0],"goal":5,"start":3,"action_noise":0,"location_history":"[3,4,5]","action_history":"[0,1]","mutagen_history":"[1,0]","location_rts":"[2814,759]","trial_type":"fractal-mutation","trial_index":93,"time_elapsed":1167674,"internal_node_id":"0.0-5.0-39.0"},{"group":"hexagon_bi","fractal_assignment":["../images/ylw_slt.png","../images/cyn_red.png","../images/blu_wht.png","../images/pnk_blu.png","../images/gry_blk.png","../images/org_blu.png"],"mutagen_generator_assignment":[1,0],"goal":1,"start":5,"action_noise":0,"location_history":"[5,0,1]","action_history":"[0,1]","mutagen_history":"[1,0]","location_rts":"[4791,478]","trial_type":"fractal-mutation","trial_index":94,"time_elapsed":1179146,"internal_node_id":"0.0-5.0-40.0"},{"group":"hexagon_bi","fractal_assignment":["../images/ylw_slt.png","../images/cyn_red.png","../images/blu_wht.png","../images/pnk_blu.png","../images/gry_blk.png","../images/org_blu.png"],"mutagen_generator_assignment":[1,0],"goal":2,"start":1,"action_noise":0,"location_history":"[1,2]","action_history":"[0]","mutagen_history":"[1]","location_rts":"[1823]","trial_type":"fractal-mutation","trial_index":95,"time_elapsed":1186097,"internal_node_id":"0.0-5.0-41.0"},{"group":"hexagon_bi","fractal_assignment":["../images/ylw_slt.png","../images/cyn_red.png","../images/blu_wht.png","../images/pnk_blu.png","../images/gry_blk.png","../images/org_blu.png"],"mutagen_generator_assignment":[1,0],"goal":4,"start":2,"action_noise":0,"location_history":"[2,1,0,5,4]","action_history":"[0,1,0,1]","mutagen_history":"[1,0,1,0]","location_rts":"[2551,503,140,329]","trial_type":"fractal-mutation","trial_index":96,"time_elapsed":1198010,"internal_node_id":"0.0-5.0-42.0"},{"group":"hexagon_bi","fractal_assignment":["../images/ylw_slt.png","../images/cyn_red.png","../images/blu_wht.png","../images/pnk_blu.png","../images/gry_blk.png","../images/org_blu.png"],"mutagen_generator_assignment":[1,0],"goal":0,"start":4,"action_noise":0,"location_history":"[4,5,0]","action_history":"[1,0]","mutagen_history":"[0,1]","location_rts":"[2558,136]","trial_type":"fractal-mutation","trial_index":97,"time_elapsed":1206913,"internal_node_id":"0.0-5.0-43.0"},{"group":"hexagon_bi","fractal_assignment":["../images/ylw_slt.png","../images/cyn_red.png","../images/blu_wht.png","../images/pnk_blu.png","../images/gry_blk.png","../images/org_blu.png"],"mutagen_generator_assignment":[1,0],"goal":3,"start":0,"action_noise":0,"location_history":"[0,1,2,3]","action_history":"[1,0,1]","mutagen_history":"[0,1,0]","location_rts":"[2465,453,533]","trial_type":"fractal-mutation","trial_index":98,"time_elapsed":1217648,"internal_node_id":"0.0-5.0-44.0"},{"group":"hexagon_bi","fractal_assignment":["../images/ylw_slt.png","../images/cyn_red.png","../images/blu_wht.png","../images/pnk_blu.png","../images/gry_blk.png","../images/org_blu.png"],"mutagen_generator_assignment":[1,0],"goal":0,"start":3,"action_noise":0,"location_history":"[3,2,1,0]","action_history":"[1,0,1]","mutagen_history":"[0,1,0]","location_rts":"[5121,267,66]","trial_type":"fractal-mutation","trial_index":99,"time_elapsed":1230417,"internal_node_id":"0.0-5.0-45.0"},{"group":"hexagon_bi","fractal_assignment":["../images/ylw_slt.png","../images/cyn_red.png","../images/blu_wht.png","../images/pnk_blu.png","../images/gry_blk.png","../images/org_blu.png"],"mutagen_generator_assignment":[1,0],"goal":4,"start":0,"action_noise":0,"location_history":"[0,5,4]","action_history":"[0,1]","mutagen_history":"[1,0]","location_rts":"[3737,71]","trial_type":"fractal-mutation","trial_index":100,"time_elapsed":1240432,"internal_node_id":"0.0-5.0-46.0"},{"group":"hexagon_bi","fractal_assignment":["../images/ylw_slt.png","../images/cyn_red.png","../images/blu_wht.png","../images/pnk_blu.png","../images/gry_blk.png","../images/org_blu.png"],"mutagen_generator_assignment":[1,0],"goal":5,"start":4,"action_noise":0,"location_history":"[4,3,4,5]","action_history":"[0,0,1]","mutagen_history":"[1,1,0]","location_rts":"[4841,326,220]","trial_type":"fractal-mutation","trial_index":101,"time_elapsed":1253175,"internal_node_id":"0.0-5.0-47.0"},{"group":"hexagon_bi","fractal_assignment":["../images/ylw_slt.png","../images/cyn_red.png","../images/blu_wht.png","../images/pnk_blu.png","../images/gry_blk.png","../images/org_blu.png"],"mutagen_generator_assignment":[1,0],"goal":2,"start":5,"action_noise":0,"location_history":"[5,0,1,2]","action_history":"[0,1,0]","mutagen_history":"[1,0,1]","location_rts":"[12667,159,28]","trial_type":"fractal-mutation","trial_index":102,"time_elapsed":1273345,"internal_node_id":"0.0-5.0-48.0"},{"group":"hexagon_bi","fractal_assignment":["../images/ylw_slt.png","../images/cyn_red.png","../images/blu_wht.png","../images/pnk_blu.png","../images/gry_blk.png","../images/org_blu.png"],"mutagen_generator_assignment":[1,0],"goal":1,"start":2,"action_noise":0,"location_history":"[2,1]","action_history":"[0]","mutagen_history":"[1]","location_rts":"[2418]","trial_type":"fractal-mutation","trial_index":103,"time_elapsed":1280891,"internal_node_id":"0.0-5.0-49.0"},{"view_history":"[{\"page_index\":0,\"viewing_time\":9267}]","rt":9268,"trial_type":"instructions","trial_index":104,"time_elapsed":1291159,"internal_node_id":"0.0-6.0"},{"rt":23619,"responses":"{\"Q0\":\"If I could remember how to get back and forth between a house?\"}","trial_type":"survey-text","trial_index":105,"time_elapsed":1315791,"internal_node_id":"0.0-7.0-0.0"},{"rt":22898,"responses":"{\"Q0\":\"If I could remember the order of items\"}","trial_type":"survey-text","trial_index":106,"time_elapsed":1339693,"internal_node_id":"0.0-7.0-1.0"},{"rt":45578,"responses":"{\"Q0\":\"<img src='../images/diagrams/hexagon_bi.png'>\"}","trial_type":"survey-multi-choice","trial_index":107,"time_elapsed":1386280,"internal_node_id":"0.0-7.0-2.0"},{"rt":24984,"assignments":["../images/ylw_slt.png","../images/org_blu.png","../images/gry_blk.png","../images/pnk_blu.png","../images/blu_wht.png","../images/cyn_red.png"],"trial_type":"drag-drop-on-image","trial_index":108,"time_elapsed":1412268,"internal_node_id":"0.0-7.0-3.0"},{"rt":11493,"responses":"{\"Q0\":\"1\"}","trial_type":"survey-likert","trial_index":109,"time_elapsed":1424766,"internal_node_id":"0.0-7.0-4.0"},{"rt":13554,"responses":"{\"Q0\":\"You could reverse your steps by using the opposite button\"}","trial_type":"survey-text","trial_index":110,"time_elapsed":1439324,"internal_node_id":"0.0-7.0-5.0"},{"rt":3101,"responses":"{\"Q0\":\"No\"}","trial_type":"survey-multi-choice","trial_index":111,"time_elapsed":1443430,"internal_node_id":"0.0-7.0-6.0"},{"rt":10387,"responses":"{\"Q0\":\"During session 1\"}","trial_type":"survey-multi-choice","trial_index":112,"time_elapsed":1454822,"internal_node_id":"0.0-7.0-7.0"},{"rt":3757,"responses":"{\"Q0\":\"\"}","trial_type":"survey-text","trial_index":113,"time_elapsed":1459580,"internal_node_id":"0.0-7.0-8.0"},{"rt":3020,"responses":"{\"Q0\":\"0\"}","trial_type":"survey-likert","trial_index":114,"time_elapsed":1463603,"internal_node_id":"0.0-7.0-9.0"},{"rt":4439,"responses":"{\"Q0\":\"Different structure\"}","trial_type":"survey-multi-choice","trial_index":115,"time_elapsed":1469044,"internal_node_id":"0.0-7.0-10.0"},{"rt":62689,"assignments":["../images/gry_blk.png","../images/org_blu.png","../images/ylw_slt.png","../images/pnk_blu.png","../images/cyn_red.png","../images/blu_wht.png"],"background_order":[1,3,4,2,0,5],"trial_type":"drag-drop-on-image","trial_index":116,"time_elapsed":1532739,"internal_node_id":"0.0-7.0-11.0"},{"rt":29500,"responses":"{\"Q0\":\"left (black) door = ray, right (white) door = acid\",\"Q1\":\"Not at all confident\"}","trial_type":"survey-multi-choice","trial_index":117,"time_elapsed":1563245,"internal_node_id":"0.0-7.0-12.0"},{"rt":7471,"responses":"{\"Q0\":\"25-35\",\"Q1\":\"Some college\",\"Q2\":\"Female\",\"Q3\":\"White\"}","trial_type":"survey-multi-choice","trial_index":118,"time_elapsed":1571734,"internal_node_id":"0.0-8.0"},{"rt":1735,"responses":"{\"Q0\":\"\"}","trial_type":"survey-text","trial_index":119,"time_elapsed":1574477,"internal_node_id":"0.0-9.0"}]