[{"view_history":"[{\"page_index\":0,\"viewing_time\":1803},{\"page_index\":1,\"viewing_time\":4747}]","rt":6552,"trial_type":"instructions","trial_index":0,"time_elapsed":6553,"internal_node_id":"0.0-0.0"},{"view_history":"[{\"page_index\":0,\"viewing_time\":2021},{\"page_index\":1,\"viewing_time\":6413}]","rt":8435,"trial_type":"instructions","trial_index":1,"time_elapsed":15991,"internal_node_id":"0.0-1.0"},{"group":"hexagon_bi","room_assignment":["yellow","red","blue","purple","green","grey"],"door_color_assignment":["black","white"],"door_generator_assignment":[0,1],"goal":2,"start":1,"action_noise":0,"location_history":"[1,0,1,2]","action_history":"[1,1,0]","door_history":"[1,1,0]","location_rts":"[11808,1859,363]","trial_type":"two-door-navigation","trial_index":2,"time_elapsed":37123,"internal_node_id":"0.0-2.0-0.0"},{"group":"hexagon_bi","room_assignment":["yellow","red","blue","purple","green","grey"],"door_color_assignment":["black","white"],"door_generator_assignment":[0,1],"goal":0,"start":2,"action_noise":0,"location_history":"[2,1,0]","action_history":"[0,1]","door_history":"[0,1]","location_rts":"[2141,909]","trial_type":"two-door-navigation","trial_index":3,"time_elapsed":46228,"internal_node_id":"0.0-2.0-1.0"},{"group":"hexagon_bi","room_assignment":["yellow","red","blue","purple","green","grey"],"door_color_assignment":["black","white"],"door_generator_assignment":[0,1],"goal":5,"start":0,"action_noise":0,"location_history":"[0,5]","action_history":"[0]","door_history":"[0]","location_rts":"[10441]","trial_type":"two-door-navigation","trial_index":4,"time_elapsed":61698,"internal_node_id":"0.0-2.0-2.0"},{"group":"hexagon_bi","room_assignment":["yellow","red","blue","purple","green","grey"],"door_color_assignment":["black","white"],"door_generator_assignment":[0,1],"goal":1,"start":5,"action_noise":0,"location_history":"[5,0,1]","action_history":"[0,1]","door_history":"[0,1]","location_rts":"[3174,695]","trial_type":"two-door-navigation","trial_index":5,"time_elapsed":71624,"internal_node_id":"0.0-2.0-3.0"},{"group":"hexagon_bi","room_assignment":["yellow","red","blue","purple","green","grey"],"door_color_assignment":["black","white"],"door_generator_assignment":[0,1],"goal":3,"start":1,"action_noise":0,"location_history":"[1,2,3]","action_history":"[0,1]","door_history":"[0,1]","location_rts":"[1583,536]","trial_type":"two-door-navigation","trial_index":6,"time_elapsed":79792,"internal_node_id":"0.0-2.0-4.0"},{"group":"hexagon_bi","room_assignment":["yellow","red","blue","purple","green","grey"],"door_color_assignment":["black","white"],"door_generator_assignment":[0,1],"goal":5,"start":3,"action_noise":0,"location_history":"[3,4,5]","action_history":"[0,1]","door_history":"[0,1]","location_rts":"[1222,955]","trial_type":"two-door-navigation","trial_index":7,"time_elapsed":88019,"internal_node_id":"0.0-2.0-5.0"},{"group":"hexagon_bi","room_assignment":["yellow","red","blue","purple","green","grey"],"door_color_assignment":["black","white"],"door_generator_assignment":[0,1],"goal":4,"start":5,"action_noise":0,"location_history":"[5,0,5,4]","action_history":"[0,0,1]","door_history":"[0,0,1]","location_rts":"[3600,2032,429]","trial_type":"two-door-navigation","trial_index":8,"time_elapsed":101153,"internal_node_id":"0.0-2.0-6.0"},{"group":"hexagon_bi","room_assignment":["yellow","red","blue","purple","green","grey"],"door_color_assignment":["black","white"],"door_generator_assignment":[0,1],"goal":0,"start":4,"action_noise":0,"location_history":"[4,3,4,3,2,1,0]","action_history":"[0,0,0,1,0,1]","door_history":"[0,0,0,1,0,1]","location_rts":"[15297,1737,975,230,987,733]","trial_type":"two-door-navigation","trial_index":9,"time_elapsed":131250,"internal_node_id":"0.0-2.0-7.0"},{"group":"hexagon_bi","room_assignment":["yellow","red","blue","purple","green","grey"],"door_color_assignment":["black","white"],"door_generator_assignment":[0,1],"goal":2,"start":0,"action_noise":0,"location_history":"[0,5,0,5,4,5,0,5,0,1,0,5,4,3,2]","action_history":"[0,0,0,1,1,0,0,0,1,1,0,1,0,1]","door_history":"[0,0,0,1,1,0,0,0,1,1,0,1,0,1]","location_rts":"[3468,1159,608,246,1165,474,3819,2503,3125,764,652,1909,1545,657]","trial_type":"two-door-navigation","trial_index":10,"time_elapsed":171670,"internal_node_id":"0.0-2.0-8.0"},{"group":"hexagon_bi","room_assignment":["yellow","red","blue","purple","green","grey"],"door_color_assignment":["black","white"],"door_generator_assignment":[0,1],"goal":4,"start":2,"action_noise":0,"location_history":"[2,1,2,3,4]","action_history":"[0,0,1,0]","door_history":"[0,0,1,0]","location_rts":"[1395,2030,1096,324]","trial_type":"two-door-navigation","trial_index":11,"time_elapsed":184610,"internal_node_id":"0.0-2.0-9.0"},{"group":"hexagon_bi","room_assignment":["yellow","red","blue","purple","green","grey"],"door_color_assignment":["black","white"],"door_generator_assignment":[0,1],"goal":2,"start":4,"action_noise":0,"location_history":"[4,3,2]","action_history":"[0,1]","door_history":"[0,1]","location_rts":"[2332,429]","trial_type":"two-door-navigation","trial_index":12,"time_elapsed":193422,"internal_node_id":"0.0-2.0-10.0"},{"group":"hexagon_bi","room_assignment":["yellow","red","blue","purple","green","grey"],"door_color_assignment":["black","white"],"door_generator_assignment":[0,1],"goal":3,"start":2,"action_noise":0,"location_history":"[2,3]","action_history":"[1]","door_history":"[1]","location_rts":"[1664]","trial_type":"two-door-navigation","trial_index":13,"time_elapsed":200111,"internal_node_id":"0.0-2.0-11.0"},{"group":"hexagon_bi","room_assignment":["yellow","red","blue","purple","green","grey"],"door_color_assignment":["black","white"],"door_generator_assignment":[0,1],"goal":0,"start":3,"action_noise":0,"location_history":"[3,4,5,0]","action_history":"[0,1,0]","door_history":"[0,1,0]","location_rts":"[5010,1444,1543]","trial_type":"two-door-navigation","trial_index":14,"time_elapsed":215178,"internal_node_id":"0.0-2.0-12.0"},{"group":"hexagon_bi","room_assignment":["yellow","red","blue","purple","green","grey"],"door_color_assignment":["black","white"],"door_generator_assignment":[0,1],"goal":5,"start":0,"action_noise":0,"location_history":"[0,5]","action_history":"[0]","door_history":"[0]","location_rts":"[1504]","trial_type":"two-door-navigation","trial_index":15,"time_elapsed":221708,"internal_node_id":"0.0-2.0-13.0"},{"group":"hexagon_bi","room_assignment":["yellow","red","blue","purple","green","grey"],"door_color_assignment":["black","white"],"door_generator_assignment":[0,1],"goal":1,"start":5,"action_noise":0,"location_history":"[5,0,1]","action_history":"[0,1]","door_history":"[0,1]","location_rts":"[4150,1776]","trial_type":"two-door-navigation","trial_index":16,"time_elapsed":233678,"internal_node_id":"0.0-2.0-14.0"},{"group":"hexagon_bi","room_assignment":["yellow","red","blue","purple","green","grey"],"door_color_assignment":["black","white"],"door_generator_assignment":[0,1],"goal":5,"start":1,"action_noise":0,"location_history":"[1,2,1,0,5]","action_history":"[0,0,1,0]","door_history":"[0,0,1,0]","location_rts":"[1317,885,908,316]","trial_type":"two-door-navigation","trial_index":17,"time_elapsed":245193,"internal_node_id":"0.0-2.0-15.0"},{"group":"hexagon_bi","room_assignment":["yellow","red","blue","purple","green","grey"],"door_color_assignment":["black","white"],"door_generator_assignment":[0,1],"goal":3,"start":5,"action_noise":0,"location_history":"[5,0,1,0,5,0,5,4,3]","action_history":"[0,1,1,0,0,0,1,0]","door_history":"[0,1,1,0,0,0,1,0]","location_rts":"[1523,3002,244,648,353,671,862,979]","trial_type":"two-door-navigation","trial_index":18,"time_elapsed":265650,"internal_node_id":"0.0-2.0-16.0"},{"group":"hexagon_bi","room_assignment":["yellow","red","blue","purple","green","grey"],"door_color_assignment":["black","white"],"door_generator_assignment":[0,1],"goal":2,"start":3,"action_noise":0,"location_history":"[3,2]","action_history":"[1]","door_history":"[1]","location_rts":"[1863]","trial_type":"two-door-navigation","trial_index":19,"time_elapsed":272541,"internal_node_id":"0.0-2.0-17.0"},{"group":"hexagon_bi","room_assignment":["yellow","red","blue","purple","green","grey"],"door_color_assignment":["black","white"],"door_generator_assignment":[0,1],"goal":1,"start":2,"action_noise":0,"location_history":"[2,1]","action_history":"[0]","door_history":"[0]","location_rts":"[5961]","trial_type":"two-door-navigation","trial_index":20,"time_elapsed":283529,"internal_node_id":"0.0-2.0-18.0"},{"group":"hexagon_bi","room_assignment":["yellow","red","blue","purple","green","grey"],"door_color_assignment":["black","white"],"door_generator_assignment":[0,1],"goal":4,"start":1,"action_noise":0,"location_history":"[1,2,1,0,5,4]","action_history":"[0,0,1,0,1]","door_history":"[0,0,1,0,1]","location_rts":"[4141,1755,268,246,701]","trial_type":"two-door-navigation","trial_index":21,"time_elapsed":299757,"internal_node_id":"0.0-2.0-19.0"},{"group":"hexagon_bi","room_assignment":["yellow","red","blue","purple","green","grey"],"door_color_assignment":["black","white"],"door_generator_assignment":[0,1],"goal":0,"start":4,"action_noise":0,"location_history":"[4,3,4,5,0]","action_history":"[0,0,1,0]","door_history":"[0,0,1,0]","location_rts":"[6183,976,292,1443]","trial_type":"two-door-navigation","trial_index":22,"time_elapsed":316741,"internal_node_id":"0.0-2.0-20.0"},{"group":"hexagon_bi","room_assignment":["yellow","red","blue","purple","green","grey"],"door_color_assignment":["black","white"],"door_generator_assignment":[0,1],"goal":3,"start":0,"action_noise":0,"location_history":"[0,5,0,1,2,3]","action_history":"[0,0,1,0,1]","door_history":"[0,0,1,0,1]","location_rts":"[2813,2105,1441,253,464]","trial_type":"two-door-navigation","trial_index":23,"time_elapsed":332953,"internal_node_id":"0.0-2.0-21.0"},{"group":"hexagon_bi","room_assignment":["yellow","red","blue","purple","green","grey"],"door_color_assignment":["black","white"],"door_generator_assignment":[0,1],"goal":1,"start":3,"action_noise":0,"location_history":"[3,4,5,0,5,4,5,0,1]","action_history":"[0,1,0,0,1,1,0,1]","door_history":"[0,1,0,0,1,1,0,1]","location_rts":"[1972,1103,1016,600,308,293,623,327]","trial_type":"two-door-navigation","trial_index":24,"time_elapsed":351371,"internal_node_id":"0.0-2.0-22.0"},{"group":"hexagon_bi","room_assignment":["yellow","red","blue","purple","green","grey"],"door_color_assignment":["black","white"],"door_generator_assignment":[0,1],"goal":0,"start":1,"action_noise":0,"location_history":"[1,0]","action_history":"[1]","door_history":"[1]","location_rts":"[1486]","trial_type":"two-door-navigation","trial_index":25,"time_elapsed":357883,"internal_node_id":"0.0-2.0-23.0"},{"group":"hexagon_bi","room_assignment":["yellow","red","blue","purple","green","grey"],"door_color_assignment":["black","white"],"door_generator_assignment":[0,1],"goal":2,"start":0,"action_noise":0,"location_history":"[0,5,4,3,2]","action_history":"[0,1,0,1]","door_history":"[0,1,0,1]","location_rts":"[884,628,647,1124]","trial_type":"two-door-navigation","trial_index":26,"time_elapsed":369261,"internal_node_id":"0.0-2.0-24.0"},{"group":"hexagon_bi","room_assignment":["yellow","red","blue","purple","green","grey"],"door_color_assignment":["black","white"],"door_generator_assignment":[0,1],"goal":4,"start":2,"action_noise":0,"location_history":"[2,1,0,1,2,3,2,1,2,3,2,3,4]","action_history":"[0,1,1,0,1,1,0,0,1,1,1,0]","door_history":"[0,1,1,0,1,1,0,0,1,1,1,0]","location_rts":"[1021,303,381,286,404,320,328,270,303,307,347,208]","trial_type":"two-door-navigation","trial_index":27,"time_elapsed":389991,"internal_node_id":"0.0-2.0-25.0"},{"group":"hexagon_bi","room_assignment":["yellow","red","blue","purple","green","grey"],"door_color_assignment":["black","white"],"door_generator_assignment":[0,1],"goal":5,"start":4,"action_noise":0,"location_history":"[4,3,2,1,0,1,0,5]","action_history":"[0,1,0,1,1,1,0]","door_history":"[0,1,0,1,1,1,0]","location_rts":"[1113,308,286,592,318,331,216]","trial_type":"two-door-navigation","trial_index":28,"time_elapsed":404306,"internal_node_id":"0.0-2.0-26.0"},{"group":"hexagon_bi","room_assignment":["yellow","red","blue","purple","green","grey"],"door_color_assignment":["black","white"],"door_generator_assignment":[0,1],"goal":2,"start":5,"action_noise":0,"location_history":"[5,0,1,2]","action_history":"[0,1,0]","door_history":"[0,1,0]","location_rts":"[4347,1040,2407]","trial_type":"two-door-navigation","trial_index":29,"time_elapsed":419169,"internal_node_id":"0.0-2.0-27.0"},{"group":"hexagon_bi","room_assignment":["yellow","red","blue","purple","green","grey"],"door_color_assignment":["black","white"],"door_generator_assignment":[0,1],"goal":3,"start":2,"action_noise":0,"location_history":"[2,3]","action_history":"[1]","door_history":"[1]","location_rts":"[2619]","trial_type":"two-door-navigation","trial_index":30,"time_elapsed":426814,"internal_node_id":"0.0-2.0-28.0"},{"group":"hexagon_bi","room_assignment":["yellow","red","blue","purple","green","grey"],"door_color_assignment":["black","white"],"door_generator_assignment":[0,1],"goal":1,"start":3,"action_noise":0,"location_history":"[3,4,5,4,5,0,1]","action_history":"[0,1,1,1,0,1]","door_history":"[0,1,1,1,0,1]","location_rts":"[2590,3618,244,612,301,729]","trial_type":"two-door-navigation","trial_index":31,"time_elapsed":445039,"internal_node_id":"0.0-2.0-29.0"},{"group":"hexagon_bi","room_assignment":["yellow","red","blue","purple","green","grey"],"door_color_assignment":["black","white"],"door_generator_assignment":[0,1],"goal":4,"start":1,"action_noise":0,"location_history":"[1,2,3,4]","action_history":"[0,1,0]","door_history":"[0,1,0]","location_rts":"[16501,425,516]","trial_type":"two-door-navigation","trial_index":32,"time_elapsed":469551,"internal_node_id":"0.0-2.0-30.0"},{"group":"hexagon_bi","room_assignment":["yellow","red","blue","purple","green","grey"],"door_color_assignment":["black","white"],"door_generator_assignment":[0,1],"goal":5,"start":4,"action_noise":0,"location_history":"[4,3,2,1,2,3,2,3,4,5]","action_history":"[0,1,0,0,1,1,1,0,1]","door_history":"[0,1,0,0,1,1,1,0,1]","location_rts":"[7909,544,592,555,292,272,299,335,284]","trial_type":"two-door-navigation","trial_index":33,"time_elapsed":493831,"internal_node_id":"0.0-2.0-31.0"},{"group":"hexagon_bi","room_assignment":["yellow","red","blue","purple","green","grey"],"door_color_assignment":["black","white"],"door_generator_assignment":[0,1],"goal":0,"start":5,"action_noise":0,"location_history":"[5,0]","action_history":"[0]","door_history":"[0]","location_rts":"[4058]","trial_type":"two-door-navigation","trial_index":34,"time_elapsed":502915,"internal_node_id":"0.0-2.0-32.0"},{"group":"hexagon_bi","room_assignment":["yellow","red","blue","purple","green","grey"],"door_color_assignment":["black","white"],"door_generator_assignment":[0,1],"goal":2,"start":0,"action_noise":0,"location_history":"[0,5,4,3,4,5,4,3,2]","action_history":"[0,1,0,0,1,1,0,1]","door_history":"[0,1,0,0,1,1,0,1]","location_rts":"[3888,712,360,482,387,665,711,316]","trial_type":"two-door-navigation","trial_index":35,"time_elapsed":522620,"internal_node_id":"0.0-2.0-33.0"},{"group":"hexagon_bi","room_assignment":["yellow","red","blue","purple","green","grey"],"door_color_assignment":["black","white"],"door_generator_assignment":[0,1],"goal":0,"start":2,"action_noise":0,"location_history":"[2,1,0]","action_history":"[0,1]","door_history":"[0,1]","location_rts":"[2185,643]","trial_type":"two-door-navigation","trial_index":36,"time_elapsed":531497,"internal_node_id":"0.0-2.0-34.0"},{"group":"hexagon_bi","room_assignment":["yellow","red","blue","purple","green","grey"],"door_color_assignment":["black","white"],"door_generator_assignment":[0,1],"goal":5,"start":0,"action_noise":0,"location_history":"[0,5]","action_history":"[0]","door_history":"[0]","location_rts":"[1513]","trial_type":"two-door-navigation","trial_index":37,"time_elapsed":538036,"internal_node_id":"0.0-2.0-35.0"},{"group":"hexagon_bi","room_assignment":["yellow","red","blue","purple","green","grey"],"door_color_assignment":["black","white"],"door_generator_assignment":[0,1],"goal":1,"start":5,"action_noise":0,"location_history":"[5,0,1]","action_history":"[0,1]","door_history":"[0,1]","location_rts":"[3604,1316]","trial_type":"two-door-navigation","trial_index":38,"time_elapsed":549002,"internal_node_id":"0.0-2.0-36.0"},{"group":"hexagon_bi","room_assignment":["yellow","red","blue","purple","green","grey"],"door_color_assignment":["black","white"],"door_generator_assignment":[0,1],"goal":4,"start":1,"action_noise":0,"location_history":"[1,2,3,4]","action_history":"[0,1,0]","door_history":"[0,1,0]","location_rts":"[3941,2596,923]","trial_type":"two-door-navigation","trial_index":39,"time_elapsed":563534,"internal_node_id":"0.0-2.0-37.0"},{"group":"hexagon_bi","room_assignment":["yellow","red","blue","purple","green","grey"],"door_color_assignment":["black","white"],"door_generator_assignment":[0,1],"goal":3,"start":4,"action_noise":0,"location_history":"[4,3]","action_history":"[0]","door_history":"[0]","location_rts":"[1555]","trial_type":"two-door-navigation","trial_index":40,"time_elapsed":570117,"internal_node_id":"0.0-2.0-38.0"},{"group":"hexagon_bi","room_assignment":["yellow","red","blue","purple","green","grey"],"door_color_assignment":["black","white"],"door_generator_assignment":[0,1],"goal":5,"start":3,"action_noise":0,"location_history":"[3,4,3,4,5]","action_history":"[0,0,0,1]","door_history":"[0,0,0,1]","location_rts":"[2298,1731,323,230]","trial_type":"two-door-navigation","trial_index":41,"time_elapsed":582794,"internal_node_id":"0.0-2.0-39.0"},{"group":"hexagon_bi","room_assignment":["yellow","red","blue","purple","green","grey"],"door_color_assignment":["black","white"],"door_generator_assignment":[0,1],"goal":1,"start":5,"action_noise":0,"location_history":"[5,0,1]","action_history":"[0,1]","door_history":"[0,1]","location_rts":"[2576,701]","trial_type":"two-door-navigation","trial_index":42,"time_elapsed":592122,"internal_node_id":"0.0-2.0-40.0"},{"group":"hexagon_bi","room_assignment":["yellow","red","blue","purple","green","grey"],"door_color_assignment":["black","white"],"door_generator_assignment":[0,1],"goal":2,"start":1,"action_noise":0,"location_history":"[1,2]","action_history":"[0]","door_history":"[0]","location_rts":"[2874]","trial_type":"two-door-navigation","trial_index":43,"time_elapsed":600022,"internal_node_id":"0.0-2.0-41.0"},{"group":"hexagon_bi","room_assignment":["yellow","red","blue","purple","green","grey"],"door_color_assignment":["black","white"],"door_generator_assignment":[0,1],"goal":4,"start":2,"action_noise":0,"location_history":"[2,1,0,5,0,1,0,5,4]","action_history":"[0,1,0,0,1,1,0,1]","door_history":"[0,1,0,0,1,1,0,1]","location_rts":"[3873,1021,743,399,255,251,352,312]","trial_type":"two-door-navigation","trial_index":44,"time_elapsed":619437,"internal_node_id":"0.0-2.0-42.0"},{"group":"hexagon_bi","room_assignment":["yellow","red","blue","purple","green","grey"],"door_color_assignment":["black","white"],"door_generator_assignment":[0,1],"goal":0,"start":4,"action_noise":0,"location_history":"[4,3,4,3,2,1,0]","action_history":"[0,0,0,1,0,1]","door_history":"[0,0,0,1,0,1]","location_rts":"[6607,1048,1009,277,1595,1320]","trial_type":"two-door-navigation","trial_index":45,"time_elapsed":641428,"internal_node_id":"0.0-2.0-43.0"},{"group":"hexagon_bi","room_assignment":["yellow","red","blue","purple","green","grey"],"door_color_assignment":["black","white"],"door_generator_assignment":[0,1],"goal":3,"start":0,"action_noise":0,"location_history":"[0,5,4,3]","action_history":"[0,1,0]","door_history":"[0,1,0]","location_rts":"[5499,1211,1073]","trial_type":"two-door-navigation","trial_index":46,"time_elapsed":656278,"internal_node_id":"0.0-2.0-44.0"},{"group":"hexagon_bi","room_assignment":["yellow","red","blue","purple","green","grey"],"door_color_assignment":["black","white"],"door_generator_assignment":[0,1],"goal":0,"start":3,"action_noise":0,"location_history":"[3,4,5,0]","action_history":"[0,1,0]","door_history":"[0,1,0]","location_rts":"[2958,1214,1087]","trial_type":"two-door-navigation","trial_index":47,"time_elapsed":668608,"internal_node_id":"0.0-2.0-45.0"},{"group":"hexagon_bi","room_assignment":["yellow","red","blue","purple","green","grey"],"door_color_assignment":["black","white"],"door_generator_assignment":[0,1],"goal":4,"start":0,"action_noise":0,"location_history":"[0,5,4]","action_history":"[0,1]","door_history":"[0,1]","location_rts":"[6422,905]","trial_type":"two-door-navigation","trial_index":48,"time_elapsed":681981,"internal_node_id":"0.0-2.0-46.0"},{"group":"hexagon_bi","room_assignment":["yellow","red","blue","purple","green","grey"],"door_color_assignment":["black","white"],"door_generator_assignment":[0,1],"goal":5,"start":4,"action_noise":0,"location_history":"[4,3,4,5]","action_history":"[0,0,1]","door_history":"[0,0,1]","location_rts":"[5130,1583,224]","trial_type":"two-door-navigation","trial_index":49,"time_elapsed":695985,"internal_node_id":"0.0-2.0-47.0"},{"group":"hexagon_bi","room_assignment":["yellow","red","blue","purple","green","grey"],"door_color_assignment":["black","white"],"door_generator_assignment":[0,1],"goal":2,"start":5,"action_noise":0,"location_history":"[5,4,3,2]","action_history":"[1,0,1]","door_history":"[1,0,1]","location_rts":"[6949,1526,687]","trial_type":"two-door-navigation","trial_index":50,"time_elapsed":712216,"internal_node_id":"0.0-2.0-48.0"},{"group":"hexagon_bi","room_assignment":["yellow","red","blue","purple","green","grey"],"door_color_assignment":["black","white"],"door_generator_assignment":[0,1],"goal":1,"start":2,"action_noise":0,"location_history":"[2,1]","action_history":"[0]","door_history":"[0]","location_rts":"[13009]","trial_type":"two-door-navigation","trial_index":51,"time_elapsed":730251,"internal_node_id":"0.0-2.0-49.0"},{"view_history":"[{\"page_index\":0,\"viewing_time\":1918}]","rt":1918,"trial_type":"instructions","trial_index":52,"time_elapsed":733169,"internal_node_id":"0.0-3.0"},{"view_history":"[{\"page_index\":0,\"viewing_time\":1698},{\"page_index\":1,\"viewing_time\":16038}]","rt":17737,"trial_type":"instructions","trial_index":53,"time_elapsed":751908,"internal_node_id":"0.0-4.0"},{"group":"hexagon_tri","fractal_assignment":["../images/org_blu.png","../images/ylw_slt.png","../images/gry_blk.png","../images/pnk_blu.png","../images/cyn_red.png","../images/blu_wht.png"],"mutagen_generator_assignment":[1,0],"goal":2,"start":1,"action_noise":0,"location_history":"[1,5,4,0,5,4,2]","action_history":"[1,0,0,0,0,1]","mutagen_history":"[0,1,1,1,1,0]","location_rts":"[650,101,85,106,99,26]","trial_type":"fractal-mutation","trial_index":54,"time_elapsed":763244,"internal_node_id":"0.0-5.0-0.0"},{"group":"hexagon_tri","fractal_assignment":["../images/org_blu.png","../images/ylw_slt.png","../images/gry_blk.png","../images/pnk_blu.png","../images/cyn_red.png","../images/blu_wht.png"],"mutagen_generator_assignment":[1,0],"goal":0,"start":2,"action_noise":0,"location_history":"[2,3,2,1,3,2,3,4,0]","action_history":"[1,0,0,0,0,1,1,0]","mutagen_history":"[0,1,1,1,1,0,0,1]","location_rts":"[755,114,47,170,117,31,160,89]","trial_type":"fractal-mutation","trial_index":55,"time_elapsed":777053,"internal_node_id":"0.0-5.0-1.0"},{"group":"hexagon_tri","fractal_assignment":["../images/org_blu.png","../images/ylw_slt.png","../images/gry_blk.png","../images/pnk_blu.png","../images/cyn_red.png","../images/blu_wht.png"],"mutagen_generator_assignment":[1,0],"goal":5,"start":0,"action_noise":0,"location_history":"[0,5]","action_history":"[0]","mutagen_history":"[1]","location_rts":"[295]","trial_type":"fractal-mutation","trial_index":56,"time_elapsed":782393,"internal_node_id":"0.0-5.0-2.0"},{"group":"hexagon_tri","fractal_assignment":["../images/org_blu.png","../images/ylw_slt.png","../images/gry_blk.png","../images/pnk_blu.png","../images/cyn_red.png","../images/blu_wht.png"],"mutagen_generator_assignment":[1,0],"goal":1,"start":5,"action_noise":0,"location_history":"[5,0,1]","action_history":"[1,1]","mutagen_history":"[0,0]","location_rts":"[2578,42]","trial_type":"fractal-mutation","trial_index":57,"time_elapsed":791067,"internal_node_id":"0.0-5.0-3.0"},{"group":"hexagon_tri","fractal_assignment":["../images/org_blu.png","../images/ylw_slt.png","../images/gry_blk.png","../images/pnk_blu.png","../images/cyn_red.png","../images/blu_wht.png"],"mutagen_generator_assignment":[1,0],"goal":3,"start":1,"action_noise":0,"location_history":"[1,3]","action_history":"[0]","mutagen_history":"[1]","location_rts":"[211]","trial_type":"fractal-mutation","trial_index":58,"time_elapsed":796314,"internal_node_id":"0.0-5.0-4.0"},{"group":"hexagon_tri","fractal_assignment":["../images/org_blu.png","../images/ylw_slt.png","../images/gry_blk.png","../images/pnk_blu.png","../images/cyn_red.png","../images/blu_wht.png"],"mutagen_generator_assignment":[1,0],"goal":5,"start":3,"action_noise":0,"location_history":"[3,2,3,4,0,5]","action_history":"[0,1,1,0,0]","mutagen_history":"[1,0,0,1,1]","location_rts":"[728,299,27,166,145]","trial_type":"fractal-mutation","trial_index":59,"time_elapsed":806836,"internal_node_id":"0.0-5.0-5.0"},{"group":"hexagon_tri","fractal_assignment":["../images/org_blu.png","../images/ylw_slt.png","../images/gry_blk.png","../images/pnk_blu.png","../images/cyn_red.png","../images/blu_wht.png"],"mutagen_generator_assignment":[1,0],"goal":4,"start":5,"action_noise":0,"location_history":"[5,4]","action_history":"[0]","mutagen_history":"[1]","location_rts":"[242]","trial_type":"fractal-mutation","trial_index":60,"time_elapsed":812120,"internal_node_id":"0.0-5.0-6.0"},{"group":"hexagon_tri","fractal_assignment":["../images/org_blu.png","../images/ylw_slt.png","../images/gry_blk.png","../images/pnk_blu.png","../images/cyn_red.png","../images/blu_wht.png"],"mutagen_generator_assignment":[1,0],"goal":0,"start":4,"action_noise":0,"location_history":"[4,2,3,2,1,3,4,0]","action_history":"[1,1,0,0,0,1,0]","mutagen_history":"[0,0,1,1,1,0,1]","location_rts":"[81,125,7,99,673,181,47]","trial_type":"fractal-mutation","trial_index":61,"time_elapsed":824584,"internal_node_id":"0.0-5.0-7.0"},{"group":"hexagon_tri","fractal_assignment":["../images/org_blu.png","../images/ylw_slt.png","../images/gry_blk.png","../images/pnk_blu.png","../images/cyn_red.png","../images/blu_wht.png"],"mutagen_generator_assignment":[1,0],"goal":2,"start":0,"action_noise":0,"location_history":"[0,5,4,0,1,3,2]","action_history":"[0,0,0,1,0,0]","mutagen_history":"[1,1,1,0,1,1]","location_rts":"[375,17,26,249,12,92]","trial_type":"fractal-mutation","trial_index":62,"time_elapsed":835577,"internal_node_id":"0.0-5.0-8.0"},{"group":"hexagon_tri","fractal_assignment":["../images/org_blu.png","../images/ylw_slt.png","../images/gry_blk.png","../images/pnk_blu.png","../images/cyn_red.png","../images/blu_wht.png"],"mutagen_generator_assignment":[1,0],"goal":4,"start":2,"action_noise":0,"location_history":"[2,3,4]","action_history":"[1,1]","mutagen_history":"[0,0]","location_rts":"[563,60]","trial_type":"fractal-mutation","trial_index":63,"time_elapsed":842262,"internal_node_id":"0.0-5.0-9.0"},{"group":"hexagon_tri","fractal_assignment":["../images/org_blu.png","../images/ylw_slt.png","../images/gry_blk.png","../images/pnk_blu.png","../images/cyn_red.png","../images/blu_wht.png"],"mutagen_generator_assignment":[1,0],"goal":2,"start":4,"action_noise":0,"location_history":"[4,2]","action_history":"[1]","mutagen_history":"[0]","location_rts":"[280]","trial_type":"fractal-mutation","trial_index":64,"time_elapsed":847585,"internal_node_id":"0.0-5.0-10.0"},{"group":"hexagon_tri","fractal_assignment":["../images/org_blu.png","../images/ylw_slt.png","../images/gry_blk.png","../images/pnk_blu.png","../images/cyn_red.png","../images/blu_wht.png"],"mutagen_generator_assignment":[1,0],"goal":3,"start":2,"action_noise":0,"location_history":"[2,1,5,4,0,5,0,5,4,0,5,4,2,1,3]","action_history":"[0,1,0,0,0,1,0,0,0,0,0,1,0,0]","mutagen_history":"[1,0,1,1,1,0,1,1,1,1,1,0,1,1]","location_rts":"[453,262,399,33,203,69,220,121,70,24,175,131,372,29]","trial_type":"fractal-mutation","trial_index":65,"time_elapsed":868659,"internal_node_id":"0.0-5.0-11.0"},{"group":"hexagon_tri","fractal_assignment":["../images/org_blu.png","../images/ylw_slt.png","../images/gry_blk.png","../images/pnk_blu.png","../images/cyn_red.png","../images/blu_wht.png"],"mutagen_generator_assignment":[1,0],"goal":0,"start":3,"action_noise":0,"location_history":"[3,2,3,4,2,3,2,1,3,2,3,2,1,3,2,3,2,1,3,2,3,2,3,2,1,3,4,2,1,3,4,2,3,4,0]","action_history":"[0,1,1,1,1,0,0,0,0,1,0,0,0,0,1,0,0,0,0,1,0,1,0,0,0,1,1,0,0,1,1,1,1,0]","mutagen_history":"[1,0,0,0,0,1,1,1,1,0,1,1,1,1,0,1,1,1,1,0,1,0,1,1,1,0,0,1,1,0,0,0,0,1]","location_rts":"[1492,257,153,140,314,323,212,63,179,137,259,1019,190,428,69,107,85,64,517,173,238,156,234,8,417,45,72,173,773,213,133,48,287,37]","trial_type":"fractal-mutation","trial_index":66,"time_elapsed":916812,"internal_node_id":"0.0-5.0-12.0"},{"group":"hexagon_tri","fractal_assignment":["../images/org_blu.png","../images/ylw_slt.png","../images/gry_blk.png","../images/pnk_blu.png","../images/cyn_red.png","../images/blu_wht.png"],"mutagen_generator_assignment":[1,0],"goal":5,"start":0,"action_noise":0,"location_history":"[0,5]","action_history":"[0]","mutagen_history":"[1]","location_rts":"[395]","trial_type":"fractal-mutation","trial_index":67,"time_elapsed":922254,"internal_node_id":"0.0-5.0-13.0"},{"group":"hexagon_tri","fractal_assignment":["../images/org_blu.png","../images/ylw_slt.png","../images/gry_blk.png","../images/pnk_blu.png","../images/cyn_red.png","../images/blu_wht.png"],"mutagen_generator_assignment":[1,0],"goal":1,"start":5,"action_noise":0,"location_history":"[5,0,5,4,0,5,4,0,1]","action_history":"[1,0,0,0,0,0,0,1]","mutagen_history":"[0,1,1,1,1,1,1,0]","location_rts":"[944,118,131,230,155,4220,79,29]","trial_type":"fractal-mutation","trial_index":68,"time_elapsed":940465,"internal_node_id":"0.0-5.0-14.0"},{"group":"hexagon_tri","fractal_assignment":["../images/org_blu.png","../images/ylw_slt.png","../images/gry_blk.png","../images/pnk_blu.png","../images/cyn_red.png","../images/blu_wht.png"],"mutagen_generator_assignment":[1,0],"goal":5,"start":1,"action_noise":0,"location_history":"[1,3,4,2,1,3,4,0,1,3,2,3,4,0,1,5]","action_history":"[0,1,1,0,0,1,0,1,0,0,1,1,0,1,1]","mutagen_history":"[1,0,0,1,1,0,1,0,1,1,0,0,1,0,0]","location_rts":"[205,175,47,107,426,99,466,42,10,177,74,15,173,122,97]","trial_type":"fractal-mutation","trial_index":69,"time_elapsed":962202,"internal_node_id":"0.0-5.0-15.0"},{"group":"hexagon_tri","fractal_assignment":["../images/org_blu.png","../images/ylw_slt.png","../images/gry_blk.png","../images/pnk_blu.png","../images/cyn_red.png","../images/blu_wht.png"],"mutagen_generator_assignment":[1,0],"goal":3,"start":5,"action_noise":0,"location_history":"[5,0,1,3]","action_history":"[1,1,0]","mutagen_history":"[0,0,1]","location_rts":"[362,205,89]","trial_type":"fractal-mutation","trial_index":70,"time_elapsed":969962,"internal_node_id":"0.0-5.0-16.0"},{"group":"hexagon_tri","fractal_assignment":["../images/org_blu.png","../images/ylw_slt.png","../images/gry_blk.png","../images/pnk_blu.png","../images/cyn_red.png","../images/blu_wht.png"],"mutagen_generator_assignment":[1,0],"goal":2,"start":3,"action_noise":0,"location_history":"[3,2]","action_history":"[0]","mutagen_history":"[1]","location_rts":"[288]","trial_type":"fractal-mutation","trial_index":71,"time_elapsed":975282,"internal_node_id":"0.0-5.0-17.0"},{"group":"hexagon_tri","fractal_assignment":["../images/org_blu.png","../images/ylw_slt.png","../images/gry_blk.png","../images/pnk_blu.png","../images/cyn_red.png","../images/blu_wht.png"],"mutagen_generator_assignment":[1,0],"goal":1,"start":2,"action_noise":0,"location_history":"[2,1]","action_history":"[0]","mutagen_history":"[1]","location_rts":"[400]","trial_type":"fractal-mutation","trial_index":72,"time_elapsed":980718,"internal_node_id":"0.0-5.0-18.0"},{"group":"hexagon_tri","fractal_assignment":["../images/org_blu.png","../images/ylw_slt.png","../images/gry_blk.png","../images/pnk_blu.png","../images/cyn_red.png","../images/blu_wht.png"],"mutagen_generator_assignment":[1,0],"goal":4,"start":1,"action_noise":0,"location_history":"[1,3,2,1,5,0,5,4]","action_history":"[0,0,0,1,1,0,0]","mutagen_history":"[1,1,1,0,0,1,1]","location_rts":"[744,14,322,103,182,105,205]","trial_type":"fractal-mutation","trial_index":73,"time_elapsed":993640,"internal_node_id":"0.0-5.0-19.0"},{"group":"hexagon_tri","fractal_assignment":["../images/org_blu.png","../images/ylw_slt.png","../images/gry_blk.png","../images/pnk_blu.png","../images/cyn_red.png","../images/blu_wht.png"],"mutagen_generator_assignment":[1,0],"goal":0,"start":4,"action_noise":0,"location_history":"[4,2,1,3,2,3,2,1,5,4,0]","action_history":"[1,0,0,0,1,0,0,1,0,0]","mutagen_history":"[0,1,1,1,0,1,1,0,1,1]","location_rts":"[973,102,77,12,139,508,338,608,482,1219]","trial_type":"fractal-mutation","trial_index":74,"time_elapsed":1012443,"internal_node_id":"0.0-5.0-20.0"},{"group":"hexagon_tri","fractal_assignment":["../images/org_blu.png","../images/ylw_slt.png","../images/gry_blk.png","../images/pnk_blu.png","../images/cyn_red.png","../images/blu_wht.png"],"mutagen_generator_assignment":[1,0],"goal":3,"start":0,"action_noise":0,"location_history":"[0,5,4,0,5,4,2,1,5,4,2,3]","action_history":"[0,0,0,0,0,1,0,1,0,1,1]","mutagen_history":"[1,1,1,1,1,0,1,0,1,0,0]","location_rts":"[1604,500,346,1161,85,678,13,193,192,59,10]","trial_type":"fractal-mutation","trial_index":75,"time_elapsed":1032669,"internal_node_id":"0.0-5.0-21.0"},{"group":"hexagon_tri","fractal_assignment":["../images/org_blu.png","../images/ylw_slt.png","../images/gry_blk.png","../images/pnk_blu.png","../images/cyn_red.png","../images/blu_wht.png"],"mutagen_generator_assignment":[1,0],"goal":1,"start":3,"action_noise":0,"location_history":"[3,4,2,3,4,2,3,4,0,1]","action_history":"[1,1,1,1,1,1,1,0,1]","mutagen_history":"[0,0,0,0,0,0,0,1,0]","location_rts":"[484,70,90,52,790,24,130,203,23]","trial_type":"fractal-mutation","trial_index":76,"time_elapsed":1047802,"internal_node_id":"0.0-5.0-22.0"},{"group":"hexagon_tri","fractal_assignment":["../images/org_blu.png","../images/ylw_slt.png","../images/gry_blk.png","../images/pnk_blu.png","../images/cyn_red.png","../images/blu_wht.png"],"mutagen_generator_assignment":[1,0],"goal":0,"start":1,"action_noise":0,"location_history":"[1,5,4,0]","action_history":"[1,0,0]","mutagen_history":"[0,1,1]","location_rts":"[403,21,65]","trial_type":"fractal-mutation","trial_index":77,"time_elapsed":1055392,"internal_node_id":"0.0-5.0-23.0"},{"group":"hexagon_tri","fractal_assignment":["../images/org_blu.png","../images/ylw_slt.png","../images/gry_blk.png","../images/pnk_blu.png","../images/cyn_red.png","../images/blu_wht.png"],"mutagen_generator_assignment":[1,0],"goal":2,"start":0,"action_noise":0,"location_history":"[0,5,4,0,5,4,2]","action_history":"[0,0,0,0,0,1]","mutagen_history":"[1,1,1,1,1,0]","location_rts":"[718,621,39,29,8,13]","trial_type":"fractal-mutation","trial_index":78,"time_elapsed":1067040,"internal_node_id":"0.0-5.0-24.0"},{"group":"hexagon_tri","fractal_assignment":["../images/org_blu.png","../images/ylw_slt.png","../images/gry_blk.png","../images/pnk_blu.png","../images/cyn_red.png","../images/blu_wht.png"],"mutagen_generator_assignment":[1,0],"goal":4,"start":2,"action_noise":0,"location_history":"[2,1,3,2,1,3,4]","action_history":"[0,0,0,0,0,1]","mutagen_history":"[1,1,1,1,1,0]","location_rts":"[425,129,14,71,64,104]","trial_type":"fractal-mutation","trial_index":79,"time_elapsed":1078059,"internal_node_id":"0.0-5.0-25.0"},{"group":"hexagon_tri","fractal_assignment":["../images/org_blu.png","../images/ylw_slt.png","../images/gry_blk.png","../images/pnk_blu.png","../images/cyn_red.png","../images/blu_wht.png"],"mutagen_generator_assignment":[1,0],"goal":5,"start":4,"action_noise":0,"location_history":"[4,0,5]","action_history":"[0,0]","mutagen_history":"[1,1]","location_rts":"[808,140]","trial_type":"fractal-mutation","trial_index":80,"time_elapsed":1085091,"internal_node_id":"0.0-5.0-26.0"},{"group":"hexagon_tri","fractal_assignment":["../images/org_blu.png","../images/ylw_slt.png","../images/gry_blk.png","../images/pnk_blu.png","../images/cyn_red.png","../images/blu_wht.png"],"mutagen_generator_assignment":[1,0],"goal":2,"start":5,"action_noise":0,"location_history":"[5,0,5,0,1,5,4,0,5,0,1,5,0,1,5,0,1,3,4,0,5,0,1,3,2]","action_history":"[1,0,1,1,1,0,0,0,1,1,1,1,1,1,1,1,0,1,0,0,1,1,0,0]","mutagen_history":"[0,1,0,0,0,1,1,1,0,0,0,0,0,0,0,0,1,0,1,1,0,0,1,1]","location_rts":"[437,104,39,91,8,177,30,87,89,228,81,157,126,215,90,25,7,93,289,15,52,68,147,74]","trial_type":"fractal-mutation","trial_index":81,"time_elapsed":1116582,"internal_node_id":"0.0-5.0-27.0"},{"group":"hexagon_tri","fractal_assignment":["../images/org_blu.png","../images/ylw_slt.png","../images/gry_blk.png","../images/pnk_blu.png","../images/cyn_red.png","../images/blu_wht.png"],"mutagen_generator_assignment":[1,0],"goal":3,"start":2,"action_noise":0,"location_history":"[2,1,5,4,0,1,5,0,5,4,0,1,3]","action_history":"[0,1,0,0,1,1,1,0,0,0,1,0]","mutagen_history":"[1,0,1,1,0,0,0,1,1,1,0,1]","location_rts":"[456,90,184,43,30,55,13,158,28,156,117,87]","trial_type":"fractal-mutation","trial_index":82,"time_elapsed":1134411,"internal_node_id":"0.0-5.0-28.0"},{"group":"hexagon_tri","fractal_assignment":["../images/org_blu.png","../images/ylw_slt.png","../images/gry_blk.png","../images/pnk_blu.png","../images/cyn_red.png","../images/blu_wht.png"],"mutagen_generator_assignment":[1,0],"goal":1,"start":3,"action_noise":0,"location_history":"[3,4,2,3,4,0,5,4,2,1]","action_history":"[1,1,1,1,0,0,0,1,0]","mutagen_history":"[0,0,0,0,1,1,1,0,1]","location_rts":"[391,597,31,104,93,11,176,156,38]","trial_type":"fractal-mutation","trial_index":83,"time_elapsed":1149283,"internal_node_id":"0.0-5.0-29.0"},{"group":"hexagon_tri","fractal_assignment":["../images/org_blu.png","../images/ylw_slt.png","../images/gry_blk.png","../images/pnk_blu.png","../images/cyn_red.png","../images/blu_wht.png"],"mutagen_generator_assignment":[1,0],"goal":4,"start":1,"action_noise":0,"location_history":"[1,3,4]","action_history":"[0,1]","mutagen_history":"[1,0]","location_rts":"[100,179]","trial_type":"fractal-mutation","trial_index":84,"time_elapsed":1155628,"internal_node_id":"0.0-5.0-30.0"},{"group":"hexagon_tri","fractal_assignment":["../images/org_blu.png","../images/ylw_slt.png","../images/gry_blk.png","../images/pnk_blu.png","../images/cyn_red.png","../images/blu_wht.png"],"mutagen_generator_assignment":[1,0],"goal":5,"start":4,"action_noise":0,"location_history":"[4,2,3,4,2,3,4,0,5]","action_history":"[1,1,1,1,1,1,0,0]","mutagen_history":"[0,0,0,0,0,0,1,1]","location_rts":"[3778,174,740,9,56,25,68,87]","trial_type":"fractal-mutation","trial_index":85,"time_elapsed":1172811,"internal_node_id":"0.0-5.0-31.0"},{"group":"hexagon_tri","fractal_assignment":["../images/org_blu.png","../images/ylw_slt.png","../images/gry_blk.png","../images/pnk_blu.png","../images/cyn_red.png","../images/blu_wht.png"],"mutagen_generator_assignment":[1,0],"goal":0,"start":5,"action_noise":0,"location_history":"[5,0]","action_history":"[1]","mutagen_history":"[0]","location_rts":"[1116]","trial_type":"fractal-mutation","trial_index":86,"time_elapsed":1178960,"internal_node_id":"0.0-5.0-32.0"},{"group":"hexagon_tri","fractal_assignment":["../images/org_blu.png","../images/ylw_slt.png","../images/gry_blk.png","../images/pnk_blu.png","../images/cyn_red.png","../images/blu_wht.png"],"mutagen_generator_assignment":[1,0],"goal":2,"start":0,"action_noise":0,"location_history":"[0,5,4,0,1,3,4,2]","action_history":"[0,0,0,1,0,1,1]","mutagen_history":"[1,1,1,0,1,0,0]","location_rts":"[326,89,317,10,215,297,316]","trial_type":"fractal-mutation","trial_index":87,"time_elapsed":1191769,"internal_node_id":"0.0-5.0-33.0"},{"group":"hexagon_tri","fractal_assignment":["../images/org_blu.png","../images/ylw_slt.png","../images/gry_blk.png","../images/pnk_blu.png","../images/cyn_red.png","../images/blu_wht.png"],"mutagen_generator_assignment":[1,0],"goal":0,"start":2,"action_noise":0,"location_history":"[2,1,3,4,0]","action_history":"[0,0,1,0]","mutagen_history":"[1,1,0,1]","location_rts":"[736,281,668,85]","trial_type":"fractal-mutation","trial_index":88,"time_elapsed":1201674,"internal_node_id":"0.0-5.0-34.0"},{"group":"hexagon_tri","fractal_assignment":["../images/org_blu.png","../images/ylw_slt.png","../images/gry_blk.png","../images/pnk_blu.png","../images/cyn_red.png","../images/blu_wht.png"],"mutagen_generator_assignment":[1,0],"goal":5,"start":0,"action_noise":0,"location_history":"[0,5]","action_history":"[0]","mutagen_history":"[1]","location_rts":"[868]","trial_type":"fractal-mutation","trial_index":89,"time_elapsed":1207573,"internal_node_id":"0.0-5.0-35.0"},{"group":"hexagon_tri","fractal_assignment":["../images/org_blu.png","../images/ylw_slt.png","../images/gry_blk.png","../images/pnk_blu.png","../images/cyn_red.png","../images/blu_wht.png"],"mutagen_generator_assignment":[1,0],"goal":1,"start":5,"action_noise":0,"location_history":"[5,4,2,1]","action_history":"[0,1,0]","mutagen_history":"[1,0,1]","location_rts":"[475,408,749]","trial_type":"fractal-mutation","trial_index":90,"time_elapsed":1216338,"internal_node_id":"0.0-5.0-36.0"},{"group":"hexagon_tri","fractal_assignment":["../images/org_blu.png","../images/ylw_slt.png","../images/gry_blk.png","../images/pnk_blu.png","../images/cyn_red.png","../images/blu_wht.png"],"mutagen_generator_assignment":[1,0],"goal":4,"start":1,"action_noise":0,"location_history":"[1,5,4]","action_history":"[1,0]","mutagen_history":"[0,1]","location_rts":"[270,244]","trial_type":"fractal-mutation","trial_index":91,"time_elapsed":1222930,"internal_node_id":"0.0-5.0-37.0"},{"group":"hexagon_tri","fractal_assignment":["../images/org_blu.png","../images/ylw_slt.png","../images/gry_blk.png","../images/pnk_blu.png","../images/cyn_red.png","../images/blu_wht.png"],"mutagen_generator_assignment":[1,0],"goal":3,"start":4,"action_noise":0,"location_history":"[4,0,1,3]","action_history":"[0,1,0]","mutagen_history":"[1,0,1]","location_rts":"[460,220,269]","trial_type":"fractal-mutation","trial_index":92,"time_elapsed":1230994,"internal_node_id":"0.0-5.0-38.0"},{"group":"hexagon_tri","fractal_assignment":["../images/org_blu.png","../images/ylw_slt.png","../images/gry_blk.png","../images/pnk_blu.png","../images/cyn_red.png","../images/blu_wht.png"],"mutagen_generator_assignment":[1,0],"goal":5,"start":3,"action_noise":0,"location_history":"[3,4,0,1,3,2,1,5]","action_history":"[1,0,1,0,0,0,1]","mutagen_history":"[0,1,0,1,1,1,0]","location_rts":"[355,192,137,269,66,232,1644]","trial_type":"fractal-mutation","trial_index":93,"time_elapsed":1245144,"internal_node_id":"0.0-5.0-39.0"},{"group":"hexagon_tri","fractal_assignment":["../images/org_blu.png","../images/ylw_slt.png","../images/gry_blk.png","../images/pnk_blu.png","../images/cyn_red.png","../images/blu_wht.png"],"mutagen_generator_assignment":[1,0],"goal":1,"start":5,"action_noise":0,"location_history":"[5,4,0,5,0,5,4,2,1]","action_history":"[0,0,0,1,0,0,1,0]","mutagen_history":"[1,1,1,0,1,1,0,1]","location_rts":"[350,395,335,230,1223,965,56,21]","trial_type":"fractal-mutation","trial_index":94,"time_elapsed":1261036,"internal_node_id":"0.0-5.0-40.0"},{"group":"hexagon_tri","fractal_assignment":["../images/org_blu.png","../images/ylw_slt.png","../images/gry_blk.png","../images/pnk_blu.png","../images/cyn_red.png","../images/blu_wht.png"],"mutagen_generator_assignment":[1,0],"goal":2,"start":1,"action_noise":0,"location_history":"[1,5,0,1,3,2]","action_history":"[1,1,1,0,0]","mutagen_history":"[0,0,0,1,1]","location_rts":"[446,312,334,275,64]","trial_type":"fractal-mutation","trial_index":95,"time_elapsed":1271613,"internal_node_id":"0.0-5.0-41.0"},{"group":"hexagon_tri","fractal_assignment":["../images/org_blu.png","../images/ylw_slt.png","../images/gry_blk.png","../images/pnk_blu.png","../images/cyn_red.png","../images/blu_wht.png"],"mutagen_generator_assignment":[1,0],"goal":4,"start":2,"action_noise":0,"location_history":"[2,1,5,4]","action_history":"[0,1,0]","mutagen_history":"[1,0,1]","location_rts":"[661,90,121]","trial_type":"fractal-mutation","trial_index":96,"time_elapsed":1279597,"internal_node_id":"0.0-5.0-42.0"},{"group":"hexagon_tri","fractal_assignment":["../images/org_blu.png","../images/ylw_slt.png","../images/gry_blk.png","../images/pnk_blu.png","../images/cyn_red.png","../images/blu_wht.png"],"mutagen_generator_assignment":[1,0],"goal":0,"start":4,"action_noise":0,"location_history":"[4,2,1,3,4,2,1,3,2,3,2,1,5,4,2,1,3,2,3,2,3,4,0]","action_history":"[1,0,0,1,1,0,0,0,1,0,0,1,0,1,0,0,0,1,0,1,1,0]","mutagen_history":"[0,1,1,0,0,1,1,1,0,1,1,0,1,0,1,1,1,0,1,0,0,1]","location_rts":"[547,256,334,31,274,562,1222,32,33,188,44,134,963,215,105,196,143,170,125,349,55,64]","trial_type":"fractal-mutation","trial_index":97,"time_elapsed":1312382,"internal_node_id":"0.0-5.0-43.0"},{"group":"hexagon_tri","fractal_assignment":["../images/org_blu.png","../images/ylw_slt.png","../images/gry_blk.png","../images/pnk_blu.png","../images/cyn_red.png","../images/blu_wht.png"],"mutagen_generator_assignment":[1,0],"goal":3,"start":0,"action_noise":0,"location_history":"[0,5,4,0,1,3]","action_history":"[0,0,0,1,0]","mutagen_history":"[1,1,1,0,1]","location_rts":"[517,219,1101,56,73]","trial_type":"fractal-mutation","trial_index":98,"time_elapsed":1323533,"internal_node_id":"0.0-5.0-44.0"},{"group":"hexagon_tri","fractal_assignment":["../images/org_blu.png","../images/ylw_slt.png","../images/gry_blk.png","../images/pnk_blu.png","../images/cyn_red.png","../images/blu_wht.png"],"mutagen_generator_assignment":[1,0],"goal":0,"start":3,"action_noise":0,"location_history":"[3,2,3,2,1,5,0]","action_history":"[0,1,0,0,1,1]","mutagen_history":"[1,0,1,1,0,0]","location_rts":"[45,20,516,317,223,490]","trial_type":"fractal-mutation","trial_index":99,"time_elapsed":1335322,"internal_node_id":"0.0-5.0-45.0"},{"group":"hexagon_tri","fractal_assignment":["../images/org_blu.png","../images/ylw_slt.png","../images/gry_blk.png","../images/pnk_blu.png","../images/cyn_red.png","../images/blu_wht.png"],"mutagen_generator_assignment":[1,0],"goal":4,"start":0,"action_noise":0,"location_history":"[0,1,5,4]","action_history":"[1,1,0]","mutagen_history":"[0,0,1]","location_rts":"[322,49,152]","trial_type":"fractal-mutation","trial_index":100,"time_elapsed":1342936,"internal_node_id":"0.0-5.0-46.0"},{"group":"hexagon_tri","fractal_assignment":["../images/org_blu.png","../images/ylw_slt.png","../images/gry_blk.png","../images/pnk_blu.png","../images/cyn_red.png","../images/blu_wht.png"],"mutagen_generator_assignment":[1,0],"goal":5,"start":4,"action_noise":0,"location_history":"[4,0,5]","action_history":"[0,0]","mutagen_history":"[1,1]","location_rts":"[478,527]","trial_type":"fractal-mutation","trial_index":101,"time_elapsed":1350028,"internal_node_id":"0.0-5.0-47.0"},{"group":"hexagon_tri","fractal_assignment":["../images/org_blu.png","../images/ylw_slt.png","../images/gry_blk.png","../images/pnk_blu.png","../images/cyn_red.png","../images/blu_wht.png"],"mutagen_generator_assignment":[1,0],"goal":2,"start":5,"action_noise":0,"location_history":"[5,4,2]","action_history":"[0,1]","mutagen_history":"[1,0]","location_rts":"[1186,394]","trial_type":"fractal-mutation","trial_index":102,"time_elapsed":1357678,"internal_node_id":"0.0-5.0-48.0"},{"group":"hexagon_tri","fractal_assignment":["../images/org_blu.png","../images/ylw_slt.png","../images/gry_blk.png","../images/pnk_blu.png","../images/cyn_red.png","../images/blu_wht.png"],"mutagen_generator_assignment":[1,0],"goal":1,"start":2,"action_noise":0,"location_history":"[2,1]","action_history":"[0]","mutagen_history":"[1]","location_rts":"[867]","trial_type":"fractal-mutation","trial_index":103,"time_elapsed":1363583,"internal_node_id":"0.0-5.0-49.0"},{"view_history":"[{\"page_index\":0,\"viewing_time\":11122}]","rt":11123,"trial_type":"instructions","trial_index":104,"time_elapsed":1375708,"internal_node_id":"0.0-6.0"},{"rt":5903,"responses":"{\"Q0\":\"memory\"}","trial_type":"survey-text","trial_index":105,"time_elapsed":1382623,"internal_node_id":"0.0-7.0-0.0"},{"rt":7474,"responses":"{\"Q0\":\"not sure\"}","trial_type":"survey-text","trial_index":106,"time_elapsed":1391102,"internal_node_id":"0.0-7.0-1.0"},{"rt":155312,"responses":"{\"Q0\":\"<img src='../images/diagrams/hexagon_tri.png'>\"}","trial_type":"survey-multi-choice","trial_index":107,"time_elapsed":1547426,"internal_node_id":"0.0-7.0-2.0"},{"rt":22970,"assignments":["../images/org_blu.png","../images/gry_blk.png","../images/pnk_blu.png","../images/blu_wht.png","../images/ylw_slt.png","../images/cyn_red.png"],"trial_type":"drag-drop-on-image","trial_index":108,"time_elapsed":1571402,"internal_node_id":"0.0-7.0-3.0"},{"rt":4338,"responses":"{\"Q0\":\"1\"}","trial_type":"survey-likert","trial_index":109,"time_elapsed":1576748,"internal_node_id":"0.0-7.0-4.0"},{"rt":7803,"responses":"{\"Q0\":\"if that then that\"}","trial_type":"survey-text","trial_index":110,"time_elapsed":1585554,"internal_node_id":"0.0-7.0-5.0"},{"rt":5432,"responses":"{\"Q0\":\"No\"}","trial_type":"survey-multi-choice","trial_index":111,"time_elapsed":1591993,"internal_node_id":"0.0-7.0-6.0"},{"rt":5476,"responses":"{\"Q0\":\"During these questions/I wasn't aware until you pointed it out\"}","trial_type":"survey-multi-choice","trial_index":112,"time_elapsed":1598479,"internal_node_id":"0.0-7.0-7.0"},{"rt":2729,"responses":"{\"Q0\":\"\"}","trial_type":"survey-text","trial_index":113,"time_elapsed":1602209,"internal_node_id":"0.0-7.0-8.0"},{"rt":4851,"responses":"{\"Q0\":\"0\"}","trial_type":"survey-likert","trial_index":114,"time_elapsed":1608066,"internal_node_id":"0.0-7.0-9.0"},{"rt":7266,"responses":"{\"Q0\":\"Different structure\"}","trial_type":"survey-multi-choice","trial_index":115,"time_elapsed":1616338,"internal_node_id":"0.0-7.0-10.0"},{"rt":21140,"responses":"{\"Q0\":\"left (black) door = acid, right (white) door = ray\",\"Q1\":\"Not at all confident\"}","trial_type":"survey-multi-choice","trial_index":116,"time_elapsed":1638491,"internal_node_id":"0.0-7.0-11.0"},{"rt":7707,"responses":"{\"Q0\":\"35-45\",\"Q1\":\"Associates or other two-year degree\",\"Q2\":\"Male\",\"Q3\":\"White\"}","trial_type":"survey-multi-choice","trial_index":117,"time_elapsed":1647223,"internal_node_id":"0.0-8.0"},{"rt":11563,"responses":"{\"Q0\":\"it was fun\"}","trial_type":"survey-text","trial_index":118,"time_elapsed":1659789,"internal_node_id":"0.0-9.0"}]