[{"view_history":"[{\"page_index\":0,\"viewing_time\":134108},{\"page_index\":1,\"viewing_time\":5654}]","rt":139764,"trial_type":"instructions","trial_index":0,"time_elapsed":139767,"internal_node_id":"0.0-0.0"},{"view_history":"[{\"page_index\":0,\"viewing_time\":2271},{\"page_index\":1,\"viewing_time\":3836}]","rt":6108,"trial_type":"instructions","trial_index":1,"time_elapsed":146877,"internal_node_id":"0.0-1.0"},{"group":"hexagon_bi","room_assignment":["purple","grey","yellow","green","red","blue"],"door_color_assignment":["black","white"],"door_generator_assignment":[0,1],"goal":2,"start":1,"action_noise":0,"location_history":"[1,2]","action_history":"[0]","door_history":"[0]","location_rts":"[2612]","trial_type":"two-door-navigation","trial_index":2,"time_elapsed":154533,"internal_node_id":"0.0-2.0-0.0"},{"group":"hexagon_bi","room_assignment":["purple","grey","yellow","green","red","blue"],"door_color_assignment":["black","white"],"door_generator_assignment":[0,1],"goal":0,"start":2,"action_noise":0,"location_history":"[2,1,0]","action_history":"[0,1]","door_history":"[0,1]","location_rts":"[7208,751]","trial_type":"two-door-navigation","trial_index":3,"time_elapsed":168573,"internal_node_id":"0.0-2.0-1.0"},{"group":"hexagon_bi","room_assignment":["purple","grey","yellow","green","red","blue"],"door_color_assignment":["black","white"],"door_generator_assignment":[0,1],"goal":5,"start":0,"action_noise":0,"location_history":"[0,5]","action_history":"[0]","door_history":"[0]","location_rts":"[4488]","trial_type":"two-door-navigation","trial_index":4,"time_elapsed":178101,"internal_node_id":"0.0-2.0-2.0"},{"group":"hexagon_bi","room_assignment":["purple","grey","yellow","green","red","blue"],"door_color_assignment":["black","white"],"door_generator_assignment":[0,1],"goal":1,"start":5,"action_noise":0,"location_history":"[5,0,1]","action_history":"[0,1]","door_history":"[0,1]","location_rts":"[3825,1084]","trial_type":"two-door-navigation","trial_index":5,"time_elapsed":189457,"internal_node_id":"0.0-2.0-3.0"},{"group":"hexagon_bi","room_assignment":["purple","grey","yellow","green","red","blue"],"door_color_assignment":["black","white"],"door_generator_assignment":[0,1],"goal":3,"start":1,"action_noise":0,"location_history":"[1,2,3]","action_history":"[0,1]","door_history":"[0,1]","location_rts":"[5184,562]","trial_type":"two-door-navigation","trial_index":6,"time_elapsed":201289,"internal_node_id":"0.0-2.0-4.0"},{"group":"hexagon_bi","room_assignment":["purple","grey","yellow","green","red","blue"],"door_color_assignment":["black","white"],"door_generator_assignment":[0,1],"goal":5,"start":3,"action_noise":0,"location_history":"[3,4,5]","action_history":"[0,1]","door_history":"[0,1]","location_rts":"[10385,841]","trial_type":"two-door-navigation","trial_index":7,"time_elapsed":218603,"internal_node_id":"0.0-2.0-5.0"},{"group":"hexagon_bi","room_assignment":["purple","grey","yellow","green","red","blue"],"door_color_assignment":["black","white"],"door_generator_assignment":[0,1],"goal":4,"start":5,"action_noise":0,"location_history":"[5,4]","action_history":"[1]","door_history":"[1]","location_rts":"[2218]","trial_type":"two-door-navigation","trial_index":8,"time_elapsed":225867,"internal_node_id":"0.0-2.0-6.0"},{"group":"hexagon_bi","room_assignment":["purple","grey","yellow","green","red","blue"],"door_color_assignment":["black","white"],"door_generator_assignment":[0,1],"goal":0,"start":4,"action_noise":0,"location_history":"[4,3,2,1,0]","action_history":"[0,1,0,1]","door_history":"[0,1,0,1]","location_rts":"[2129,6914,1210,996]","trial_type":"two-door-navigation","trial_index":9,"time_elapsed":245255,"internal_node_id":"0.0-2.0-7.0"},{"group":"hexagon_bi","room_assignment":["purple","grey","yellow","green","red","blue"],"door_color_assignment":["black","white"],"door_generator_assignment":[0,1],"goal":2,"start":0,"action_noise":0,"location_history":"[0,5,4,3,2]","action_history":"[0,1,0,1]","door_history":"[0,1,0,1]","location_rts":"[2834,2540,387,909]","trial_type":"two-door-navigation","trial_index":10,"time_elapsed":260061,"internal_node_id":"0.0-2.0-8.0"},{"group":"hexagon_bi","room_assignment":["purple","grey","yellow","green","red","blue"],"door_color_assignment":["black","white"],"door_generator_assignment":[0,1],"goal":4,"start":2,"action_noise":0,"location_history":"[2,1,2,3,4]","action_history":"[0,0,1,0]","door_history":"[0,0,1,0]","location_rts":"[4316,1998,319,372]","trial_type":"two-door-navigation","trial_index":11,"time_elapsed":275235,"internal_node_id":"0.0-2.0-9.0"},{"group":"hexagon_bi","room_assignment":["purple","grey","yellow","green","red","blue"],"door_color_assignment":["black","white"],"door_generator_assignment":[0,1],"goal":2,"start":4,"action_noise":0,"location_history":"[4,3,2]","action_history":"[0,1]","door_history":"[0,1]","location_rts":"[2292,881]","trial_type":"two-door-navigation","trial_index":12,"time_elapsed":284490,"internal_node_id":"0.0-2.0-10.0"},{"group":"hexagon_bi","room_assignment":["purple","grey","yellow","green","red","blue"],"door_color_assignment":["black","white"],"door_generator_assignment":[0,1],"goal":3,"start":2,"action_noise":0,"location_history":"[2,3]","action_history":"[1]","door_history":"[1]","location_rts":"[5940]","trial_type":"two-door-navigation","trial_index":13,"time_elapsed":295468,"internal_node_id":"0.0-2.0-11.0"},{"group":"hexagon_bi","room_assignment":["purple","grey","yellow","green","red","blue"],"door_color_assignment":["black","white"],"door_generator_assignment":[0,1],"goal":0,"start":3,"action_noise":0,"location_history":"[3,4,3,2,1,0]","action_history":"[0,0,1,0,1]","door_history":"[0,0,1,0,1]","location_rts":"[5686,4270,358,309,349]","trial_type":"two-door-navigation","trial_index":14,"time_elapsed":315644,"internal_node_id":"0.0-2.0-12.0"},{"group":"hexagon_bi","room_assignment":["purple","grey","yellow","green","red","blue"],"door_color_assignment":["black","white"],"door_generator_assignment":[0,1],"goal":5,"start":0,"action_noise":0,"location_history":"[0,5]","action_history":"[0]","door_history":"[0]","location_rts":"[1867]","trial_type":"two-door-navigation","trial_index":15,"time_elapsed":322544,"internal_node_id":"0.0-2.0-13.0"},{"group":"hexagon_bi","room_assignment":["purple","grey","yellow","green","red","blue"],"door_color_assignment":["black","white"],"door_generator_assignment":[0,1],"goal":1,"start":5,"action_noise":0,"location_history":"[5,0,1]","action_history":"[0,1]","door_history":"[0,1]","location_rts":"[2521,1806]","trial_type":"two-door-navigation","trial_index":16,"time_elapsed":332967,"internal_node_id":"0.0-2.0-14.0"},{"group":"hexagon_bi","room_assignment":["purple","grey","yellow","green","red","blue"],"door_color_assignment":["black","white"],"door_generator_assignment":[0,1],"goal":5,"start":1,"action_noise":0,"location_history":"[1,2,3,4,5]","action_history":"[0,1,0,1]","door_history":"[0,1,0,1]","location_rts":"[2444,3440,377,622]","trial_type":"two-door-navigation","trial_index":17,"time_elapsed":348027,"internal_node_id":"0.0-2.0-15.0"},{"group":"hexagon_bi","room_assignment":["purple","grey","yellow","green","red","blue"],"door_color_assignment":["black","white"],"door_generator_assignment":[0,1],"goal":3,"start":5,"action_noise":0,"location_history":"[5,0,5,4,3]","action_history":"[0,0,1,0]","door_history":"[0,0,1,0]","location_rts":"[5832,1603,336,292]","trial_type":"two-door-navigation","trial_index":18,"time_elapsed":364238,"internal_node_id":"0.0-2.0-16.0"},{"group":"hexagon_bi","room_assignment":["purple","grey","yellow","green","red","blue"],"door_color_assignment":["black","white"],"door_generator_assignment":[0,1],"goal":2,"start":3,"action_noise":0,"location_history":"[3,2]","action_history":"[1]","door_history":"[1]","location_rts":"[2125]","trial_type":"two-door-navigation","trial_index":19,"time_elapsed":371404,"internal_node_id":"0.0-2.0-17.0"},{"group":"hexagon_bi","room_assignment":["purple","grey","yellow","green","red","blue"],"door_color_assignment":["black","white"],"door_generator_assignment":[0,1],"goal":1,"start":2,"action_noise":0,"location_history":"[2,1]","action_history":"[0]","door_history":"[0]","location_rts":"[2725]","trial_type":"two-door-navigation","trial_index":20,"time_elapsed":379166,"internal_node_id":"0.0-2.0-18.0"},{"group":"hexagon_bi","room_assignment":["purple","grey","yellow","green","red","blue"],"door_color_assignment":["black","white"],"door_generator_assignment":[0,1],"goal":4,"start":1,"action_noise":0,"location_history":"[1,2,3,4]","action_history":"[0,1,0]","door_history":"[0,1,0]","location_rts":"[3608,1516,331]","trial_type":"two-door-navigation","trial_index":21,"time_elapsed":391715,"internal_node_id":"0.0-2.0-19.0"},{"group":"hexagon_bi","room_assignment":["purple","grey","yellow","green","red","blue"],"door_color_assignment":["black","white"],"door_generator_assignment":[0,1],"goal":0,"start":4,"action_noise":0,"location_history":"[4,3,2,1,0]","action_history":"[0,1,0,1]","door_history":"[0,1,0,1]","location_rts":"[2701,1702,283,405]","trial_type":"two-door-navigation","trial_index":22,"time_elapsed":405100,"internal_node_id":"0.0-2.0-20.0"},{"group":"hexagon_bi","room_assignment":["purple","grey","yellow","green","red","blue"],"door_color_assignment":["black","white"],"door_generator_assignment":[0,1],"goal":3,"start":0,"action_noise":0,"location_history":"[0,5,4,3]","action_history":"[0,1,0]","door_history":"[0,1,0]","location_rts":"[2495,878,356]","trial_type":"two-door-navigation","trial_index":23,"time_elapsed":415959,"internal_node_id":"0.0-2.0-21.0"},{"group":"hexagon_bi","room_assignment":["purple","grey","yellow","green","red","blue"],"door_color_assignment":["black","white"],"door_generator_assignment":[0,1],"goal":1,"start":3,"action_noise":0,"location_history":"[3,2,1]","action_history":"[1,0]","door_history":"[1,0]","location_rts":"[3877,353]","trial_type":"two-door-navigation","trial_index":24,"time_elapsed":426264,"internal_node_id":"0.0-2.0-22.0"},{"group":"hexagon_bi","room_assignment":["purple","grey","yellow","green","red","blue"],"door_color_assignment":["black","white"],"door_generator_assignment":[0,1],"goal":0,"start":1,"action_noise":0,"location_history":"[1,0]","action_history":"[1]","door_history":"[1]","location_rts":"[1695]","trial_type":"two-door-navigation","trial_index":25,"time_elapsed":433006,"internal_node_id":"0.0-2.0-23.0"},{"group":"hexagon_bi","room_assignment":["purple","grey","yellow","green","red","blue"],"door_color_assignment":["black","white"],"door_generator_assignment":[0,1],"goal":2,"start":0,"action_noise":0,"location_history":"[0,1,2]","action_history":"[1,0]","door_history":"[1,0]","location_rts":"[10225,311]","trial_type":"two-door-navigation","trial_index":26,"time_elapsed":449612,"internal_node_id":"0.0-2.0-24.0"},{"group":"hexagon_bi","room_assignment":["purple","grey","yellow","green","red","blue"],"door_color_assignment":["black","white"],"door_generator_assignment":[0,1],"goal":4,"start":2,"action_noise":0,"location_history":"[2,3,4]","action_history":"[1,0]","door_history":"[1,0]","location_rts":"[6838,329]","trial_type":"two-door-navigation","trial_index":27,"time_elapsed":462844,"internal_node_id":"0.0-2.0-25.0"},{"group":"hexagon_bi","room_assignment":["purple","grey","yellow","green","red","blue"],"door_color_assignment":["black","white"],"door_generator_assignment":[0,1],"goal":5,"start":4,"action_noise":0,"location_history":"[4,5]","action_history":"[1]","door_history":"[1]","location_rts":"[3129]","trial_type":"two-door-navigation","trial_index":28,"time_elapsed":471019,"internal_node_id":"0.0-2.0-26.0"},{"group":"hexagon_bi","room_assignment":["purple","grey","yellow","green","red","blue"],"door_color_assignment":["black","white"],"door_generator_assignment":[0,1],"goal":2,"start":5,"action_noise":0,"location_history":"[5,0,1,2]","action_history":"[0,1,0]","door_history":"[0,1,0]","location_rts":"[9014,1074,440]","trial_type":"two-door-navigation","trial_index":29,"time_elapsed":488666,"internal_node_id":"0.0-2.0-27.0"},{"group":"hexagon_bi","room_assignment":["purple","grey","yellow","green","red","blue"],"door_color_assignment":["black","white"],"door_generator_assignment":[0,1],"goal":3,"start":2,"action_noise":0,"location_history":"[2,1,0,5,4,3]","action_history":"[0,1,0,1,0]","door_history":"[0,1,0,1,0]","location_rts":"[4365,853,453,3405,363]","trial_type":"two-door-navigation","trial_index":30,"time_elapsed":507253,"internal_node_id":"0.0-2.0-28.0"},{"group":"hexagon_bi","room_assignment":["purple","grey","yellow","green","red","blue"],"door_color_assignment":["black","white"],"door_generator_assignment":[0,1],"goal":1,"start":3,"action_noise":0,"location_history":"[3,4,5,0,1]","action_history":"[0,1,0,1]","door_history":"[0,1,0,1]","location_rts":"[5140,1635,969,743]","trial_type":"two-door-navigation","trial_index":31,"time_elapsed":523875,"internal_node_id":"0.0-2.0-29.0"},{"group":"hexagon_bi","room_assignment":["purple","grey","yellow","green","red","blue"],"door_color_assignment":["black","white"],"door_generator_assignment":[0,1],"goal":4,"start":1,"action_noise":0,"location_history":"[1,0,5,4]","action_history":"[1,0,1]","door_history":"[1,0,1]","location_rts":"[3079,1676,663]","trial_type":"two-door-navigation","trial_index":32,"time_elapsed":536413,"internal_node_id":"0.0-2.0-30.0"},{"group":"hexagon_bi","room_assignment":["purple","grey","yellow","green","red","blue"],"door_color_assignment":["black","white"],"door_generator_assignment":[0,1],"goal":5,"start":4,"action_noise":0,"location_history":"[4,5]","action_history":"[1]","door_history":"[1]","location_rts":"[1904]","trial_type":"two-door-navigation","trial_index":33,"time_elapsed":543394,"internal_node_id":"0.0-2.0-31.0"},{"group":"hexagon_bi","room_assignment":["purple","grey","yellow","green","red","blue"],"door_color_assignment":["black","white"],"door_generator_assignment":[0,1],"goal":0,"start":5,"action_noise":0,"location_history":"[5,0]","action_history":"[0]","door_history":"[0]","location_rts":"[3482]","trial_type":"two-door-navigation","trial_index":34,"time_elapsed":551924,"internal_node_id":"0.0-2.0-32.0"},{"group":"hexagon_bi","room_assignment":["purple","grey","yellow","green","red","blue"],"door_color_assignment":["black","white"],"door_generator_assignment":[0,1],"goal":2,"start":0,"action_noise":0,"location_history":"[0,5,4,3,2]","action_history":"[0,1,0,1]","door_history":"[0,1,0,1]","location_rts":"[3942,978,281,823]","trial_type":"two-door-navigation","trial_index":35,"time_elapsed":566088,"internal_node_id":"0.0-2.0-33.0"},{"group":"hexagon_bi","room_assignment":["purple","grey","yellow","green","red","blue"],"door_color_assignment":["black","white"],"door_generator_assignment":[0,1],"goal":0,"start":2,"action_noise":0,"location_history":"[2,1,0]","action_history":"[0,1]","door_history":"[0,1]","location_rts":"[17277,810]","trial_type":"two-door-navigation","trial_index":36,"time_elapsed":590258,"internal_node_id":"0.0-2.0-34.0"},{"group":"hexagon_bi","room_assignment":["purple","grey","yellow","green","red","blue"],"door_color_assignment":["black","white"],"door_generator_assignment":[0,1],"goal":5,"start":0,"action_noise":0,"location_history":"[0,5]","action_history":"[0]","door_history":"[0]","location_rts":"[6455]","trial_type":"two-door-navigation","trial_index":37,"time_elapsed":601788,"internal_node_id":"0.0-2.0-35.0"},{"group":"hexagon_bi","room_assignment":["purple","grey","yellow","green","red","blue"],"door_color_assignment":["black","white"],"door_generator_assignment":[0,1],"goal":1,"start":5,"action_noise":0,"location_history":"[5,0,1]","action_history":"[0,1]","door_history":"[0,1]","location_rts":"[2889,875]","trial_type":"two-door-navigation","trial_index":38,"time_elapsed":611643,"internal_node_id":"0.0-2.0-36.0"},{"group":"hexagon_bi","room_assignment":["purple","grey","yellow","green","red","blue"],"door_color_assignment":["black","white"],"door_generator_assignment":[0,1],"goal":4,"start":1,"action_noise":0,"location_history":"[1,2,3,4]","action_history":"[0,1,0]","door_history":"[0,1,0]","location_rts":"[12119,1035,353]","trial_type":"two-door-navigation","trial_index":39,"time_elapsed":632266,"internal_node_id":"0.0-2.0-37.0"},{"group":"hexagon_bi","room_assignment":["purple","grey","yellow","green","red","blue"],"door_color_assignment":["black","white"],"door_generator_assignment":[0,1],"goal":3,"start":4,"action_noise":0,"location_history":"[4,3]","action_history":"[0]","door_history":"[0]","location_rts":"[15674]","trial_type":"two-door-navigation","trial_index":40,"time_elapsed":653013,"internal_node_id":"0.0-2.0-38.0"},{"group":"hexagon_bi","room_assignment":["purple","grey","yellow","green","red","blue"],"door_color_assignment":["black","white"],"door_generator_assignment":[0,1],"goal":5,"start":3,"action_noise":0,"location_history":"[3,2,1,0,5]","action_history":"[1,0,1,0]","door_history":"[1,0,1,0]","location_rts":"[33506,1736,1319,413]","trial_type":"two-door-navigation","trial_index":41,"time_elapsed":698137,"internal_node_id":"0.0-2.0-39.0"},{"group":"hexagon_bi","room_assignment":["purple","grey","yellow","green","red","blue"],"door_color_assignment":["black","white"],"door_generator_assignment":[0,1],"goal":1,"start":5,"action_noise":0,"location_history":"[5,0,1]","action_history":"[0,1]","door_history":"[0,1]","location_rts":"[6133,22578]","trial_type":"two-door-navigation","trial_index":42,"time_elapsed":732922,"internal_node_id":"0.0-2.0-40.0"},{"group":"hexagon_bi","room_assignment":["purple","grey","yellow","green","red","blue"],"door_color_assignment":["black","white"],"door_generator_assignment":[0,1],"goal":2,"start":1,"action_noise":0,"location_history":"[1,2]","action_history":"[0]","door_history":"[0]","location_rts":"[8989]","trial_type":"two-door-navigation","trial_index":43,"time_elapsed":746960,"internal_node_id":"0.0-2.0-41.0"},{"group":"hexagon_bi","room_assignment":["purple","grey","yellow","green","red","blue"],"door_color_assignment":["black","white"],"door_generator_assignment":[0,1],"goal":4,"start":2,"action_noise":0,"location_history":"[2,3,4]","action_history":"[1,0]","door_history":"[1,0]","location_rts":"[5304,482]","trial_type":"two-door-navigation","trial_index":44,"time_elapsed":758833,"internal_node_id":"0.0-2.0-42.0"},{"group":"hexagon_bi","room_assignment":["purple","grey","yellow","green","red","blue"],"door_color_assignment":["black","white"],"door_generator_assignment":[0,1],"goal":0,"start":4,"action_noise":0,"location_history":"[4,3,2,1,0]","action_history":"[0,1,0,1]","door_history":"[0,1,0,1]","location_rts":"[29188,913,374,872]","trial_type":"two-door-navigation","trial_index":45,"time_elapsed":798319,"internal_node_id":"0.0-2.0-43.0"},{"group":"hexagon_bi","room_assignment":["purple","grey","yellow","green","red","blue"],"door_color_assignment":["black","white"],"door_generator_assignment":[0,1],"goal":3,"start":0,"action_noise":0,"location_history":"[0,5,4,3]","action_history":"[0,1,0]","door_history":"[0,1,0]","location_rts":"[6612,845,281]","trial_type":"two-door-navigation","trial_index":46,"time_elapsed":813233,"internal_node_id":"0.0-2.0-44.0"},{"group":"hexagon_bi","room_assignment":["purple","grey","yellow","green","red","blue"],"door_color_assignment":["black","white"],"door_generator_assignment":[0,1],"goal":0,"start":3,"action_noise":0,"location_history":"[3,2,1,0]","action_history":"[1,0,1]","door_history":"[1,0,1]","location_rts":"[5743,1345,1237]","trial_type":"two-door-navigation","trial_index":47,"time_elapsed":828682,"internal_node_id":"0.0-2.0-45.0"},{"group":"hexagon_bi","room_assignment":["purple","grey","yellow","green","red","blue"],"door_color_assignment":["black","white"],"door_generator_assignment":[0,1],"goal":4,"start":0,"action_noise":0,"location_history":"[0,5,4]","action_history":"[0,1]","door_history":"[0,1]","location_rts":"[3115,825]","trial_type":"two-door-navigation","trial_index":48,"time_elapsed":838706,"internal_node_id":"0.0-2.0-46.0"},{"group":"hexagon_bi","room_assignment":["purple","grey","yellow","green","red","blue"],"door_color_assignment":["black","white"],"door_generator_assignment":[0,1],"goal":5,"start":4,"action_noise":0,"location_history":"[4,5]","action_history":"[1]","door_history":"[1]","location_rts":"[3440]","trial_type":"two-door-navigation","trial_index":49,"time_elapsed":847189,"internal_node_id":"0.0-2.0-47.0"},{"group":"hexagon_bi","room_assignment":["purple","grey","yellow","green","red","blue"],"door_color_assignment":["black","white"],"door_generator_assignment":[0,1],"goal":2,"start":5,"action_noise":0,"location_history":"[5,0,1,2]","action_history":"[0,1,0]","door_history":"[0,1,0]","location_rts":"[3613,847,563]","trial_type":"two-door-navigation","trial_index":50,"time_elapsed":859338,"internal_node_id":"0.0-2.0-48.0"},{"group":"hexagon_bi","room_assignment":["purple","grey","yellow","green","red","blue"],"door_color_assignment":["black","white"],"door_generator_assignment":[0,1],"goal":1,"start":2,"action_noise":0,"location_history":"[2,3,4,5,0,1]","action_history":"[1,0,1,0,1]","door_history":"[1,0,1,0,1]","location_rts":"[4281,921,1203,1094,1429]","trial_type":"two-door-navigation","trial_index":51,"time_elapsed":877421,"internal_node_id":"0.0-2.0-49.0"},{"view_history":"[{\"page_index\":0,\"viewing_time\":1657}]","rt":1658,"trial_type":"instructions","trial_index":52,"time_elapsed":880083,"internal_node_id":"0.0-3.0"},{"view_history":"[{\"page_index\":0,\"viewing_time\":837},{\"page_index\":1,\"viewing_time\":1924}]","rt":2761,"trial_type":"instructions","trial_index":53,"time_elapsed":883844,"internal_node_id":"0.0-4.0"},{"group":"hexagon_bi","fractal_assignment":["../images/pnk_blu.png","../images/gry_blk.png","../images/cyn_red.png","../images/ylw_slt.png","../images/org_blu.png","../images/blu_wht.png"],"mutagen_generator_assignment":[0,1],"goal":2,"start":1,"action_noise":0,"location_history":"[1,2]","action_history":"[0]","mutagen_history":"[0]","location_rts":"[1850]","trial_type":"fractal-mutation","trial_index":54,"time_elapsed":890791,"internal_node_id":"0.0-5.0-0.0"},{"group":"hexagon_bi","fractal_assignment":["../images/pnk_blu.png","../images/gry_blk.png","../images/cyn_red.png","../images/ylw_slt.png","../images/org_blu.png","../images/blu_wht.png"],"mutagen_generator_assignment":[0,1],"goal":0,"start":2,"action_noise":0,"location_history":"[2,3,4,5,0]","action_history":"[1,0,1,0]","mutagen_history":"[1,0,1,0]","location_rts":"[1045,478,613,640]","trial_type":"fractal-mutation","trial_index":55,"time_elapsed":902013,"internal_node_id":"0.0-5.0-1.0"},{"group":"hexagon_bi","fractal_assignment":["../images/pnk_blu.png","../images/gry_blk.png","../images/cyn_red.png","../images/ylw_slt.png","../images/org_blu.png","../images/blu_wht.png"],"mutagen_generator_assignment":[0,1],"goal":5,"start":0,"action_noise":0,"location_history":"[0,5]","action_history":"[0]","mutagen_history":"[0]","location_rts":"[1083]","trial_type":"fractal-mutation","trial_index":56,"time_elapsed":908215,"internal_node_id":"0.0-5.0-2.0"},{"group":"hexagon_bi","fractal_assignment":["../images/pnk_blu.png","../images/gry_blk.png","../images/cyn_red.png","../images/ylw_slt.png","../images/org_blu.png","../images/blu_wht.png"],"mutagen_generator_assignment":[0,1],"goal":1,"start":5,"action_noise":0,"location_history":"[5,4,3,2,1]","action_history":"[1,0,1,0]","mutagen_history":"[1,0,1,0]","location_rts":"[727,590,671,735]","trial_type":"fractal-mutation","trial_index":57,"time_elapsed":919343,"internal_node_id":"0.0-5.0-3.0"},{"group":"hexagon_bi","fractal_assignment":["../images/pnk_blu.png","../images/gry_blk.png","../images/cyn_red.png","../images/ylw_slt.png","../images/org_blu.png","../images/blu_wht.png"],"mutagen_generator_assignment":[0,1],"goal":3,"start":1,"action_noise":0,"location_history":"[1,0,5,4,3]","action_history":"[1,0,1,0]","mutagen_history":"[1,0,1,0]","location_rts":"[656,831,666,1328]","trial_type":"fractal-mutation","trial_index":58,"time_elapsed":931203,"internal_node_id":"0.0-5.0-4.0"},{"group":"hexagon_bi","fractal_assignment":["../images/pnk_blu.png","../images/gry_blk.png","../images/cyn_red.png","../images/ylw_slt.png","../images/org_blu.png","../images/blu_wht.png"],"mutagen_generator_assignment":[0,1],"goal":5,"start":3,"action_noise":0,"location_history":"[3,4,5]","action_history":"[0,1]","mutagen_history":"[0,1]","location_rts":"[1299,1044]","trial_type":"fractal-mutation","trial_index":59,"time_elapsed":939690,"internal_node_id":"0.0-5.0-5.0"},{"group":"hexagon_bi","fractal_assignment":["../images/pnk_blu.png","../images/gry_blk.png","../images/cyn_red.png","../images/ylw_slt.png","../images/org_blu.png","../images/blu_wht.png"],"mutagen_generator_assignment":[0,1],"goal":4,"start":5,"action_noise":0,"location_history":"[5,4]","action_history":"[1]","mutagen_history":"[1]","location_rts":"[927]","trial_type":"fractal-mutation","trial_index":60,"time_elapsed":945734,"internal_node_id":"0.0-5.0-6.0"},{"group":"hexagon_bi","fractal_assignment":["../images/pnk_blu.png","../images/gry_blk.png","../images/cyn_red.png","../images/ylw_slt.png","../images/org_blu.png","../images/blu_wht.png"],"mutagen_generator_assignment":[0,1],"goal":0,"start":4,"action_noise":0,"location_history":"[4,5,0]","action_history":"[1,0]","mutagen_history":"[1,0]","location_rts":"[1015,565]","trial_type":"fractal-mutation","trial_index":61,"time_elapsed":953630,"internal_node_id":"0.0-5.0-7.0"},{"group":"hexagon_bi","fractal_assignment":["../images/pnk_blu.png","../images/gry_blk.png","../images/cyn_red.png","../images/ylw_slt.png","../images/org_blu.png","../images/blu_wht.png"],"mutagen_generator_assignment":[0,1],"goal":2,"start":0,"action_noise":0,"location_history":"[0,1,2]","action_history":"[1,0]","mutagen_history":"[1,0]","location_rts":"[1254,529]","trial_type":"fractal-mutation","trial_index":62,"time_elapsed":961549,"internal_node_id":"0.0-5.0-8.0"},{"group":"hexagon_bi","fractal_assignment":["../images/pnk_blu.png","../images/gry_blk.png","../images/cyn_red.png","../images/ylw_slt.png","../images/org_blu.png","../images/blu_wht.png"],"mutagen_generator_assignment":[0,1],"goal":4,"start":2,"action_noise":0,"location_history":"[2,3,4]","action_history":"[1,0]","mutagen_history":"[1,0]","location_rts":"[2416,671]","trial_type":"fractal-mutation","trial_index":63,"time_elapsed":970818,"internal_node_id":"0.0-5.0-9.0"},{"group":"hexagon_bi","fractal_assignment":["../images/pnk_blu.png","../images/gry_blk.png","../images/cyn_red.png","../images/ylw_slt.png","../images/org_blu.png","../images/blu_wht.png"],"mutagen_generator_assignment":[0,1],"goal":2,"start":4,"action_noise":0,"location_history":"[4,3,2]","action_history":"[0,1]","mutagen_history":"[0,1]","location_rts":"[1918,1525]","trial_type":"fractal-mutation","trial_index":64,"time_elapsed":980455,"internal_node_id":"0.0-5.0-10.0"},{"group":"hexagon_bi","fractal_assignment":["../images/pnk_blu.png","../images/gry_blk.png","../images/cyn_red.png","../images/ylw_slt.png","../images/org_blu.png","../images/blu_wht.png"],"mutagen_generator_assignment":[0,1],"goal":3,"start":2,"action_noise":0,"location_history":"[2,3]","action_history":"[1]","mutagen_history":"[1]","location_rts":"[1056]","trial_type":"fractal-mutation","trial_index":65,"time_elapsed":986631,"internal_node_id":"0.0-5.0-11.0"},{"group":"hexagon_bi","fractal_assignment":["../images/pnk_blu.png","../images/gry_blk.png","../images/cyn_red.png","../images/ylw_slt.png","../images/org_blu.png","../images/blu_wht.png"],"mutagen_generator_assignment":[0,1],"goal":0,"start":3,"action_noise":0,"location_history":"[3,2,1,0]","action_history":"[1,0,1]","mutagen_history":"[1,0,1]","location_rts":"[1059,319,462]","trial_type":"fractal-mutation","trial_index":66,"time_elapsed":995747,"internal_node_id":"0.0-5.0-12.0"},{"group":"hexagon_bi","fractal_assignment":["../images/pnk_blu.png","../images/gry_blk.png","../images/cyn_red.png","../images/ylw_slt.png","../images/org_blu.png","../images/blu_wht.png"],"mutagen_generator_assignment":[0,1],"goal":5,"start":0,"action_noise":0,"location_history":"[0,1,2,3,4,5]","action_history":"[1,0,1,0,1]","mutagen_history":"[1,0,1,0,1]","location_rts":"[1033,359,305,999,633]","trial_type":"fractal-mutation","trial_index":67,"time_elapsed":1008490,"internal_node_id":"0.0-5.0-13.0"},{"group":"hexagon_bi","fractal_assignment":["../images/pnk_blu.png","../images/gry_blk.png","../images/cyn_red.png","../images/ylw_slt.png","../images/org_blu.png","../images/blu_wht.png"],"mutagen_generator_assignment":[0,1],"goal":1,"start":5,"action_noise":0,"location_history":"[5,4,3,2,1]","action_history":"[1,0,1,0]","mutagen_history":"[1,0,1,0]","location_rts":"[914,787,889,618]","trial_type":"fractal-mutation","trial_index":68,"time_elapsed":1020027,"internal_node_id":"0.0-5.0-14.0"},{"group":"hexagon_bi","fractal_assignment":["../images/pnk_blu.png","../images/gry_blk.png","../images/cyn_red.png","../images/ylw_slt.png","../images/org_blu.png","../images/blu_wht.png"],"mutagen_generator_assignment":[0,1],"goal":5,"start":1,"action_noise":0,"location_history":"[1,0,5]","action_history":"[1,0]","mutagen_history":"[1,0]","location_rts":"[1288,615]","trial_type":"fractal-mutation","trial_index":69,"time_elapsed":1028096,"internal_node_id":"0.0-5.0-15.0"},{"group":"hexagon_bi","fractal_assignment":["../images/pnk_blu.png","../images/gry_blk.png","../images/cyn_red.png","../images/ylw_slt.png","../images/org_blu.png","../images/blu_wht.png"],"mutagen_generator_assignment":[0,1],"goal":3,"start":5,"action_noise":0,"location_history":"[5,4,3]","action_history":"[1,0]","mutagen_history":"[1,0]","location_rts":"[871,440]","trial_type":"fractal-mutation","trial_index":70,"time_elapsed":1035591,"internal_node_id":"0.0-5.0-16.0"},{"group":"hexagon_bi","fractal_assignment":["../images/pnk_blu.png","../images/gry_blk.png","../images/cyn_red.png","../images/ylw_slt.png","../images/org_blu.png","../images/blu_wht.png"],"mutagen_generator_assignment":[0,1],"goal":2,"start":3,"action_noise":0,"location_history":"[3,4,5,0,1,2]","action_history":"[0,1,0,1,0]","mutagen_history":"[0,1,0,1,0]","location_rts":"[1494,2906,497,982,1614]","trial_type":"fractal-mutation","trial_index":71,"time_elapsed":1052456,"internal_node_id":"0.0-5.0-17.0"},{"group":"hexagon_bi","fractal_assignment":["../images/pnk_blu.png","../images/gry_blk.png","../images/cyn_red.png","../images/ylw_slt.png","../images/org_blu.png","../images/blu_wht.png"],"mutagen_generator_assignment":[0,1],"goal":1,"start":2,"action_noise":0,"location_history":"[2,3,4,3,2,1]","action_history":"[1,0,0,1,0]","mutagen_history":"[1,0,0,1,0]","location_rts":"[791,632,985,413,633]","trial_type":"fractal-mutation","trial_index":72,"time_elapsed":1065461,"internal_node_id":"0.0-5.0-18.0"},{"group":"hexagon_bi","fractal_assignment":["../images/pnk_blu.png","../images/gry_blk.png","../images/cyn_red.png","../images/ylw_slt.png","../images/org_blu.png","../images/blu_wht.png"],"mutagen_generator_assignment":[0,1],"goal":4,"start":1,"action_noise":0,"location_history":"[1,0,5,4]","action_history":"[1,0,1]","mutagen_history":"[1,0,1]","location_rts":"[1055,581,873]","trial_type":"fractal-mutation","trial_index":73,"time_elapsed":1075282,"internal_node_id":"0.0-5.0-19.0"},{"group":"hexagon_bi","fractal_assignment":["../images/pnk_blu.png","../images/gry_blk.png","../images/cyn_red.png","../images/ylw_slt.png","../images/org_blu.png","../images/blu_wht.png"],"mutagen_generator_assignment":[0,1],"goal":0,"start":4,"action_noise":0,"location_history":"[4,5,0]","action_history":"[1,0]","mutagen_history":"[1,0]","location_rts":"[921,1450]","trial_type":"fractal-mutation","trial_index":74,"time_elapsed":1083876,"internal_node_id":"0.0-5.0-20.0"},{"group":"hexagon_bi","fractal_assignment":["../images/pnk_blu.png","../images/gry_blk.png","../images/cyn_red.png","../images/ylw_slt.png","../images/org_blu.png","../images/blu_wht.png"],"mutagen_generator_assignment":[0,1],"goal":3,"start":0,"action_noise":0,"location_history":"[0,5,4,3]","action_history":"[0,1,0]","mutagen_history":"[0,1,0]","location_rts":"[1123,449,418]","trial_type":"fractal-mutation","trial_index":75,"time_elapsed":1093145,"internal_node_id":"0.0-5.0-21.0"},{"group":"hexagon_bi","fractal_assignment":["../images/pnk_blu.png","../images/gry_blk.png","../images/cyn_red.png","../images/ylw_slt.png","../images/org_blu.png","../images/blu_wht.png"],"mutagen_generator_assignment":[0,1],"goal":1,"start":3,"action_noise":0,"location_history":"[3,2,1]","action_history":"[1,0]","mutagen_history":"[1,0]","location_rts":"[1346,695]","trial_type":"fractal-mutation","trial_index":76,"time_elapsed":1101352,"internal_node_id":"0.0-5.0-22.0"},{"group":"hexagon_bi","fractal_assignment":["../images/pnk_blu.png","../images/gry_blk.png","../images/cyn_red.png","../images/ylw_slt.png","../images/org_blu.png","../images/blu_wht.png"],"mutagen_generator_assignment":[0,1],"goal":0,"start":1,"action_noise":0,"location_history":"[1,0]","action_history":"[1]","mutagen_history":"[1]","location_rts":"[680]","trial_type":"fractal-mutation","trial_index":77,"time_elapsed":1107102,"internal_node_id":"0.0-5.0-23.0"},{"group":"hexagon_bi","fractal_assignment":["../images/pnk_blu.png","../images/gry_blk.png","../images/cyn_red.png","../images/ylw_slt.png","../images/org_blu.png","../images/blu_wht.png"],"mutagen_generator_assignment":[0,1],"goal":2,"start":0,"action_noise":0,"location_history":"[0,5,4,3,2]","action_history":"[0,1,0,1]","mutagen_history":"[0,1,0,1]","location_rts":"[1045,501,602,394]","trial_type":"fractal-mutation","trial_index":78,"time_elapsed":1118051,"internal_node_id":"0.0-5.0-24.0"},{"group":"hexagon_bi","fractal_assignment":["../images/pnk_blu.png","../images/gry_blk.png","../images/cyn_red.png","../images/ylw_slt.png","../images/org_blu.png","../images/blu_wht.png"],"mutagen_generator_assignment":[0,1],"goal":4,"start":2,"action_noise":0,"location_history":"[2,3,4]","action_history":"[1,0]","mutagen_history":"[1,0]","location_rts":"[1568,451]","trial_type":"fractal-mutation","trial_index":79,"time_elapsed":1126275,"internal_node_id":"0.0-5.0-25.0"},{"group":"hexagon_bi","fractal_assignment":["../images/pnk_blu.png","../images/gry_blk.png","../images/cyn_red.png","../images/ylw_slt.png","../images/org_blu.png","../images/blu_wht.png"],"mutagen_generator_assignment":[0,1],"goal":5,"start":4,"action_noise":0,"location_history":"[4,3,2,1,0,5]","action_history":"[0,1,0,1,0]","mutagen_history":"[0,1,0,1,0]","location_rts":"[1106,439,506,441,673]","trial_type":"fractal-mutation","trial_index":80,"time_elapsed":1138870,"internal_node_id":"0.0-5.0-26.0"},{"group":"hexagon_bi","fractal_assignment":["../images/pnk_blu.png","../images/gry_blk.png","../images/cyn_red.png","../images/ylw_slt.png","../images/org_blu.png","../images/blu_wht.png"],"mutagen_generator_assignment":[0,1],"goal":2,"start":5,"action_noise":0,"location_history":"[5,4,3,2]","action_history":"[1,0,1]","mutagen_history":"[1,0,1]","location_rts":"[775,833,489]","trial_type":"fractal-mutation","trial_index":81,"time_elapsed":1148221,"internal_node_id":"0.0-5.0-27.0"},{"group":"hexagon_bi","fractal_assignment":["../images/pnk_blu.png","../images/gry_blk.png","../images/cyn_red.png","../images/ylw_slt.png","../images/org_blu.png","../images/blu_wht.png"],"mutagen_generator_assignment":[0,1],"goal":3,"start":2,"action_noise":0,"location_history":"[2,3]","action_history":"[1]","mutagen_history":"[1]","location_rts":"[2266]","trial_type":"fractal-mutation","trial_index":82,"time_elapsed":1155614,"internal_node_id":"0.0-5.0-28.0"},{"group":"hexagon_bi","fractal_assignment":["../images/pnk_blu.png","../images/gry_blk.png","../images/cyn_red.png","../images/ylw_slt.png","../images/org_blu.png","../images/blu_wht.png"],"mutagen_generator_assignment":[0,1],"goal":1,"start":3,"action_noise":0,"location_history":"[3,4,5,0,1]","action_history":"[0,1,0,1]","mutagen_history":"[0,1,0,1]","location_rts":"[3312,453,396,306]","trial_type":"fractal-mutation","trial_index":83,"time_elapsed":1168464,"internal_node_id":"0.0-5.0-29.0"},{"group":"hexagon_bi","fractal_assignment":["../images/pnk_blu.png","../images/gry_blk.png","../images/cyn_red.png","../images/ylw_slt.png","../images/org_blu.png","../images/blu_wht.png"],"mutagen_generator_assignment":[0,1],"goal":4,"start":1,"action_noise":0,"location_history":"[1,2,3,4]","action_history":"[0,1,0]","mutagen_history":"[0,1,0]","location_rts":"[2087,450,471]","trial_type":"fractal-mutation","trial_index":84,"time_elapsed":1178705,"internal_node_id":"0.0-5.0-30.0"},{"group":"hexagon_bi","fractal_assignment":["../images/pnk_blu.png","../images/gry_blk.png","../images/cyn_red.png","../images/ylw_slt.png","../images/org_blu.png","../images/blu_wht.png"],"mutagen_generator_assignment":[0,1],"goal":5,"start":4,"action_noise":0,"location_history":"[4,5]","action_history":"[1]","mutagen_history":"[1]","location_rts":"[775]","trial_type":"fractal-mutation","trial_index":85,"time_elapsed":1184579,"internal_node_id":"0.0-5.0-31.0"},{"group":"hexagon_bi","fractal_assignment":["../images/pnk_blu.png","../images/gry_blk.png","../images/cyn_red.png","../images/ylw_slt.png","../images/org_blu.png","../images/blu_wht.png"],"mutagen_generator_assignment":[0,1],"goal":0,"start":5,"action_noise":0,"location_history":"[5,4,3,2,1,0]","action_history":"[1,0,1,0,1]","mutagen_history":"[1,0,1,0,1]","location_rts":"[1028,486,275,588,388]","trial_type":"fractal-mutation","trial_index":86,"time_elapsed":1196854,"internal_node_id":"0.0-5.0-32.0"},{"group":"hexagon_bi","fractal_assignment":["../images/pnk_blu.png","../images/gry_blk.png","../images/cyn_red.png","../images/ylw_slt.png","../images/org_blu.png","../images/blu_wht.png"],"mutagen_generator_assignment":[0,1],"goal":2,"start":0,"action_noise":0,"location_history":"[0,1,2]","action_history":"[1,0]","mutagen_history":"[1,0]","location_rts":"[1774,667]","trial_type":"fractal-mutation","trial_index":87,"time_elapsed":1205489,"internal_node_id":"0.0-5.0-33.0"},{"group":"hexagon_bi","fractal_assignment":["../images/pnk_blu.png","../images/gry_blk.png","../images/cyn_red.png","../images/ylw_slt.png","../images/org_blu.png","../images/blu_wht.png"],"mutagen_generator_assignment":[0,1],"goal":0,"start":2,"action_noise":0,"location_history":"[2,1,0]","action_history":"[0,1]","mutagen_history":"[0,1]","location_rts":"[1481,494]","trial_type":"fractal-mutation","trial_index":88,"time_elapsed":1213632,"internal_node_id":"0.0-5.0-34.0"},{"group":"hexagon_bi","fractal_assignment":["../images/pnk_blu.png","../images/gry_blk.png","../images/cyn_red.png","../images/ylw_slt.png","../images/org_blu.png","../images/blu_wht.png"],"mutagen_generator_assignment":[0,1],"goal":5,"start":0,"action_noise":0,"location_history":"[0,1,2,3,4,5]","action_history":"[1,0,1,0,1]","mutagen_history":"[1,0,1,0,1]","location_rts":"[1261,437,321,402,597]","trial_type":"fractal-mutation","trial_index":89,"time_elapsed":1226174,"internal_node_id":"0.0-5.0-35.0"},{"group":"hexagon_bi","fractal_assignment":["../images/pnk_blu.png","../images/gry_blk.png","../images/cyn_red.png","../images/ylw_slt.png","../images/org_blu.png","../images/blu_wht.png"],"mutagen_generator_assignment":[0,1],"goal":1,"start":5,"action_noise":0,"location_history":"[5,4,3,2,1]","action_history":"[1,0,1,0]","mutagen_history":"[1,0,1,0]","location_rts":"[1735,547,414,497]","trial_type":"fractal-mutation","trial_index":90,"time_elapsed":1237671,"internal_node_id":"0.0-5.0-36.0"},{"group":"hexagon_bi","fractal_assignment":["../images/pnk_blu.png","../images/gry_blk.png","../images/cyn_red.png","../images/ylw_slt.png","../images/org_blu.png","../images/blu_wht.png"],"mutagen_generator_assignment":[0,1],"goal":4,"start":1,"action_noise":0,"location_history":"[1,2,3,4]","action_history":"[0,1,0]","mutagen_history":"[0,1,0]","location_rts":"[1079,390,379]","trial_type":"fractal-mutation","trial_index":91,"time_elapsed":1246787,"internal_node_id":"0.0-5.0-37.0"},{"group":"hexagon_bi","fractal_assignment":["../images/pnk_blu.png","../images/gry_blk.png","../images/cyn_red.png","../images/ylw_slt.png","../images/org_blu.png","../images/blu_wht.png"],"mutagen_generator_assignment":[0,1],"goal":3,"start":4,"action_noise":0,"location_history":"[4,5,0,1,2,3]","action_history":"[1,0,1,0,1]","mutagen_history":"[1,0,1,0,1]","location_rts":"[950,1235,661,612,1298]","trial_type":"fractal-mutation","trial_index":92,"time_elapsed":1260900,"internal_node_id":"0.0-5.0-38.0"},{"group":"hexagon_bi","fractal_assignment":["../images/pnk_blu.png","../images/gry_blk.png","../images/cyn_red.png","../images/ylw_slt.png","../images/org_blu.png","../images/blu_wht.png"],"mutagen_generator_assignment":[0,1],"goal":5,"start":3,"action_noise":0,"location_history":"[3,2,1,0,5]","action_history":"[1,0,1,0]","mutagen_history":"[1,0,1,0]","location_rts":"[750,371,493,628]","trial_type":"fractal-mutation","trial_index":93,"time_elapsed":1271448,"internal_node_id":"0.0-5.0-39.0"},{"group":"hexagon_bi","fractal_assignment":["../images/pnk_blu.png","../images/gry_blk.png","../images/cyn_red.png","../images/ylw_slt.png","../images/org_blu.png","../images/blu_wht.png"],"mutagen_generator_assignment":[0,1],"goal":1,"start":5,"action_noise":0,"location_history":"[5,0,1]","action_history":"[0,1]","mutagen_history":"[0,1]","location_rts":"[951,538]","trial_type":"fractal-mutation","trial_index":94,"time_elapsed":1279132,"internal_node_id":"0.0-5.0-40.0"},{"group":"hexagon_bi","fractal_assignment":["../images/pnk_blu.png","../images/gry_blk.png","../images/cyn_red.png","../images/ylw_slt.png","../images/org_blu.png","../images/blu_wht.png"],"mutagen_generator_assignment":[0,1],"goal":2,"start":1,"action_noise":0,"location_history":"[1,2]","action_history":"[0]","mutagen_history":"[0]","location_rts":"[1085]","trial_type":"fractal-mutation","trial_index":95,"time_elapsed":1285304,"internal_node_id":"0.0-5.0-41.0"},{"group":"hexagon_bi","fractal_assignment":["../images/pnk_blu.png","../images/gry_blk.png","../images/cyn_red.png","../images/ylw_slt.png","../images/org_blu.png","../images/blu_wht.png"],"mutagen_generator_assignment":[0,1],"goal":4,"start":2,"action_noise":0,"location_history":"[2,3,4]","action_history":"[1,0]","mutagen_history":"[1,0]","location_rts":"[753,887]","trial_type":"fractal-mutation","trial_index":96,"time_elapsed":1293076,"internal_node_id":"0.0-5.0-42.0"},{"group":"hexagon_bi","fractal_assignment":["../images/pnk_blu.png","../images/gry_blk.png","../images/cyn_red.png","../images/ylw_slt.png","../images/org_blu.png","../images/blu_wht.png"],"mutagen_generator_assignment":[0,1],"goal":0,"start":4,"action_noise":0,"location_history":"[4,5,0]","action_history":"[1,0]","mutagen_history":"[1,0]","location_rts":"[619,652]","trial_type":"fractal-mutation","trial_index":97,"time_elapsed":1300539,"internal_node_id":"0.0-5.0-43.0"},{"group":"hexagon_bi","fractal_assignment":["../images/pnk_blu.png","../images/gry_blk.png","../images/cyn_red.png","../images/ylw_slt.png","../images/org_blu.png","../images/blu_wht.png"],"mutagen_generator_assignment":[0,1],"goal":3,"start":0,"action_noise":0,"location_history":"[0,1,2,3]","action_history":"[1,0,1]","mutagen_history":"[1,0,1]","location_rts":"[644,638,792]","trial_type":"fractal-mutation","trial_index":98,"time_elapsed":1310461,"internal_node_id":"0.0-5.0-44.0"},{"group":"hexagon_bi","fractal_assignment":["../images/pnk_blu.png","../images/gry_blk.png","../images/cyn_red.png","../images/ylw_slt.png","../images/org_blu.png","../images/blu_wht.png"],"mutagen_generator_assignment":[0,1],"goal":0,"start":3,"action_noise":0,"location_history":"[3,2,1,0]","action_history":"[1,0,1]","mutagen_history":"[1,0,1]","location_rts":"[1201,453,320]","trial_type":"fractal-mutation","trial_index":99,"time_elapsed":1319769,"internal_node_id":"0.0-5.0-45.0"},{"group":"hexagon_bi","fractal_assignment":["../images/pnk_blu.png","../images/gry_blk.png","../images/cyn_red.png","../images/ylw_slt.png","../images/org_blu.png","../images/blu_wht.png"],"mutagen_generator_assignment":[0,1],"goal":4,"start":0,"action_noise":0,"location_history":"[0,1,2,3,4]","action_history":"[1,0,1,0]","mutagen_history":"[1,0,1,0]","location_rts":"[1210,466,581,421]","trial_type":"fractal-mutation","trial_index":100,"time_elapsed":1330770,"internal_node_id":"0.0-5.0-46.0"},{"group":"hexagon_bi","fractal_assignment":["../images/pnk_blu.png","../images/gry_blk.png","../images/cyn_red.png","../images/ylw_slt.png","../images/org_blu.png","../images/blu_wht.png"],"mutagen_generator_assignment":[0,1],"goal":5,"start":4,"action_noise":0,"location_history":"[4,3,2,1,0,5]","action_history":"[0,1,0,1,0]","mutagen_history":"[0,1,0,1,0]","location_rts":"[1347,694,457,506,464]","trial_type":"fractal-mutation","trial_index":101,"time_elapsed":1343720,"internal_node_id":"0.0-5.0-47.0"},{"group":"hexagon_bi","fractal_assignment":["../images/pnk_blu.png","../images/gry_blk.png","../images/cyn_red.png","../images/ylw_slt.png","../images/org_blu.png","../images/blu_wht.png"],"mutagen_generator_assignment":[0,1],"goal":2,"start":5,"action_noise":0,"location_history":"[5,0,1,2]","action_history":"[0,1,0]","mutagen_history":"[0,1,0]","location_rts":"[5360,655,414]","trial_type":"fractal-mutation","trial_index":102,"time_elapsed":1357398,"internal_node_id":"0.0-5.0-48.0"},{"group":"hexagon_bi","fractal_assignment":["../images/pnk_blu.png","../images/gry_blk.png","../images/cyn_red.png","../images/ylw_slt.png","../images/org_blu.png","../images/blu_wht.png"],"mutagen_generator_assignment":[0,1],"goal":1,"start":2,"action_noise":0,"location_history":"[2,3,4,3,4,5,0,1]","action_history":"[1,0,0,0,1,0,1]","mutagen_history":"[1,0,0,0,1,0,1]","location_rts":"[1238,931,364,1042,341,1131,429]","trial_type":"fractal-mutation","trial_index":103,"time_elapsed":1374428,"internal_node_id":"0.0-5.0-49.0"},{"view_history":"[{\"page_index\":0,\"viewing_time\":3293}]","rt":3294,"trial_type":"instructions","trial_index":104,"time_elapsed":1378723,"internal_node_id":"0.0-6.0"},{"rt":36596,"responses":"{\"Q0\":\"I'm not sure. I assume to just assess performance on the tasks.\"}","trial_type":"survey-text","trial_index":105,"time_elapsed":1416331,"internal_node_id":"0.0-7.0-0.0"},{"rt":24101,"responses":"{\"Q0\":\"To evaluate how well individuals retained  information they learned.\"}","trial_type":"survey-text","trial_index":106,"time_elapsed":1441442,"internal_node_id":"0.0-7.0-1.0"},{"rt":32000,"responses":"{\"Q0\":\"<img src='../images/diagrams/hexagon_bi.png'>\"}","trial_type":"survey-multi-choice","trial_index":107,"time_elapsed":1474489,"internal_node_id":"0.0-7.0-2.0"},{"rt":35737,"assignments":["../images/pnk_blu.png","../images/blu_wht.png","../images/org_blu.png","../images/ylw_slt.png","../images/cyn_red.png","../images/gry_blk.png"],"trial_type":"drag-drop-on-image","trial_index":108,"time_elapsed":1511232,"internal_node_id":"0.0-7.0-3.0"},{"rt":5533,"responses":"{\"Q0\":\"3\"}","trial_type":"survey-likert","trial_index":109,"time_elapsed":1517776,"internal_node_id":"0.0-7.0-4.0"},{"rt":21116,"responses":"{\"Q0\":\"The patterns were similar. \"}","trial_type":"survey-text","trial_index":110,"time_elapsed":1539897,"internal_node_id":"0.0-7.0-5.0"},{"rt":4859,"responses":"{\"Q0\":\"Yes\"}","trial_type":"survey-multi-choice","trial_index":111,"time_elapsed":1545780,"internal_node_id":"0.0-7.0-6.0"},{"rt":9256,"responses":"{\"Q0\":\"During session 2\"}","trial_type":"survey-multi-choice","trial_index":112,"time_elapsed":1556053,"internal_node_id":"0.0-7.0-7.0"},{"rt":44568,"responses":"{\"Q0\":\"The responses both were in a \\\"back and forth\\\" pattern.\"}","trial_type":"survey-text","trial_index":113,"time_elapsed":1601633,"internal_node_id":"0.0-7.0-8.0"},{"rt":4405,"responses":"{\"Q0\":\"4\"}","trial_type":"survey-likert","trial_index":114,"time_elapsed":1607049,"internal_node_id":"0.0-7.0-9.0"},{"rt":6830,"responses":"{\"Q0\":\"Same structure\"}","trial_type":"survey-multi-choice","trial_index":115,"time_elapsed":1614899,"internal_node_id":"0.0-7.0-10.0"},{"rt":39834,"assignments":["../images/gry_blk.png","../images/ylw_slt.png","../images/pnk_blu.png","../images/cyn_red.png","../images/org_blu.png","../images/blu_wht.png"],"background_order":[0,4,5,1,3,2],"trial_type":"drag-drop-on-image","trial_index":116,"time_elapsed":1655743,"internal_node_id":"0.0-7.0-11.0"},{"rt":20862,"responses":"{\"Q0\":\"left (black) door = acid, right (white) door = ray\",\"Q1\":\"Moderately confident\"}","trial_type":"survey-multi-choice","trial_index":117,"time_elapsed":1677637,"internal_node_id":"0.0-7.0-12.0"},{"rt":8570,"responses":"{\"Q0\":\"25-35\",\"Q1\":\"Associates or other two-year degree\",\"Q2\":\"Female\",\"Q3\":\"White\"}","trial_type":"survey-multi-choice","trial_index":118,"time_elapsed":1687282,"internal_node_id":"0.0-8.0"},{"rt":49270,"responses":"{\"Q0\":\"I just want to say thank you for the opportunity! This was one of the most enjoyable multiple phase studies I have ever done! \"}","trial_type":"survey-text","trial_index":119,"time_elapsed":1737571,"internal_node_id":"0.0-9.0"}]