[{"view_history":"[{\"page_index\":0,\"viewing_time\":2898},{\"page_index\":1,\"viewing_time\":6567}]","rt":9465,"trial_type":"instructions","trial_index":0,"time_elapsed":9466,"internal_node_id":"0.0-0.0"},{"view_history":"[{\"page_index\":0,\"viewing_time\":2854},{\"page_index\":1,\"viewing_time\":6320}]","rt":9174,"trial_type":"instructions","trial_index":1,"time_elapsed":19641,"internal_node_id":"0.0-1.0"},{"group":"hexagon_tri","room_assignment":["yellow","blue","green","purple","grey","red"],"door_color_assignment":["black","white"],"door_generator_assignment":[0,1],"goal":2,"start":1,"action_noise":0,"location_history":"[1,5,0,5,0,1,3,4,0,1,5,0,1,3,2]","action_history":"[1,1,0,1,1,0,1,0,1,1,1,1,0,0]","door_history":"[1,1,0,1,1,0,1,0,1,1,1,1,0,0]","location_rts":"[3010,965,1093,286,635,1210,1123,1134,558,605,732,1892,355,330]","trial_type":"two-door-navigation","trial_index":2,"time_elapsed":51640,"internal_node_id":"0.0-2.0-0.0"},{"group":"hexagon_tri","room_assignment":["yellow","blue","green","purple","grey","red"],"door_color_assignment":["black","white"],"door_generator_assignment":[0,1],"goal":0,"start":2,"action_noise":0,"location_history":"[2,3,2,1,3,2,3,4,0]","action_history":"[1,0,0,0,0,1,1,0]","door_history":"[1,0,0,0,0,1,1,0]","location_rts":"[3370,1021,984,865,726,773,463,1234]","trial_type":"two-door-navigation","trial_index":3,"time_elapsed":73121,"internal_node_id":"0.0-2.0-1.0"},{"group":"hexagon_tri","room_assignment":["yellow","blue","green","purple","grey","red"],"door_color_assignment":["black","white"],"door_generator_assignment":[0,1],"goal":5,"start":0,"action_noise":0,"location_history":"[0,5]","action_history":"[0]","door_history":"[0]","location_rts":"[9235]","trial_type":"two-door-navigation","trial_index":4,"time_elapsed":87365,"internal_node_id":"0.0-2.0-2.0"},{"group":"hexagon_tri","room_assignment":["yellow","blue","green","purple","grey","red"],"door_color_assignment":["black","white"],"door_generator_assignment":[0,1],"goal":1,"start":5,"action_noise":0,"location_history":"[5,0,1]","action_history":"[1,1]","door_history":"[1,1]","location_rts":"[64813,1385]","trial_type":"two-door-navigation","trial_index":5,"time_elapsed":159569,"internal_node_id":"0.0-2.0-3.0"},{"group":"hexagon_tri","room_assignment":["yellow","blue","green","purple","grey","red"],"door_color_assignment":["black","white"],"door_generator_assignment":[0,1],"goal":3,"start":1,"action_noise":0,"location_history":"[1,3]","action_history":"[0]","door_history":"[0]","location_rts":"[2039]","trial_type":"two-door-navigation","trial_index":6,"time_elapsed":166613,"internal_node_id":"0.0-2.0-4.0"},{"group":"hexagon_tri","room_assignment":["yellow","blue","green","purple","grey","red"],"door_color_assignment":["black","white"],"door_generator_assignment":[0,1],"goal":5,"start":3,"action_noise":0,"location_history":"[3,4,0,5]","action_history":"[1,0,0]","door_history":"[1,0,0]","location_rts":"[2014,1485,670]","trial_type":"two-door-navigation","trial_index":7,"time_elapsed":177796,"internal_node_id":"0.0-2.0-5.0"},{"group":"hexagon_tri","room_assignment":["yellow","blue","green","purple","grey","red"],"door_color_assignment":["black","white"],"door_generator_assignment":[0,1],"goal":4,"start":5,"action_noise":0,"location_history":"[5,4]","action_history":"[0]","door_history":"[0]","location_rts":"[2431]","trial_type":"two-door-navigation","trial_index":8,"time_elapsed":185236,"internal_node_id":"0.0-2.0-6.0"},{"group":"hexagon_tri","room_assignment":["yellow","blue","green","purple","grey","red"],"door_color_assignment":["black","white"],"door_generator_assignment":[0,1],"goal":0,"start":4,"action_noise":0,"location_history":"[4,0]","action_history":"[0]","door_history":"[0]","location_rts":"[2418]","trial_type":"two-door-navigation","trial_index":9,"time_elapsed":192657,"internal_node_id":"0.0-2.0-7.0"},{"group":"hexagon_tri","room_assignment":["yellow","blue","green","purple","grey","red"],"door_color_assignment":["black","white"],"door_generator_assignment":[0,1],"goal":2,"start":0,"action_noise":0,"location_history":"[0,1,3,4,2]","action_history":"[1,0,1,1]","door_history":"[1,0,1,1]","location_rts":"[2145,5673,1456,3072]","trial_type":"two-door-navigation","trial_index":10,"time_elapsed":213025,"internal_node_id":"0.0-2.0-8.0"},{"group":"hexagon_tri","room_assignment":["yellow","blue","green","purple","grey","red"],"door_color_assignment":["black","white"],"door_generator_assignment":[0,1],"goal":4,"start":2,"action_noise":0,"location_history":"[2,1,3,4]","action_history":"[0,0,1]","door_history":"[0,0,1]","location_rts":"[5801,2028,939]","trial_type":"two-door-navigation","trial_index":11,"time_elapsed":228805,"internal_node_id":"0.0-2.0-9.0"},{"group":"hexagon_tri","room_assignment":["yellow","blue","green","purple","grey","red"],"door_color_assignment":["black","white"],"door_generator_assignment":[0,1],"goal":2,"start":4,"action_noise":0,"location_history":"[4,2]","action_history":"[1]","door_history":"[1]","location_rts":"[5288]","trial_type":"two-door-navigation","trial_index":12,"time_elapsed":239098,"internal_node_id":"0.0-2.0-10.0"},{"group":"hexagon_tri","room_assignment":["yellow","blue","green","purple","grey","red"],"door_color_assignment":["black","white"],"door_generator_assignment":[0,1],"goal":3,"start":2,"action_noise":0,"location_history":"[2,1,3]","action_history":"[0,0]","door_history":"[0,0]","location_rts":"[2342,1605]","trial_type":"two-door-navigation","trial_index":13,"time_elapsed":249054,"internal_node_id":"0.0-2.0-11.0"},{"group":"hexagon_tri","room_assignment":["yellow","blue","green","purple","grey","red"],"door_color_assignment":["black","white"],"door_generator_assignment":[0,1],"goal":0,"start":3,"action_noise":0,"location_history":"[3,4,0]","action_history":"[1,0]","door_history":"[1,0]","location_rts":"[3183,2318]","trial_type":"two-door-navigation","trial_index":14,"time_elapsed":260563,"internal_node_id":"0.0-2.0-12.0"},{"group":"hexagon_tri","room_assignment":["yellow","blue","green","purple","grey","red"],"door_color_assignment":["black","white"],"door_generator_assignment":[0,1],"goal":5,"start":0,"action_noise":0,"location_history":"[0,1,5]","action_history":"[1,1]","door_history":"[1,1]","location_rts":"[6380,100860]","trial_type":"two-door-navigation","trial_index":15,"time_elapsed":373813,"internal_node_id":"0.0-2.0-13.0"},{"group":"hexagon_tri","room_assignment":["yellow","blue","green","purple","grey","red"],"door_color_assignment":["black","white"],"door_generator_assignment":[0,1],"goal":1,"start":5,"action_noise":0,"location_history":"[5,4,2,3,2,3,4,2,3,2,3,4,0,1]","action_history":"[0,1,1,0,1,1,1,1,0,1,1,0,1]","door_history":"[0,1,1,0,1,1,1,1,0,1,1,0,1]","location_rts":"[4399,1269,767,3108,766,816,924,894,1453,779,657,537,482]","trial_type":"two-door-navigation","trial_index":16,"time_elapsed":407749,"internal_node_id":"0.0-2.0-14.0"},{"group":"hexagon_tri","room_assignment":["yellow","blue","green","purple","grey","red"],"door_color_assignment":["black","white"],"door_generator_assignment":[0,1],"goal":5,"start":1,"action_noise":0,"location_history":"[1,3,2,3,4,0,5]","action_history":"[0,0,1,1,0,0]","door_history":"[0,0,1,1,0,0]","location_rts":"[2337,1148,765,2282,1016,653]","trial_type":"two-door-navigation","trial_index":17,"time_elapsed":425986,"internal_node_id":"0.0-2.0-15.0"},{"group":"hexagon_tri","room_assignment":["yellow","blue","green","purple","grey","red"],"door_color_assignment":["black","white"],"door_generator_assignment":[0,1],"goal":3,"start":5,"action_noise":0,"location_history":"[5,0,1,3]","action_history":"[1,1,0]","door_history":"[1,1,0]","location_rts":"[2280,2567,2106]","trial_type":"two-door-navigation","trial_index":18,"time_elapsed":439975,"internal_node_id":"0.0-2.0-16.0"},{"group":"hexagon_tri","room_assignment":["yellow","blue","green","purple","grey","red"],"door_color_assignment":["black","white"],"door_generator_assignment":[0,1],"goal":2,"start":3,"action_noise":0,"location_history":"[3,4,2]","action_history":"[1,1]","door_history":"[1,1]","location_rts":"[4142,1171]","trial_type":"two-door-navigation","trial_index":19,"time_elapsed":451295,"internal_node_id":"0.0-2.0-17.0"},{"group":"hexagon_tri","room_assignment":["yellow","blue","green","purple","grey","red"],"door_color_assignment":["black","white"],"door_generator_assignment":[0,1],"goal":1,"start":2,"action_noise":0,"location_history":"[2,1]","action_history":"[0]","door_history":"[0]","location_rts":"[2770]","trial_type":"two-door-navigation","trial_index":20,"time_elapsed":459070,"internal_node_id":"0.0-2.0-18.0"},{"group":"hexagon_tri","room_assignment":["yellow","blue","green","purple","grey","red"],"door_color_assignment":["black","white"],"door_generator_assignment":[0,1],"goal":4,"start":1,"action_noise":0,"location_history":"[1,3,2,3,2,1,5,4]","action_history":"[0,0,1,0,0,1,0]","door_history":"[0,0,1,0,0,1,0]","location_rts":"[3085,2066,1830,2257,1119,1395,1013]","trial_type":"two-door-navigation","trial_index":21,"time_elapsed":482861,"internal_node_id":"0.0-2.0-19.0"},{"group":"hexagon_tri","room_assignment":["yellow","blue","green","purple","grey","red"],"door_color_assignment":["black","white"],"door_generator_assignment":[0,1],"goal":0,"start":4,"action_noise":0,"location_history":"[4,0]","action_history":"[0]","door_history":"[0]","location_rts":"[2383]","trial_type":"two-door-navigation","trial_index":22,"time_elapsed":490245,"internal_node_id":"0.0-2.0-20.0"},{"group":"hexagon_tri","room_assignment":["yellow","blue","green","purple","grey","red"],"door_color_assignment":["black","white"],"door_generator_assignment":[0,1],"goal":3,"start":0,"action_noise":0,"location_history":"[0,1,3]","action_history":"[1,0]","door_history":"[1,0]","location_rts":"[3985,920]","trial_type":"two-door-navigation","trial_index":23,"time_elapsed":501160,"internal_node_id":"0.0-2.0-21.0"},{"group":"hexagon_tri","room_assignment":["yellow","blue","green","purple","grey","red"],"door_color_assignment":["black","white"],"door_generator_assignment":[0,1],"goal":1,"start":3,"action_noise":0,"location_history":"[3,2,3,4,2,1]","action_history":"[0,1,1,1,0]","door_history":"[0,1,1,1,0]","location_rts":"[11834,1234,1442,1465,1407]","trial_type":"two-door-navigation","trial_index":24,"time_elapsed":527578,"internal_node_id":"0.0-2.0-22.0"},{"group":"hexagon_tri","room_assignment":["yellow","blue","green","purple","grey","red"],"door_color_assignment":["black","white"],"door_generator_assignment":[0,1],"goal":0,"start":1,"action_noise":0,"location_history":"[1,3,4,0]","action_history":"[0,1,0]","door_history":"[0,1,0]","location_rts":"[4370,1045,11458]","trial_type":"two-door-navigation","trial_index":25,"time_elapsed":551462,"internal_node_id":"0.0-2.0-23.0"},{"group":"hexagon_tri","room_assignment":["yellow","blue","green","purple","grey","red"],"door_color_assignment":["black","white"],"door_generator_assignment":[0,1],"goal":2,"start":0,"action_noise":0,"location_history":"[0,1,3,4,2]","action_history":"[1,0,1,1]","door_history":"[1,0,1,1]","location_rts":"[2687,1163,1029,11031]","trial_type":"two-door-navigation","trial_index":26,"time_elapsed":575386,"internal_node_id":"0.0-2.0-24.0"},{"group":"hexagon_tri","room_assignment":["yellow","blue","green","purple","grey","red"],"door_color_assignment":["black","white"],"door_generator_assignment":[0,1],"goal":4,"start":2,"action_noise":0,"location_history":"[2,3,4]","action_history":"[1,1]","door_history":"[1,1]","location_rts":"[13980,2312]","trial_type":"two-door-navigation","trial_index":27,"time_elapsed":597689,"internal_node_id":"0.0-2.0-25.0"},{"group":"hexagon_tri","room_assignment":["yellow","blue","green","purple","grey","red"],"door_color_assignment":["black","white"],"door_generator_assignment":[0,1],"goal":5,"start":4,"action_noise":0,"location_history":"[4,0,5]","action_history":"[0,0]","door_history":"[0,0]","location_rts":"[12022,684]","trial_type":"two-door-navigation","trial_index":28,"time_elapsed":616422,"internal_node_id":"0.0-2.0-26.0"},{"group":"hexagon_tri","room_assignment":["yellow","blue","green","purple","grey","red"],"door_color_assignment":["black","white"],"door_generator_assignment":[0,1],"goal":2,"start":5,"action_noise":0,"location_history":"[5,0,1,3,4,2]","action_history":"[1,1,0,1,1]","door_history":"[1,1,0,1,1]","location_rts":"[2366,1368,1386,3919,3324]","trial_type":"two-door-navigation","trial_index":29,"time_elapsed":637805,"internal_node_id":"0.0-2.0-27.0"},{"group":"hexagon_tri","room_assignment":["yellow","blue","green","purple","grey","red"],"door_color_assignment":["black","white"],"door_generator_assignment":[0,1],"goal":3,"start":2,"action_noise":0,"location_history":"[2,1,3]","action_history":"[0,0]","door_history":"[0,0]","location_rts":"[4171,1720]","trial_type":"two-door-navigation","trial_index":30,"time_elapsed":649707,"internal_node_id":"0.0-2.0-28.0"},{"group":"hexagon_tri","room_assignment":["yellow","blue","green","purple","grey","red"],"door_color_assignment":["black","white"],"door_generator_assignment":[0,1],"goal":1,"start":3,"action_noise":0,"location_history":"[3,4,2,1]","action_history":"[1,1,0]","door_history":"[1,1,0]","location_rts":"[8085,1303,1210]","trial_type":"two-door-navigation","trial_index":31,"time_elapsed":667328,"internal_node_id":"0.0-2.0-29.0"},{"group":"hexagon_tri","room_assignment":["yellow","blue","green","purple","grey","red"],"door_color_assignment":["black","white"],"door_generator_assignment":[0,1],"goal":4,"start":1,"action_noise":0,"location_history":"[1,5,4]","action_history":"[1,0]","door_history":"[1,0]","location_rts":"[6646,1645]","trial_type":"two-door-navigation","trial_index":32,"time_elapsed":681631,"internal_node_id":"0.0-2.0-30.0"},{"group":"hexagon_tri","room_assignment":["yellow","blue","green","purple","grey","red"],"door_color_assignment":["black","white"],"door_generator_assignment":[0,1],"goal":5,"start":4,"action_noise":0,"location_history":"[4,0,5]","action_history":"[0,0]","door_history":"[0,0]","location_rts":"[3988,645]","trial_type":"two-door-navigation","trial_index":33,"time_elapsed":692272,"internal_node_id":"0.0-2.0-31.0"},{"group":"hexagon_tri","room_assignment":["yellow","blue","green","purple","grey","red"],"door_color_assignment":["black","white"],"door_generator_assignment":[0,1],"goal":0,"start":5,"action_noise":0,"location_history":"[5,4,0]","action_history":"[0,0]","door_history":"[0,0]","location_rts":"[4992,773]","trial_type":"two-door-navigation","trial_index":34,"time_elapsed":704041,"internal_node_id":"0.0-2.0-32.0"},{"group":"hexagon_tri","room_assignment":["yellow","blue","green","purple","grey","red"],"door_color_assignment":["black","white"],"door_generator_assignment":[0,1],"goal":2,"start":0,"action_noise":0,"location_history":"[0,1,3,4,2]","action_history":"[1,0,1,1]","door_history":"[1,0,1,1]","location_rts":"[19970,964,606,573]","trial_type":"two-door-navigation","trial_index":35,"time_elapsed":734176,"internal_node_id":"0.0-2.0-33.0"},{"group":"hexagon_tri","room_assignment":["yellow","blue","green","purple","grey","red"],"door_color_assignment":["black","white"],"door_generator_assignment":[0,1],"goal":0,"start":2,"action_noise":0,"location_history":"[2,1,5,4,0]","action_history":"[0,1,0,0]","door_history":"[0,1,0,0]","location_rts":"[7501,1165,1165,446]","trial_type":"two-door-navigation","trial_index":36,"time_elapsed":752467,"internal_node_id":"0.0-2.0-34.0"},{"group":"hexagon_tri","room_assignment":["yellow","blue","green","purple","grey","red"],"door_color_assignment":["black","white"],"door_generator_assignment":[0,1],"goal":5,"start":0,"action_noise":0,"location_history":"[0,5]","action_history":"[0]","door_history":"[0]","location_rts":"[3117]","trial_type":"two-door-navigation","trial_index":37,"time_elapsed":760593,"internal_node_id":"0.0-2.0-35.0"},{"group":"hexagon_tri","room_assignment":["yellow","blue","green","purple","grey","red"],"door_color_assignment":["black","white"],"door_generator_assignment":[0,1],"goal":1,"start":5,"action_noise":0,"location_history":"[5,0,1]","action_history":"[1,1]","door_history":"[1,1]","location_rts":"[2348,1200]","trial_type":"two-door-navigation","trial_index":38,"time_elapsed":770153,"internal_node_id":"0.0-2.0-36.0"},{"group":"hexagon_tri","room_assignment":["yellow","blue","green","purple","grey","red"],"door_color_assignment":["black","white"],"door_generator_assignment":[0,1],"goal":4,"start":1,"action_noise":0,"location_history":"[1,3,4]","action_history":"[0,1]","door_history":"[0,1]","location_rts":"[4984,699]","trial_type":"two-door-navigation","trial_index":39,"time_elapsed":781842,"internal_node_id":"0.0-2.0-37.0"},{"group":"hexagon_tri","room_assignment":["yellow","blue","green","purple","grey","red"],"door_color_assignment":["black","white"],"door_generator_assignment":[0,1],"goal":3,"start":4,"action_noise":0,"location_history":"[4,2,1,3]","action_history":"[1,0,0]","door_history":"[1,0,0]","location_rts":"[249432,963,539]","trial_type":"two-door-navigation","trial_index":40,"time_elapsed":1039808,"internal_node_id":"0.0-2.0-38.0"},{"group":"hexagon_tri","room_assignment":["yellow","blue","green","purple","grey","red"],"door_color_assignment":["black","white"],"door_generator_assignment":[0,1],"goal":5,"start":3,"action_noise":0,"location_history":"[3,2,3,4,0,5]","action_history":"[0,1,1,0,0]","door_history":"[0,1,1,0,0]","location_rts":"[1691,723,664,886,178]","trial_type":"two-door-navigation","trial_index":41,"time_elapsed":1052986,"internal_node_id":"0.0-2.0-39.0"},{"group":"hexagon_tri","room_assignment":["yellow","blue","green","purple","grey","red"],"door_color_assignment":["black","white"],"door_generator_assignment":[0,1],"goal":1,"start":5,"action_noise":0,"location_history":"[5,0,5,0,1]","action_history":"[1,0,1,1]","door_history":"[1,0,1,1]","location_rts":"[1496,613,215,761]","trial_type":"two-door-navigation","trial_index":42,"time_elapsed":1064096,"internal_node_id":"0.0-2.0-40.0"},{"group":"hexagon_tri","room_assignment":["yellow","blue","green","purple","grey","red"],"door_color_assignment":["black","white"],"door_generator_assignment":[0,1],"goal":2,"start":1,"action_noise":0,"location_history":"[1,3,4,2]","action_history":"[0,1,1]","door_history":"[0,1,1]","location_rts":"[3834,860,618]","trial_type":"two-door-navigation","trial_index":43,"time_elapsed":1076418,"internal_node_id":"0.0-2.0-41.0"},{"group":"hexagon_tri","room_assignment":["yellow","blue","green","purple","grey","red"],"door_color_assignment":["black","white"],"door_generator_assignment":[0,1],"goal":4,"start":2,"action_noise":0,"location_history":"[2,1,5,4]","action_history":"[0,1,0]","door_history":"[0,1,0]","location_rts":"[2295,732,904]","trial_type":"two-door-navigation","trial_index":44,"time_elapsed":1087366,"internal_node_id":"0.0-2.0-42.0"},{"group":"hexagon_tri","room_assignment":["yellow","blue","green","purple","grey","red"],"door_color_assignment":["black","white"],"door_generator_assignment":[0,1],"goal":0,"start":4,"action_noise":0,"location_history":"[4,0]","action_history":"[0]","door_history":"[0]","location_rts":"[1885]","trial_type":"two-door-navigation","trial_index":45,"time_elapsed":1094259,"internal_node_id":"0.0-2.0-43.0"},{"group":"hexagon_tri","room_assignment":["yellow","blue","green","purple","grey","red"],"door_color_assignment":["black","white"],"door_generator_assignment":[0,1],"goal":3,"start":0,"action_noise":0,"location_history":"[0,1,3]","action_history":"[1,0]","door_history":"[1,0]","location_rts":"[1944,612]","trial_type":"two-door-navigation","trial_index":46,"time_elapsed":1102825,"internal_node_id":"0.0-2.0-44.0"},{"group":"hexagon_tri","room_assignment":["yellow","blue","green","purple","grey","red"],"door_color_assignment":["black","white"],"door_generator_assignment":[0,1],"goal":0,"start":3,"action_noise":0,"location_history":"[3,4,0]","action_history":"[1,0]","door_history":"[1,0]","location_rts":"[1897,1101]","trial_type":"two-door-navigation","trial_index":47,"time_elapsed":1111839,"internal_node_id":"0.0-2.0-45.0"},{"group":"hexagon_tri","room_assignment":["yellow","blue","green","purple","grey","red"],"door_color_assignment":["black","white"],"door_generator_assignment":[0,1],"goal":4,"start":0,"action_noise":0,"location_history":"[0,5,4]","action_history":"[0,0]","door_history":"[0,0]","location_rts":"[1411,223]","trial_type":"two-door-navigation","trial_index":48,"time_elapsed":1119488,"internal_node_id":"0.0-2.0-46.0"},{"group":"hexagon_tri","room_assignment":["yellow","blue","green","purple","grey","red"],"door_color_assignment":["black","white"],"door_generator_assignment":[0,1],"goal":5,"start":4,"action_noise":0,"location_history":"[4,0,5]","action_history":"[0,0]","door_history":"[0,0]","location_rts":"[1685,249]","trial_type":"two-door-navigation","trial_index":49,"time_elapsed":1127435,"internal_node_id":"0.0-2.0-47.0"},{"group":"hexagon_tri","room_assignment":["yellow","blue","green","purple","grey","red"],"door_color_assignment":["black","white"],"door_generator_assignment":[0,1],"goal":2,"start":5,"action_noise":0,"location_history":"[5,0,1,3,4,2]","action_history":"[1,1,0,1,1]","door_history":"[1,1,0,1,1]","location_rts":"[2151,486,906,859,555]","trial_type":"two-door-navigation","trial_index":50,"time_elapsed":1141417,"internal_node_id":"0.0-2.0-48.0"},{"group":"hexagon_tri","room_assignment":["yellow","blue","green","purple","grey","red"],"door_color_assignment":["black","white"],"door_generator_assignment":[0,1],"goal":1,"start":2,"action_noise":0,"location_history":"[2,1]","action_history":"[0]","door_history":"[0]","location_rts":"[2074]","trial_type":"two-door-navigation","trial_index":51,"time_elapsed":1148498,"internal_node_id":"0.0-2.0-49.0"},{"view_history":"[{\"page_index\":0,\"viewing_time\":3948}]","rt":3948,"trial_type":"instructions","trial_index":52,"time_elapsed":1153447,"internal_node_id":"0.0-3.0"},{"view_history":"[{\"page_index\":0,\"viewing_time\":1095},{\"page_index\":1,\"viewing_time\":1305}]","rt":2400,"trial_type":"instructions","trial_index":53,"time_elapsed":1156846,"internal_node_id":"0.0-4.0"},{"group":"hexagon_tri","fractal_assignment":["../images/pnk_blu.png","../images/gry_blk.png","../images/org_blu.png","../images/cyn_red.png","../images/ylw_slt.png","../images/blu_wht.png"],"mutagen_generator_assignment":[0,1],"goal":2,"start":1,"action_noise":0,"location_history":"[1,5,0,5,4,2]","action_history":"[1,1,0,0,1]","mutagen_history":"[1,1,0,0,1]","location_rts":"[12888,132,548,661,534]","trial_type":"fractal-mutation","trial_index":54,"time_elapsed":1180675,"internal_node_id":"0.0-5.0-0.0"},{"group":"hexagon_tri","fractal_assignment":["../images/pnk_blu.png","../images/gry_blk.png","../images/org_blu.png","../images/cyn_red.png","../images/ylw_slt.png","../images/blu_wht.png"],"mutagen_generator_assignment":[0,1],"goal":0,"start":2,"action_noise":0,"location_history":"[2,1,5,0]","action_history":"[0,1,1]","mutagen_history":"[0,1,1]","location_rts":"[1004,606,853]","trial_type":"fractal-mutation","trial_index":55,"time_elapsed":1190204,"internal_node_id":"0.0-5.0-1.0"},{"group":"hexagon_tri","fractal_assignment":["../images/pnk_blu.png","../images/gry_blk.png","../images/org_blu.png","../images/cyn_red.png","../images/ylw_slt.png","../images/blu_wht.png"],"mutagen_generator_assignment":[0,1],"goal":5,"start":0,"action_noise":0,"location_history":"[0,5]","action_history":"[0]","mutagen_history":"[0]","location_rts":"[1150]","trial_type":"fractal-mutation","trial_index":56,"time_elapsed":1196363,"internal_node_id":"0.0-5.0-2.0"},{"group":"hexagon_tri","fractal_assignment":["../images/pnk_blu.png","../images/gry_blk.png","../images/org_blu.png","../images/cyn_red.png","../images/ylw_slt.png","../images/blu_wht.png"],"mutagen_generator_assignment":[0,1],"goal":1,"start":5,"action_noise":0,"location_history":"[5,0,1]","action_history":"[1,1]","mutagen_history":"[1,1]","location_rts":"[1018,527]","trial_type":"fractal-mutation","trial_index":57,"time_elapsed":1203943,"internal_node_id":"0.0-5.0-3.0"},{"group":"hexagon_tri","fractal_assignment":["../images/pnk_blu.png","../images/gry_blk.png","../images/org_blu.png","../images/cyn_red.png","../images/ylw_slt.png","../images/blu_wht.png"],"mutagen_generator_assignment":[0,1],"goal":3,"start":1,"action_noise":0,"location_history":"[1,3]","action_history":"[0]","mutagen_history":"[0]","location_rts":"[989]","trial_type":"fractal-mutation","trial_index":58,"time_elapsed":1209941,"internal_node_id":"0.0-5.0-4.0"},{"group":"hexagon_tri","fractal_assignment":["../images/pnk_blu.png","../images/gry_blk.png","../images/org_blu.png","../images/cyn_red.png","../images/ylw_slt.png","../images/blu_wht.png"],"mutagen_generator_assignment":[0,1],"goal":5,"start":3,"action_noise":0,"location_history":"[3,4,0,5]","action_history":"[1,0,0]","mutagen_history":"[1,0,0]","location_rts":"[973,510,500]","trial_type":"fractal-mutation","trial_index":59,"time_elapsed":1218945,"internal_node_id":"0.0-5.0-5.0"},{"group":"hexagon_tri","fractal_assignment":["../images/pnk_blu.png","../images/gry_blk.png","../images/org_blu.png","../images/cyn_red.png","../images/ylw_slt.png","../images/blu_wht.png"],"mutagen_generator_assignment":[0,1],"goal":4,"start":5,"action_noise":0,"location_history":"[5,0,1,5,4]","action_history":"[1,1,1,0]","mutagen_history":"[1,1,1,0]","location_rts":"[1003,408,683,606]","trial_type":"fractal-mutation","trial_index":60,"time_elapsed":1229700,"internal_node_id":"0.0-5.0-6.0"},{"group":"hexagon_tri","fractal_assignment":["../images/pnk_blu.png","../images/gry_blk.png","../images/org_blu.png","../images/cyn_red.png","../images/ylw_slt.png","../images/blu_wht.png"],"mutagen_generator_assignment":[0,1],"goal":0,"start":4,"action_noise":0,"location_history":"[4,2,1,3,4,2,1,3,4,0]","action_history":"[1,0,0,1,1,0,0,1,0]","mutagen_history":"[1,0,0,1,1,0,0,1,0]","location_rts":"[1271,632,600,474,508,456,301,713,825]","trial_type":"fractal-mutation","trial_index":61,"time_elapsed":1248535,"internal_node_id":"0.0-5.0-7.0"},{"group":"hexagon_tri","fractal_assignment":["../images/pnk_blu.png","../images/gry_blk.png","../images/org_blu.png","../images/cyn_red.png","../images/ylw_slt.png","../images/blu_wht.png"],"mutagen_generator_assignment":[0,1],"goal":2,"start":0,"action_noise":0,"location_history":"[0,5,0,1,5,4,2]","action_history":"[0,1,1,1,0,1]","mutagen_history":"[0,1,1,1,0,1]","location_rts":"[1609,531,468,568,495,578]","trial_type":"fractal-mutation","trial_index":62,"time_elapsed":1262864,"internal_node_id":"0.0-5.0-8.0"},{"group":"hexagon_tri","fractal_assignment":["../images/pnk_blu.png","../images/gry_blk.png","../images/org_blu.png","../images/cyn_red.png","../images/ylw_slt.png","../images/blu_wht.png"],"mutagen_generator_assignment":[0,1],"goal":4,"start":2,"action_noise":0,"location_history":"[2,3,2,1,5,4]","action_history":"[1,0,0,1,0]","mutagen_history":"[1,0,0,1,0]","location_rts":"[3543,587,525,452,690]","trial_type":"fractal-mutation","trial_index":63,"time_elapsed":1277722,"internal_node_id":"0.0-5.0-9.0"},{"group":"hexagon_tri","fractal_assignment":["../images/pnk_blu.png","../images/gry_blk.png","../images/org_blu.png","../images/cyn_red.png","../images/ylw_slt.png","../images/blu_wht.png"],"mutagen_generator_assignment":[0,1],"goal":2,"start":4,"action_noise":0,"location_history":"[4,2]","action_history":"[1]","mutagen_history":"[1]","location_rts":"[1049]","trial_type":"fractal-mutation","trial_index":64,"time_elapsed":1283790,"internal_node_id":"0.0-5.0-10.0"},{"group":"hexagon_tri","fractal_assignment":["../images/pnk_blu.png","../images/gry_blk.png","../images/org_blu.png","../images/cyn_red.png","../images/ylw_slt.png","../images/blu_wht.png"],"mutagen_generator_assignment":[0,1],"goal":3,"start":2,"action_noise":0,"location_history":"[2,3]","action_history":"[1]","mutagen_history":"[1]","location_rts":"[865]","trial_type":"fractal-mutation","trial_index":65,"time_elapsed":1289665,"internal_node_id":"0.0-5.0-11.0"},{"group":"hexagon_tri","fractal_assignment":["../images/pnk_blu.png","../images/gry_blk.png","../images/org_blu.png","../images/cyn_red.png","../images/ylw_slt.png","../images/blu_wht.png"],"mutagen_generator_assignment":[0,1],"goal":0,"start":3,"action_noise":0,"location_history":"[3,2,3,4,0]","action_history":"[0,1,1,0]","mutagen_history":"[0,1,1,0]","location_rts":"[796,536,466,623]","trial_type":"fractal-mutation","trial_index":66,"time_elapsed":1300115,"internal_node_id":"0.0-5.0-12.0"},{"group":"hexagon_tri","fractal_assignment":["../images/pnk_blu.png","../images/gry_blk.png","../images/org_blu.png","../images/cyn_red.png","../images/ylw_slt.png","../images/blu_wht.png"],"mutagen_generator_assignment":[0,1],"goal":5,"start":0,"action_noise":0,"location_history":"[0,5]","action_history":"[0]","mutagen_history":"[0]","location_rts":"[997]","trial_type":"fractal-mutation","trial_index":67,"time_elapsed":1306125,"internal_node_id":"0.0-5.0-13.0"},{"group":"hexagon_tri","fractal_assignment":["../images/pnk_blu.png","../images/gry_blk.png","../images/org_blu.png","../images/cyn_red.png","../images/ylw_slt.png","../images/blu_wht.png"],"mutagen_generator_assignment":[0,1],"goal":1,"start":5,"action_noise":0,"location_history":"[5,4,2,3,2,3,4,0,1]","action_history":"[0,1,1,0,1,1,0,1]","mutagen_history":"[0,1,1,0,1,1,0,1]","location_rts":"[532,422,472,463,451,419,654,493]","trial_type":"fractal-mutation","trial_index":68,"time_elapsed":1322095,"internal_node_id":"0.0-5.0-14.0"},{"group":"hexagon_tri","fractal_assignment":["../images/pnk_blu.png","../images/gry_blk.png","../images/org_blu.png","../images/cyn_red.png","../images/ylw_slt.png","../images/blu_wht.png"],"mutagen_generator_assignment":[0,1],"goal":5,"start":1,"action_noise":0,"location_history":"[1,3,2,3,2,3,4,0,1,3,2,3,4,0,5]","action_history":"[0,0,1,0,1,1,0,1,0,0,1,1,0,0]","mutagen_history":"[0,0,1,0,1,1,0,1,0,0,1,1,0,0]","location_rts":"[825,540,793,428,654,322,486,852,652,417,553,462,600,959]","trial_type":"fractal-mutation","trial_index":69,"time_elapsed":1348857,"internal_node_id":"0.0-5.0-15.0"},{"group":"hexagon_tri","fractal_assignment":["../images/pnk_blu.png","../images/gry_blk.png","../images/org_blu.png","../images/cyn_red.png","../images/ylw_slt.png","../images/blu_wht.png"],"mutagen_generator_assignment":[0,1],"goal":3,"start":5,"action_noise":0,"location_history":"[5,0,5,4,0,1,3]","action_history":"[1,0,0,0,1,0]","mutagen_history":"[1,0,0,0,1,0]","location_rts":"[991,478,664,493,522,472]","trial_type":"fractal-mutation","trial_index":70,"time_elapsed":1362552,"internal_node_id":"0.0-5.0-16.0"},{"group":"hexagon_tri","fractal_assignment":["../images/pnk_blu.png","../images/gry_blk.png","../images/org_blu.png","../images/cyn_red.png","../images/ylw_slt.png","../images/blu_wht.png"],"mutagen_generator_assignment":[0,1],"goal":2,"start":3,"action_noise":0,"location_history":"[3,4,0,5,0,5,4,2]","action_history":"[1,0,0,1,0,0,1]","mutagen_history":"[1,0,0,1,0,0,1]","location_rts":"[1589,533,471,470,419,482,403]","trial_type":"fractal-mutation","trial_index":71,"time_elapsed":1377980,"internal_node_id":"0.0-5.0-17.0"},{"group":"hexagon_tri","fractal_assignment":["../images/pnk_blu.png","../images/gry_blk.png","../images/org_blu.png","../images/cyn_red.png","../images/ylw_slt.png","../images/blu_wht.png"],"mutagen_generator_assignment":[0,1],"goal":1,"start":2,"action_noise":0,"location_history":"[2,3,2,3,4,0,1]","action_history":"[1,0,1,1,0,1]","mutagen_history":"[1,0,1,1,0,1]","location_rts":"[1018,737,564,266,441,639]","trial_type":"fractal-mutation","trial_index":72,"time_elapsed":1391699,"internal_node_id":"0.0-5.0-18.0"},{"group":"hexagon_tri","fractal_assignment":["../images/pnk_blu.png","../images/gry_blk.png","../images/org_blu.png","../images/cyn_red.png","../images/ylw_slt.png","../images/blu_wht.png"],"mutagen_generator_assignment":[0,1],"goal":4,"start":1,"action_noise":0,"location_history":"[1,5,4]","action_history":"[1,0]","mutagen_history":"[1,0]","location_rts":"[981,451]","trial_type":"fractal-mutation","trial_index":73,"time_elapsed":1399144,"internal_node_id":"0.0-5.0-19.0"},{"group":"hexagon_tri","fractal_assignment":["../images/pnk_blu.png","../images/gry_blk.png","../images/org_blu.png","../images/cyn_red.png","../images/ylw_slt.png","../images/blu_wht.png"],"mutagen_generator_assignment":[0,1],"goal":0,"start":4,"action_noise":0,"location_history":"[4,0]","action_history":"[0]","mutagen_history":"[0]","location_rts":"[443]","trial_type":"fractal-mutation","trial_index":74,"time_elapsed":1404596,"internal_node_id":"0.0-5.0-20.0"},{"group":"hexagon_tri","fractal_assignment":["../images/pnk_blu.png","../images/gry_blk.png","../images/org_blu.png","../images/cyn_red.png","../images/ylw_slt.png","../images/blu_wht.png"],"mutagen_generator_assignment":[0,1],"goal":3,"start":0,"action_noise":0,"location_history":"[0,1,3]","action_history":"[1,0]","mutagen_history":"[1,0]","location_rts":"[542,353]","trial_type":"fractal-mutation","trial_index":75,"time_elapsed":1411512,"internal_node_id":"0.0-5.0-21.0"},{"group":"hexagon_tri","fractal_assignment":["../images/pnk_blu.png","../images/gry_blk.png","../images/org_blu.png","../images/cyn_red.png","../images/ylw_slt.png","../images/blu_wht.png"],"mutagen_generator_assignment":[0,1],"goal":1,"start":3,"action_noise":0,"location_history":"[3,4,0,5,0,1]","action_history":"[1,0,0,1,1]","mutagen_history":"[1,0,0,1,1]","location_rts":"[900,502,594,457,558]","trial_type":"fractal-mutation","trial_index":76,"time_elapsed":1423565,"internal_node_id":"0.0-5.0-22.0"},{"group":"hexagon_tri","fractal_assignment":["../images/pnk_blu.png","../images/gry_blk.png","../images/org_blu.png","../images/cyn_red.png","../images/ylw_slt.png","../images/blu_wht.png"],"mutagen_generator_assignment":[0,1],"goal":0,"start":1,"action_noise":0,"location_history":"[1,3,4,2,1,3,4,2,3,2,1,5,4,0]","action_history":"[0,1,1,0,0,1,1,1,0,0,1,0,0]","mutagen_history":"[0,1,1,0,0,1,1,1,0,0,1,0,0]","location_rts":"[477,435,534,445,475,520,537,1336,333,647,504,551,443]","trial_type":"fractal-mutation","trial_index":77,"time_elapsed":1447914,"internal_node_id":"0.0-5.0-23.0"},{"group":"hexagon_tri","fractal_assignment":["../images/pnk_blu.png","../images/gry_blk.png","../images/org_blu.png","../images/cyn_red.png","../images/ylw_slt.png","../images/blu_wht.png"],"mutagen_generator_assignment":[0,1],"goal":2,"start":0,"action_noise":0,"location_history":"[0,1,3,2]","action_history":"[1,0,0]","mutagen_history":"[1,0,0]","location_rts":"[1143,460,530]","trial_type":"fractal-mutation","trial_index":78,"time_elapsed":1457072,"internal_node_id":"0.0-5.0-24.0"},{"group":"hexagon_tri","fractal_assignment":["../images/pnk_blu.png","../images/gry_blk.png","../images/org_blu.png","../images/cyn_red.png","../images/ylw_slt.png","../images/blu_wht.png"],"mutagen_generator_assignment":[0,1],"goal":4,"start":2,"action_noise":0,"location_history":"[2,1,5,0,5,4]","action_history":"[0,1,1,0,0]","mutagen_history":"[0,1,1,0,0]","location_rts":"[1503,574,607,444,861]","trial_type":"fractal-mutation","trial_index":79,"time_elapsed":1470115,"internal_node_id":"0.0-5.0-25.0"},{"group":"hexagon_tri","fractal_assignment":["../images/pnk_blu.png","../images/gry_blk.png","../images/org_blu.png","../images/cyn_red.png","../images/ylw_slt.png","../images/blu_wht.png"],"mutagen_generator_assignment":[0,1],"goal":5,"start":4,"action_noise":0,"location_history":"[4,2,1,3,4,0,5]","action_history":"[1,0,0,1,0,0]","mutagen_history":"[1,0,0,1,0,0]","location_rts":"[868,454,435,452,486,505]","trial_type":"fractal-mutation","trial_index":80,"time_elapsed":1483358,"internal_node_id":"0.0-5.0-26.0"},{"group":"hexagon_tri","fractal_assignment":["../images/pnk_blu.png","../images/gry_blk.png","../images/org_blu.png","../images/cyn_red.png","../images/ylw_slt.png","../images/blu_wht.png"],"mutagen_generator_assignment":[0,1],"goal":2,"start":5,"action_noise":0,"location_history":"[5,0,5,4,0,1,3,4,2]","action_history":"[1,0,0,0,1,0,1,1]","mutagen_history":"[1,0,0,0,1,0,1,1]","location_rts":"[1111,518,443,532,505,1018,679,490]","trial_type":"fractal-mutation","trial_index":81,"time_elapsed":1500689,"internal_node_id":"0.0-5.0-27.0"},{"group":"hexagon_tri","fractal_assignment":["../images/pnk_blu.png","../images/gry_blk.png","../images/org_blu.png","../images/cyn_red.png","../images/ylw_slt.png","../images/blu_wht.png"],"mutagen_generator_assignment":[0,1],"goal":3,"start":2,"action_noise":0,"location_history":"[2,3]","action_history":"[1]","mutagen_history":"[1]","location_rts":"[1046]","trial_type":"fractal-mutation","trial_index":82,"time_elapsed":1506748,"internal_node_id":"0.0-5.0-28.0"},{"group":"hexagon_tri","fractal_assignment":["../images/pnk_blu.png","../images/gry_blk.png","../images/org_blu.png","../images/cyn_red.png","../images/ylw_slt.png","../images/blu_wht.png"],"mutagen_generator_assignment":[0,1],"goal":1,"start":3,"action_noise":0,"location_history":"[3,2,3,4,0,5,0,1]","action_history":"[0,1,1,0,0,1,1]","mutagen_history":"[0,1,1,0,0,1,1]","location_rts":"[765,661,693,609,526,401,509]","trial_type":"fractal-mutation","trial_index":83,"time_elapsed":1521983,"internal_node_id":"0.0-5.0-29.0"},{"group":"hexagon_tri","fractal_assignment":["../images/pnk_blu.png","../images/gry_blk.png","../images/org_blu.png","../images/cyn_red.png","../images/ylw_slt.png","../images/blu_wht.png"],"mutagen_generator_assignment":[0,1],"goal":4,"start":1,"action_noise":0,"location_history":"[1,5,4]","action_history":"[1,0]","mutagen_history":"[1,0]","location_rts":"[741,505]","trial_type":"fractal-mutation","trial_index":84,"time_elapsed":1529291,"internal_node_id":"0.0-5.0-30.0"},{"group":"hexagon_tri","fractal_assignment":["../images/pnk_blu.png","../images/gry_blk.png","../images/org_blu.png","../images/cyn_red.png","../images/ylw_slt.png","../images/blu_wht.png"],"mutagen_generator_assignment":[0,1],"goal":5,"start":4,"action_noise":0,"location_history":"[4,0,1,5]","action_history":"[0,1,1]","mutagen_history":"[0,1,1]","location_rts":"[1003,529,471]","trial_type":"fractal-mutation","trial_index":85,"time_elapsed":1538325,"internal_node_id":"0.0-5.0-31.0"},{"group":"hexagon_tri","fractal_assignment":["../images/pnk_blu.png","../images/gry_blk.png","../images/org_blu.png","../images/cyn_red.png","../images/ylw_slt.png","../images/blu_wht.png"],"mutagen_generator_assignment":[0,1],"goal":0,"start":5,"action_noise":0,"location_history":"[5,0]","action_history":"[1]","mutagen_history":"[1]","location_rts":"[720]","trial_type":"fractal-mutation","trial_index":86,"time_elapsed":1544051,"internal_node_id":"0.0-5.0-32.0"},{"group":"hexagon_tri","fractal_assignment":["../images/pnk_blu.png","../images/gry_blk.png","../images/org_blu.png","../images/cyn_red.png","../images/ylw_slt.png","../images/blu_wht.png"],"mutagen_generator_assignment":[0,1],"goal":2,"start":0,"action_noise":0,"location_history":"[0,5,4,2]","action_history":"[0,0,1]","mutagen_history":"[0,0,1]","location_rts":"[735,609,439]","trial_type":"fractal-mutation","trial_index":87,"time_elapsed":1552854,"internal_node_id":"0.0-5.0-33.0"},{"group":"hexagon_tri","fractal_assignment":["../images/pnk_blu.png","../images/gry_blk.png","../images/org_blu.png","../images/cyn_red.png","../images/ylw_slt.png","../images/blu_wht.png"],"mutagen_generator_assignment":[0,1],"goal":0,"start":2,"action_noise":0,"location_history":"[2,1,3,4,2,1,5,4,0]","action_history":"[0,0,1,1,0,1,0,0]","mutagen_history":"[0,0,1,1,0,1,0,0]","location_rts":"[909,396,875,1069,1016,1764,837,751]","trial_type":"fractal-mutation","trial_index":88,"time_elapsed":1572606,"internal_node_id":"0.0-5.0-34.0"},{"group":"hexagon_tri","fractal_assignment":["../images/pnk_blu.png","../images/gry_blk.png","../images/org_blu.png","../images/cyn_red.png","../images/ylw_slt.png","../images/blu_wht.png"],"mutagen_generator_assignment":[0,1],"goal":5,"start":0,"action_noise":0,"location_history":"[0,1,3,2,3,2,1,5]","action_history":"[1,0,0,1,0,0,1]","mutagen_history":"[1,0,0,1,0,0,1]","location_rts":"[710,485,532,452,333,445,439]","trial_type":"fractal-mutation","trial_index":89,"time_elapsed":1587079,"internal_node_id":"0.0-5.0-35.0"},{"group":"hexagon_tri","fractal_assignment":["../images/pnk_blu.png","../images/gry_blk.png","../images/org_blu.png","../images/cyn_red.png","../images/ylw_slt.png","../images/blu_wht.png"],"mutagen_generator_assignment":[0,1],"goal":1,"start":5,"action_noise":0,"location_history":"[5,0,5,4,2,1]","action_history":"[1,0,0,1,0]","mutagen_history":"[1,0,0,1,0]","location_rts":"[558,450,502,453,425]","trial_type":"fractal-mutation","trial_index":90,"time_elapsed":1598514,"internal_node_id":"0.0-5.0-36.0"},{"group":"hexagon_tri","fractal_assignment":["../images/pnk_blu.png","../images/gry_blk.png","../images/org_blu.png","../images/cyn_red.png","../images/ylw_slt.png","../images/blu_wht.png"],"mutagen_generator_assignment":[0,1],"goal":4,"start":1,"action_noise":0,"location_history":"[1,3,4]","action_history":"[0,1]","mutagen_history":"[0,1]","location_rts":"[473,392]","trial_type":"fractal-mutation","trial_index":91,"time_elapsed":1605424,"internal_node_id":"0.0-5.0-37.0"},{"group":"hexagon_tri","fractal_assignment":["../images/pnk_blu.png","../images/gry_blk.png","../images/org_blu.png","../images/cyn_red.png","../images/ylw_slt.png","../images/blu_wht.png"],"mutagen_generator_assignment":[0,1],"goal":3,"start":4,"action_noise":0,"location_history":"[4,2,1,3]","action_history":"[1,0,0]","mutagen_history":"[1,0,0]","location_rts":"[499,720,419]","trial_type":"fractal-mutation","trial_index":92,"time_elapsed":1614088,"internal_node_id":"0.0-5.0-38.0"},{"group":"hexagon_tri","fractal_assignment":["../images/pnk_blu.png","../images/gry_blk.png","../images/org_blu.png","../images/cyn_red.png","../images/ylw_slt.png","../images/blu_wht.png"],"mutagen_generator_assignment":[0,1],"goal":5,"start":3,"action_noise":0,"location_history":"[3,4,0,5]","action_history":"[1,0,0]","mutagen_history":"[1,0,0]","location_rts":"[538,447,483]","trial_type":"fractal-mutation","trial_index":93,"time_elapsed":1622575,"internal_node_id":"0.0-5.0-39.0"},{"group":"hexagon_tri","fractal_assignment":["../images/pnk_blu.png","../images/gry_blk.png","../images/org_blu.png","../images/cyn_red.png","../images/ylw_slt.png","../images/blu_wht.png"],"mutagen_generator_assignment":[0,1],"goal":1,"start":5,"action_noise":0,"location_history":"[5,0,5,4,2,1]","action_history":"[1,0,0,1,0]","mutagen_history":"[1,0,0,1,0]","location_rts":"[883,472,579,685,462]","trial_type":"fractal-mutation","trial_index":94,"time_elapsed":1634697,"internal_node_id":"0.0-5.0-40.0"},{"group":"hexagon_tri","fractal_assignment":["../images/pnk_blu.png","../images/gry_blk.png","../images/org_blu.png","../images/cyn_red.png","../images/ylw_slt.png","../images/blu_wht.png"],"mutagen_generator_assignment":[0,1],"goal":2,"start":1,"action_noise":0,"location_history":"[1,5,4,0,1,3,2]","action_history":"[1,0,0,1,0,0]","mutagen_history":"[1,0,0,1,0,0]","location_rts":"[735,398,345,332,413,407]","trial_type":"fractal-mutation","trial_index":95,"time_elapsed":1647360,"internal_node_id":"0.0-5.0-41.0"},{"group":"hexagon_tri","fractal_assignment":["../images/pnk_blu.png","../images/gry_blk.png","../images/org_blu.png","../images/cyn_red.png","../images/ylw_slt.png","../images/blu_wht.png"],"mutagen_generator_assignment":[0,1],"goal":4,"start":2,"action_noise":0,"location_history":"[2,1,5,0,5,0,1,3,2,3,2,1,3,4]","action_history":"[0,1,1,0,1,1,0,0,1,0,0,0,1]","mutagen_history":"[0,1,1,0,1,1,0,0,1,0,0,0,1]","location_rts":"[525,351,439,482,584,343,560,419,346,458,458,375,392]","trial_type":"fractal-mutation","trial_index":96,"time_elapsed":1670199,"internal_node_id":"0.0-5.0-42.0"},{"group":"hexagon_tri","fractal_assignment":["../images/pnk_blu.png","../images/gry_blk.png","../images/org_blu.png","../images/cyn_red.png","../images/ylw_slt.png","../images/blu_wht.png"],"mutagen_generator_assignment":[0,1],"goal":0,"start":4,"action_noise":0,"location_history":"[4,2,1,3,2,3,2,3,4,0]","action_history":"[1,0,0,0,1,0,1,1,0]","mutagen_history":"[1,0,0,0,1,0,1,1,0]","location_rts":"[556,452,460,753,355,759,579,260,410]","trial_type":"fractal-mutation","trial_index":97,"time_elapsed":1687842,"internal_node_id":"0.0-5.0-43.0"},{"group":"hexagon_tri","fractal_assignment":["../images/pnk_blu.png","../images/gry_blk.png","../images/org_blu.png","../images/cyn_red.png","../images/ylw_slt.png","../images/blu_wht.png"],"mutagen_generator_assignment":[0,1],"goal":3,"start":0,"action_noise":0,"location_history":"[0,1,3]","action_history":"[1,0]","mutagen_history":"[1,0]","location_rts":"[610,393]","trial_type":"fractal-mutation","trial_index":98,"time_elapsed":1694862,"internal_node_id":"0.0-5.0-44.0"},{"group":"hexagon_tri","fractal_assignment":["../images/pnk_blu.png","../images/gry_blk.png","../images/org_blu.png","../images/cyn_red.png","../images/ylw_slt.png","../images/blu_wht.png"],"mutagen_generator_assignment":[0,1],"goal":0,"start":3,"action_noise":0,"location_history":"[3,2,3,4,0]","action_history":"[0,1,1,0]","mutagen_history":"[0,1,1,0]","location_rts":"[634,359,417,472]","trial_type":"fractal-mutation","trial_index":99,"time_elapsed":1704779,"internal_node_id":"0.0-5.0-45.0"},{"group":"hexagon_tri","fractal_assignment":["../images/pnk_blu.png","../images/gry_blk.png","../images/org_blu.png","../images/cyn_red.png","../images/ylw_slt.png","../images/blu_wht.png"],"mutagen_generator_assignment":[0,1],"goal":4,"start":0,"action_noise":0,"location_history":"[0,1,5,4]","action_history":"[1,1,0]","mutagen_history":"[1,1,0]","location_rts":"[948,613,565]","trial_type":"fractal-mutation","trial_index":100,"time_elapsed":1713951,"internal_node_id":"0.0-5.0-46.0"},{"group":"hexagon_tri","fractal_assignment":["../images/pnk_blu.png","../images/gry_blk.png","../images/org_blu.png","../images/cyn_red.png","../images/ylw_slt.png","../images/blu_wht.png"],"mutagen_generator_assignment":[0,1],"goal":5,"start":4,"action_noise":0,"location_history":"[4,2,1,3,4,0,5]","action_history":"[1,0,0,1,0,0]","mutagen_history":"[1,0,0,1,0,0]","location_rts":"[393,416,445,419,438,604]","trial_type":"fractal-mutation","trial_index":101,"time_elapsed":1726700,"internal_node_id":"0.0-5.0-47.0"},{"group":"hexagon_tri","fractal_assignment":["../images/pnk_blu.png","../images/gry_blk.png","../images/org_blu.png","../images/cyn_red.png","../images/ylw_slt.png","../images/blu_wht.png"],"mutagen_generator_assignment":[0,1],"goal":2,"start":5,"action_noise":0,"location_history":"[5,0,5,4,2]","action_history":"[1,0,0,1]","mutagen_history":"[1,0,0,1]","location_rts":"[466,413,425,390]","trial_type":"fractal-mutation","trial_index":102,"time_elapsed":1736419,"internal_node_id":"0.0-5.0-48.0"},{"group":"hexagon_tri","fractal_assignment":["../images/pnk_blu.png","../images/gry_blk.png","../images/org_blu.png","../images/cyn_red.png","../images/ylw_slt.png","../images/blu_wht.png"],"mutagen_generator_assignment":[0,1],"goal":1,"start":2,"action_noise":0,"location_history":"[2,3,2,1]","action_history":"[1,0,0]","mutagen_history":"[1,0,0]","location_rts":"[441,480,495]","trial_type":"fractal-mutation","trial_index":103,"time_elapsed":1744869,"internal_node_id":"0.0-5.0-49.0"},{"view_history":"[{\"page_index\":0,\"viewing_time\":3615}]","rt":3617,"trial_type":"instructions","trial_index":104,"time_elapsed":1749486,"internal_node_id":"0.0-6.0"},{"rt":27075,"responses":"{\"Q0\":\"The way we memorize the path from color to color?!\"}","trial_type":"survey-text","trial_index":105,"time_elapsed":1777563,"internal_node_id":"0.0-7.0-0.0"},{"rt":29308,"responses":"{\"Q0\":\"The same things, the way we memorize the path, from mutation to mutation\"}","trial_type":"survey-text","trial_index":106,"time_elapsed":1807873,"internal_node_id":"0.0-7.0-1.0"},{"rt":32797,"responses":"{\"Q0\":\"<img src='../images/diagrams/hexagon_tri.png'>\"}","trial_type":"survey-multi-choice","trial_index":107,"time_elapsed":1841673,"internal_node_id":"0.0-7.0-2.0"},{"rt":39425,"assignments":["../images/pnk_blu.png","../images/cyn_red.png","../images/blu_wht.png","../images/ylw_slt.png","../images/gry_blk.png","../images/org_blu.png"],"trial_type":"drag-drop-on-image","trial_index":108,"time_elapsed":1882099,"internal_node_id":"0.0-7.0-3.0"},{"rt":6038,"responses":"{\"Q0\":\"2\"}","trial_type":"survey-likert","trial_index":109,"time_elapsed":1889139,"internal_node_id":"0.0-7.0-4.0"},{"rt":61698,"responses":"{\"Q0\":\"In both experiments there was a circular pattern that would bring from the 1st to the 2nd, to the 3rd, to the 1st element again\"}","trial_type":"survey-text","trial_index":110,"time_elapsed":1951836,"internal_node_id":"0.0-7.0-5.0"},{"rt":9007,"responses":"{\"Q0\":\"Yes\"}","trial_type":"survey-multi-choice","trial_index":111,"time_elapsed":1961845,"internal_node_id":"0.0-7.0-6.0"},{"rt":14735,"responses":"{\"Q0\":\"During session 1\"}","trial_type":"survey-multi-choice","trial_index":112,"time_elapsed":1977583,"internal_node_id":"0.0-7.0-7.0"},{"rt":41214,"responses":"{\"Q0\":\"I think the correspondence is the circular loop of 3 elements, as I described in the previous question\"}","trial_type":"survey-text","trial_index":113,"time_elapsed":2019799,"internal_node_id":"0.0-7.0-8.0"},{"rt":10632,"responses":"{\"Q0\":\"1\"}","trial_type":"survey-likert","trial_index":114,"time_elapsed":2031434,"internal_node_id":"0.0-7.0-9.0"},{"rt":9749,"responses":"{\"Q0\":\"Different structure\"}","trial_type":"survey-multi-choice","trial_index":115,"time_elapsed":2042185,"internal_node_id":"0.0-7.0-10.0"},{"rt":38146,"assignments":["../images/org_blu.png","../images/gry_blk.png","../images/ylw_slt.png","../images/pnk_blu.png","../images/cyn_red.png","../images/blu_wht.png"],"background_order":[4,1,5,0,3,2],"trial_type":"drag-drop-on-image","trial_index":116,"time_elapsed":2081331,"internal_node_id":"0.0-7.0-11.0"},{"rt":20504,"responses":"{\"Q0\":\"left (black) door = acid, right (white) door = ray\",\"Q1\":\"Moderately confident\"}","trial_type":"survey-multi-choice","trial_index":117,"time_elapsed":2102838,"internal_node_id":"0.0-7.0-12.0"},{"rt":8924,"responses":"{\"Q0\":\"35-45\",\"Q1\":\"Some college\",\"Q2\":\"Male\",\"Q3\":\"White\"}","trial_type":"survey-multi-choice","trial_index":118,"time_elapsed":2112773,"internal_node_id":"0.0-8.0"},{"rt":24319,"responses":"{\"Q0\":\"It has been a really interesting study, thank you so much, and best of luck with your research!\"}","trial_type":"survey-text","trial_index":119,"time_elapsed":2138093,"internal_node_id":"0.0-9.0"}]