[{"view_history":"[{\"page_index\":0,\"viewing_time\":1667},{\"page_index\":1,\"viewing_time\":9174}]","rt":10844,"trial_type":"instructions","trial_index":0,"time_elapsed":10846,"internal_node_id":"0.0-0.0"},{"view_history":"[{\"page_index\":0,\"viewing_time\":3511},{\"page_index\":1,\"viewing_time\":1523}]","rt":5035,"trial_type":"instructions","trial_index":1,"time_elapsed":16884,"internal_node_id":"0.0-1.0"},{"group":"hexagon_tri","room_assignment":["grey","yellow","blue","green","red","purple"],"door_color_assignment":["black","white"],"door_generator_assignment":[1,0],"goal":2,"start":1,"action_noise":0,"location_history":"[1,5,4,2]","action_history":"[1,0,1]","door_history":"[0,1,0]","location_rts":"[4068,910,896]","trial_type":"two-door-navigation","trial_index":2,"time_elapsed":29837,"internal_node_id":"0.0-2.0-0.0"},{"group":"hexagon_tri","room_assignment":["grey","yellow","blue","green","red","purple"],"door_color_assignment":["black","white"],"door_generator_assignment":[1,0],"goal":0,"start":2,"action_noise":0,"location_history":"[2,1,3,4,0]","action_history":"[0,0,1,0]","door_history":"[1,1,0,1]","location_rts":"[3547,604,1154,1192]","trial_type":"two-door-navigation","trial_index":3,"time_elapsed":44409,"internal_node_id":"0.0-2.0-1.0"},{"group":"hexagon_tri","room_assignment":["grey","yellow","blue","green","red","purple"],"door_color_assignment":["black","white"],"door_generator_assignment":[1,0],"goal":5,"start":0,"action_noise":0,"location_history":"[0,1,3,4,2,3,2,1,3,2,3,2,1,5]","action_history":"[1,0,1,1,1,0,0,0,0,1,0,0,1]","door_history":"[0,1,0,0,0,1,1,1,1,0,1,1,0]","location_rts":"[3865,3387,1169,1239,604,1139,541,644,1434,1244,794,579,1099]","trial_type":"two-door-navigation","trial_index":4,"time_elapsed":79779,"internal_node_id":"0.0-2.0-2.0"},{"group":"hexagon_tri","room_assignment":["grey","yellow","blue","green","red","purple"],"door_color_assignment":["black","white"],"door_generator_assignment":[1,0],"goal":1,"start":5,"action_noise":0,"location_history":"[5,0,5,4,0,1]","action_history":"[1,0,0,0,1]","door_history":"[0,1,1,1,0]","location_rts":"[3454,1154,437,569,665]","trial_type":"two-door-navigation","trial_index":5,"time_elapsed":95146,"internal_node_id":"0.0-2.0-3.0"},{"group":"hexagon_tri","room_assignment":["grey","yellow","blue","green","red","purple"],"door_color_assignment":["black","white"],"door_generator_assignment":[1,0],"goal":3,"start":1,"action_noise":0,"location_history":"[1,5,0,5,4,2,3]","action_history":"[1,1,0,0,1,1]","door_history":"[0,0,1,1,0,0]","location_rts":"[8916,927,3991,451,1204,487]","trial_type":"two-door-navigation","trial_index":6,"time_elapsed":121218,"internal_node_id":"0.0-2.0-4.0"},{"group":"hexagon_tri","room_assignment":["grey","yellow","blue","green","red","purple"],"door_color_assignment":["black","white"],"door_generator_assignment":[1,0],"goal":5,"start":3,"action_noise":0,"location_history":"[3,4,2,1,3,2,1,5]","action_history":"[1,1,0,0,0,0,1]","door_history":"[0,0,1,1,1,1,0]","location_rts":"[21346,535,627,363,424,486,1127]","trial_type":"two-door-navigation","trial_index":7,"time_elapsed":157846,"internal_node_id":"0.0-2.0-5.0"},{"group":"hexagon_tri","room_assignment":["grey","yellow","blue","green","red","purple"],"door_color_assignment":["black","white"],"door_generator_assignment":[1,0],"goal":4,"start":5,"action_noise":0,"location_history":"[5,0,1,5,4]","action_history":"[1,1,1,0]","door_history":"[0,0,0,1]","location_rts":"[4160,573,744,719]","trial_type":"two-door-navigation","trial_index":8,"time_elapsed":172185,"internal_node_id":"0.0-2.0-6.0"},{"group":"hexagon_tri","room_assignment":["grey","yellow","blue","green","red","purple"],"door_color_assignment":["black","white"],"door_generator_assignment":[1,0],"goal":0,"start":4,"action_noise":0,"location_history":"[4,2,3,2,1,3,2,1,5,0]","action_history":"[1,1,0,0,0,0,0,1,1]","door_history":"[0,0,1,1,1,1,1,0,0]","location_rts":"[15148,467,1157,371,425,471,1459,861,809]","trial_type":"two-door-navigation","trial_index":9,"time_elapsed":206457,"internal_node_id":"0.0-2.0-7.0"},{"group":"hexagon_tri","room_assignment":["grey","yellow","blue","green","red","purple"],"door_color_assignment":["black","white"],"door_generator_assignment":[1,0],"goal":2,"start":0,"action_noise":0,"location_history":"[0,5,0,1,5,0,5,4,2]","action_history":"[0,1,1,1,1,0,0,1]","door_history":"[1,0,0,0,0,1,1,0]","location_rts":"[3865,1155,523,570,3212,1129,756,992]","trial_type":"two-door-navigation","trial_index":10,"time_elapsed":231262,"internal_node_id":"0.0-2.0-8.0"},{"group":"hexagon_tri","room_assignment":["grey","yellow","blue","green","red","purple"],"door_color_assignment":["black","white"],"door_generator_assignment":[1,0],"goal":4,"start":2,"action_noise":0,"location_history":"[2,3,2,1,5,4]","action_history":"[1,0,0,1,0]","door_history":"[0,1,1,0,1]","location_rts":"[33220,743,467,1007,1267]","trial_type":"two-door-navigation","trial_index":11,"time_elapsed":277534,"internal_node_id":"0.0-2.0-9.0"},{"group":"hexagon_tri","room_assignment":["grey","yellow","blue","green","red","purple"],"door_color_assignment":["black","white"],"door_generator_assignment":[1,0],"goal":2,"start":4,"action_noise":0,"location_history":"[4,2]","action_history":"[1]","door_history":"[0]","location_rts":"[4974]","trial_type":"two-door-navigation","trial_index":12,"time_elapsed":287547,"internal_node_id":"0.0-2.0-10.0"},{"group":"hexagon_tri","room_assignment":["grey","yellow","blue","green","red","purple"],"door_color_assignment":["black","white"],"door_generator_assignment":[1,0],"goal":3,"start":2,"action_noise":0,"location_history":"[2,3]","action_history":"[1]","door_history":"[0]","location_rts":"[8111]","trial_type":"two-door-navigation","trial_index":13,"time_elapsed":300883,"internal_node_id":"0.0-2.0-11.0"},{"group":"hexagon_tri","room_assignment":["grey","yellow","blue","green","red","purple"],"door_color_assignment":["black","white"],"door_generator_assignment":[1,0],"goal":0,"start":3,"action_noise":0,"location_history":"[3,2,1,5,0]","action_history":"[0,0,1,1]","door_history":"[1,1,0,0]","location_rts":"[8086,855,981,931]","trial_type":"two-door-navigation","trial_index":14,"time_elapsed":319830,"internal_node_id":"0.0-2.0-12.0"},{"group":"hexagon_tri","room_assignment":["grey","yellow","blue","green","red","purple"],"door_color_assignment":["black","white"],"door_generator_assignment":[1,0],"goal":5,"start":0,"action_noise":0,"location_history":"[0,5]","action_history":"[0]","door_history":"[1]","location_rts":"[1009]","trial_type":"two-door-navigation","trial_index":15,"time_elapsed":325863,"internal_node_id":"0.0-2.0-13.0"},{"group":"hexagon_tri","room_assignment":["grey","yellow","blue","green","red","purple"],"door_color_assignment":["black","white"],"door_generator_assignment":[1,0],"goal":1,"start":5,"action_noise":0,"location_history":"[5,0,1]","action_history":"[1,1]","door_history":"[0,0]","location_rts":"[4630,1254]","trial_type":"two-door-navigation","trial_index":16,"time_elapsed":337802,"internal_node_id":"0.0-2.0-14.0"},{"group":"hexagon_tri","room_assignment":["grey","yellow","blue","green","red","purple"],"door_color_assignment":["black","white"],"door_generator_assignment":[1,0],"goal":5,"start":1,"action_noise":0,"location_history":"[1,3,4,2,3,2,1,3,4,2,3,2,1,3,4,2,3,4,0,5]","action_history":"[0,1,1,1,0,0,0,1,1,1,0,0,0,1,1,1,1,0,0]","door_history":"[1,0,0,0,1,1,1,0,0,0,1,1,1,0,0,0,0,1,1]","location_rts":"[3035,3248,511,528,851,408,549,1455,809,461,2187,483,956,1049,470,626,860,744,611]","trial_type":"two-door-navigation","trial_index":17,"time_elapsed":381443,"internal_node_id":"0.0-2.0-15.0"},{"group":"hexagon_tri","room_assignment":["grey","yellow","blue","green","red","purple"],"door_color_assignment":["black","white"],"door_generator_assignment":[1,0],"goal":3,"start":5,"action_noise":0,"location_history":"[5,0,1,3]","action_history":"[1,1,0]","door_history":"[0,0,1]","location_rts":"[9545,807,714]","trial_type":"two-door-navigation","trial_index":18,"time_elapsed":399935,"internal_node_id":"0.0-2.0-16.0"},{"group":"hexagon_tri","room_assignment":["grey","yellow","blue","green","red","purple"],"door_color_assignment":["black","white"],"door_generator_assignment":[1,0],"goal":2,"start":3,"action_noise":0,"location_history":"[3,4,2]","action_history":"[1,1]","door_history":"[0,0]","location_rts":"[3501,1858]","trial_type":"two-door-navigation","trial_index":19,"time_elapsed":411363,"internal_node_id":"0.0-2.0-17.0"},{"group":"hexagon_tri","room_assignment":["grey","yellow","blue","green","red","purple"],"door_color_assignment":["black","white"],"door_generator_assignment":[1,0],"goal":1,"start":2,"action_noise":0,"location_history":"[2,1]","action_history":"[0]","door_history":"[1]","location_rts":"[2849]","trial_type":"two-door-navigation","trial_index":20,"time_elapsed":419445,"internal_node_id":"0.0-2.0-18.0"},{"group":"hexagon_tri","room_assignment":["grey","yellow","blue","green","red","purple"],"door_color_assignment":["black","white"],"door_generator_assignment":[1,0],"goal":4,"start":1,"action_noise":0,"location_history":"[1,5,4]","action_history":"[1,0]","door_history":"[0,1]","location_rts":"[2521,734]","trial_type":"two-door-navigation","trial_index":21,"time_elapsed":428735,"internal_node_id":"0.0-2.0-19.0"},{"group":"hexagon_tri","room_assignment":["grey","yellow","blue","green","red","purple"],"door_color_assignment":["black","white"],"door_generator_assignment":[1,0],"goal":0,"start":4,"action_noise":0,"location_history":"[4,2,1,3,4,2,1,5,4,0]","action_history":"[1,0,0,1,1,0,1,0,0]","door_history":"[0,1,1,0,0,1,0,1,1]","location_rts":"[141814,4377,691,1143,1796,754,1032,1955,330]","trial_type":"two-door-navigation","trial_index":22,"time_elapsed":595866,"internal_node_id":"0.0-2.0-20.0"},{"group":"hexagon_tri","room_assignment":["grey","yellow","blue","green","red","purple"],"door_color_assignment":["black","white"],"door_generator_assignment":[1,0],"goal":3,"start":0,"action_noise":0,"location_history":"[0,1,5,0,5,4,0,5,0,5,4,2,1,5,4,0,5,0,1,5,4,0,1,5,4,2,3]","action_history":"[1,1,1,0,0,0,0,1,0,0,1,0,1,0,0,0,1,1,1,0,0,1,1,0,1,1]","door_history":"[0,0,0,1,1,1,1,0,1,1,0,1,0,1,1,1,0,0,0,1,1,0,0,1,0,0]","location_rts":"[3867,519,421,1582,523,599,581,1226,1516,5499,1623,1408,1120,1002,920,673,903,567,1555,1193,1418,1290,592,2053,1028,591]","trial_type":"two-door-navigation","trial_index":23,"time_elapsed":661340,"internal_node_id":"0.0-2.0-21.0"},{"group":"hexagon_tri","room_assignment":["grey","yellow","blue","green","red","purple"],"door_color_assignment":["black","white"],"door_generator_assignment":[1,0],"goal":1,"start":3,"action_noise":0,"location_history":"[3,4,0,1]","action_history":"[1,0,1]","door_history":"[0,1,0]","location_rts":"[130974,2595,703]","trial_type":"two-door-navigation","trial_index":24,"time_elapsed":802672,"internal_node_id":"0.0-2.0-22.0"},{"group":"hexagon_tri","room_assignment":["grey","yellow","blue","green","red","purple"],"door_color_assignment":["black","white"],"door_generator_assignment":[1,0],"goal":0,"start":1,"action_noise":0,"location_history":"[1,5,4,0]","action_history":"[1,0,0]","door_history":"[0,1,1]","location_rts":"[1346,622,479]","trial_type":"two-door-navigation","trial_index":25,"time_elapsed":812731,"internal_node_id":"0.0-2.0-23.0"},{"group":"hexagon_tri","room_assignment":["grey","yellow","blue","green","red","purple"],"door_color_assignment":["black","white"],"door_generator_assignment":[1,0],"goal":2,"start":0,"action_noise":0,"location_history":"[0,1,5,4,2]","action_history":"[1,1,0,1]","door_history":"[0,0,1,0]","location_rts":"[17214,2172,2548,1761]","trial_type":"two-door-navigation","trial_index":26,"time_elapsed":845572,"internal_node_id":"0.0-2.0-24.0"},{"group":"hexagon_tri","room_assignment":["grey","yellow","blue","green","red","purple"],"door_color_assignment":["black","white"],"door_generator_assignment":[1,0],"goal":4,"start":2,"action_noise":0,"location_history":"[2,1,5,0,1,3,2,1,5,0,1,3,4]","action_history":"[0,1,1,1,0,0,0,1,1,1,0,1]","door_history":"[1,0,0,0,1,1,1,0,0,0,1,0]","location_rts":"[12337,1272,806,1435,1663,1379,3971,1240,606,546,1501,760]","trial_type":"two-door-navigation","trial_index":27,"time_elapsed":889310,"internal_node_id":"0.0-2.0-25.0"},{"group":"hexagon_tri","room_assignment":["grey","yellow","blue","green","red","purple"],"door_color_assignment":["black","white"],"door_generator_assignment":[1,0],"goal":5,"start":4,"action_noise":0,"location_history":"[4,2,3,4,0,1,5]","action_history":"[1,1,1,0,1,1]","door_history":"[0,0,0,1,0,0]","location_rts":"[2895,1292,1889,3160,1520,640]","trial_type":"two-door-navigation","trial_index":28,"time_elapsed":910984,"internal_node_id":"0.0-2.0-26.0"},{"group":"hexagon_tri","room_assignment":["grey","yellow","blue","green","red","purple"],"door_color_assignment":["black","white"],"door_generator_assignment":[1,0],"goal":2,"start":5,"action_noise":0,"location_history":"[5,0,5,4,2]","action_history":"[1,0,0,1]","door_history":"[0,1,1,0]","location_rts":"[5230,1958,799,904]","trial_type":"two-door-navigation","trial_index":29,"time_elapsed":927959,"internal_node_id":"0.0-2.0-27.0"},{"group":"hexagon_tri","room_assignment":["grey","yellow","blue","green","red","purple"],"door_color_assignment":["black","white"],"door_generator_assignment":[1,0],"goal":3,"start":2,"action_noise":0,"location_history":"[2,3]","action_history":"[1]","door_history":"[0]","location_rts":"[930]","trial_type":"two-door-navigation","trial_index":30,"time_elapsed":933926,"internal_node_id":"0.0-2.0-28.0"},{"group":"hexagon_tri","room_assignment":["grey","yellow","blue","green","red","purple"],"door_color_assignment":["black","white"],"door_generator_assignment":[1,0],"goal":1,"start":3,"action_noise":0,"location_history":"[3,4,2,1]","action_history":"[1,1,0]","door_history":"[0,0,1]","location_rts":"[1730,1522,1638]","trial_type":"two-door-navigation","trial_index":31,"time_elapsed":945871,"internal_node_id":"0.0-2.0-29.0"},{"group":"hexagon_tri","room_assignment":["grey","yellow","blue","green","red","purple"],"door_color_assignment":["black","white"],"door_generator_assignment":[1,0],"goal":4,"start":1,"action_noise":0,"location_history":"[1,5,4]","action_history":"[1,0]","door_history":"[0,1]","location_rts":"[2104,963]","trial_type":"two-door-navigation","trial_index":32,"time_elapsed":954979,"internal_node_id":"0.0-2.0-30.0"},{"group":"hexagon_tri","room_assignment":["grey","yellow","blue","green","red","purple"],"door_color_assignment":["black","white"],"door_generator_assignment":[1,0],"goal":5,"start":4,"action_noise":0,"location_history":"[4,2,1,3,4,2,3,2,3,4,2,1,3,2,3,4,2,1,5]","action_history":"[1,0,0,1,1,1,0,1,1,1,0,0,0,1,1,1,0,1]","door_history":"[0,1,1,0,0,0,1,0,0,0,1,1,1,0,0,0,1,0]","location_rts":"[5643,5177,961,1213,918,631,1495,1074,476,760,1954,1124,626,1509,663,682,2071,1629]","trial_type":"two-door-navigation","trial_index":33,"time_elapsed":1006375,"internal_node_id":"0.0-2.0-31.0"},{"group":"hexagon_tri","room_assignment":["grey","yellow","blue","green","red","purple"],"door_color_assignment":["black","white"],"door_generator_assignment":[1,0],"goal":0,"start":5,"action_noise":0,"location_history":"[5,0]","action_history":"[1]","door_history":"[0]","location_rts":"[7114]","trial_type":"two-door-navigation","trial_index":34,"time_elapsed":1018513,"internal_node_id":"0.0-2.0-32.0"},{"group":"hexagon_tri","room_assignment":["grey","yellow","blue","green","red","purple"],"door_color_assignment":["black","white"],"door_generator_assignment":[1,0],"goal":2,"start":0,"action_noise":0,"location_history":"[0,5,4,2]","action_history":"[0,0,1]","door_history":"[1,1,0]","location_rts":"[2031,1166,2341]","trial_type":"two-door-navigation","trial_index":35,"time_elapsed":1031107,"internal_node_id":"0.0-2.0-33.0"},{"group":"hexagon_tri","room_assignment":["grey","yellow","blue","green","red","purple"],"door_color_assignment":["black","white"],"door_generator_assignment":[1,0],"goal":0,"start":2,"action_noise":0,"location_history":"[2,1,3,4,0]","action_history":"[0,0,1,0]","door_history":"[1,1,0,1]","location_rts":"[1861,3003,2491,845]","trial_type":"two-door-navigation","trial_index":36,"time_elapsed":1047760,"internal_node_id":"0.0-2.0-34.0"},{"group":"hexagon_tri","room_assignment":["grey","yellow","blue","green","red","purple"],"door_color_assignment":["black","white"],"door_generator_assignment":[1,0],"goal":5,"start":0,"action_noise":0,"location_history":"[0,1,5]","action_history":"[1,1]","door_history":"[0,0]","location_rts":"[1852,797]","trial_type":"two-door-navigation","trial_index":37,"time_elapsed":1056481,"internal_node_id":"0.0-2.0-35.0"},{"group":"hexagon_tri","room_assignment":["grey","yellow","blue","green","red","purple"],"door_color_assignment":["black","white"],"door_generator_assignment":[1,0],"goal":1,"start":5,"action_noise":0,"location_history":"[5,4,0,1]","action_history":"[0,0,1]","door_history":"[1,1,0]","location_rts":"[1728,2205,851]","trial_type":"two-door-navigation","trial_index":38,"time_elapsed":1068770,"internal_node_id":"0.0-2.0-36.0"},{"group":"hexagon_tri","room_assignment":["grey","yellow","blue","green","red","purple"],"door_color_assignment":["black","white"],"door_generator_assignment":[1,0],"goal":4,"start":1,"action_noise":0,"location_history":"[1,5,0,5,4]","action_history":"[1,1,0,0]","door_history":"[0,0,1,1]","location_rts":"[517556,5376,971,1005]","trial_type":"two-door-navigation","trial_index":39,"time_elapsed":1601858,"internal_node_id":"0.0-2.0-37.0"},{"group":"hexagon_tri","room_assignment":["grey","yellow","blue","green","red","purple"],"door_color_assignment":["black","white"],"door_generator_assignment":[1,0],"goal":3,"start":4,"action_noise":0,"location_history":"[4,2,3]","action_history":"[1,1]","door_history":"[0,0]","location_rts":"[10610,833]","trial_type":"two-door-navigation","trial_index":40,"time_elapsed":1619628,"internal_node_id":"0.0-2.0-38.0"},{"group":"hexagon_tri","room_assignment":["grey","yellow","blue","green","red","purple"],"door_color_assignment":["black","white"],"door_generator_assignment":[1,0],"goal":5,"start":3,"action_noise":0,"location_history":"[3,2,3,4,2,3,2,1,3,2,3,4,2,3,4,2,1,3,4,2,3,2,1,5]","action_history":"[0,1,1,1,1,0,0,0,0,1,1,1,1,1,1,0,0,1,1,1,0,0,1]","door_history":"[1,0,0,0,0,1,1,1,1,0,0,0,0,0,0,1,1,0,0,0,1,1,0]","location_rts":"[6535,617,401,2151,583,1320,1075,524,6222,1096,7429,641,1731,3861,497,477,500,1579,419,453,1348,1447,1096]","trial_type":"two-door-navigation","trial_index":41,"time_elapsed":1689253,"internal_node_id":"0.0-2.0-39.0"},{"group":"hexagon_tri","room_assignment":["grey","yellow","blue","green","red","purple"],"door_color_assignment":["black","white"],"door_generator_assignment":[1,0],"goal":1,"start":5,"action_noise":0,"location_history":"[5,4,2,1]","action_history":"[0,1,0]","door_history":"[1,0,1]","location_rts":"[19949,1225,438]","trial_type":"two-door-navigation","trial_index":42,"time_elapsed":1717914,"internal_node_id":"0.0-2.0-40.0"},{"group":"hexagon_tri","room_assignment":["grey","yellow","blue","green","red","purple"],"door_color_assignment":["black","white"],"door_generator_assignment":[1,0],"goal":2,"start":1,"action_noise":0,"location_history":"[1,5,4,2]","action_history":"[1,0,1]","door_history":"[0,1,0]","location_rts":"[9530,976,1110]","trial_type":"two-door-navigation","trial_index":43,"time_elapsed":1736785,"internal_node_id":"0.0-2.0-41.0"},{"group":"hexagon_tri","room_assignment":["grey","yellow","blue","green","red","purple"],"door_color_assignment":["black","white"],"door_generator_assignment":[1,0],"goal":4,"start":2,"action_noise":0,"location_history":"[2,3,2,1,5,0,5,4]","action_history":"[1,0,0,1,1,0,0]","door_history":"[0,1,1,0,0,1,1]","location_rts":"[5202,1646,797,1093,676,999,829]","trial_type":"two-door-navigation","trial_index":44,"time_elapsed":1759613,"internal_node_id":"0.0-2.0-42.0"},{"group":"hexagon_tri","room_assignment":["grey","yellow","blue","green","red","purple"],"door_color_assignment":["black","white"],"door_generator_assignment":[1,0],"goal":0,"start":4,"action_noise":0,"location_history":"[4,2,1,3,2,1,5,0]","action_history":"[1,0,0,0,0,1,1]","door_history":"[0,1,1,1,1,0,0]","location_rts":"[17278,5482,465,502,4428,1272,3452]","trial_type":"two-door-navigation","trial_index":45,"time_elapsed":1803598,"internal_node_id":"0.0-2.0-43.0"},{"group":"hexagon_tri","room_assignment":["grey","yellow","blue","green","red","purple"],"door_color_assignment":["black","white"],"door_generator_assignment":[1,0],"goal":3,"start":0,"action_noise":0,"location_history":"[0,1,3]","action_history":"[1,0]","door_history":"[0,1]","location_rts":"[11414,788]","trial_type":"two-door-navigation","trial_index":46,"time_elapsed":1821843,"internal_node_id":"0.0-2.0-44.0"},{"group":"hexagon_tri","room_assignment":["grey","yellow","blue","green","red","purple"],"door_color_assignment":["black","white"],"door_generator_assignment":[1,0],"goal":0,"start":3,"action_noise":0,"location_history":"[3,4,2,3,2,1,5,4,0]","action_history":"[1,1,1,0,0,1,0,0]","door_history":"[0,0,0,1,1,0,1,1]","location_rts":"[2358,471,10217,2408,663,16860,781,444]","trial_type":"two-door-navigation","trial_index":47,"time_elapsed":1868302,"internal_node_id":"0.0-2.0-45.0"},{"group":"hexagon_tri","room_assignment":["grey","yellow","blue","green","red","purple"],"door_color_assignment":["black","white"],"door_generator_assignment":[1,0],"goal":4,"start":0,"action_noise":0,"location_history":"[0,1,5,4]","action_history":"[1,1,0]","door_history":"[0,0,1]","location_rts":"[1245,836,612]","trial_type":"two-door-navigation","trial_index":48,"time_elapsed":1878037,"internal_node_id":"0.0-2.0-46.0"},{"group":"hexagon_tri","room_assignment":["grey","yellow","blue","green","red","purple"],"door_color_assignment":["black","white"],"door_generator_assignment":[1,0],"goal":5,"start":4,"action_noise":0,"location_history":"[4,2,3,2,1,5]","action_history":"[1,1,0,0,1]","door_history":"[0,0,1,1,0]","location_rts":"[1232,474,819,503,1865]","trial_type":"two-door-navigation","trial_index":49,"time_elapsed":1892350,"internal_node_id":"0.0-2.0-47.0"},{"group":"hexagon_tri","room_assignment":["grey","yellow","blue","green","red","purple"],"door_color_assignment":["black","white"],"door_generator_assignment":[1,0],"goal":2,"start":5,"action_noise":0,"location_history":"[5,0,5,0,1,5,4,2]","action_history":"[1,0,1,1,1,0,1]","door_history":"[0,1,0,0,0,1,0]","location_rts":"[10907,2782,696,466,962,1652,862]","trial_type":"two-door-navigation","trial_index":50,"time_elapsed":1922065,"internal_node_id":"0.0-2.0-48.0"},{"group":"hexagon_tri","room_assignment":["grey","yellow","blue","green","red","purple"],"door_color_assignment":["black","white"],"door_generator_assignment":[1,0],"goal":1,"start":2,"action_noise":0,"location_history":"[2,3,2,3,4,2,1]","action_history":"[1,0,1,1,1,0]","door_history":"[0,1,0,0,0,1]","location_rts":"[3626,11177,781,6875,825,531]","trial_type":"two-door-navigation","trial_index":51,"time_elapsed":1956000,"internal_node_id":"0.0-2.0-49.0"},{"view_history":"[{\"page_index\":0,\"viewing_time\":3541}]","rt":3542,"trial_type":"instructions","trial_index":52,"time_elapsed":1960543,"internal_node_id":"0.0-3.0"},{"view_history":"[{\"page_index\":0,\"viewing_time\":3888},{\"page_index\":1,\"viewing_time\":1956}]","rt":5845,"trial_type":"instructions","trial_index":53,"time_elapsed":1967390,"internal_node_id":"0.0-4.0"},{"group":"hexagon_bi","fractal_assignment":["../images/ylw_slt.png","../images/org_blu.png","../images/blu_wht.png","../images/pnk_blu.png","../images/gry_blk.png","../images/cyn_red.png"],"mutagen_generator_assignment":[1,0],"goal":2,"start":1,"action_noise":0,"location_history":"[1,0,5,0,1,0,1,2]","action_history":"[1,0,0,1,1,1,0]","mutagen_history":"[0,1,1,0,0,0,1]","location_rts":"[19275,723,557,554,438,554,575]","trial_type":"fractal-mutation","trial_index":54,"time_elapsed":2001707,"internal_node_id":"0.0-5.0-0.0"},{"group":"hexagon_bi","fractal_assignment":["../images/ylw_slt.png","../images/org_blu.png","../images/blu_wht.png","../images/pnk_blu.png","../images/gry_blk.png","../images/cyn_red.png"],"mutagen_generator_assignment":[1,0],"goal":0,"start":2,"action_noise":0,"location_history":"[2,3,4,3,4,5,4,3,4,3,2,3,4,5,4,3,2,1,0]","action_history":"[1,0,0,0,1,1,0,0,0,1,1,0,1,1,0,1,0,1]","mutagen_history":"[0,1,1,1,0,0,1,1,1,0,0,1,0,0,1,0,1,0]","location_rts":"[6561,520,528,642,431,408,632,669,696,449,663,1272,456,1599,646,912,1328,895]","trial_type":"fractal-mutation","trial_index":55,"time_elapsed":2044697,"internal_node_id":"0.0-5.0-1.0"},{"group":"hexagon_bi","fractal_assignment":["../images/ylw_slt.png","../images/org_blu.png","../images/blu_wht.png","../images/pnk_blu.png","../images/gry_blk.png","../images/cyn_red.png"],"mutagen_generator_assignment":[1,0],"goal":5,"start":0,"action_noise":0,"location_history":"[0,1,2,1,2,1,0,5]","action_history":"[1,0,0,0,0,1,0]","mutagen_history":"[0,1,1,1,1,0,1]","location_rts":"[9559,599,352,479,452,1126,431]","trial_type":"fractal-mutation","trial_index":56,"time_elapsed":2069177,"internal_node_id":"0.0-5.0-2.0"},{"group":"hexagon_bi","fractal_assignment":["../images/ylw_slt.png","../images/org_blu.png","../images/blu_wht.png","../images/pnk_blu.png","../images/gry_blk.png","../images/cyn_red.png"],"mutagen_generator_assignment":[1,0],"goal":1,"start":5,"action_noise":0,"location_history":"[5,4,3,4,5,4,5,0,5,0,5,4,5,4,3,2,3,4,3,2,3,2,3,4,5,4,5,0,5,4,5,4,3,4,5,4,5,0,1]","action_history":"[1,0,0,1,1,1,0,0,0,0,1,1,1,0,1,1,0,0,1,1,1,1,0,1,1,1,0,0,1,1,1,0,0,1,1,1,0,1]","mutagen_history":"[0,1,1,0,0,0,1,1,1,1,0,0,0,1,0,0,1,1,0,0,0,0,1,0,0,0,1,1,0,0,0,1,1,0,0,0,1,0]","location_rts":"[8007,1058,453,447,397,413,550,383,484,515,731,351,495,639,853,411,649,590,376,368,4204,935,510,1576,12923,405,848,428,666,369,992,519,485,478,418,442,852,827]","trial_type":"fractal-mutation","trial_index":57,"time_elapsed":2160425,"internal_node_id":"0.0-5.0-3.0"},{"group":"hexagon_bi","fractal_assignment":["../images/ylw_slt.png","../images/org_blu.png","../images/blu_wht.png","../images/pnk_blu.png","../images/gry_blk.png","../images/cyn_red.png"],"mutagen_generator_assignment":[1,0],"goal":3,"start":1,"action_noise":0,"location_history":"[1,2,3]","action_history":"[0,1]","mutagen_history":"[1,0]","location_rts":"[475086,666]","trial_type":"fractal-mutation","trial_index":58,"time_elapsed":2642346,"internal_node_id":"0.0-5.0-4.0"},{"group":"hexagon_bi","fractal_assignment":["../images/ylw_slt.png","../images/org_blu.png","../images/blu_wht.png","../images/pnk_blu.png","../images/gry_blk.png","../images/cyn_red.png"],"mutagen_generator_assignment":[1,0],"goal":5,"start":3,"action_noise":0,"location_history":"[3,2,3,4,3,2,3,2,1,2,3,2,1,2,3,2,3,4,5]","action_history":"[1,1,0,0,1,1,1,0,0,1,1,0,0,1,1,1,0,1]","mutagen_history":"[0,0,1,1,0,0,0,1,1,0,0,1,1,0,0,0,1,0]","location_rts":"[2941,652,1208,421,607,518,830,477,836,551,504,2586,1221,1348,857,1459,1256,1964]","trial_type":"fractal-mutation","trial_index":59,"time_elapsed":2685823,"internal_node_id":"0.0-5.0-5.0"},{"group":"hexagon_bi","fractal_assignment":["../images/ylw_slt.png","../images/org_blu.png","../images/blu_wht.png","../images/pnk_blu.png","../images/gry_blk.png","../images/cyn_red.png"],"mutagen_generator_assignment":[1,0],"goal":4,"start":5,"action_noise":0,"location_history":"[5,0,1,2,3,4]","action_history":"[0,1,0,1,0]","mutagen_history":"[1,0,1,0,1]","location_rts":"[3976,1146,1064,1415,9199]","trial_type":"fractal-mutation","trial_index":60,"time_elapsed":2711957,"internal_node_id":"0.0-5.0-6.0"},{"group":"hexagon_bi","fractal_assignment":["../images/ylw_slt.png","../images/org_blu.png","../images/blu_wht.png","../images/pnk_blu.png","../images/gry_blk.png","../images/cyn_red.png"],"mutagen_generator_assignment":[1,0],"goal":0,"start":4,"action_noise":0,"location_history":"[4,5,0]","action_history":"[1,0]","mutagen_history":"[0,1]","location_rts":"[3667,3644]","trial_type":"fractal-mutation","trial_index":61,"time_elapsed":2725670,"internal_node_id":"0.0-5.0-7.0"},{"group":"hexagon_bi","fractal_assignment":["../images/ylw_slt.png","../images/org_blu.png","../images/blu_wht.png","../images/pnk_blu.png","../images/gry_blk.png","../images/cyn_red.png"],"mutagen_generator_assignment":[1,0],"goal":2,"start":0,"action_noise":0,"location_history":"[0,1,2]","action_history":"[1,0]","mutagen_history":"[0,1]","location_rts":"[5833,4190]","trial_type":"fractal-mutation","trial_index":62,"time_elapsed":2742206,"internal_node_id":"0.0-5.0-8.0"},{"group":"hexagon_bi","fractal_assignment":["../images/ylw_slt.png","../images/org_blu.png","../images/blu_wht.png","../images/pnk_blu.png","../images/gry_blk.png","../images/cyn_red.png"],"mutagen_generator_assignment":[1,0],"goal":4,"start":2,"action_noise":0,"location_history":"[2,1,2,3,2,1,2,1,0,5,0,5,4]","action_history":"[0,0,1,1,0,0,0,1,0,0,0,1]","mutagen_history":"[1,1,0,0,1,1,1,0,1,1,1,0]","location_rts":"[6090,10855,3910,7351,3170,4810,1827,953,1326,5707,6427,4743]","trial_type":"fractal-mutation","trial_index":63,"time_elapsed":2816708,"internal_node_id":"0.0-5.0-9.0"},{"group":"hexagon_bi","fractal_assignment":["../images/ylw_slt.png","../images/org_blu.png","../images/blu_wht.png","../images/pnk_blu.png","../images/gry_blk.png","../images/cyn_red.png"],"mutagen_generator_assignment":[1,0],"goal":2,"start":4,"action_noise":0,"location_history":"[4,3,2]","action_history":"[0,1]","mutagen_history":"[1,0]","location_rts":"[1717,999]","trial_type":"fractal-mutation","trial_index":64,"time_elapsed":2825567,"internal_node_id":"0.0-5.0-10.0"},{"group":"hexagon_bi","fractal_assignment":["../images/ylw_slt.png","../images/org_blu.png","../images/blu_wht.png","../images/pnk_blu.png","../images/gry_blk.png","../images/cyn_red.png"],"mutagen_generator_assignment":[1,0],"goal":3,"start":2,"action_noise":0,"location_history":"[2,1,2,3]","action_history":"[0,0,1]","mutagen_history":"[1,1,0]","location_rts":"[6069,1280,852]","trial_type":"fractal-mutation","trial_index":65,"time_elapsed":2840955,"internal_node_id":"0.0-5.0-11.0"},{"group":"hexagon_bi","fractal_assignment":["../images/ylw_slt.png","../images/org_blu.png","../images/blu_wht.png","../images/pnk_blu.png","../images/gry_blk.png","../images/cyn_red.png"],"mutagen_generator_assignment":[1,0],"goal":0,"start":3,"action_noise":0,"location_history":"[3,2,1,2,3,2,1,2,1,2,1,0]","action_history":"[1,0,0,1,1,0,0,0,0,0,1]","mutagen_history":"[0,1,1,0,0,1,1,1,1,1,0]","location_rts":"[6227,6490,4333,5393,5314,8504,6274,1309,396,205,1826]","trial_type":"fractal-mutation","trial_index":66,"time_elapsed":2903367,"internal_node_id":"0.0-5.0-12.0"},{"group":"hexagon_bi","fractal_assignment":["../images/ylw_slt.png","../images/org_blu.png","../images/blu_wht.png","../images/pnk_blu.png","../images/gry_blk.png","../images/cyn_red.png"],"mutagen_generator_assignment":[1,0],"goal":5,"start":0,"action_noise":0,"location_history":"[0,5]","action_history":"[0]","mutagen_history":"[1]","location_rts":"[2213]","trial_type":"fractal-mutation","trial_index":67,"time_elapsed":2910677,"internal_node_id":"0.0-5.0-13.0"},{"group":"hexagon_bi","fractal_assignment":["../images/ylw_slt.png","../images/org_blu.png","../images/blu_wht.png","../images/pnk_blu.png","../images/gry_blk.png","../images/cyn_red.png"],"mutagen_generator_assignment":[1,0],"goal":1,"start":5,"action_noise":0,"location_history":"[5,0,1]","action_history":"[0,1]","mutagen_history":"[1,0]","location_rts":"[1273,372]","trial_type":"fractal-mutation","trial_index":68,"time_elapsed":2918462,"internal_node_id":"0.0-5.0-14.0"},{"group":"hexagon_bi","fractal_assignment":["../images/ylw_slt.png","../images/org_blu.png","../images/blu_wht.png","../images/pnk_blu.png","../images/gry_blk.png","../images/cyn_red.png"],"mutagen_generator_assignment":[1,0],"goal":5,"start":1,"action_noise":0,"location_history":"[1,0,5]","action_history":"[1,0]","mutagen_history":"[0,1]","location_rts":"[2832,511]","trial_type":"fractal-mutation","trial_index":69,"time_elapsed":2927963,"internal_node_id":"0.0-5.0-15.0"},{"group":"hexagon_bi","fractal_assignment":["../images/ylw_slt.png","../images/org_blu.png","../images/blu_wht.png","../images/pnk_blu.png","../images/gry_blk.png","../images/cyn_red.png"],"mutagen_generator_assignment":[1,0],"goal":3,"start":5,"action_noise":0,"location_history":"[5,4,3]","action_history":"[1,0]","mutagen_history":"[0,1]","location_rts":"[3347,515]","trial_type":"fractal-mutation","trial_index":70,"time_elapsed":2937957,"internal_node_id":"0.0-5.0-16.0"},{"group":"hexagon_bi","fractal_assignment":["../images/ylw_slt.png","../images/org_blu.png","../images/blu_wht.png","../images/pnk_blu.png","../images/gry_blk.png","../images/cyn_red.png"],"mutagen_generator_assignment":[1,0],"goal":2,"start":3,"action_noise":0,"location_history":"[3,4,5,4,3,4,5,4,3,4,3,2]","action_history":"[0,1,1,0,0,1,1,0,0,0,1]","mutagen_history":"[1,0,0,1,1,0,0,1,1,1,0]","location_rts":"[1072,486,620,617,668,771,365,976,504,447,536]","trial_type":"fractal-mutation","trial_index":71,"time_elapsed":2960744,"internal_node_id":"0.0-5.0-17.0"},{"group":"hexagon_bi","fractal_assignment":["../images/ylw_slt.png","../images/org_blu.png","../images/blu_wht.png","../images/pnk_blu.png","../images/gry_blk.png","../images/cyn_red.png"],"mutagen_generator_assignment":[1,0],"goal":1,"start":2,"action_noise":0,"location_history":"[2,1]","action_history":"[0]","mutagen_history":"[1]","location_rts":"[1872]","trial_type":"fractal-mutation","trial_index":72,"time_elapsed":2967709,"internal_node_id":"0.0-5.0-18.0"},{"group":"hexagon_bi","fractal_assignment":["../images/ylw_slt.png","../images/org_blu.png","../images/blu_wht.png","../images/pnk_blu.png","../images/gry_blk.png","../images/cyn_red.png"],"mutagen_generator_assignment":[1,0],"goal":4,"start":1,"action_noise":0,"location_history":"[1,0,5,4]","action_history":"[1,0,1]","mutagen_history":"[0,1,0]","location_rts":"[2028,690,638]","trial_type":"fractal-mutation","trial_index":73,"time_elapsed":2978258,"internal_node_id":"0.0-5.0-19.0"},{"group":"hexagon_bi","fractal_assignment":["../images/ylw_slt.png","../images/org_blu.png","../images/blu_wht.png","../images/pnk_blu.png","../images/gry_blk.png","../images/cyn_red.png"],"mutagen_generator_assignment":[1,0],"goal":0,"start":4,"action_noise":0,"location_history":"[4,5,0]","action_history":"[1,0]","mutagen_history":"[0,1]","location_rts":"[1349,584]","trial_type":"fractal-mutation","trial_index":74,"time_elapsed":2986318,"internal_node_id":"0.0-5.0-20.0"},{"group":"hexagon_bi","fractal_assignment":["../images/ylw_slt.png","../images/org_blu.png","../images/blu_wht.png","../images/pnk_blu.png","../images/gry_blk.png","../images/cyn_red.png"],"mutagen_generator_assignment":[1,0],"goal":3,"start":0,"action_noise":0,"location_history":"[0,5,4,5,0,5,4,5,0,5,4,5,0,5,4,3]","action_history":"[0,1,1,0,0,1,1,0,0,1,1,0,0,1,0]","mutagen_history":"[1,0,0,1,1,0,0,1,1,0,0,1,1,0,1]","location_rts":"[1821,511,599,823,539,1803,532,622,1282,449,596,450,686,562,1079]","trial_type":"fractal-mutation","trial_index":75,"time_elapsed":3018987,"internal_node_id":"0.0-5.0-21.0"},{"group":"hexagon_bi","fractal_assignment":["../images/ylw_slt.png","../images/org_blu.png","../images/blu_wht.png","../images/pnk_blu.png","../images/gry_blk.png","../images/cyn_red.png"],"mutagen_generator_assignment":[1,0],"goal":1,"start":3,"action_noise":0,"location_history":"[3,4,5,4,3,4,5,4,3,2,1]","action_history":"[0,1,1,0,0,1,1,0,1,0]","mutagen_history":"[1,0,0,1,1,0,0,1,0,1]","location_rts":"[4478,379,529,488,716,633,773,540,1221,1499]","trial_type":"fractal-mutation","trial_index":76,"time_elapsed":3045166,"internal_node_id":"0.0-5.0-22.0"},{"group":"hexagon_bi","fractal_assignment":["../images/ylw_slt.png","../images/org_blu.png","../images/blu_wht.png","../images/pnk_blu.png","../images/gry_blk.png","../images/cyn_red.png"],"mutagen_generator_assignment":[1,0],"goal":0,"start":1,"action_noise":0,"location_history":"[1,0]","action_history":"[1]","mutagen_history":"[0]","location_rts":"[568]","trial_type":"fractal-mutation","trial_index":77,"time_elapsed":3050784,"internal_node_id":"0.0-5.0-23.0"},{"group":"hexagon_bi","fractal_assignment":["../images/ylw_slt.png","../images/org_blu.png","../images/blu_wht.png","../images/pnk_blu.png","../images/gry_blk.png","../images/cyn_red.png"],"mutagen_generator_assignment":[1,0],"goal":2,"start":0,"action_noise":0,"location_history":"[0,5,4,5,4,3,4,5,0,1,0,5,0,1,2]","action_history":"[0,1,1,1,0,0,1,0,1,1,0,0,1,0]","mutagen_history":"[1,0,0,0,1,1,0,1,0,0,1,1,0,1]","location_rts":"[1032,496,480,714,589,809,962,633,1108,669,703,709,794,411]","trial_type":"fractal-mutation","trial_index":78,"time_elapsed":3079923,"internal_node_id":"0.0-5.0-24.0"},{"group":"hexagon_bi","fractal_assignment":["../images/ylw_slt.png","../images/org_blu.png","../images/blu_wht.png","../images/pnk_blu.png","../images/gry_blk.png","../images/cyn_red.png"],"mutagen_generator_assignment":[1,0],"goal":4,"start":2,"action_noise":0,"location_history":"[2,1,0,1,2,1,0,1,0,5,0,1,0,5,4]","action_history":"[0,1,1,0,0,1,1,1,0,0,1,1,0,1]","mutagen_history":"[1,0,0,1,1,0,0,0,1,1,0,0,1,0]","location_rts":"[85608,552,469,490,478,568,315,593,532,1072,1186,561,1036,911]","trial_type":"fractal-mutation","trial_index":79,"time_elapsed":3193215,"internal_node_id":"0.0-5.0-25.0"},{"group":"hexagon_bi","fractal_assignment":["../images/ylw_slt.png","../images/org_blu.png","../images/blu_wht.png","../images/pnk_blu.png","../images/gry_blk.png","../images/cyn_red.png"],"mutagen_generator_assignment":[1,0],"goal":5,"start":4,"action_noise":0,"location_history":"[4,5]","action_history":"[1]","mutagen_history":"[0]","location_rts":"[780]","trial_type":"fractal-mutation","trial_index":80,"time_elapsed":3199064,"internal_node_id":"0.0-5.0-26.0"},{"group":"hexagon_bi","fractal_assignment":["../images/ylw_slt.png","../images/org_blu.png","../images/blu_wht.png","../images/pnk_blu.png","../images/gry_blk.png","../images/cyn_red.png"],"mutagen_generator_assignment":[1,0],"goal":2,"start":5,"action_noise":0,"location_history":"[5,0,1,2]","action_history":"[0,1,0]","mutagen_history":"[1,0,1]","location_rts":"[1545,730,540]","trial_type":"fractal-mutation","trial_index":81,"time_elapsed":3209085,"internal_node_id":"0.0-5.0-27.0"},{"group":"hexagon_bi","fractal_assignment":["../images/ylw_slt.png","../images/org_blu.png","../images/blu_wht.png","../images/pnk_blu.png","../images/gry_blk.png","../images/cyn_red.png"],"mutagen_generator_assignment":[1,0],"goal":3,"start":2,"action_noise":0,"location_history":"[2,3]","action_history":"[1]","mutagen_history":"[0]","location_rts":"[813]","trial_type":"fractal-mutation","trial_index":82,"time_elapsed":3214981,"internal_node_id":"0.0-5.0-28.0"},{"group":"hexagon_bi","fractal_assignment":["../images/ylw_slt.png","../images/org_blu.png","../images/blu_wht.png","../images/pnk_blu.png","../images/gry_blk.png","../images/cyn_red.png"],"mutagen_generator_assignment":[1,0],"goal":1,"start":3,"action_noise":0,"location_history":"[3,4,5,0,1]","action_history":"[0,1,0,1]","mutagen_history":"[1,0,1,0]","location_rts":"[749,515,546,726]","trial_type":"fractal-mutation","trial_index":83,"time_elapsed":3225910,"internal_node_id":"0.0-5.0-29.0"},{"group":"hexagon_bi","fractal_assignment":["../images/ylw_slt.png","../images/org_blu.png","../images/blu_wht.png","../images/pnk_blu.png","../images/gry_blk.png","../images/cyn_red.png"],"mutagen_generator_assignment":[1,0],"goal":4,"start":1,"action_noise":0,"location_history":"[1,2,3,2,1,0,1,2,1,0,1,2,3,4]","action_history":"[0,1,1,0,1,1,0,0,1,1,0,1,0]","mutagen_history":"[1,0,0,1,0,0,1,1,0,0,1,0,1]","location_rts":"[782,394,459,733,444,471,676,860,582,744,576,649,497]","trial_type":"fractal-mutation","trial_index":84,"time_elapsed":3251484,"internal_node_id":"0.0-5.0-30.0"},{"group":"hexagon_bi","fractal_assignment":["../images/ylw_slt.png","../images/org_blu.png","../images/blu_wht.png","../images/pnk_blu.png","../images/gry_blk.png","../images/cyn_red.png"],"mutagen_generator_assignment":[1,0],"goal":5,"start":4,"action_noise":0,"location_history":"[4,5]","action_history":"[1]","mutagen_history":"[0]","location_rts":"[704]","trial_type":"fractal-mutation","trial_index":85,"time_elapsed":3257252,"internal_node_id":"0.0-5.0-31.0"},{"group":"hexagon_bi","fractal_assignment":["../images/ylw_slt.png","../images/org_blu.png","../images/blu_wht.png","../images/pnk_blu.png","../images/gry_blk.png","../images/cyn_red.png"],"mutagen_generator_assignment":[1,0],"goal":0,"start":5,"action_noise":0,"location_history":"[5,0]","action_history":"[0]","mutagen_history":"[1]","location_rts":"[712]","trial_type":"fractal-mutation","trial_index":86,"time_elapsed":3263041,"internal_node_id":"0.0-5.0-32.0"},{"group":"hexagon_bi","fractal_assignment":["../images/ylw_slt.png","../images/org_blu.png","../images/blu_wht.png","../images/pnk_blu.png","../images/gry_blk.png","../images/cyn_red.png"],"mutagen_generator_assignment":[1,0],"goal":2,"start":0,"action_noise":0,"location_history":"[0,1,2]","action_history":"[1,0]","mutagen_history":"[0,1]","location_rts":"[553,410]","trial_type":"fractal-mutation","trial_index":87,"time_elapsed":3270144,"internal_node_id":"0.0-5.0-33.0"},{"group":"hexagon_bi","fractal_assignment":["../images/ylw_slt.png","../images/org_blu.png","../images/blu_wht.png","../images/pnk_blu.png","../images/gry_blk.png","../images/cyn_red.png"],"mutagen_generator_assignment":[1,0],"goal":0,"start":2,"action_noise":0,"location_history":"[2,3,4,3,4,5,4,3,4,3,4,5,0]","action_history":"[1,0,0,0,1,1,0,0,0,0,1,0]","mutagen_history":"[0,1,1,1,0,0,1,1,1,1,0,1]","location_rts":"[3026,420,410,433,413,518,396,416,527,864,633,1301]","trial_type":"fractal-mutation","trial_index":88,"time_elapsed":3296645,"internal_node_id":"0.0-5.0-34.0"},{"group":"hexagon_bi","fractal_assignment":["../images/ylw_slt.png","../images/org_blu.png","../images/blu_wht.png","../images/pnk_blu.png","../images/gry_blk.png","../images/cyn_red.png"],"mutagen_generator_assignment":[1,0],"goal":5,"start":0,"action_noise":0,"location_history":"[0,1,2,1,0,5]","action_history":"[1,0,0,1,0]","mutagen_history":"[0,1,1,0,1]","location_rts":"[699,684,724,472,545]","trial_type":"fractal-mutation","trial_index":89,"time_elapsed":3309598,"internal_node_id":"0.0-5.0-35.0"},{"group":"hexagon_bi","fractal_assignment":["../images/ylw_slt.png","../images/org_blu.png","../images/blu_wht.png","../images/pnk_blu.png","../images/gry_blk.png","../images/cyn_red.png"],"mutagen_generator_assignment":[1,0],"goal":1,"start":5,"action_noise":0,"location_history":"[5,4,3,4,5,0,5,4,5,4,5,0,1]","action_history":"[1,0,0,1,0,0,1,1,1,1,0,1]","mutagen_history":"[0,1,1,0,1,1,0,0,0,0,1,0]","location_rts":"[532,346,406,345,421,389,585,338,416,541,332,801]","trial_type":"fractal-mutation","trial_index":90,"time_elapsed":3332189,"internal_node_id":"0.0-5.0-36.0"},{"group":"hexagon_bi","fractal_assignment":["../images/ylw_slt.png","../images/org_blu.png","../images/blu_wht.png","../images/pnk_blu.png","../images/gry_blk.png","../images/cyn_red.png"],"mutagen_generator_assignment":[1,0],"goal":4,"start":1,"action_noise":0,"location_history":"[1,2,3,2,1,2,3,4]","action_history":"[0,1,1,0,0,1,0]","mutagen_history":"[1,0,0,1,1,0,1]","location_rts":"[637,651,580,493,450,1126,376]","trial_type":"fractal-mutation","trial_index":91,"time_elapsed":3347977,"internal_node_id":"0.0-5.0-37.0"},{"group":"hexagon_bi","fractal_assignment":["../images/ylw_slt.png","../images/org_blu.png","../images/blu_wht.png","../images/pnk_blu.png","../images/gry_blk.png","../images/cyn_red.png"],"mutagen_generator_assignment":[1,0],"goal":3,"start":4,"action_noise":0,"location_history":"[4,5,0,5,4,3]","action_history":"[1,0,0,1,0]","mutagen_history":"[0,1,1,0,1]","location_rts":"[1250,424,585,597,823]","trial_type":"fractal-mutation","trial_index":92,"time_elapsed":3361522,"internal_node_id":"0.0-5.0-38.0"},{"group":"hexagon_bi","fractal_assignment":["../images/ylw_slt.png","../images/org_blu.png","../images/blu_wht.png","../images/pnk_blu.png","../images/gry_blk.png","../images/cyn_red.png"],"mutagen_generator_assignment":[1,0],"goal":5,"start":3,"action_noise":0,"location_history":"[3,2,1,2,3,4,3,2,3,2,1,2,3,4,5]","action_history":"[1,0,0,1,0,0,1,1,1,0,0,1,0,1]","mutagen_history":"[0,1,1,0,1,1,0,0,0,1,1,0,1,0]","location_rts":"[997,344,417,599,526,336,387,530,611,492,1518,884,456,2074]","trial_type":"fractal-mutation","trial_index":93,"time_elapsed":3390714,"internal_node_id":"0.0-5.0-39.0"},{"group":"hexagon_bi","fractal_assignment":["../images/ylw_slt.png","../images/org_blu.png","../images/blu_wht.png","../images/pnk_blu.png","../images/gry_blk.png","../images/cyn_red.png"],"mutagen_generator_assignment":[1,0],"goal":1,"start":5,"action_noise":0,"location_history":"[5,0,1]","action_history":"[0,1]","mutagen_history":"[1,0]","location_rts":"[467,454]","trial_type":"fractal-mutation","trial_index":94,"time_elapsed":3397743,"internal_node_id":"0.0-5.0-40.0"},{"group":"hexagon_bi","fractal_assignment":["../images/ylw_slt.png","../images/org_blu.png","../images/blu_wht.png","../images/pnk_blu.png","../images/gry_blk.png","../images/cyn_red.png"],"mutagen_generator_assignment":[1,0],"goal":2,"start":1,"action_noise":0,"location_history":"[1,2]","action_history":"[0]","mutagen_history":"[1]","location_rts":"[576]","trial_type":"fractal-mutation","trial_index":95,"time_elapsed":3403395,"internal_node_id":"0.0-5.0-41.0"},{"group":"hexagon_bi","fractal_assignment":["../images/ylw_slt.png","../images/org_blu.png","../images/blu_wht.png","../images/pnk_blu.png","../images/gry_blk.png","../images/cyn_red.png"],"mutagen_generator_assignment":[1,0],"goal":4,"start":2,"action_noise":0,"location_history":"[2,3,4]","action_history":"[1,0]","mutagen_history":"[0,1]","location_rts":"[603,406]","trial_type":"fractal-mutation","trial_index":96,"time_elapsed":3410580,"internal_node_id":"0.0-5.0-42.0"},{"group":"hexagon_bi","fractal_assignment":["../images/ylw_slt.png","../images/org_blu.png","../images/blu_wht.png","../images/pnk_blu.png","../images/gry_blk.png","../images/cyn_red.png"],"mutagen_generator_assignment":[1,0],"goal":0,"start":4,"action_noise":0,"location_history":"[4,5,0]","action_history":"[1,0]","mutagen_history":"[0,1]","location_rts":"[762,455]","trial_type":"fractal-mutation","trial_index":97,"time_elapsed":3418263,"internal_node_id":"0.0-5.0-43.0"},{"group":"hexagon_bi","fractal_assignment":["../images/ylw_slt.png","../images/org_blu.png","../images/blu_wht.png","../images/pnk_blu.png","../images/gry_blk.png","../images/cyn_red.png"],"mutagen_generator_assignment":[1,0],"goal":3,"start":0,"action_noise":0,"location_history":"[0,1,2,1,0,5,0,1,2,3]","action_history":"[1,0,0,1,0,0,1,0,1]","mutagen_history":"[0,1,1,0,1,1,0,1,0]","location_rts":"[1846,381,456,381,670,533,500,604,543]","trial_type":"fractal-mutation","trial_index":98,"time_elapsed":3438181,"internal_node_id":"0.0-5.0-44.0"},{"group":"hexagon_bi","fractal_assignment":["../images/ylw_slt.png","../images/org_blu.png","../images/blu_wht.png","../images/pnk_blu.png","../images/gry_blk.png","../images/cyn_red.png"],"mutagen_generator_assignment":[1,0],"goal":0,"start":3,"action_noise":0,"location_history":"[3,2,1,2,3,4,3,2,3,4,5,0]","action_history":"[1,0,0,1,0,0,1,1,0,1,0]","mutagen_history":"[0,1,1,0,1,1,0,0,1,0,1]","location_rts":"[1408,441,587,420,485,588,1252,471,454,812,543]","trial_type":"fractal-mutation","trial_index":99,"time_elapsed":3461583,"internal_node_id":"0.0-5.0-45.0"},{"group":"hexagon_bi","fractal_assignment":["../images/ylw_slt.png","../images/org_blu.png","../images/blu_wht.png","../images/pnk_blu.png","../images/gry_blk.png","../images/cyn_red.png"],"mutagen_generator_assignment":[1,0],"goal":4,"start":0,"action_noise":0,"location_history":"[0,1,2,1,0,5,4]","action_history":"[1,0,0,1,0,1]","mutagen_history":"[0,1,1,0,1,0]","location_rts":"[695,429,563,585,572,440]","trial_type":"fractal-mutation","trial_index":100,"time_elapsed":3475393,"internal_node_id":"0.0-5.0-46.0"},{"group":"hexagon_bi","fractal_assignment":["../images/ylw_slt.png","../images/org_blu.png","../images/blu_wht.png","../images/pnk_blu.png","../images/gry_blk.png","../images/cyn_red.png"],"mutagen_generator_assignment":[1,0],"goal":5,"start":4,"action_noise":0,"location_history":"[4,3,2,1,2,3,4,3,4,5]","action_history":"[0,1,0,0,1,0,0,0,1]","mutagen_history":"[1,0,1,1,0,1,1,1,0]","location_rts":"[724,483,409,276,688,518,1453,727,289]","trial_type":"fractal-mutation","trial_index":101,"time_elapsed":3495262,"internal_node_id":"0.0-5.0-47.0"},{"group":"hexagon_bi","fractal_assignment":["../images/ylw_slt.png","../images/org_blu.png","../images/blu_wht.png","../images/pnk_blu.png","../images/gry_blk.png","../images/cyn_red.png"],"mutagen_generator_assignment":[1,0],"goal":2,"start":5,"action_noise":0,"location_history":"[5,0,5,0,1,2]","action_history":"[0,0,0,1,0]","mutagen_history":"[1,1,1,0,1]","location_rts":"[726,943,348,427,750]","trial_type":"fractal-mutation","trial_index":102,"time_elapsed":3508093,"internal_node_id":"0.0-5.0-48.0"},{"group":"hexagon_bi","fractal_assignment":["../images/ylw_slt.png","../images/org_blu.png","../images/blu_wht.png","../images/pnk_blu.png","../images/gry_blk.png","../images/cyn_red.png"],"mutagen_generator_assignment":[1,0],"goal":1,"start":2,"action_noise":0,"location_history":"[2,3,4,5,0,1]","action_history":"[1,0,1,0,1]","mutagen_history":"[0,1,0,1,0]","location_rts":"[779,518,361,550,592]","trial_type":"fractal-mutation","trial_index":103,"time_elapsed":3520196,"internal_node_id":"0.0-5.0-49.0"},{"view_history":"[{\"page_index\":0,\"viewing_time\":3015}]","rt":3017,"trial_type":"instructions","trial_index":104,"time_elapsed":3524214,"internal_node_id":"0.0-6.0"},{"rt":9412,"responses":"{\"Q0\":\"I am not sure\"}","trial_type":"survey-text","trial_index":105,"time_elapsed":3534641,"internal_node_id":"0.0-7.0-0.0"},{"rt":32081,"responses":"{\"Q0\":\"I am not sure, but i am assuming to se if we got better each time.\"}","trial_type":"survey-text","trial_index":106,"time_elapsed":3567731,"internal_node_id":"0.0-7.0-1.0"},{"rt":10937,"responses":"{}","trial_type":"survey-multi-choice","trial_index":107,"time_elapsed":3579693,"internal_node_id":"0.0-7.0-2.0"},{"rt":31529,"assignments":["../images/ylw_slt.png","../images/org_blu.png","../images/pnk_blu.png","../images/blu_wht.png","../images/gry_blk.png","../images/cyn_red.png"],"trial_type":"drag-drop-on-image","trial_index":108,"time_elapsed":3612233,"internal_node_id":"0.0-7.0-3.0"},{"rt":11206,"responses":"{\"Q0\":\"3\"}","trial_type":"survey-likert","trial_index":109,"time_elapsed":3624454,"internal_node_id":"0.0-7.0-4.0"},{"rt":25898,"responses":"{\"Q0\":\"They were both testing the same thing, but in different ways.\"}","trial_type":"survey-text","trial_index":110,"time_elapsed":3651358,"internal_node_id":"0.0-7.0-5.0"},{"rt":3945,"responses":"{\"Q0\":\"Yes\"}","trial_type":"survey-multi-choice","trial_index":111,"time_elapsed":3656322,"internal_node_id":"0.0-7.0-6.0"},{"rt":6368,"responses":"{\"Q0\":\"Between sessions 1 and 2\"}","trial_type":"survey-multi-choice","trial_index":112,"time_elapsed":3663710,"internal_node_id":"0.0-7.0-7.0"},{"rt":54149,"responses":"{\"Q0\":\"They were completed the same way.  One just used rooms and the other used pictures.\"}","trial_type":"survey-text","trial_index":113,"time_elapsed":3718864,"internal_node_id":"0.0-7.0-8.0"},{"rt":11221,"responses":"{\"Q0\":\"2\"}","trial_type":"survey-likert","trial_index":114,"time_elapsed":3731093,"internal_node_id":"0.0-7.0-9.0"},{"rt":5945,"responses":"{\"Q0\":\"Same structure\"}","trial_type":"survey-multi-choice","trial_index":115,"time_elapsed":3738047,"internal_node_id":"0.0-7.0-10.0"},{"rt":27031,"responses":"{\"Q0\":\"left (black) door = ray, right (white) door = acid\",\"Q1\":\"Slightly confident\"}","trial_type":"survey-multi-choice","trial_index":116,"time_elapsed":3766104,"internal_node_id":"0.0-7.0-11.0"},{"rt":15203,"responses":"{\"Q0\":\"25-35\",\"Q1\":\"Bachelor's degree\",\"Q2\":\"Female\",\"Q3\":\"White\"}","trial_type":"survey-multi-choice","trial_index":117,"time_elapsed":3782361,"internal_node_id":"0.0-8.0"},{"rt":1651,"responses":"{\"Q0\":\"\"}","trial_type":"survey-text","trial_index":118,"time_elapsed":3785019,"internal_node_id":"0.0-9.0"}]