[{"view_history":"[{\"page_index\":0,\"viewing_time\":1217},{\"page_index\":1,\"viewing_time\":6122}]","rt":7340,"trial_type":"instructions","trial_index":0,"time_elapsed":7341,"internal_node_id":"0.0-0.0"},{"view_history":"[{\"page_index\":0,\"viewing_time\":1574},{\"page_index\":1,\"viewing_time\":3272}]","rt":4846,"trial_type":"instructions","trial_index":1,"time_elapsed":13190,"internal_node_id":"0.0-1.0"},{"group":"hexagon_bi","room_assignment":["yellow","green","blue","red","grey","purple"],"door_color_assignment":["white","black"],"door_generator_assignment":[1,0],"goal":2,"start":1,"action_noise":0,"location_history":"[1,2]","action_history":"[0]","door_history":"[1]","location_rts":"[2278]","trial_type":"two-door-navigation","trial_index":2,"time_elapsed":20598,"internal_node_id":"0.0-2.0-0.0"},{"group":"hexagon_bi","room_assignment":["yellow","green","blue","red","grey","purple"],"door_color_assignment":["white","black"],"door_generator_assignment":[1,0],"goal":0,"start":2,"action_noise":0,"location_history":"[2,3,4,5,4,3,2,1,0]","action_history":"[1,0,1,1,0,1,0,1]","door_history":"[0,1,0,0,1,0,1,0]","location_rts":"[933,753,579,922,1377,380,587,626]","trial_type":"two-door-navigation","trial_index":3,"time_elapsed":38946,"internal_node_id":"0.0-2.0-1.0"},{"group":"hexagon_bi","room_assignment":["yellow","green","blue","red","grey","purple"],"door_color_assignment":["white","black"],"door_generator_assignment":[1,0],"goal":5,"start":0,"action_noise":0,"location_history":"[0,5]","action_history":"[0]","door_history":"[1]","location_rts":"[1870]","trial_type":"two-door-navigation","trial_index":4,"time_elapsed":45840,"internal_node_id":"0.0-2.0-2.0"},{"group":"hexagon_bi","room_assignment":["yellow","green","blue","red","grey","purple"],"door_color_assignment":["white","black"],"door_generator_assignment":[1,0],"goal":1,"start":5,"action_noise":0,"location_history":"[5,4,3,2,1]","action_history":"[1,0,1,0]","door_history":"[0,1,0,1]","location_rts":"[762,480,442,643]","trial_type":"two-door-navigation","trial_index":5,"time_elapsed":56253,"internal_node_id":"0.0-2.0-3.0"},{"group":"hexagon_bi","room_assignment":["yellow","green","blue","red","grey","purple"],"door_color_assignment":["white","black"],"door_generator_assignment":[1,0],"goal":3,"start":1,"action_noise":0,"location_history":"[1,0,5,4,3]","action_history":"[1,0,1,0]","door_history":"[0,1,0,1]","location_rts":"[926,800,432,544]","trial_type":"two-door-navigation","trial_index":6,"time_elapsed":67040,"internal_node_id":"0.0-2.0-4.0"},{"group":"hexagon_bi","room_assignment":["yellow","green","blue","red","grey","purple"],"door_color_assignment":["white","black"],"door_generator_assignment":[1,0],"goal":5,"start":3,"action_noise":0,"location_history":"[3,2,1,0,5]","action_history":"[1,0,1,0]","door_history":"[0,1,0,1]","location_rts":"[719,500,431,527]","trial_type":"two-door-navigation","trial_index":7,"time_elapsed":77303,"internal_node_id":"0.0-2.0-5.0"},{"group":"hexagon_bi","room_assignment":["yellow","green","blue","red","grey","purple"],"door_color_assignment":["white","black"],"door_generator_assignment":[1,0],"goal":4,"start":5,"action_noise":0,"location_history":"[5,4]","action_history":"[1]","door_history":"[0]","location_rts":"[1064]","trial_type":"two-door-navigation","trial_index":8,"time_elapsed":83390,"internal_node_id":"0.0-2.0-6.0"},{"group":"hexagon_bi","room_assignment":["yellow","green","blue","red","grey","purple"],"door_color_assignment":["white","black"],"door_generator_assignment":[1,0],"goal":0,"start":4,"action_noise":0,"location_history":"[4,3,2,1,0]","action_history":"[0,1,0,1]","door_history":"[1,0,1,0]","location_rts":"[1335,1286,1909,700]","trial_type":"two-door-navigation","trial_index":9,"time_elapsed":96705,"internal_node_id":"0.0-2.0-7.0"},{"group":"hexagon_bi","room_assignment":["yellow","green","blue","red","grey","purple"],"door_color_assignment":["white","black"],"door_generator_assignment":[1,0],"goal":2,"start":0,"action_noise":0,"location_history":"[0,1,2]","action_history":"[1,0]","door_history":"[0,1]","location_rts":"[2090,918]","trial_type":"two-door-navigation","trial_index":10,"time_elapsed":105758,"internal_node_id":"0.0-2.0-8.0"},{"group":"hexagon_bi","room_assignment":["yellow","green","blue","red","grey","purple"],"door_color_assignment":["white","black"],"door_generator_assignment":[1,0],"goal":4,"start":2,"action_noise":0,"location_history":"[2,3,4]","action_history":"[1,0]","door_history":"[0,1]","location_rts":"[1115,591]","trial_type":"two-door-navigation","trial_index":11,"time_elapsed":113507,"internal_node_id":"0.0-2.0-9.0"},{"group":"hexagon_bi","room_assignment":["yellow","green","blue","red","grey","purple"],"door_color_assignment":["white","black"],"door_generator_assignment":[1,0],"goal":2,"start":4,"action_noise":0,"location_history":"[4,5,0,1,2]","action_history":"[1,0,1,0]","door_history":"[0,1,0,1]","location_rts":"[829,869,604,798]","trial_type":"two-door-navigation","trial_index":12,"time_elapsed":124695,"internal_node_id":"0.0-2.0-10.0"},{"group":"hexagon_bi","room_assignment":["yellow","green","blue","red","grey","purple"],"door_color_assignment":["white","black"],"door_generator_assignment":[1,0],"goal":3,"start":2,"action_noise":0,"location_history":"[2,3]","action_history":"[1]","door_history":"[0]","location_rts":"[554]","trial_type":"two-door-navigation","trial_index":13,"time_elapsed":130273,"internal_node_id":"0.0-2.0-11.0"},{"group":"hexagon_bi","room_assignment":["yellow","green","blue","red","grey","purple"],"door_color_assignment":["white","black"],"door_generator_assignment":[1,0],"goal":0,"start":3,"action_noise":0,"location_history":"[3,4,5,0]","action_history":"[0,1,0]","door_history":"[1,0,1]","location_rts":"[796,402,566]","trial_type":"two-door-navigation","trial_index":14,"time_elapsed":139100,"internal_node_id":"0.0-2.0-12.0"},{"group":"hexagon_bi","room_assignment":["yellow","green","blue","red","grey","purple"],"door_color_assignment":["white","black"],"door_generator_assignment":[1,0],"goal":5,"start":0,"action_noise":0,"location_history":"[0,1,2,3,4,5]","action_history":"[1,0,1,0,1]","door_history":"[0,1,0,1,0]","location_rts":"[452,426,564,674,555]","trial_type":"two-door-navigation","trial_index":15,"time_elapsed":150881,"internal_node_id":"0.0-2.0-13.0"},{"group":"hexagon_bi","room_assignment":["yellow","green","blue","red","grey","purple"],"door_color_assignment":["white","black"],"door_generator_assignment":[1,0],"goal":1,"start":5,"action_noise":0,"location_history":"[5,0,1]","action_history":"[0,1]","door_history":"[1,0]","location_rts":"[1310,548]","trial_type":"two-door-navigation","trial_index":16,"time_elapsed":158787,"internal_node_id":"0.0-2.0-14.0"},{"group":"hexagon_bi","room_assignment":["yellow","green","blue","red","grey","purple"],"door_color_assignment":["white","black"],"door_generator_assignment":[1,0],"goal":5,"start":1,"action_noise":0,"location_history":"[1,2,3,4,5]","action_history":"[0,1,0,1]","door_history":"[1,0,1,0]","location_rts":"[742,514,690,722]","trial_type":"two-door-navigation","trial_index":17,"time_elapsed":169537,"internal_node_id":"0.0-2.0-15.0"},{"group":"hexagon_bi","room_assignment":["yellow","green","blue","red","grey","purple"],"door_color_assignment":["white","black"],"door_generator_assignment":[1,0],"goal":3,"start":5,"action_noise":0,"location_history":"[5,0,1,2,3]","action_history":"[0,1,0,1]","door_history":"[1,0,1,0]","location_rts":"[1007,465,497,446]","trial_type":"two-door-navigation","trial_index":18,"time_elapsed":180035,"internal_node_id":"0.0-2.0-16.0"},{"group":"hexagon_bi","room_assignment":["yellow","green","blue","red","grey","purple"],"door_color_assignment":["white","black"],"door_generator_assignment":[1,0],"goal":2,"start":3,"action_noise":0,"location_history":"[3,4,5,0,1,0,5,4,3,2]","action_history":"[0,1,0,1,1,0,1,0,1]","door_history":"[1,0,1,0,0,1,0,1,0]","location_rts":"[727,418,473,439,604,909,1245,989,630]","trial_type":"two-door-navigation","trial_index":19,"time_elapsed":199652,"internal_node_id":"0.0-2.0-17.0"},{"group":"hexagon_bi","room_assignment":["yellow","green","blue","red","grey","purple"],"door_color_assignment":["white","black"],"door_generator_assignment":[1,0],"goal":1,"start":2,"action_noise":0,"location_history":"[2,1]","action_history":"[0]","door_history":"[1]","location_rts":"[1953]","trial_type":"two-door-navigation","trial_index":20,"time_elapsed":206629,"internal_node_id":"0.0-2.0-18.0"},{"group":"hexagon_bi","room_assignment":["yellow","green","blue","red","grey","purple"],"door_color_assignment":["white","black"],"door_generator_assignment":[1,0],"goal":4,"start":1,"action_noise":0,"location_history":"[1,0,5,0,1,0,1,2,3,4]","action_history":"[1,0,0,1,1,1,0,1,0]","door_history":"[0,1,1,0,0,0,1,0,1]","location_rts":"[1404,1053,814,409,761,924,580,385,667]","trial_type":"two-door-navigation","trial_index":21,"time_elapsed":226817,"internal_node_id":"0.0-2.0-19.0"},{"group":"hexagon_bi","room_assignment":["yellow","green","blue","red","grey","purple"],"door_color_assignment":["white","black"],"door_generator_assignment":[1,0],"goal":0,"start":4,"action_noise":0,"location_history":"[4,5,0]","action_history":"[1,0]","door_history":"[0,1]","location_rts":"[2140,635]","trial_type":"two-door-navigation","trial_index":22,"time_elapsed":235636,"internal_node_id":"0.0-2.0-20.0"},{"group":"hexagon_bi","room_assignment":["yellow","green","blue","red","grey","purple"],"door_color_assignment":["white","black"],"door_generator_assignment":[1,0],"goal":3,"start":0,"action_noise":0,"location_history":"[0,5,4,3]","action_history":"[0,1,0]","door_history":"[1,0,1]","location_rts":"[1102,441,1027]","trial_type":"two-door-navigation","trial_index":23,"time_elapsed":245270,"internal_node_id":"0.0-2.0-21.0"},{"group":"hexagon_bi","room_assignment":["yellow","green","blue","red","grey","purple"],"door_color_assignment":["white","black"],"door_generator_assignment":[1,0],"goal":1,"start":3,"action_noise":0,"location_history":"[3,4,3,4,3,4,3,4,5,0,1]","action_history":"[0,0,0,0,0,0,0,1,0,1]","door_history":"[1,1,1,1,1,1,1,0,1,0]","location_rts":"[2021,713,761,2807,480,771,536,996,497,684]","trial_type":"two-door-navigation","trial_index":24,"time_elapsed":269737,"internal_node_id":"0.0-2.0-22.0"},{"group":"hexagon_bi","room_assignment":["yellow","green","blue","red","grey","purple"],"door_color_assignment":["white","black"],"door_generator_assignment":[1,0],"goal":0,"start":1,"action_noise":0,"location_history":"[1,0]","action_history":"[1]","door_history":"[0]","location_rts":"[21360]","trial_type":"two-door-navigation","trial_index":25,"time_elapsed":296123,"internal_node_id":"0.0-2.0-23.0"},{"group":"hexagon_bi","room_assignment":["yellow","green","blue","red","grey","purple"],"door_color_assignment":["white","black"],"door_generator_assignment":[1,0],"goal":2,"start":0,"action_noise":0,"location_history":"[0,5,4,5,0,1,2]","action_history":"[0,1,1,0,1,0]","door_history":"[1,0,0,1,0,1]","location_rts":"[1154,591,401,533,547,3627]","trial_type":"two-door-navigation","trial_index":26,"time_elapsed":313109,"internal_node_id":"0.0-2.0-24.0"},{"group":"hexagon_bi","room_assignment":["yellow","green","blue","red","grey","purple"],"door_color_assignment":["white","black"],"door_generator_assignment":[1,0],"goal":4,"start":2,"action_noise":0,"location_history":"[2,3,4]","action_history":"[1,0]","door_history":"[0,1]","location_rts":"[1715,916]","trial_type":"two-door-navigation","trial_index":27,"time_elapsed":322410,"internal_node_id":"0.0-2.0-25.0"},{"group":"hexagon_bi","room_assignment":["yellow","green","blue","red","grey","purple"],"door_color_assignment":["white","black"],"door_generator_assignment":[1,0],"goal":5,"start":4,"action_noise":0,"location_history":"[4,5]","action_history":"[1]","door_history":"[0]","location_rts":"[1343]","trial_type":"two-door-navigation","trial_index":28,"time_elapsed":328778,"internal_node_id":"0.0-2.0-26.0"},{"group":"hexagon_bi","room_assignment":["yellow","green","blue","red","grey","purple"],"door_color_assignment":["white","black"],"door_generator_assignment":[1,0],"goal":2,"start":5,"action_noise":0,"location_history":"[5,0,1,2]","action_history":"[0,1,0]","door_history":"[1,0,1]","location_rts":"[1177,1228,607]","trial_type":"two-door-navigation","trial_index":29,"time_elapsed":338856,"internal_node_id":"0.0-2.0-27.0"},{"group":"hexagon_bi","room_assignment":["yellow","green","blue","red","grey","purple"],"door_color_assignment":["white","black"],"door_generator_assignment":[1,0],"goal":3,"start":2,"action_noise":0,"location_history":"[2,3]","action_history":"[1]","door_history":"[0]","location_rts":"[1771]","trial_type":"two-door-navigation","trial_index":30,"time_elapsed":345651,"internal_node_id":"0.0-2.0-28.0"},{"group":"hexagon_bi","room_assignment":["yellow","green","blue","red","grey","purple"],"door_color_assignment":["white","black"],"door_generator_assignment":[1,0],"goal":1,"start":3,"action_noise":0,"location_history":"[3,4,3,2,1]","action_history":"[0,0,1,0]","door_history":"[1,1,0,1]","location_rts":"[3487,1259,480,1400]","trial_type":"two-door-navigation","trial_index":31,"time_elapsed":360366,"internal_node_id":"0.0-2.0-29.0"},{"group":"hexagon_bi","room_assignment":["yellow","green","blue","red","grey","purple"],"door_color_assignment":["white","black"],"door_generator_assignment":[1,0],"goal":4,"start":1,"action_noise":0,"location_history":"[1,0,5,4]","action_history":"[1,0,1]","door_history":"[0,1,0]","location_rts":"[1638,462,894]","trial_type":"two-door-navigation","trial_index":32,"time_elapsed":370429,"internal_node_id":"0.0-2.0-30.0"},{"group":"hexagon_bi","room_assignment":["yellow","green","blue","red","grey","purple"],"door_color_assignment":["white","black"],"door_generator_assignment":[1,0],"goal":5,"start":4,"action_noise":0,"location_history":"[4,3,2,1,0,5]","action_history":"[0,1,0,1,0]","door_history":"[1,0,1,0,1]","location_rts":"[1095,397,791,767,1581]","trial_type":"two-door-navigation","trial_index":33,"time_elapsed":384167,"internal_node_id":"0.0-2.0-31.0"},{"group":"hexagon_bi","room_assignment":["yellow","green","blue","red","grey","purple"],"door_color_assignment":["white","black"],"door_generator_assignment":[1,0],"goal":0,"start":5,"action_noise":0,"location_history":"[5,4,3,2,1,0]","action_history":"[1,0,1,0,1]","door_history":"[0,1,0,1,0]","location_rts":"[755,464,345,1167,651]","trial_type":"two-door-navigation","trial_index":34,"time_elapsed":396660,"internal_node_id":"0.0-2.0-32.0"},{"group":"hexagon_bi","room_assignment":["yellow","green","blue","red","grey","purple"],"door_color_assignment":["white","black"],"door_generator_assignment":[1,0],"goal":2,"start":0,"action_noise":0,"location_history":"[0,5,4,5,0,1,2]","action_history":"[0,1,1,0,1,0]","door_history":"[1,0,0,1,0,1]","location_rts":"[1720,516,432,876,989,1277]","trial_type":"two-door-navigation","trial_index":35,"time_elapsed":412595,"internal_node_id":"0.0-2.0-33.0"},{"group":"hexagon_bi","room_assignment":["yellow","green","blue","red","grey","purple"],"door_color_assignment":["white","black"],"door_generator_assignment":[1,0],"goal":0,"start":2,"action_noise":0,"location_history":"[2,3,4,5,0]","action_history":"[1,0,1,0]","door_history":"[0,1,0,1]","location_rts":"[767,518,868,745]","trial_type":"two-door-navigation","trial_index":36,"time_elapsed":423582,"internal_node_id":"0.0-2.0-34.0"},{"group":"hexagon_bi","room_assignment":["yellow","green","blue","red","grey","purple"],"door_color_assignment":["white","black"],"door_generator_assignment":[1,0],"goal":5,"start":0,"action_noise":0,"location_history":"[0,1,2,3,4,5]","action_history":"[1,0,1,0,1]","door_history":"[0,1,0,1,0]","location_rts":"[882,499,628,664,614]","trial_type":"two-door-navigation","trial_index":37,"time_elapsed":435978,"internal_node_id":"0.0-2.0-35.0"},{"group":"hexagon_bi","room_assignment":["yellow","green","blue","red","grey","purple"],"door_color_assignment":["white","black"],"door_generator_assignment":[1,0],"goal":1,"start":5,"action_noise":0,"location_history":"[5,0,1]","action_history":"[0,1]","door_history":"[1,0]","location_rts":"[1523,518]","trial_type":"two-door-navigation","trial_index":38,"time_elapsed":444064,"internal_node_id":"0.0-2.0-36.0"},{"group":"hexagon_bi","room_assignment":["yellow","green","blue","red","grey","purple"],"door_color_assignment":["white","black"],"door_generator_assignment":[1,0],"goal":4,"start":1,"action_noise":0,"location_history":"[1,2,3,2,3,4]","action_history":"[0,1,1,1,0]","door_history":"[1,0,0,0,1]","location_rts":"[1029,448,567,682,635]","trial_type":"two-door-navigation","trial_index":39,"time_elapsed":456532,"internal_node_id":"0.0-2.0-37.0"},{"group":"hexagon_bi","room_assignment":["yellow","green","blue","red","grey","purple"],"door_color_assignment":["white","black"],"door_generator_assignment":[1,0],"goal":3,"start":4,"action_noise":0,"location_history":"[4,5,0,1,2,3]","action_history":"[1,0,1,0,1]","door_history":"[0,1,0,1,0]","location_rts":"[812,386,572,706,479]","trial_type":"two-door-navigation","trial_index":40,"time_elapsed":468594,"internal_node_id":"0.0-2.0-38.0"},{"group":"hexagon_bi","room_assignment":["yellow","green","blue","red","grey","purple"],"door_color_assignment":["white","black"],"door_generator_assignment":[1,0],"goal":5,"start":3,"action_noise":0,"location_history":"[3,4,5]","action_history":"[0,1]","door_history":"[1,0]","location_rts":"[1086,501]","trial_type":"two-door-navigation","trial_index":41,"time_elapsed":476228,"internal_node_id":"0.0-2.0-39.0"},{"group":"hexagon_bi","room_assignment":["yellow","green","blue","red","grey","purple"],"door_color_assignment":["white","black"],"door_generator_assignment":[1,0],"goal":1,"start":5,"action_noise":0,"location_history":"[5,0,1]","action_history":"[0,1]","door_history":"[1,0]","location_rts":"[1131,387]","trial_type":"two-door-navigation","trial_index":42,"time_elapsed":483788,"internal_node_id":"0.0-2.0-40.0"},{"group":"hexagon_bi","room_assignment":["yellow","green","blue","red","grey","purple"],"door_color_assignment":["white","black"],"door_generator_assignment":[1,0],"goal":2,"start":1,"action_noise":0,"location_history":"[1,2]","action_history":"[0]","door_history":"[1]","location_rts":"[993]","trial_type":"two-door-navigation","trial_index":43,"time_elapsed":489805,"internal_node_id":"0.0-2.0-41.0"},{"group":"hexagon_bi","room_assignment":["yellow","green","blue","red","grey","purple"],"door_color_assignment":["white","black"],"door_generator_assignment":[1,0],"goal":4,"start":2,"action_noise":0,"location_history":"[2,1,0,1,2,3,4]","action_history":"[0,1,1,0,1,0]","door_history":"[1,0,0,1,0,1]","location_rts":"[967,294,524,582,383,894]","trial_type":"two-door-navigation","trial_index":44,"time_elapsed":503577,"internal_node_id":"0.0-2.0-42.0"},{"group":"hexagon_bi","room_assignment":["yellow","green","blue","red","grey","purple"],"door_color_assignment":["white","black"],"door_generator_assignment":[1,0],"goal":0,"start":4,"action_noise":0,"location_history":"[4,3,2,1,0]","action_history":"[0,1,0,1]","door_history":"[1,0,1,0]","location_rts":"[1086,318,627,660]","trial_type":"two-door-navigation","trial_index":45,"time_elapsed":514354,"internal_node_id":"0.0-2.0-43.0"},{"group":"hexagon_bi","room_assignment":["yellow","green","blue","red","grey","purple"],"door_color_assignment":["white","black"],"door_generator_assignment":[1,0],"goal":3,"start":0,"action_noise":0,"location_history":"[0,5,4,3]","action_history":"[0,1,0]","door_history":"[1,0,1]","location_rts":"[1169,506,594]","trial_type":"two-door-navigation","trial_index":46,"time_elapsed":523687,"internal_node_id":"0.0-2.0-44.0"},{"group":"hexagon_bi","room_assignment":["yellow","green","blue","red","grey","purple"],"door_color_assignment":["white","black"],"door_generator_assignment":[1,0],"goal":0,"start":3,"action_noise":0,"location_history":"[3,4,5,0]","action_history":"[0,1,0]","door_history":"[1,0,1]","location_rts":"[1342,342,488]","trial_type":"two-door-navigation","trial_index":47,"time_elapsed":532949,"internal_node_id":"0.0-2.0-45.0"},{"group":"hexagon_bi","room_assignment":["yellow","green","blue","red","grey","purple"],"door_color_assignment":["white","black"],"door_generator_assignment":[1,0],"goal":4,"start":0,"action_noise":0,"location_history":"[0,5,4]","action_history":"[0,1]","door_history":"[1,0]","location_rts":"[1131,671]","trial_type":"two-door-navigation","trial_index":48,"time_elapsed":541147,"internal_node_id":"0.0-2.0-46.0"},{"group":"hexagon_bi","room_assignment":["yellow","green","blue","red","grey","purple"],"door_color_assignment":["white","black"],"door_generator_assignment":[1,0],"goal":5,"start":4,"action_noise":0,"location_history":"[4,3,2,1,0,5]","action_history":"[0,1,0,1,0]","door_history":"[1,0,1,0,1]","location_rts":"[828,690,471,1357,509]","trial_type":"two-door-navigation","trial_index":49,"time_elapsed":554108,"internal_node_id":"0.0-2.0-47.0"},{"group":"hexagon_bi","room_assignment":["yellow","green","blue","red","grey","purple"],"door_color_assignment":["white","black"],"door_generator_assignment":[1,0],"goal":2,"start":5,"action_noise":0,"location_history":"[5,0,1,2]","action_history":"[0,1,0]","door_history":"[1,0,1]","location_rts":"[2320,367,534]","trial_type":"two-door-navigation","trial_index":50,"time_elapsed":564394,"internal_node_id":"0.0-2.0-48.0"},{"group":"hexagon_bi","room_assignment":["yellow","green","blue","red","grey","purple"],"door_color_assignment":["white","black"],"door_generator_assignment":[1,0],"goal":1,"start":2,"action_noise":0,"location_history":"[2,1]","action_history":"[0]","door_history":"[1]","location_rts":"[1548]","trial_type":"two-door-navigation","trial_index":51,"time_elapsed":571147,"internal_node_id":"0.0-2.0-49.0"},{"view_history":"[{\"page_index\":0,\"viewing_time\":1429}]","rt":1430,"trial_type":"instructions","trial_index":52,"time_elapsed":573579,"internal_node_id":"0.0-3.0"},{"view_history":"[{\"page_index\":0,\"viewing_time\":1725},{\"page_index\":1,\"viewing_time\":21087}]","rt":22812,"trial_type":"instructions","trial_index":53,"time_elapsed":597391,"internal_node_id":"0.0-4.0"},{"group":"hexagon_bi","fractal_assignment":["../images/blu_wht.png","../images/ylw_slt.png","../images/gry_blk.png","../images/org_blu.png","../images/pnk_blu.png","../images/cyn_red.png"],"mutagen_generator_assignment":[1,0],"goal":2,"start":1,"action_noise":0,"location_history":"[1,2]","action_history":"[0]","mutagen_history":"[1]","location_rts":"[20115]","trial_type":"fractal-mutation","trial_index":54,"time_elapsed":622544,"internal_node_id":"0.0-5.0-0.0"},{"group":"hexagon_bi","fractal_assignment":["../images/blu_wht.png","../images/ylw_slt.png","../images/gry_blk.png","../images/org_blu.png","../images/pnk_blu.png","../images/cyn_red.png"],"mutagen_generator_assignment":[1,0],"goal":0,"start":2,"action_noise":0,"location_history":"[2,3,4,5,0]","action_history":"[1,0,1,0]","mutagen_history":"[0,1,0,1]","location_rts":"[1195,1114,429,553]","trial_type":"fractal-mutation","trial_index":55,"time_elapsed":633941,"internal_node_id":"0.0-5.0-1.0"},{"group":"hexagon_bi","fractal_assignment":["../images/blu_wht.png","../images/ylw_slt.png","../images/gry_blk.png","../images/org_blu.png","../images/pnk_blu.png","../images/cyn_red.png"],"mutagen_generator_assignment":[1,0],"goal":5,"start":0,"action_noise":0,"location_history":"[0,1,2,3,4,5]","action_history":"[1,0,1,0,1]","mutagen_history":"[0,1,0,1,0]","location_rts":"[1231,849,493,784,603]","trial_type":"fractal-mutation","trial_index":56,"time_elapsed":647022,"internal_node_id":"0.0-5.0-2.0"},{"group":"hexagon_bi","fractal_assignment":["../images/blu_wht.png","../images/ylw_slt.png","../images/gry_blk.png","../images/org_blu.png","../images/pnk_blu.png","../images/cyn_red.png"],"mutagen_generator_assignment":[1,0],"goal":1,"start":5,"action_noise":0,"location_history":"[5,0,1]","action_history":"[0,1]","mutagen_history":"[1,0]","location_rts":"[1038,609]","trial_type":"fractal-mutation","trial_index":57,"time_elapsed":654717,"internal_node_id":"0.0-5.0-3.0"},{"group":"hexagon_bi","fractal_assignment":["../images/blu_wht.png","../images/ylw_slt.png","../images/gry_blk.png","../images/org_blu.png","../images/pnk_blu.png","../images/cyn_red.png"],"mutagen_generator_assignment":[1,0],"goal":3,"start":1,"action_noise":0,"location_history":"[1,2,3]","action_history":"[0,1]","mutagen_history":"[1,0]","location_rts":"[1165,456]","trial_type":"fractal-mutation","trial_index":58,"time_elapsed":662389,"internal_node_id":"0.0-5.0-4.0"},{"group":"hexagon_bi","fractal_assignment":["../images/blu_wht.png","../images/ylw_slt.png","../images/gry_blk.png","../images/org_blu.png","../images/pnk_blu.png","../images/cyn_red.png"],"mutagen_generator_assignment":[1,0],"goal":5,"start":3,"action_noise":0,"location_history":"[3,4,5]","action_history":"[0,1]","mutagen_history":"[1,0]","location_rts":"[830,417]","trial_type":"fractal-mutation","trial_index":59,"time_elapsed":669685,"internal_node_id":"0.0-5.0-5.0"},{"group":"hexagon_bi","fractal_assignment":["../images/blu_wht.png","../images/ylw_slt.png","../images/gry_blk.png","../images/org_blu.png","../images/pnk_blu.png","../images/cyn_red.png"],"mutagen_generator_assignment":[1,0],"goal":4,"start":5,"action_noise":0,"location_history":"[5,4]","action_history":"[1]","mutagen_history":"[0]","location_rts":"[1461]","trial_type":"fractal-mutation","trial_index":60,"time_elapsed":676173,"internal_node_id":"0.0-5.0-6.0"},{"group":"hexagon_bi","fractal_assignment":["../images/blu_wht.png","../images/ylw_slt.png","../images/gry_blk.png","../images/org_blu.png","../images/pnk_blu.png","../images/cyn_red.png"],"mutagen_generator_assignment":[1,0],"goal":0,"start":4,"action_noise":0,"location_history":"[4,5,0]","action_history":"[1,0]","mutagen_history":"[0,1]","location_rts":"[1199,577]","trial_type":"fractal-mutation","trial_index":61,"time_elapsed":683996,"internal_node_id":"0.0-5.0-7.0"},{"group":"hexagon_bi","fractal_assignment":["../images/blu_wht.png","../images/ylw_slt.png","../images/gry_blk.png","../images/org_blu.png","../images/pnk_blu.png","../images/cyn_red.png"],"mutagen_generator_assignment":[1,0],"goal":2,"start":0,"action_noise":0,"location_history":"[0,5,4,3,2]","action_history":"[0,1,0,1]","mutagen_history":"[1,0,1,0]","location_rts":"[16255,402,378,787]","trial_type":"fractal-mutation","trial_index":62,"time_elapsed":709909,"internal_node_id":"0.0-5.0-8.0"},{"group":"hexagon_bi","fractal_assignment":["../images/blu_wht.png","../images/ylw_slt.png","../images/gry_blk.png","../images/org_blu.png","../images/pnk_blu.png","../images/cyn_red.png"],"mutagen_generator_assignment":[1,0],"goal":4,"start":2,"action_noise":0,"location_history":"[2,1,0,5,4]","action_history":"[0,1,0,1]","mutagen_history":"[1,0,1,0]","location_rts":"[991,424,699,426]","trial_type":"fractal-mutation","trial_index":63,"time_elapsed":720541,"internal_node_id":"0.0-5.0-9.0"},{"group":"hexagon_bi","fractal_assignment":["../images/blu_wht.png","../images/ylw_slt.png","../images/gry_blk.png","../images/org_blu.png","../images/pnk_blu.png","../images/cyn_red.png"],"mutagen_generator_assignment":[1,0],"goal":2,"start":4,"action_noise":0,"location_history":"[4,3,2]","action_history":"[0,1]","mutagen_history":"[1,0]","location_rts":"[870,375]","trial_type":"fractal-mutation","trial_index":64,"time_elapsed":727837,"internal_node_id":"0.0-5.0-10.0"},{"group":"hexagon_bi","fractal_assignment":["../images/blu_wht.png","../images/ylw_slt.png","../images/gry_blk.png","../images/org_blu.png","../images/pnk_blu.png","../images/cyn_red.png"],"mutagen_generator_assignment":[1,0],"goal":3,"start":2,"action_noise":0,"location_history":"[2,1,0,5,4,3]","action_history":"[0,1,0,1,0]","mutagen_history":"[1,0,1,0,1]","location_rts":"[694,355,491,641,603]","trial_type":"fractal-mutation","trial_index":65,"time_elapsed":739734,"internal_node_id":"0.0-5.0-11.0"},{"group":"hexagon_bi","fractal_assignment":["../images/blu_wht.png","../images/ylw_slt.png","../images/gry_blk.png","../images/org_blu.png","../images/pnk_blu.png","../images/cyn_red.png"],"mutagen_generator_assignment":[1,0],"goal":0,"start":3,"action_noise":0,"location_history":"[3,2,1,0]","action_history":"[1,0,1]","mutagen_history":"[0,1,0]","location_rts":"[597,451,432]","trial_type":"fractal-mutation","trial_index":66,"time_elapsed":748284,"internal_node_id":"0.0-5.0-12.0"},{"group":"hexagon_bi","fractal_assignment":["../images/blu_wht.png","../images/ylw_slt.png","../images/gry_blk.png","../images/org_blu.png","../images/pnk_blu.png","../images/cyn_red.png"],"mutagen_generator_assignment":[1,0],"goal":5,"start":0,"action_noise":0,"location_history":"[0,5]","action_history":"[0]","mutagen_history":"[1]","location_rts":"[590]","trial_type":"fractal-mutation","trial_index":67,"time_elapsed":753903,"internal_node_id":"0.0-5.0-13.0"},{"group":"hexagon_bi","fractal_assignment":["../images/blu_wht.png","../images/ylw_slt.png","../images/gry_blk.png","../images/org_blu.png","../images/pnk_blu.png","../images/cyn_red.png"],"mutagen_generator_assignment":[1,0],"goal":1,"start":5,"action_noise":0,"location_history":"[5,4,3,2,1]","action_history":"[1,0,1,0]","mutagen_history":"[0,1,0,1]","location_rts":"[717,401,441,474]","trial_type":"fractal-mutation","trial_index":68,"time_elapsed":764029,"internal_node_id":"0.0-5.0-14.0"},{"group":"hexagon_bi","fractal_assignment":["../images/blu_wht.png","../images/ylw_slt.png","../images/gry_blk.png","../images/org_blu.png","../images/pnk_blu.png","../images/cyn_red.png"],"mutagen_generator_assignment":[1,0],"goal":5,"start":1,"action_noise":0,"location_history":"[1,0,5]","action_history":"[1,0]","mutagen_history":"[0,1]","location_rts":"[759,330]","trial_type":"fractal-mutation","trial_index":69,"time_elapsed":771165,"internal_node_id":"0.0-5.0-15.0"},{"group":"hexagon_bi","fractal_assignment":["../images/blu_wht.png","../images/ylw_slt.png","../images/gry_blk.png","../images/org_blu.png","../images/pnk_blu.png","../images/cyn_red.png"],"mutagen_generator_assignment":[1,0],"goal":3,"start":5,"action_noise":0,"location_history":"[5,0,1,2,3]","action_history":"[0,1,0,1]","mutagen_history":"[1,0,1,0]","location_rts":"[733,354,489,499]","trial_type":"fractal-mutation","trial_index":70,"time_elapsed":781332,"internal_node_id":"0.0-5.0-16.0"},{"group":"hexagon_bi","fractal_assignment":["../images/blu_wht.png","../images/ylw_slt.png","../images/gry_blk.png","../images/org_blu.png","../images/pnk_blu.png","../images/cyn_red.png"],"mutagen_generator_assignment":[1,0],"goal":2,"start":3,"action_noise":0,"location_history":"[3,4,5,0,1,2]","action_history":"[0,1,0,1,0]","mutagen_history":"[1,0,1,0,1]","location_rts":"[527,463,306,519,408]","trial_type":"fractal-mutation","trial_index":71,"time_elapsed":792677,"internal_node_id":"0.0-5.0-17.0"},{"group":"hexagon_bi","fractal_assignment":["../images/blu_wht.png","../images/ylw_slt.png","../images/gry_blk.png","../images/org_blu.png","../images/pnk_blu.png","../images/cyn_red.png"],"mutagen_generator_assignment":[1,0],"goal":1,"start":2,"action_noise":0,"location_history":"[2,3,4,5,0,1]","action_history":"[1,0,1,0,1]","mutagen_history":"[0,1,0,1,0]","location_rts":"[1085,331,435,395,696]","trial_type":"fractal-mutation","trial_index":72,"time_elapsed":804739,"internal_node_id":"0.0-5.0-18.0"},{"group":"hexagon_bi","fractal_assignment":["../images/blu_wht.png","../images/ylw_slt.png","../images/gry_blk.png","../images/org_blu.png","../images/pnk_blu.png","../images/cyn_red.png"],"mutagen_generator_assignment":[1,0],"goal":4,"start":1,"action_noise":0,"location_history":"[1,2,3,4]","action_history":"[0,1,0]","mutagen_history":"[1,0,1]","location_rts":"[670,377,394]","trial_type":"fractal-mutation","trial_index":73,"time_elapsed":813256,"internal_node_id":"0.0-5.0-19.0"},{"group":"hexagon_bi","fractal_assignment":["../images/blu_wht.png","../images/ylw_slt.png","../images/gry_blk.png","../images/org_blu.png","../images/pnk_blu.png","../images/cyn_red.png"],"mutagen_generator_assignment":[1,0],"goal":0,"start":4,"action_noise":0,"location_history":"[4,5,0]","action_history":"[1,0]","mutagen_history":"[0,1]","location_rts":"[914,394]","trial_type":"fractal-mutation","trial_index":74,"time_elapsed":820614,"internal_node_id":"0.0-5.0-20.0"},{"group":"hexagon_bi","fractal_assignment":["../images/blu_wht.png","../images/ylw_slt.png","../images/gry_blk.png","../images/org_blu.png","../images/pnk_blu.png","../images/cyn_red.png"],"mutagen_generator_assignment":[1,0],"goal":3,"start":0,"action_noise":0,"location_history":"[0,1,2,3]","action_history":"[1,0,1]","mutagen_history":"[0,1,0]","location_rts":"[605,440,576]","trial_type":"fractal-mutation","trial_index":75,"time_elapsed":829310,"internal_node_id":"0.0-5.0-21.0"},{"group":"hexagon_bi","fractal_assignment":["../images/blu_wht.png","../images/ylw_slt.png","../images/gry_blk.png","../images/org_blu.png","../images/pnk_blu.png","../images/cyn_red.png"],"mutagen_generator_assignment":[1,0],"goal":1,"start":3,"action_noise":0,"location_history":"[3,4,5,0,1]","action_history":"[0,1,0,1]","mutagen_history":"[1,0,1,0]","location_rts":"[742,474,529,441]","trial_type":"fractal-mutation","trial_index":76,"time_elapsed":839588,"internal_node_id":"0.0-5.0-22.0"},{"group":"hexagon_bi","fractal_assignment":["../images/blu_wht.png","../images/ylw_slt.png","../images/gry_blk.png","../images/org_blu.png","../images/pnk_blu.png","../images/cyn_red.png"],"mutagen_generator_assignment":[1,0],"goal":0,"start":1,"action_noise":0,"location_history":"[1,2,3,4,5,0]","action_history":"[0,1,0,1,0]","mutagen_history":"[1,0,1,0,1]","location_rts":"[678,466,730,882,690]","trial_type":"fractal-mutation","trial_index":77,"time_elapsed":852149,"internal_node_id":"0.0-5.0-23.0"},{"group":"hexagon_bi","fractal_assignment":["../images/blu_wht.png","../images/ylw_slt.png","../images/gry_blk.png","../images/org_blu.png","../images/pnk_blu.png","../images/cyn_red.png"],"mutagen_generator_assignment":[1,0],"goal":2,"start":0,"action_noise":0,"location_history":"[0,5,4,3,2]","action_history":"[0,1,0,1]","mutagen_history":"[1,0,1,0]","location_rts":"[1350,466,556,474]","trial_type":"fractal-mutation","trial_index":78,"time_elapsed":863083,"internal_node_id":"0.0-5.0-24.0"},{"group":"hexagon_bi","fractal_assignment":["../images/blu_wht.png","../images/ylw_slt.png","../images/gry_blk.png","../images/org_blu.png","../images/pnk_blu.png","../images/cyn_red.png"],"mutagen_generator_assignment":[1,0],"goal":4,"start":2,"action_noise":0,"location_history":"[2,1,0,5,4]","action_history":"[0,1,0,1]","mutagen_history":"[1,0,1,0]","location_rts":"[760,361,1066,505]","trial_type":"fractal-mutation","trial_index":79,"time_elapsed":873869,"internal_node_id":"0.0-5.0-25.0"},{"group":"hexagon_bi","fractal_assignment":["../images/blu_wht.png","../images/ylw_slt.png","../images/gry_blk.png","../images/org_blu.png","../images/pnk_blu.png","../images/cyn_red.png"],"mutagen_generator_assignment":[1,0],"goal":5,"start":4,"action_noise":0,"location_history":"[4,3,2,1,0,5]","action_history":"[0,1,0,1,0]","mutagen_history":"[1,0,1,0,1]","location_rts":"[661,394,409,393,449]","trial_type":"fractal-mutation","trial_index":80,"time_elapsed":885295,"internal_node_id":"0.0-5.0-26.0"},{"group":"hexagon_bi","fractal_assignment":["../images/blu_wht.png","../images/ylw_slt.png","../images/gry_blk.png","../images/org_blu.png","../images/pnk_blu.png","../images/cyn_red.png"],"mutagen_generator_assignment":[1,0],"goal":2,"start":5,"action_noise":0,"location_history":"[5,4,3,2]","action_history":"[1,0,1]","mutagen_history":"[0,1,0]","location_rts":"[604,328,578]","trial_type":"fractal-mutation","trial_index":81,"time_elapsed":893876,"internal_node_id":"0.0-5.0-27.0"},{"group":"hexagon_bi","fractal_assignment":["../images/blu_wht.png","../images/ylw_slt.png","../images/gry_blk.png","../images/org_blu.png","../images/pnk_blu.png","../images/cyn_red.png"],"mutagen_generator_assignment":[1,0],"goal":3,"start":2,"action_noise":0,"location_history":"[2,1,0,5,4,3]","action_history":"[0,1,0,1,0]","mutagen_history":"[1,0,1,0,1]","location_rts":"[702,729,761,474,386]","trial_type":"fractal-mutation","trial_index":82,"time_elapsed":906043,"internal_node_id":"0.0-5.0-28.0"},{"group":"hexagon_bi","fractal_assignment":["../images/blu_wht.png","../images/ylw_slt.png","../images/gry_blk.png","../images/org_blu.png","../images/pnk_blu.png","../images/cyn_red.png"],"mutagen_generator_assignment":[1,0],"goal":1,"start":3,"action_noise":0,"location_history":"[3,2,1]","action_history":"[1,0]","mutagen_history":"[0,1]","location_rts":"[582,330]","trial_type":"fractal-mutation","trial_index":83,"time_elapsed":913003,"internal_node_id":"0.0-5.0-29.0"},{"group":"hexagon_bi","fractal_assignment":["../images/blu_wht.png","../images/ylw_slt.png","../images/gry_blk.png","../images/org_blu.png","../images/pnk_blu.png","../images/cyn_red.png"],"mutagen_generator_assignment":[1,0],"goal":4,"start":1,"action_noise":0,"location_history":"[1,0,5,4]","action_history":"[1,0,1]","mutagen_history":"[0,1,0]","location_rts":"[638,331,369]","trial_type":"fractal-mutation","trial_index":84,"time_elapsed":921410,"internal_node_id":"0.0-5.0-30.0"},{"group":"hexagon_bi","fractal_assignment":["../images/blu_wht.png","../images/ylw_slt.png","../images/gry_blk.png","../images/org_blu.png","../images/pnk_blu.png","../images/cyn_red.png"],"mutagen_generator_assignment":[1,0],"goal":5,"start":4,"action_noise":0,"location_history":"[4,3,2,1,0,5]","action_history":"[0,1,0,1,0]","mutagen_history":"[1,0,1,0,1]","location_rts":"[3159,593,506,387,353]","trial_type":"fractal-mutation","trial_index":85,"time_elapsed":935524,"internal_node_id":"0.0-5.0-31.0"},{"group":"hexagon_bi","fractal_assignment":["../images/blu_wht.png","../images/ylw_slt.png","../images/gry_blk.png","../images/org_blu.png","../images/pnk_blu.png","../images/cyn_red.png"],"mutagen_generator_assignment":[1,0],"goal":0,"start":5,"action_noise":0,"location_history":"[5,4,3,4,5,0]","action_history":"[1,0,0,1,0]","mutagen_history":"[0,1,1,0,1]","location_rts":"[782,474,585,834,1098]","trial_type":"fractal-mutation","trial_index":86,"time_elapsed":948412,"internal_node_id":"0.0-5.0-32.0"},{"group":"hexagon_bi","fractal_assignment":["../images/blu_wht.png","../images/ylw_slt.png","../images/gry_blk.png","../images/org_blu.png","../images/pnk_blu.png","../images/cyn_red.png"],"mutagen_generator_assignment":[1,0],"goal":2,"start":0,"action_noise":0,"location_history":"[0,1,2]","action_history":"[1,0]","mutagen_history":"[0,1]","location_rts":"[654,290]","trial_type":"fractal-mutation","trial_index":87,"time_elapsed":955403,"internal_node_id":"0.0-5.0-33.0"},{"group":"hexagon_bi","fractal_assignment":["../images/blu_wht.png","../images/ylw_slt.png","../images/gry_blk.png","../images/org_blu.png","../images/pnk_blu.png","../images/cyn_red.png"],"mutagen_generator_assignment":[1,0],"goal":0,"start":2,"action_noise":0,"location_history":"[2,3,4,5,0]","action_history":"[1,0,1,0]","mutagen_history":"[0,1,0,1]","location_rts":"[661,458,754,449]","trial_type":"fractal-mutation","trial_index":88,"time_elapsed":965819,"internal_node_id":"0.0-5.0-34.0"},{"group":"hexagon_bi","fractal_assignment":["../images/blu_wht.png","../images/ylw_slt.png","../images/gry_blk.png","../images/org_blu.png","../images/pnk_blu.png","../images/cyn_red.png"],"mutagen_generator_assignment":[1,0],"goal":5,"start":0,"action_noise":0,"location_history":"[0,5]","action_history":"[0]","mutagen_history":"[1]","location_rts":"[556]","trial_type":"fractal-mutation","trial_index":89,"time_elapsed":971405,"internal_node_id":"0.0-5.0-35.0"},{"group":"hexagon_bi","fractal_assignment":["../images/blu_wht.png","../images/ylw_slt.png","../images/gry_blk.png","../images/org_blu.png","../images/pnk_blu.png","../images/cyn_red.png"],"mutagen_generator_assignment":[1,0],"goal":1,"start":5,"action_noise":0,"location_history":"[5,0,1]","action_history":"[0,1]","mutagen_history":"[1,0]","location_rts":"[628,313]","trial_type":"fractal-mutation","trial_index":90,"time_elapsed":978394,"internal_node_id":"0.0-5.0-36.0"},{"group":"hexagon_bi","fractal_assignment":["../images/blu_wht.png","../images/ylw_slt.png","../images/gry_blk.png","../images/org_blu.png","../images/pnk_blu.png","../images/cyn_red.png"],"mutagen_generator_assignment":[1,0],"goal":4,"start":1,"action_noise":0,"location_history":"[1,2,3,4]","action_history":"[0,1,0]","mutagen_history":"[1,0,1]","location_rts":"[461,344,370]","trial_type":"fractal-mutation","trial_index":91,"time_elapsed":986642,"internal_node_id":"0.0-5.0-37.0"},{"group":"hexagon_bi","fractal_assignment":["../images/blu_wht.png","../images/ylw_slt.png","../images/gry_blk.png","../images/org_blu.png","../images/pnk_blu.png","../images/cyn_red.png"],"mutagen_generator_assignment":[1,0],"goal":3,"start":4,"action_noise":0,"location_history":"[4,5,0,1,2,3]","action_history":"[1,0,1,0,1]","mutagen_history":"[0,1,0,1,0]","location_rts":"[574,353,441,380,495]","trial_type":"fractal-mutation","trial_index":92,"time_elapsed":998002,"internal_node_id":"0.0-5.0-38.0"},{"group":"hexagon_bi","fractal_assignment":["../images/blu_wht.png","../images/ylw_slt.png","../images/gry_blk.png","../images/org_blu.png","../images/pnk_blu.png","../images/cyn_red.png"],"mutagen_generator_assignment":[1,0],"goal":5,"start":3,"action_noise":0,"location_history":"[3,4,5]","action_history":"[0,1]","mutagen_history":"[1,0]","location_rts":"[559,360]","trial_type":"fractal-mutation","trial_index":93,"time_elapsed":1004972,"internal_node_id":"0.0-5.0-39.0"},{"group":"hexagon_bi","fractal_assignment":["../images/blu_wht.png","../images/ylw_slt.png","../images/gry_blk.png","../images/org_blu.png","../images/pnk_blu.png","../images/cyn_red.png"],"mutagen_generator_assignment":[1,0],"goal":1,"start":5,"action_noise":0,"location_history":"[5,0,1]","action_history":"[0,1]","mutagen_history":"[1,0]","location_rts":"[502,521]","trial_type":"fractal-mutation","trial_index":94,"time_elapsed":1012042,"internal_node_id":"0.0-5.0-40.0"},{"group":"hexagon_bi","fractal_assignment":["../images/blu_wht.png","../images/ylw_slt.png","../images/gry_blk.png","../images/org_blu.png","../images/pnk_blu.png","../images/cyn_red.png"],"mutagen_generator_assignment":[1,0],"goal":2,"start":1,"action_noise":0,"location_history":"[1,2]","action_history":"[0]","mutagen_history":"[1]","location_rts":"[551]","trial_type":"fractal-mutation","trial_index":95,"time_elapsed":1017620,"internal_node_id":"0.0-5.0-41.0"},{"group":"hexagon_bi","fractal_assignment":["../images/blu_wht.png","../images/ylw_slt.png","../images/gry_blk.png","../images/org_blu.png","../images/pnk_blu.png","../images/cyn_red.png"],"mutagen_generator_assignment":[1,0],"goal":4,"start":2,"action_noise":0,"location_history":"[2,3,4]","action_history":"[1,0]","mutagen_history":"[0,1]","location_rts":"[629,378]","trial_type":"fractal-mutation","trial_index":96,"time_elapsed":1024675,"internal_node_id":"0.0-5.0-42.0"},{"group":"hexagon_bi","fractal_assignment":["../images/blu_wht.png","../images/ylw_slt.png","../images/gry_blk.png","../images/org_blu.png","../images/pnk_blu.png","../images/cyn_red.png"],"mutagen_generator_assignment":[1,0],"goal":0,"start":4,"action_noise":0,"location_history":"[4,5,0]","action_history":"[1,0]","mutagen_history":"[0,1]","location_rts":"[1111,345]","trial_type":"fractal-mutation","trial_index":97,"time_elapsed":1032177,"internal_node_id":"0.0-5.0-43.0"},{"group":"hexagon_bi","fractal_assignment":["../images/blu_wht.png","../images/ylw_slt.png","../images/gry_blk.png","../images/org_blu.png","../images/pnk_blu.png","../images/cyn_red.png"],"mutagen_generator_assignment":[1,0],"goal":3,"start":0,"action_noise":0,"location_history":"[0,1,2,3]","action_history":"[1,0,1]","mutagen_history":"[0,1,0]","location_rts":"[710,345,378]","trial_type":"fractal-mutation","trial_index":98,"time_elapsed":1040682,"internal_node_id":"0.0-5.0-44.0"},{"group":"hexagon_bi","fractal_assignment":["../images/blu_wht.png","../images/ylw_slt.png","../images/gry_blk.png","../images/org_blu.png","../images/pnk_blu.png","../images/cyn_red.png"],"mutagen_generator_assignment":[1,0],"goal":0,"start":3,"action_noise":0,"location_history":"[3,4,5,0]","action_history":"[0,1,0]","mutagen_history":"[1,0,1]","location_rts":"[446,480,386]","trial_type":"fractal-mutation","trial_index":99,"time_elapsed":1049066,"internal_node_id":"0.0-5.0-45.0"},{"group":"hexagon_bi","fractal_assignment":["../images/blu_wht.png","../images/ylw_slt.png","../images/gry_blk.png","../images/org_blu.png","../images/pnk_blu.png","../images/cyn_red.png"],"mutagen_generator_assignment":[1,0],"goal":4,"start":0,"action_noise":0,"location_history":"[0,1,2,3,4]","action_history":"[1,0,1,0]","mutagen_history":"[0,1,0,1]","location_rts":"[573,402,570,586]","trial_type":"fractal-mutation","trial_index":100,"time_elapsed":1059294,"internal_node_id":"0.0-5.0-46.0"},{"group":"hexagon_bi","fractal_assignment":["../images/blu_wht.png","../images/ylw_slt.png","../images/gry_blk.png","../images/org_blu.png","../images/pnk_blu.png","../images/cyn_red.png"],"mutagen_generator_assignment":[1,0],"goal":5,"start":4,"action_noise":0,"location_history":"[4,5]","action_history":"[1]","mutagen_history":"[0]","location_rts":"[434]","trial_type":"fractal-mutation","trial_index":101,"time_elapsed":1064755,"internal_node_id":"0.0-5.0-47.0"},{"group":"hexagon_bi","fractal_assignment":["../images/blu_wht.png","../images/ylw_slt.png","../images/gry_blk.png","../images/org_blu.png","../images/pnk_blu.png","../images/cyn_red.png"],"mutagen_generator_assignment":[1,0],"goal":2,"start":5,"action_noise":0,"location_history":"[5,0,1,2]","action_history":"[0,1,0]","mutagen_history":"[1,0,1]","location_rts":"[686,439,402]","trial_type":"fractal-mutation","trial_index":102,"time_elapsed":1073373,"internal_node_id":"0.0-5.0-48.0"},{"group":"hexagon_bi","fractal_assignment":["../images/blu_wht.png","../images/ylw_slt.png","../images/gry_blk.png","../images/org_blu.png","../images/pnk_blu.png","../images/cyn_red.png"],"mutagen_generator_assignment":[1,0],"goal":1,"start":2,"action_noise":0,"location_history":"[2,3,4,5,0,1]","action_history":"[1,0,1,0,1]","mutagen_history":"[0,1,0,1,0]","location_rts":"[596,521,592,320,466]","trial_type":"fractal-mutation","trial_index":103,"time_elapsed":1084985,"internal_node_id":"0.0-5.0-49.0"},{"view_history":"[{\"page_index\":0,\"viewing_time\":3907}]","rt":3907,"trial_type":"instructions","trial_index":104,"time_elapsed":1089893,"internal_node_id":"0.0-6.0"},{"rt":32707,"responses":"{\"Q0\":\"People's memory  \"}","trial_type":"survey-text","trial_index":105,"time_elapsed":1123609,"internal_node_id":"0.0-7.0-0.0"},{"rt":15676,"responses":"{\"Q0\":\"How well people can remember things \"}","trial_type":"survey-text","trial_index":106,"time_elapsed":1140287,"internal_node_id":"0.0-7.0-1.0"},{"rt":21589,"responses":"{\"Q0\":\"<img src='../images/diagrams/hexagon_bi.png'>\"}","trial_type":"survey-multi-choice","trial_index":107,"time_elapsed":1162882,"internal_node_id":"0.0-7.0-2.0"},{"rt":32738,"assignments":["../images/blu_wht.png","../images/pnk_blu.png","../images/org_blu.png","../images/gry_blk.png","../images/ylw_slt.png","../images/cyn_red.png"],"trial_type":"drag-drop-on-image","trial_index":108,"time_elapsed":1196622,"internal_node_id":"0.0-7.0-3.0"},{"rt":4684,"responses":"{\"Q0\":\"4\"}","trial_type":"survey-likert","trial_index":109,"time_elapsed":1202310,"internal_node_id":"0.0-7.0-4.0"},{"rt":19614,"responses":"{\"Q0\":\"The objective of remembered paths seemed to be the same \"}","trial_type":"survey-text","trial_index":110,"time_elapsed":1222927,"internal_node_id":"0.0-7.0-5.0"},{"rt":7074,"responses":"{\"Q0\":\"Yes\"}","trial_type":"survey-multi-choice","trial_index":111,"time_elapsed":1231005,"internal_node_id":"0.0-7.0-6.0"},{"rt":5767,"responses":"{\"Q0\":\"During session 1\"}","trial_type":"survey-multi-choice","trial_index":112,"time_elapsed":1237778,"internal_node_id":"0.0-7.0-7.0"},{"rt":31914,"responses":"{\"Q0\":\"Just felt like both experiments were testing the same thing which I believe is people's memory ability \"}","trial_type":"survey-text","trial_index":113,"time_elapsed":1270694,"internal_node_id":"0.0-7.0-8.0"},{"rt":10990,"responses":"{\"Q0\":\"1\"}","trial_type":"survey-likert","trial_index":114,"time_elapsed":1282686,"internal_node_id":"0.0-7.0-9.0"},{"rt":7997,"responses":"{\"Q0\":\"Same structure\"}","trial_type":"survey-multi-choice","trial_index":115,"time_elapsed":1291687,"internal_node_id":"0.0-7.0-10.0"},{"rt":30738,"responses":"{\"Q0\":\"left (white) door = ray, right (black) door = acid\",\"Q1\":\"Not at all confident\"}","trial_type":"survey-multi-choice","trial_index":116,"time_elapsed":1323431,"internal_node_id":"0.0-7.0-11.0"},{"rt":7277,"responses":"{\"Q0\":\"35-45\",\"Q1\":\"High school degree or GED\",\"Q2\":\"Male\",\"Q3\":\"White\"}","trial_type":"survey-multi-choice","trial_index":117,"time_elapsed":1331725,"internal_node_id":"0.0-8.0"},{"rt":1746,"responses":"{\"Q0\":\"\"}","trial_type":"survey-text","trial_index":118,"time_elapsed":1334474,"internal_node_id":"0.0-9.0"}]