[{"view_history":"[{\"page_index\":0,\"viewing_time\":6449},{\"page_index\":1,\"viewing_time\":9094}]","rt":15545,"trial_type":"instructions","trial_index":0,"time_elapsed":15546,"internal_node_id":"0.0-0.0"},{"view_history":"[{\"page_index\":0,\"viewing_time\":2113},{\"page_index\":1,\"viewing_time\":1805}]","rt":3918,"trial_type":"instructions","trial_index":1,"time_elapsed":20475,"internal_node_id":"0.0-1.0"},{"group":"hexagon_tri","room_assignment":["blue","yellow","red","grey","green","purple"],"door_color_assignment":["black","white"],"door_generator_assignment":[1,0],"goal":2,"start":1,"action_noise":0,"location_history":"[1,5,4,2]","action_history":"[1,0,1]","door_history":"[0,1,0]","location_rts":"[9022,780,930]","trial_type":"two-door-navigation","trial_index":2,"time_elapsed":38298,"internal_node_id":"0.0-2.0-0.0"},{"group":"hexagon_tri","room_assignment":["blue","yellow","red","grey","green","purple"],"door_color_assignment":["black","white"],"door_generator_assignment":[1,0],"goal":0,"start":2,"action_noise":0,"location_history":"[2,1,3,4,0]","action_history":"[0,0,1,0]","door_history":"[1,1,0,1]","location_rts":"[3143,954,844,357]","trial_type":"two-door-navigation","trial_index":3,"time_elapsed":51664,"internal_node_id":"0.0-2.0-1.0"},{"group":"hexagon_tri","room_assignment":["blue","yellow","red","grey","green","purple"],"door_color_assignment":["black","white"],"door_generator_assignment":[1,0],"goal":5,"start":0,"action_noise":0,"location_history":"[0,5]","action_history":"[0]","door_history":"[1]","location_rts":"[1278]","trial_type":"two-door-navigation","trial_index":4,"time_elapsed":57966,"internal_node_id":"0.0-2.0-2.0"},{"group":"hexagon_tri","room_assignment":["blue","yellow","red","grey","green","purple"],"door_color_assignment":["black","white"],"door_generator_assignment":[1,0],"goal":1,"start":5,"action_noise":0,"location_history":"[5,4,0,1]","action_history":"[0,0,1]","door_history":"[1,1,0]","location_rts":"[1307,1225,831]","trial_type":"two-door-navigation","trial_index":5,"time_elapsed":68386,"internal_node_id":"0.0-2.0-3.0"},{"group":"hexagon_tri","room_assignment":["blue","yellow","red","grey","green","purple"],"door_color_assignment":["black","white"],"door_generator_assignment":[1,0],"goal":3,"start":1,"action_noise":0,"location_history":"[1,5,0,1,5,4,2,3]","action_history":"[1,1,1,1,0,1,1]","door_history":"[0,0,0,0,1,0,0]","location_rts":"[3832,434,305,494,580,2050,482]","trial_type":"two-door-navigation","trial_index":6,"time_elapsed":87723,"internal_node_id":"0.0-2.0-4.0"},{"group":"hexagon_tri","room_assignment":["blue","yellow","red","grey","green","purple"],"door_color_assignment":["black","white"],"door_generator_assignment":[1,0],"goal":5,"start":3,"action_noise":0,"location_history":"[3,2,3,4,0,5]","action_history":"[0,1,1,0,0]","door_history":"[1,0,0,1,1]","location_rts":"[1939,819,1157,328,1390]","trial_type":"two-door-navigation","trial_index":7,"time_elapsed":102425,"internal_node_id":"0.0-2.0-5.0"},{"group":"hexagon_tri","room_assignment":["blue","yellow","red","grey","green","purple"],"door_color_assignment":["black","white"],"door_generator_assignment":[1,0],"goal":4,"start":5,"action_noise":0,"location_history":"[5,4]","action_history":"[0]","door_history":"[1]","location_rts":"[7417]","trial_type":"two-door-navigation","trial_index":8,"time_elapsed":114879,"internal_node_id":"0.0-2.0-6.0"},{"group":"hexagon_tri","room_assignment":["blue","yellow","red","grey","green","purple"],"door_color_assignment":["black","white"],"door_generator_assignment":[1,0],"goal":0,"start":4,"action_noise":0,"location_history":"[4,0]","action_history":"[0]","door_history":"[1]","location_rts":"[6236]","trial_type":"two-door-navigation","trial_index":9,"time_elapsed":126147,"internal_node_id":"0.0-2.0-7.0"},{"group":"hexagon_tri","room_assignment":["blue","yellow","red","grey","green","purple"],"door_color_assignment":["black","white"],"door_generator_assignment":[1,0],"goal":2,"start":0,"action_noise":0,"location_history":"[0,1,5,4,0,5,4,2]","action_history":"[1,1,0,0,0,0,1]","door_history":"[0,0,1,1,1,1,0]","location_rts":"[111804,615,730,531,2870,1088,304]","trial_type":"two-door-navigation","trial_index":10,"time_elapsed":255191,"internal_node_id":"0.0-2.0-8.0"},{"group":"hexagon_tri","room_assignment":["blue","yellow","red","grey","green","purple"],"door_color_assignment":["black","white"],"door_generator_assignment":[1,0],"goal":4,"start":2,"action_noise":0,"location_history":"[2,1,5,4]","action_history":"[0,1,0]","door_history":"[1,0,1]","location_rts":"[27298,1301,782]","trial_type":"two-door-navigation","trial_index":11,"time_elapsed":291636,"internal_node_id":"0.0-2.0-9.0"},{"group":"hexagon_tri","room_assignment":["blue","yellow","red","grey","green","purple"],"door_color_assignment":["black","white"],"door_generator_assignment":[1,0],"goal":2,"start":4,"action_noise":0,"location_history":"[4,2]","action_history":"[1]","door_history":"[0]","location_rts":"[2402]","trial_type":"two-door-navigation","trial_index":12,"time_elapsed":299053,"internal_node_id":"0.0-2.0-10.0"},{"group":"hexagon_tri","room_assignment":["blue","yellow","red","grey","green","purple"],"door_color_assignment":["black","white"],"door_generator_assignment":[1,0],"goal":3,"start":2,"action_noise":0,"location_history":"[2,3]","action_history":"[1]","door_history":"[0]","location_rts":"[3250]","trial_type":"two-door-navigation","trial_index":13,"time_elapsed":307346,"internal_node_id":"0.0-2.0-11.0"},{"group":"hexagon_tri","room_assignment":["blue","yellow","red","grey","green","purple"],"door_color_assignment":["black","white"],"door_generator_assignment":[1,0],"goal":0,"start":3,"action_noise":0,"location_history":"[3,2,1,5,0]","action_history":"[0,0,1,1]","door_history":"[1,1,0,0]","location_rts":"[2447,975,851,618]","trial_type":"two-door-navigation","trial_index":14,"time_elapsed":320336,"internal_node_id":"0.0-2.0-12.0"},{"group":"hexagon_tri","room_assignment":["blue","yellow","red","grey","green","purple"],"door_color_assignment":["black","white"],"door_generator_assignment":[1,0],"goal":5,"start":0,"action_noise":0,"location_history":"[0,5]","action_history":"[0]","door_history":"[1]","location_rts":"[2567]","trial_type":"two-door-navigation","trial_index":15,"time_elapsed":327941,"internal_node_id":"0.0-2.0-13.0"},{"group":"hexagon_tri","room_assignment":["blue","yellow","red","grey","green","purple"],"door_color_assignment":["black","white"],"door_generator_assignment":[1,0],"goal":1,"start":5,"action_noise":0,"location_history":"[5,4,2,3,2,1]","action_history":"[0,1,1,0,0]","door_history":"[1,0,0,1,1]","location_rts":"[2441,1329,1238,765,1046]","trial_type":"two-door-navigation","trial_index":16,"time_elapsed":343831,"internal_node_id":"0.0-2.0-14.0"},{"group":"hexagon_tri","room_assignment":["blue","yellow","red","grey","green","purple"],"door_color_assignment":["black","white"],"door_generator_assignment":[1,0],"goal":5,"start":1,"action_noise":0,"location_history":"[1,3,2,3,4,0,5]","action_history":"[0,0,1,1,0,0]","door_history":"[1,1,0,0,1,1]","location_rts":"[1846,1449,458,1008,399,988]","trial_type":"two-door-navigation","trial_index":17,"time_elapsed":360065,"internal_node_id":"0.0-2.0-15.0"},{"group":"hexagon_tri","room_assignment":["blue","yellow","red","grey","green","purple"],"door_color_assignment":["black","white"],"door_generator_assignment":[1,0],"goal":3,"start":5,"action_noise":0,"location_history":"[5,0,1,5,4,2,3]","action_history":"[1,1,1,0,1,1]","door_history":"[0,0,0,1,0,0]","location_rts":"[2487,583,650,699,729,406]","trial_type":"two-door-navigation","trial_index":18,"time_elapsed":375707,"internal_node_id":"0.0-2.0-16.0"},{"group":"hexagon_tri","room_assignment":["blue","yellow","red","grey","green","purple"],"door_color_assignment":["black","white"],"door_generator_assignment":[1,0],"goal":2,"start":3,"action_noise":0,"location_history":"[3,2]","action_history":"[0]","door_history":"[1]","location_rts":"[1796]","trial_type":"two-door-navigation","trial_index":19,"time_elapsed":382514,"internal_node_id":"0.0-2.0-17.0"},{"group":"hexagon_tri","room_assignment":["blue","yellow","red","grey","green","purple"],"door_color_assignment":["black","white"],"door_generator_assignment":[1,0],"goal":1,"start":2,"action_noise":0,"location_history":"[2,3,4,0,1]","action_history":"[1,1,0,1]","door_history":"[0,0,1,0]","location_rts":"[3210,884,169,1079]","trial_type":"two-door-navigation","trial_index":20,"time_elapsed":395944,"internal_node_id":"0.0-2.0-18.0"},{"group":"hexagon_tri","room_assignment":["blue","yellow","red","grey","green","purple"],"door_color_assignment":["black","white"],"door_generator_assignment":[1,0],"goal":4,"start":1,"action_noise":0,"location_history":"[1,5,4]","action_history":"[1,0]","door_history":"[0,1]","location_rts":"[3003,740]","trial_type":"two-door-navigation","trial_index":21,"time_elapsed":405754,"internal_node_id":"0.0-2.0-19.0"},{"group":"hexagon_tri","room_assignment":["blue","yellow","red","grey","green","purple"],"door_color_assignment":["black","white"],"door_generator_assignment":[1,0],"goal":0,"start":4,"action_noise":0,"location_history":"[4,0]","action_history":"[0]","door_history":"[1]","location_rts":"[5901]","trial_type":"two-door-navigation","trial_index":22,"time_elapsed":416696,"internal_node_id":"0.0-2.0-20.0"},{"group":"hexagon_tri","room_assignment":["blue","yellow","red","grey","green","purple"],"door_color_assignment":["black","white"],"door_generator_assignment":[1,0],"goal":3,"start":0,"action_noise":0,"location_history":"[0,1,3]","action_history":"[1,0]","door_history":"[0,1]","location_rts":"[2471,828]","trial_type":"two-door-navigation","trial_index":23,"time_elapsed":426033,"internal_node_id":"0.0-2.0-21.0"},{"group":"hexagon_tri","room_assignment":["blue","yellow","red","grey","green","purple"],"door_color_assignment":["black","white"],"door_generator_assignment":[1,0],"goal":1,"start":3,"action_noise":0,"location_history":"[3,2,3,2,3,2,1]","action_history":"[0,1,0,1,0,0]","door_history":"[1,0,1,0,1,1]","location_rts":"[1481,424,2382,940,986,607]","trial_type":"two-door-navigation","trial_index":24,"time_elapsed":442945,"internal_node_id":"0.0-2.0-22.0"},{"group":"hexagon_tri","room_assignment":["blue","yellow","red","grey","green","purple"],"door_color_assignment":["black","white"],"door_generator_assignment":[1,0],"goal":0,"start":1,"action_noise":0,"location_history":"[1,3,4,0]","action_history":"[0,1,0]","door_history":"[1,0,1]","location_rts":"[30314,1902,384]","trial_type":"two-door-navigation","trial_index":25,"time_elapsed":482594,"internal_node_id":"0.0-2.0-23.0"},{"group":"hexagon_tri","room_assignment":["blue","yellow","red","grey","green","purple"],"door_color_assignment":["black","white"],"door_generator_assignment":[1,0],"goal":2,"start":0,"action_noise":0,"location_history":"[0,5,4,2]","action_history":"[0,0,1]","door_history":"[1,1,0]","location_rts":"[10007,1027,865]","trial_type":"two-door-navigation","trial_index":26,"time_elapsed":501548,"internal_node_id":"0.0-2.0-24.0"},{"group":"hexagon_tri","room_assignment":["blue","yellow","red","grey","green","purple"],"door_color_assignment":["black","white"],"door_generator_assignment":[1,0],"goal":4,"start":2,"action_noise":0,"location_history":"[2,3,2,1,5,4]","action_history":"[1,0,0,1,0]","door_history":"[0,1,1,0,1]","location_rts":"[3238,604,1374,1222,842]","trial_type":"two-door-navigation","trial_index":27,"time_elapsed":517927,"internal_node_id":"0.0-2.0-25.0"},{"group":"hexagon_tri","room_assignment":["blue","yellow","red","grey","green","purple"],"door_color_assignment":["black","white"],"door_generator_assignment":[1,0],"goal":5,"start":4,"action_noise":0,"location_history":"[4,2,1,5]","action_history":"[1,0,1]","door_history":"[0,1,0]","location_rts":"[2139,1457,1289]","trial_type":"two-door-navigation","trial_index":28,"time_elapsed":529869,"internal_node_id":"0.0-2.0-26.0"},{"group":"hexagon_tri","room_assignment":["blue","yellow","red","grey","green","purple"],"door_color_assignment":["black","white"],"door_generator_assignment":[1,0],"goal":2,"start":5,"action_noise":0,"location_history":"[5,4,0,5,4,2]","action_history":"[0,0,0,0,1]","door_history":"[1,1,1,1,0]","location_rts":"[1163,995,1944,817,330]","trial_type":"two-door-navigation","trial_index":29,"time_elapsed":544222,"internal_node_id":"0.0-2.0-27.0"},{"group":"hexagon_tri","room_assignment":["blue","yellow","red","grey","green","purple"],"door_color_assignment":["black","white"],"door_generator_assignment":[1,0],"goal":3,"start":2,"action_noise":0,"location_history":"[2,1,5,4,2,3]","action_history":"[0,1,0,1,1]","door_history":"[1,0,1,0,0]","location_rts":"[2432,1298,694,454,450]","trial_type":"two-door-navigation","trial_index":30,"time_elapsed":558620,"internal_node_id":"0.0-2.0-28.0"},{"group":"hexagon_tri","room_assignment":["blue","yellow","red","grey","green","purple"],"door_color_assignment":["black","white"],"door_generator_assignment":[1,0],"goal":1,"start":3,"action_noise":0,"location_history":"[3,2,3,2,1]","action_history":"[0,1,0,0]","door_history":"[1,0,1,1]","location_rts":"[9998,1017,647,349]","trial_type":"two-door-navigation","trial_index":31,"time_elapsed":578684,"internal_node_id":"0.0-2.0-29.0"},{"group":"hexagon_tri","room_assignment":["blue","yellow","red","grey","green","purple"],"door_color_assignment":["black","white"],"door_generator_assignment":[1,0],"goal":4,"start":1,"action_noise":0,"location_history":"[1,5,4]","action_history":"[1,0]","door_history":"[0,1]","location_rts":"[973,1098]","trial_type":"two-door-navigation","trial_index":32,"time_elapsed":586778,"internal_node_id":"0.0-2.0-30.0"},{"group":"hexagon_tri","room_assignment":["blue","yellow","red","grey","green","purple"],"door_color_assignment":["black","white"],"door_generator_assignment":[1,0],"goal":5,"start":4,"action_noise":0,"location_history":"[4,2,1,5]","action_history":"[1,0,1]","door_history":"[0,1,0]","location_rts":"[3461,950,1023]","trial_type":"two-door-navigation","trial_index":33,"time_elapsed":599250,"internal_node_id":"0.0-2.0-31.0"},{"group":"hexagon_tri","room_assignment":["blue","yellow","red","grey","green","purple"],"door_color_assignment":["black","white"],"door_generator_assignment":[1,0],"goal":0,"start":5,"action_noise":0,"location_history":"[5,0]","action_history":"[1]","door_history":"[0]","location_rts":"[17384]","trial_type":"two-door-navigation","trial_index":34,"time_elapsed":621657,"internal_node_id":"0.0-2.0-32.0"},{"group":"hexagon_tri","room_assignment":["blue","yellow","red","grey","green","purple"],"door_color_assignment":["black","white"],"door_generator_assignment":[1,0],"goal":2,"start":0,"action_noise":0,"location_history":"[0,5,4,2]","action_history":"[0,0,1]","door_history":"[1,1,0]","location_rts":"[4582,1086,1006]","trial_type":"two-door-navigation","trial_index":35,"time_elapsed":635382,"internal_node_id":"0.0-2.0-33.0"},{"group":"hexagon_tri","room_assignment":["blue","yellow","red","grey","green","purple"],"door_color_assignment":["black","white"],"door_generator_assignment":[1,0],"goal":0,"start":2,"action_noise":0,"location_history":"[2,1,5,0]","action_history":"[0,1,1]","door_history":"[1,0,0]","location_rts":"[1711,1085,738]","trial_type":"two-door-navigation","trial_index":36,"time_elapsed":645969,"internal_node_id":"0.0-2.0-34.0"},{"group":"hexagon_tri","room_assignment":["blue","yellow","red","grey","green","purple"],"door_color_assignment":["black","white"],"door_generator_assignment":[1,0],"goal":5,"start":0,"action_noise":0,"location_history":"[0,5]","action_history":"[0]","door_history":"[1]","location_rts":"[1677]","trial_type":"two-door-navigation","trial_index":37,"time_elapsed":652850,"internal_node_id":"0.0-2.0-35.0"},{"group":"hexagon_tri","room_assignment":["blue","yellow","red","grey","green","purple"],"door_color_assignment":["black","white"],"door_generator_assignment":[1,0],"goal":1,"start":5,"action_noise":0,"location_history":"[5,4,2,3,2,1]","action_history":"[0,1,1,0,0]","door_history":"[1,0,0,1,1]","location_rts":"[2016,511,634,834,829]","trial_type":"two-door-navigation","trial_index":38,"time_elapsed":666757,"internal_node_id":"0.0-2.0-36.0"},{"group":"hexagon_tri","room_assignment":["blue","yellow","red","grey","green","purple"],"door_color_assignment":["black","white"],"door_generator_assignment":[1,0],"goal":4,"start":1,"action_noise":0,"location_history":"[1,5,4]","action_history":"[1,0]","door_history":"[0,1]","location_rts":"[1846,973]","trial_type":"two-door-navigation","trial_index":39,"time_elapsed":675624,"internal_node_id":"0.0-2.0-37.0"},{"group":"hexagon_tri","room_assignment":["blue","yellow","red","grey","green","purple"],"door_color_assignment":["black","white"],"door_generator_assignment":[1,0],"goal":3,"start":4,"action_noise":0,"location_history":"[4,0,5,4,2,3]","action_history":"[0,0,0,1,1]","door_history":"[1,1,1,0,0]","location_rts":"[224536,813,1768,576,442]","trial_type":"two-door-navigation","trial_index":40,"time_elapsed":912854,"internal_node_id":"0.0-2.0-38.0"},{"group":"hexagon_tri","room_assignment":["blue","yellow","red","grey","green","purple"],"door_color_assignment":["black","white"],"door_generator_assignment":[1,0],"goal":5,"start":3,"action_noise":0,"location_history":"[3,2,3,4,0,5]","action_history":"[0,1,1,0,0]","door_history":"[1,0,0,1,1]","location_rts":"[1685,995,2081,637,897]","trial_type":"two-door-navigation","trial_index":41,"time_elapsed":928240,"internal_node_id":"0.0-2.0-39.0"},{"group":"hexagon_tri","room_assignment":["blue","yellow","red","grey","green","purple"],"door_color_assignment":["black","white"],"door_generator_assignment":[1,0],"goal":1,"start":5,"action_noise":0,"location_history":"[5,4,0,5,4,2,1]","action_history":"[0,0,0,0,1,0]","door_history":"[1,1,1,1,0,1]","location_rts":"[1849,365,563,1425,303,2172]","trial_type":"two-door-navigation","trial_index":42,"time_elapsed":945050,"internal_node_id":"0.0-2.0-40.0"},{"group":"hexagon_tri","room_assignment":["blue","yellow","red","grey","green","purple"],"door_color_assignment":["black","white"],"door_generator_assignment":[1,0],"goal":2,"start":1,"action_noise":0,"location_history":"[1,5,4,2]","action_history":"[1,0,1]","door_history":"[0,1,0]","location_rts":"[2614,750,519]","trial_type":"two-door-navigation","trial_index":43,"time_elapsed":955988,"internal_node_id":"0.0-2.0-41.0"},{"group":"hexagon_tri","room_assignment":["blue","yellow","red","grey","green","purple"],"door_color_assignment":["black","white"],"door_generator_assignment":[1,0],"goal":4,"start":2,"action_noise":0,"location_history":"[2,3,4]","action_history":"[1,1]","door_history":"[0,0]","location_rts":"[18750,1083]","trial_type":"two-door-navigation","trial_index":44,"time_elapsed":981904,"internal_node_id":"0.0-2.0-42.0"},{"group":"hexagon_tri","room_assignment":["blue","yellow","red","grey","green","purple"],"door_color_assignment":["black","white"],"door_generator_assignment":[1,0],"goal":0,"start":4,"action_noise":0,"location_history":"[4,0]","action_history":"[0]","door_history":"[1]","location_rts":"[1387]","trial_type":"two-door-navigation","trial_index":45,"time_elapsed":988346,"internal_node_id":"0.0-2.0-43.0"},{"group":"hexagon_tri","room_assignment":["blue","yellow","red","grey","green","purple"],"door_color_assignment":["black","white"],"door_generator_assignment":[1,0],"goal":3,"start":0,"action_noise":0,"location_history":"[0,1,3]","action_history":"[1,0]","door_history":"[0,1]","location_rts":"[1510,495]","trial_type":"two-door-navigation","trial_index":46,"time_elapsed":996445,"internal_node_id":"0.0-2.0-44.0"},{"group":"hexagon_tri","room_assignment":["blue","yellow","red","grey","green","purple"],"door_color_assignment":["black","white"],"door_generator_assignment":[1,0],"goal":0,"start":3,"action_noise":0,"location_history":"[3,4,0]","action_history":"[1,0]","door_history":"[0,1]","location_rts":"[1810,449]","trial_type":"two-door-navigation","trial_index":47,"time_elapsed":1004740,"internal_node_id":"0.0-2.0-45.0"},{"group":"hexagon_tri","room_assignment":["blue","yellow","red","grey","green","purple"],"door_color_assignment":["black","white"],"door_generator_assignment":[1,0],"goal":4,"start":0,"action_noise":0,"location_history":"[0,1,3,4]","action_history":"[1,0,1]","door_history":"[0,1,0]","location_rts":"[1935,641,1174]","trial_type":"two-door-navigation","trial_index":48,"time_elapsed":1015573,"internal_node_id":"0.0-2.0-46.0"},{"group":"hexagon_tri","room_assignment":["blue","yellow","red","grey","green","purple"],"door_color_assignment":["black","white"],"door_generator_assignment":[1,0],"goal":5,"start":4,"action_noise":0,"location_history":"[4,0,5]","action_history":"[0,0]","door_history":"[1,1]","location_rts":"[2197,1034]","trial_type":"two-door-navigation","trial_index":49,"time_elapsed":1024874,"internal_node_id":"0.0-2.0-47.0"},{"group":"hexagon_tri","room_assignment":["blue","yellow","red","grey","green","purple"],"door_color_assignment":["black","white"],"door_generator_assignment":[1,0],"goal":2,"start":5,"action_noise":0,"location_history":"[5,4,0,1,5,4,0,5,4,2]","action_history":"[0,0,1,1,0,0,0,0,1]","door_history":"[1,1,0,0,1,1,1,1,0]","location_rts":"[1462,1738,951,1068,639,775,688,773,327]","trial_type":"two-door-navigation","trial_index":50,"time_elapsed":1046459,"internal_node_id":"0.0-2.0-48.0"},{"group":"hexagon_tri","room_assignment":["blue","yellow","red","grey","green","purple"],"door_color_assignment":["black","white"],"door_generator_assignment":[1,0],"goal":1,"start":2,"action_noise":0,"location_history":"[2,3,2,1]","action_history":"[1,0,0]","door_history":"[0,1,1]","location_rts":"[1902,766,743]","trial_type":"two-door-navigation","trial_index":51,"time_elapsed":1056959,"internal_node_id":"0.0-2.0-49.0"},{"view_history":"[{\"page_index\":0,\"viewing_time\":1693}]","rt":1693,"trial_type":"instructions","trial_index":52,"time_elapsed":1059663,"internal_node_id":"0.0-3.0"},{"view_history":"[{\"page_index\":0,\"viewing_time\":1008},{\"page_index\":1,\"viewing_time\":1889}]","rt":2898,"trial_type":"instructions","trial_index":53,"time_elapsed":1063567,"internal_node_id":"0.0-4.0"},{"group":"hexagon_tri","fractal_assignment":["../images/cyn_red.png","../images/org_blu.png","../images/gry_blk.png","../images/pnk_blu.png","../images/blu_wht.png","../images/ylw_slt.png"],"mutagen_generator_assignment":[1,0],"goal":2,"start":1,"action_noise":0,"location_history":"[1,3,2]","action_history":"[0,0]","mutagen_history":"[1,1]","location_rts":"[2493,463]","trial_type":"fractal-mutation","trial_index":54,"time_elapsed":1072596,"internal_node_id":"0.0-5.0-0.0"},{"group":"hexagon_tri","fractal_assignment":["../images/cyn_red.png","../images/org_blu.png","../images/gry_blk.png","../images/pnk_blu.png","../images/blu_wht.png","../images/ylw_slt.png"],"mutagen_generator_assignment":[1,0],"goal":0,"start":2,"action_noise":0,"location_history":"[2,3,2,1,3,2,3,2,3,2,3,2,1,5,4,0]","action_history":"[1,0,0,0,0,1,0,1,0,1,0,0,1,0,0]","mutagen_history":"[0,1,1,1,1,0,1,0,1,0,1,1,0,1,1]","location_rts":"[1823,597,336,366,401,564,481,1180,586,831,570,588,815,538,360]","trial_type":"fractal-mutation","trial_index":55,"time_elapsed":1101903,"internal_node_id":"0.0-5.0-1.0"},{"group":"hexagon_tri","fractal_assignment":["../images/cyn_red.png","../images/org_blu.png","../images/gry_blk.png","../images/pnk_blu.png","../images/blu_wht.png","../images/ylw_slt.png"],"mutagen_generator_assignment":[1,0],"goal":5,"start":0,"action_noise":0,"location_history":"[0,5]","action_history":"[0]","mutagen_history":"[1]","location_rts":"[2091]","trial_type":"fractal-mutation","trial_index":56,"time_elapsed":1109036,"internal_node_id":"0.0-5.0-2.0"},{"group":"hexagon_tri","fractal_assignment":["../images/cyn_red.png","../images/org_blu.png","../images/gry_blk.png","../images/pnk_blu.png","../images/blu_wht.png","../images/ylw_slt.png"],"mutagen_generator_assignment":[1,0],"goal":1,"start":5,"action_noise":0,"location_history":"[5,4,0,5,4,2,1]","action_history":"[0,0,0,0,1,0]","mutagen_history":"[1,1,1,1,0,1]","location_rts":"[2338,302,475,665,478,387]","trial_type":"fractal-mutation","trial_index":57,"time_elapsed":1123825,"internal_node_id":"0.0-5.0-3.0"},{"group":"hexagon_tri","fractal_assignment":["../images/cyn_red.png","../images/org_blu.png","../images/gry_blk.png","../images/pnk_blu.png","../images/blu_wht.png","../images/ylw_slt.png"],"mutagen_generator_assignment":[1,0],"goal":3,"start":1,"action_noise":0,"location_history":"[1,3]","action_history":"[0]","mutagen_history":"[1]","location_rts":"[877]","trial_type":"fractal-mutation","trial_index":58,"time_elapsed":1129738,"internal_node_id":"0.0-5.0-4.0"},{"group":"hexagon_tri","fractal_assignment":["../images/cyn_red.png","../images/org_blu.png","../images/gry_blk.png","../images/pnk_blu.png","../images/blu_wht.png","../images/ylw_slt.png"],"mutagen_generator_assignment":[1,0],"goal":5,"start":3,"action_noise":0,"location_history":"[3,2,3,4,0,5]","action_history":"[0,1,1,0,0]","mutagen_history":"[1,0,0,1,1]","location_rts":"[1025,306,915,451,781]","trial_type":"fractal-mutation","trial_index":59,"time_elapsed":1142312,"internal_node_id":"0.0-5.0-5.0"},{"group":"hexagon_tri","fractal_assignment":["../images/cyn_red.png","../images/org_blu.png","../images/gry_blk.png","../images/pnk_blu.png","../images/blu_wht.png","../images/ylw_slt.png"],"mutagen_generator_assignment":[1,0],"goal":4,"start":5,"action_noise":0,"location_history":"[5,4]","action_history":"[0]","mutagen_history":"[1]","location_rts":"[819]","trial_type":"fractal-mutation","trial_index":60,"time_elapsed":1148192,"internal_node_id":"0.0-5.0-6.0"},{"group":"hexagon_tri","fractal_assignment":["../images/cyn_red.png","../images/org_blu.png","../images/gry_blk.png","../images/pnk_blu.png","../images/blu_wht.png","../images/ylw_slt.png"],"mutagen_generator_assignment":[1,0],"goal":0,"start":4,"action_noise":0,"location_history":"[4,0]","action_history":"[0]","mutagen_history":"[1]","location_rts":"[4730]","trial_type":"fractal-mutation","trial_index":61,"time_elapsed":1157975,"internal_node_id":"0.0-5.0-7.0"},{"group":"hexagon_tri","fractal_assignment":["../images/cyn_red.png","../images/org_blu.png","../images/gry_blk.png","../images/pnk_blu.png","../images/blu_wht.png","../images/ylw_slt.png"],"mutagen_generator_assignment":[1,0],"goal":2,"start":0,"action_noise":0,"location_history":"[0,5,4,0,1,5,4,0,5,4,0,1,3,2]","action_history":"[0,0,0,1,1,0,0,0,0,0,1,0,0]","mutagen_history":"[1,1,1,0,0,1,1,1,1,1,0,1,1]","location_rts":"[1385,429,531,1584,721,1258,393,365,408,441,406,523,354]","trial_type":"fractal-mutation","trial_index":62,"time_elapsed":1184008,"internal_node_id":"0.0-5.0-8.0"},{"group":"hexagon_tri","fractal_assignment":["../images/cyn_red.png","../images/org_blu.png","../images/gry_blk.png","../images/pnk_blu.png","../images/blu_wht.png","../images/ylw_slt.png"],"mutagen_generator_assignment":[1,0],"goal":4,"start":2,"action_noise":0,"location_history":"[2,3,2,3,2,1,3,2,3,2,1,5,4]","action_history":"[1,0,1,0,0,0,0,1,0,0,1,0]","mutagen_history":"[0,1,0,1,1,1,1,0,1,1,0,1]","location_rts":"[915,416,498,366,367,373,381,487,413,442,325,435]","trial_type":"fractal-mutation","trial_index":63,"time_elapsed":1205671,"internal_node_id":"0.0-5.0-9.0"},{"group":"hexagon_tri","fractal_assignment":["../images/cyn_red.png","../images/org_blu.png","../images/gry_blk.png","../images/pnk_blu.png","../images/blu_wht.png","../images/ylw_slt.png"],"mutagen_generator_assignment":[1,0],"goal":2,"start":4,"action_noise":0,"location_history":"[4,0,5,0,5,0,5,4,0,1,3,2]","action_history":"[0,0,1,0,1,0,0,0,1,0,0]","mutagen_history":"[1,1,0,1,0,1,1,1,0,1,1]","location_rts":"[711,381,392,374,1009,500,520,1707,470,571,366]","trial_type":"fractal-mutation","trial_index":64,"time_elapsed":1227870,"internal_node_id":"0.0-5.0-10.0"},{"group":"hexagon_tri","fractal_assignment":["../images/cyn_red.png","../images/org_blu.png","../images/gry_blk.png","../images/pnk_blu.png","../images/blu_wht.png","../images/ylw_slt.png"],"mutagen_generator_assignment":[1,0],"goal":3,"start":2,"action_noise":0,"location_history":"[2,1,3]","action_history":"[0,0]","mutagen_history":"[1,1]","location_rts":"[892,493]","trial_type":"fractal-mutation","trial_index":65,"time_elapsed":1235293,"internal_node_id":"0.0-5.0-11.0"},{"group":"hexagon_tri","fractal_assignment":["../images/cyn_red.png","../images/org_blu.png","../images/gry_blk.png","../images/pnk_blu.png","../images/blu_wht.png","../images/ylw_slt.png"],"mutagen_generator_assignment":[1,0],"goal":0,"start":3,"action_noise":0,"location_history":"[3,2,1,3,4,0]","action_history":"[0,0,0,1,0]","mutagen_history":"[1,1,1,0,1]","location_rts":"[1181,354,622,548,437]","trial_type":"fractal-mutation","trial_index":66,"time_elapsed":1247522,"internal_node_id":"0.0-5.0-12.0"},{"group":"hexagon_tri","fractal_assignment":["../images/cyn_red.png","../images/org_blu.png","../images/gry_blk.png","../images/pnk_blu.png","../images/blu_wht.png","../images/ylw_slt.png"],"mutagen_generator_assignment":[1,0],"goal":5,"start":0,"action_noise":0,"location_history":"[0,5]","action_history":"[0]","mutagen_history":"[1]","location_rts":"[3351]","trial_type":"fractal-mutation","trial_index":67,"time_elapsed":1255937,"internal_node_id":"0.0-5.0-13.0"},{"group":"hexagon_tri","fractal_assignment":["../images/cyn_red.png","../images/org_blu.png","../images/gry_blk.png","../images/pnk_blu.png","../images/blu_wht.png","../images/ylw_slt.png"],"mutagen_generator_assignment":[1,0],"goal":1,"start":5,"action_noise":0,"location_history":"[5,4,0,5,0,5,4,2,1]","action_history":"[0,0,0,1,0,0,1,0]","mutagen_history":"[1,1,1,0,1,1,0,1]","location_rts":"[696,360,611,311,533,486,265,445]","trial_type":"fractal-mutation","trial_index":68,"time_elapsed":1271824,"internal_node_id":"0.0-5.0-14.0"},{"group":"hexagon_tri","fractal_assignment":["../images/cyn_red.png","../images/org_blu.png","../images/gry_blk.png","../images/pnk_blu.png","../images/blu_wht.png","../images/ylw_slt.png"],"mutagen_generator_assignment":[1,0],"goal":5,"start":1,"action_noise":0,"location_history":"[1,3,2,3,2,3,4,0,5]","action_history":"[0,0,1,0,1,1,0,0]","mutagen_history":"[1,1,0,1,0,0,1,1]","location_rts":"[798,522,422,392,1293,780,575,338]","trial_type":"fractal-mutation","trial_index":69,"time_elapsed":1289144,"internal_node_id":"0.0-5.0-15.0"},{"group":"hexagon_tri","fractal_assignment":["../images/cyn_red.png","../images/org_blu.png","../images/gry_blk.png","../images/pnk_blu.png","../images/blu_wht.png","../images/ylw_slt.png"],"mutagen_generator_assignment":[1,0],"goal":3,"start":5,"action_noise":0,"location_history":"[5,4,0,1,3]","action_history":"[0,0,1,0]","mutagen_history":"[1,1,0,1]","location_rts":"[744,354,591,452]","trial_type":"fractal-mutation","trial_index":70,"time_elapsed":1299381,"internal_node_id":"0.0-5.0-16.0"},{"group":"hexagon_tri","fractal_assignment":["../images/cyn_red.png","../images/org_blu.png","../images/gry_blk.png","../images/pnk_blu.png","../images/blu_wht.png","../images/ylw_slt.png"],"mutagen_generator_assignment":[1,0],"goal":2,"start":3,"action_noise":0,"location_history":"[3,2]","action_history":"[0]","mutagen_history":"[1]","location_rts":"[899]","trial_type":"fractal-mutation","trial_index":71,"time_elapsed":1305326,"internal_node_id":"0.0-5.0-17.0"},{"group":"hexagon_tri","fractal_assignment":["../images/cyn_red.png","../images/org_blu.png","../images/gry_blk.png","../images/pnk_blu.png","../images/blu_wht.png","../images/ylw_slt.png"],"mutagen_generator_assignment":[1,0],"goal":1,"start":2,"action_noise":0,"location_history":"[2,1]","action_history":"[0]","mutagen_history":"[1]","location_rts":"[876]","trial_type":"fractal-mutation","trial_index":72,"time_elapsed":1311265,"internal_node_id":"0.0-5.0-18.0"},{"group":"hexagon_tri","fractal_assignment":["../images/cyn_red.png","../images/org_blu.png","../images/gry_blk.png","../images/pnk_blu.png","../images/blu_wht.png","../images/ylw_slt.png"],"mutagen_generator_assignment":[1,0],"goal":4,"start":1,"action_noise":0,"location_history":"[1,3,2,1,5,4]","action_history":"[0,0,0,1,0]","mutagen_history":"[1,1,1,0,1]","location_rts":"[698,356,493,345,487]","trial_type":"fractal-mutation","trial_index":73,"time_elapsed":1322755,"internal_node_id":"0.0-5.0-19.0"},{"group":"hexagon_tri","fractal_assignment":["../images/cyn_red.png","../images/org_blu.png","../images/gry_blk.png","../images/pnk_blu.png","../images/blu_wht.png","../images/ylw_slt.png"],"mutagen_generator_assignment":[1,0],"goal":0,"start":4,"action_noise":0,"location_history":"[4,0]","action_history":"[0]","mutagen_history":"[1]","location_rts":"[813]","trial_type":"fractal-mutation","trial_index":74,"time_elapsed":1328595,"internal_node_id":"0.0-5.0-20.0"},{"group":"hexagon_tri","fractal_assignment":["../images/cyn_red.png","../images/org_blu.png","../images/gry_blk.png","../images/pnk_blu.png","../images/blu_wht.png","../images/ylw_slt.png"],"mutagen_generator_assignment":[1,0],"goal":3,"start":0,"action_noise":0,"location_history":"[0,5,4,2,1,5,4,0,1,3]","action_history":"[0,0,1,0,1,0,0,1,0]","mutagen_history":"[1,1,0,1,0,1,1,0,1]","location_rts":"[626,366,778,400,643,566,360,372,503]","trial_type":"fractal-mutation","trial_index":75,"time_elapsed":1346394,"internal_node_id":"0.0-5.0-21.0"},{"group":"hexagon_tri","fractal_assignment":["../images/cyn_red.png","../images/org_blu.png","../images/gry_blk.png","../images/pnk_blu.png","../images/blu_wht.png","../images/ylw_slt.png"],"mutagen_generator_assignment":[1,0],"goal":1,"start":3,"action_noise":0,"location_history":"[3,2,1]","action_history":"[0,0]","mutagen_history":"[1,1]","location_rts":"[1385,4963]","trial_type":"fractal-mutation","trial_index":76,"time_elapsed":1358781,"internal_node_id":"0.0-5.0-22.0"},{"group":"hexagon_tri","fractal_assignment":["../images/cyn_red.png","../images/org_blu.png","../images/gry_blk.png","../images/pnk_blu.png","../images/blu_wht.png","../images/ylw_slt.png"],"mutagen_generator_assignment":[1,0],"goal":0,"start":1,"action_noise":0,"location_history":"[1,5,4,0]","action_history":"[1,0,0]","mutagen_history":"[0,1,1]","location_rts":"[1661,452,319]","trial_type":"fractal-mutation","trial_index":77,"time_elapsed":1368303,"internal_node_id":"0.0-5.0-23.0"},{"group":"hexagon_tri","fractal_assignment":["../images/cyn_red.png","../images/org_blu.png","../images/gry_blk.png","../images/pnk_blu.png","../images/blu_wht.png","../images/ylw_slt.png"],"mutagen_generator_assignment":[1,0],"goal":2,"start":0,"action_noise":0,"location_history":"[0,5,4,0,1,3,2]","action_history":"[0,0,0,1,0,0]","mutagen_history":"[1,1,1,0,1,1]","location_rts":"[703,326,478,289,710,250]","trial_type":"fractal-mutation","trial_index":78,"time_elapsed":1381196,"internal_node_id":"0.0-5.0-24.0"},{"group":"hexagon_tri","fractal_assignment":["../images/cyn_red.png","../images/org_blu.png","../images/gry_blk.png","../images/pnk_blu.png","../images/blu_wht.png","../images/ylw_slt.png"],"mutagen_generator_assignment":[1,0],"goal":4,"start":2,"action_noise":0,"location_history":"[2,1,3,4]","action_history":"[0,0,1]","mutagen_history":"[1,1,0]","location_rts":"[518,389,286]","trial_type":"fractal-mutation","trial_index":79,"time_elapsed":1389461,"internal_node_id":"0.0-5.0-25.0"},{"group":"hexagon_tri","fractal_assignment":["../images/cyn_red.png","../images/org_blu.png","../images/gry_blk.png","../images/pnk_blu.png","../images/blu_wht.png","../images/ylw_slt.png"],"mutagen_generator_assignment":[1,0],"goal":5,"start":4,"action_noise":0,"location_history":"[4,0,5]","action_history":"[0,0]","mutagen_history":"[1,1]","location_rts":"[579,663]","trial_type":"fractal-mutation","trial_index":80,"time_elapsed":1396754,"internal_node_id":"0.0-5.0-26.0"},{"group":"hexagon_tri","fractal_assignment":["../images/cyn_red.png","../images/org_blu.png","../images/gry_blk.png","../images/pnk_blu.png","../images/blu_wht.png","../images/ylw_slt.png"],"mutagen_generator_assignment":[1,0],"goal":2,"start":5,"action_noise":0,"location_history":"[5,4,0,1,3,2]","action_history":"[0,0,1,0,0]","mutagen_history":"[1,1,0,1,1]","location_rts":"[833,385,572,493,256]","trial_type":"fractal-mutation","trial_index":81,"time_elapsed":1408384,"internal_node_id":"0.0-5.0-27.0"},{"group":"hexagon_tri","fractal_assignment":["../images/cyn_red.png","../images/org_blu.png","../images/gry_blk.png","../images/pnk_blu.png","../images/blu_wht.png","../images/ylw_slt.png"],"mutagen_generator_assignment":[1,0],"goal":3,"start":2,"action_noise":0,"location_history":"[2,1,3]","action_history":"[0,0]","mutagen_history":"[1,1]","location_rts":"[2970,655]","trial_type":"fractal-mutation","trial_index":82,"time_elapsed":1418081,"internal_node_id":"0.0-5.0-28.0"},{"group":"hexagon_tri","fractal_assignment":["../images/cyn_red.png","../images/org_blu.png","../images/gry_blk.png","../images/pnk_blu.png","../images/blu_wht.png","../images/ylw_slt.png"],"mutagen_generator_assignment":[1,0],"goal":1,"start":3,"action_noise":0,"location_history":"[3,2,3,2,1]","action_history":"[0,1,0,0]","mutagen_history":"[1,0,1,1]","location_rts":"[1476,788,470,378]","trial_type":"fractal-mutation","trial_index":83,"time_elapsed":1429300,"internal_node_id":"0.0-5.0-29.0"},{"group":"hexagon_tri","fractal_assignment":["../images/cyn_red.png","../images/org_blu.png","../images/gry_blk.png","../images/pnk_blu.png","../images/blu_wht.png","../images/ylw_slt.png"],"mutagen_generator_assignment":[1,0],"goal":4,"start":1,"action_noise":0,"location_history":"[1,3,2,3,2,1,5,4]","action_history":"[0,0,1,0,0,1,0]","mutagen_history":"[1,1,0,1,1,0,1]","location_rts":"[1075,964,983,428,818,384,413]","trial_type":"fractal-mutation","trial_index":84,"time_elapsed":1445505,"internal_node_id":"0.0-5.0-30.0"},{"group":"hexagon_tri","fractal_assignment":["../images/cyn_red.png","../images/org_blu.png","../images/gry_blk.png","../images/pnk_blu.png","../images/blu_wht.png","../images/ylw_slt.png"],"mutagen_generator_assignment":[1,0],"goal":5,"start":4,"action_noise":0,"location_history":"[4,0,5]","action_history":"[0,0]","mutagen_history":"[1,1]","location_rts":"[657,499]","trial_type":"fractal-mutation","trial_index":85,"time_elapsed":1452716,"internal_node_id":"0.0-5.0-31.0"},{"group":"hexagon_tri","fractal_assignment":["../images/cyn_red.png","../images/org_blu.png","../images/gry_blk.png","../images/pnk_blu.png","../images/blu_wht.png","../images/ylw_slt.png"],"mutagen_generator_assignment":[1,0],"goal":0,"start":5,"action_noise":0,"location_history":"[5,4,0]","action_history":"[0,0]","mutagen_history":"[1,1]","location_rts":"[829,351]","trial_type":"fractal-mutation","trial_index":86,"time_elapsed":1459957,"internal_node_id":"0.0-5.0-32.0"},{"group":"hexagon_tri","fractal_assignment":["../images/cyn_red.png","../images/org_blu.png","../images/gry_blk.png","../images/pnk_blu.png","../images/blu_wht.png","../images/ylw_slt.png"],"mutagen_generator_assignment":[1,0],"goal":2,"start":0,"action_noise":0,"location_history":"[0,5,4,0,1,3,2]","action_history":"[0,0,0,1,0,0]","mutagen_history":"[1,1,1,0,1,1]","location_rts":"[908,669,408,558,403,384]","trial_type":"fractal-mutation","trial_index":87,"time_elapsed":1473427,"internal_node_id":"0.0-5.0-33.0"},{"group":"hexagon_tri","fractal_assignment":["../images/cyn_red.png","../images/org_blu.png","../images/gry_blk.png","../images/pnk_blu.png","../images/blu_wht.png","../images/ylw_slt.png"],"mutagen_generator_assignment":[1,0],"goal":0,"start":2,"action_noise":0,"location_history":"[2,1,5,4,0]","action_history":"[0,1,0,0]","mutagen_history":"[1,0,1,1]","location_rts":"[943,895,556,296]","trial_type":"fractal-mutation","trial_index":88,"time_elapsed":1484210,"internal_node_id":"0.0-5.0-34.0"},{"group":"hexagon_tri","fractal_assignment":["../images/cyn_red.png","../images/org_blu.png","../images/gry_blk.png","../images/pnk_blu.png","../images/blu_wht.png","../images/ylw_slt.png"],"mutagen_generator_assignment":[1,0],"goal":5,"start":0,"action_noise":0,"location_history":"[0,5]","action_history":"[0]","mutagen_history":"[1]","location_rts":"[841]","trial_type":"fractal-mutation","trial_index":89,"time_elapsed":1490101,"internal_node_id":"0.0-5.0-35.0"},{"group":"hexagon_tri","fractal_assignment":["../images/cyn_red.png","../images/org_blu.png","../images/gry_blk.png","../images/pnk_blu.png","../images/blu_wht.png","../images/ylw_slt.png"],"mutagen_generator_assignment":[1,0],"goal":1,"start":5,"action_noise":0,"location_history":"[5,0,5,4,0,1]","action_history":"[1,0,0,0,1]","mutagen_history":"[0,1,1,1,0]","location_rts":"[2214,2981,1008,760,633]","trial_type":"fractal-mutation","trial_index":90,"time_elapsed":1506762,"internal_node_id":"0.0-5.0-36.0"},{"group":"hexagon_tri","fractal_assignment":["../images/cyn_red.png","../images/org_blu.png","../images/gry_blk.png","../images/pnk_blu.png","../images/blu_wht.png","../images/ylw_slt.png"],"mutagen_generator_assignment":[1,0],"goal":4,"start":1,"action_noise":0,"location_history":"[1,3,4]","action_history":"[0,1]","mutagen_history":"[1,0]","location_rts":"[5672,2014]","trial_type":"fractal-mutation","trial_index":91,"time_elapsed":1520509,"internal_node_id":"0.0-5.0-37.0"},{"group":"hexagon_tri","fractal_assignment":["../images/cyn_red.png","../images/org_blu.png","../images/gry_blk.png","../images/pnk_blu.png","../images/blu_wht.png","../images/ylw_slt.png"],"mutagen_generator_assignment":[1,0],"goal":3,"start":4,"action_noise":0,"location_history":"[4,0,5,0,5,4,2,1,3]","action_history":"[0,0,1,0,0,1,0,0]","mutagen_history":"[1,1,0,1,1,0,1,1]","location_rts":"[1714,747,565,515,228,873,537,542]","trial_type":"fractal-mutation","trial_index":92,"time_elapsed":1538384,"internal_node_id":"0.0-5.0-38.0"},{"group":"hexagon_tri","fractal_assignment":["../images/cyn_red.png","../images/org_blu.png","../images/gry_blk.png","../images/pnk_blu.png","../images/blu_wht.png","../images/ylw_slt.png"],"mutagen_generator_assignment":[1,0],"goal":5,"start":3,"action_noise":0,"location_history":"[3,2,3,4,0,5]","action_history":"[0,1,1,0,0]","mutagen_history":"[1,0,0,1,1]","location_rts":"[826,837,1199,661,1004]","trial_type":"fractal-mutation","trial_index":93,"time_elapsed":1551994,"internal_node_id":"0.0-5.0-39.0"},{"group":"hexagon_tri","fractal_assignment":["../images/cyn_red.png","../images/org_blu.png","../images/gry_blk.png","../images/pnk_blu.png","../images/blu_wht.png","../images/ylw_slt.png"],"mutagen_generator_assignment":[1,0],"goal":1,"start":5,"action_noise":0,"location_history":"[5,4,2,1]","action_history":"[0,1,0]","mutagen_history":"[1,0,1]","location_rts":"[1028,787,486]","trial_type":"fractal-mutation","trial_index":94,"time_elapsed":1561386,"internal_node_id":"0.0-5.0-40.0"},{"group":"hexagon_tri","fractal_assignment":["../images/cyn_red.png","../images/org_blu.png","../images/gry_blk.png","../images/pnk_blu.png","../images/blu_wht.png","../images/ylw_slt.png"],"mutagen_generator_assignment":[1,0],"goal":2,"start":1,"action_noise":0,"location_history":"[1,3,2]","action_history":"[0,0]","mutagen_history":"[1,1]","location_rts":"[915,1229]","trial_type":"fractal-mutation","trial_index":95,"time_elapsed":1569589,"internal_node_id":"0.0-5.0-41.0"},{"group":"hexagon_tri","fractal_assignment":["../images/cyn_red.png","../images/org_blu.png","../images/gry_blk.png","../images/pnk_blu.png","../images/blu_wht.png","../images/ylw_slt.png"],"mutagen_generator_assignment":[1,0],"goal":4,"start":2,"action_noise":0,"location_history":"[2,1,3,4]","action_history":"[0,0,1]","mutagen_history":"[1,1,0]","location_rts":"[697,1201,592]","trial_type":"fractal-mutation","trial_index":96,"time_elapsed":1579177,"internal_node_id":"0.0-5.0-42.0"},{"group":"hexagon_tri","fractal_assignment":["../images/cyn_red.png","../images/org_blu.png","../images/gry_blk.png","../images/pnk_blu.png","../images/blu_wht.png","../images/ylw_slt.png"],"mutagen_generator_assignment":[1,0],"goal":0,"start":4,"action_noise":0,"location_history":"[4,0]","action_history":"[0]","mutagen_history":"[1]","location_rts":"[717]","trial_type":"fractal-mutation","trial_index":97,"time_elapsed":1584932,"internal_node_id":"0.0-5.0-43.0"},{"group":"hexagon_tri","fractal_assignment":["../images/cyn_red.png","../images/org_blu.png","../images/gry_blk.png","../images/pnk_blu.png","../images/blu_wht.png","../images/ylw_slt.png"],"mutagen_generator_assignment":[1,0],"goal":3,"start":0,"action_noise":0,"location_history":"[0,5,4,2,1,3]","action_history":"[0,0,1,0,0]","mutagen_history":"[1,1,0,1,1]","location_rts":"[948,789,605,578,628]","trial_type":"fractal-mutation","trial_index":98,"time_elapsed":1597598,"internal_node_id":"0.0-5.0-44.0"},{"group":"hexagon_tri","fractal_assignment":["../images/cyn_red.png","../images/org_blu.png","../images/gry_blk.png","../images/pnk_blu.png","../images/blu_wht.png","../images/ylw_slt.png"],"mutagen_generator_assignment":[1,0],"goal":0,"start":3,"action_noise":0,"location_history":"[3,4,0]","action_history":"[1,0]","mutagen_history":"[0,1]","location_rts":"[2640,508]","trial_type":"fractal-mutation","trial_index":99,"time_elapsed":1606801,"internal_node_id":"0.0-5.0-45.0"},{"group":"hexagon_tri","fractal_assignment":["../images/cyn_red.png","../images/org_blu.png","../images/gry_blk.png","../images/pnk_blu.png","../images/blu_wht.png","../images/ylw_slt.png"],"mutagen_generator_assignment":[1,0],"goal":4,"start":0,"action_noise":0,"location_history":"[0,5,4]","action_history":"[0,0]","mutagen_history":"[1,1]","location_rts":"[1168,813]","trial_type":"fractal-mutation","trial_index":100,"time_elapsed":1614854,"internal_node_id":"0.0-5.0-46.0"},{"group":"hexagon_tri","fractal_assignment":["../images/cyn_red.png","../images/org_blu.png","../images/gry_blk.png","../images/pnk_blu.png","../images/blu_wht.png","../images/ylw_slt.png"],"mutagen_generator_assignment":[1,0],"goal":5,"start":4,"action_noise":0,"location_history":"[4,0,5]","action_history":"[0,0]","mutagen_history":"[1,1]","location_rts":"[892,1007]","trial_type":"fractal-mutation","trial_index":101,"time_elapsed":1622786,"internal_node_id":"0.0-5.0-47.0"},{"group":"hexagon_tri","fractal_assignment":["../images/cyn_red.png","../images/org_blu.png","../images/gry_blk.png","../images/pnk_blu.png","../images/blu_wht.png","../images/ylw_slt.png"],"mutagen_generator_assignment":[1,0],"goal":2,"start":5,"action_noise":0,"location_history":"[5,4,2]","action_history":"[0,1]","mutagen_history":"[1,0]","location_rts":"[709,430]","trial_type":"fractal-mutation","trial_index":102,"time_elapsed":1629974,"internal_node_id":"0.0-5.0-48.0"},{"group":"hexagon_tri","fractal_assignment":["../images/cyn_red.png","../images/org_blu.png","../images/gry_blk.png","../images/pnk_blu.png","../images/blu_wht.png","../images/ylw_slt.png"],"mutagen_generator_assignment":[1,0],"goal":1,"start":2,"action_noise":0,"location_history":"[2,1]","action_history":"[0]","mutagen_history":"[1]","location_rts":"[694]","trial_type":"fractal-mutation","trial_index":103,"time_elapsed":1635706,"internal_node_id":"0.0-5.0-49.0"},{"view_history":"[{\"page_index\":0,\"viewing_time\":2605}]","rt":2605,"trial_type":"instructions","trial_index":104,"time_elapsed":1639310,"internal_node_id":"0.0-6.0"},{"rt":13922,"responses":"{\"Q0\":\"how much people figured out the lay of the house\"}","trial_type":"survey-text","trial_index":105,"time_elapsed":1654250,"internal_node_id":"0.0-7.0-0.0"},{"rt":8359,"responses":"{\"Q0\":\"how quickly people linked together certain mutations\"}","trial_type":"survey-text","trial_index":106,"time_elapsed":1663624,"internal_node_id":"0.0-7.0-1.0"},{"rt":11790,"responses":"{\"Q0\":\"<img src='../images/diagrams/hexagon_bi.png'>\"}","trial_type":"survey-multi-choice","trial_index":107,"time_elapsed":1676439,"internal_node_id":"0.0-7.0-2.0"},{"rt":28087,"assignments":["../images/cyn_red.png","../images/ylw_slt.png","../images/org_blu.png","../images/gry_blk.png","../images/pnk_blu.png","../images/blu_wht.png"],"trial_type":"drag-drop-on-image","trial_index":108,"time_elapsed":1705558,"internal_node_id":"0.0-7.0-3.0"},{"rt":4971,"responses":"{\"Q0\":\"4\"}","trial_type":"survey-likert","trial_index":109,"time_elapsed":1711548,"internal_node_id":"0.0-7.0-4.0"},{"rt":21664,"responses":"{\"Q0\":\"had to remember the same links, certain doors/mutations could only be linked by one of the doors/rays\"}","trial_type":"survey-text","trial_index":110,"time_elapsed":1734222,"internal_node_id":"0.0-7.0-5.0"},{"rt":4126,"responses":"{\"Q0\":\"Yes\"}","trial_type":"survey-multi-choice","trial_index":111,"time_elapsed":1739351,"internal_node_id":"0.0-7.0-6.0"},{"rt":2720,"responses":"{\"Q0\":\"During session 1\"}","trial_type":"survey-multi-choice","trial_index":112,"time_elapsed":1743100,"internal_node_id":"0.0-7.0-7.0"},{"rt":10309,"responses":"{\"Q0\":\"they seemed to predict each other\"}","trial_type":"survey-text","trial_index":113,"time_elapsed":1754409,"internal_node_id":"0.0-7.0-8.0"},{"rt":4128,"responses":"{\"Q0\":\"1\"}","trial_type":"survey-likert","trial_index":114,"time_elapsed":1759538,"internal_node_id":"0.0-7.0-9.0"},{"rt":5042,"responses":"{\"Q0\":\"Different structure\"}","trial_type":"survey-multi-choice","trial_index":115,"time_elapsed":1765601,"internal_node_id":"0.0-7.0-10.0"},{"rt":43262,"assignments":["../images/ylw_slt.png","../images/gry_blk.png","../images/org_blu.png","../images/pnk_blu.png","../images/blu_wht.png","../images/cyn_red.png"],"background_order":[4,1,5,2,3,0],"trial_type":"drag-drop-on-image","trial_index":116,"time_elapsed":1809870,"internal_node_id":"0.0-7.0-11.0"},{"rt":17441,"responses":"{\"Q0\":\"left (black) door = ray, right (white) door = acid\",\"Q1\":\"Slightly confident\"}","trial_type":"survey-multi-choice","trial_index":117,"time_elapsed":1828341,"internal_node_id":"0.0-7.0-12.0"},{"rt":29014,"responses":"{\"Q0\":\"25-35\",\"Q1\":\"Bachelor's degree\",\"Q2\":\"Female\",\"Q3\":\"White\"}","trial_type":"survey-multi-choice","trial_index":118,"time_elapsed":1858404,"internal_node_id":"0.0-8.0"},{"rt":4625,"responses":"{\"Q0\":\"no, thank you\"}","trial_type":"survey-text","trial_index":119,"time_elapsed":1864050,"internal_node_id":"0.0-9.0"}]