[{"view_history":"[{\"page_index\":0,\"viewing_time\":13318},{\"page_index\":1,\"viewing_time\":8982}]","rt":22300,"trial_type":"instructions","trial_index":0,"time_elapsed":22300,"internal_node_id":"0.0-0.0"},{"view_history":"[{\"page_index\":0,\"viewing_time\":1580},{\"page_index\":1,\"viewing_time\":7872}]","rt":9453,"trial_type":"instructions","trial_index":1,"time_elapsed":32755,"internal_node_id":"0.0-1.0"},{"group":"hexagon_tri","room_assignment":["purple","grey","yellow","green","blue","red"],"door_color_assignment":["white","black"],"door_generator_assignment":[0,1],"goal":2,"start":1,"action_noise":0,"location_history":"[1,3,4,0,1,3,2]","action_history":"[0,1,0,1,0,0]","door_history":"[0,1,0,1,0,0]","location_rts":"[2794,1507,399,967,828,89]","trial_type":"two-door-navigation","trial_index":2,"time_elapsed":49482,"internal_node_id":"0.0-2.0-0.0"},{"group":"hexagon_tri","room_assignment":["purple","grey","yellow","green","blue","red"],"door_color_assignment":["white","black"],"door_generator_assignment":[0,1],"goal":0,"start":2,"action_noise":0,"location_history":"[2,3,2,3,4,0]","action_history":"[1,0,1,1,0]","door_history":"[1,0,1,1,0]","location_rts":"[2355,192,2100,234,230]","trial_type":"two-door-navigation","trial_index":3,"time_elapsed":63699,"internal_node_id":"0.0-2.0-1.0"},{"group":"hexagon_tri","room_assignment":["purple","grey","yellow","green","blue","red"],"door_color_assignment":["white","black"],"door_generator_assignment":[0,1],"goal":5,"start":0,"action_noise":0,"location_history":"[0,5]","action_history":"[0]","door_history":"[0]","location_rts":"[6802]","trial_type":"two-door-navigation","trial_index":4,"time_elapsed":75525,"internal_node_id":"0.0-2.0-2.0"},{"group":"hexagon_tri","room_assignment":["purple","grey","yellow","green","blue","red"],"door_color_assignment":["white","black"],"door_generator_assignment":[0,1],"goal":1,"start":5,"action_noise":0,"location_history":"[5,0,1]","action_history":"[1,1]","door_history":"[1,1]","location_rts":"[1528,1120]","trial_type":"two-door-navigation","trial_index":5,"time_elapsed":84217,"internal_node_id":"0.0-2.0-3.0"},{"group":"hexagon_tri","room_assignment":["purple","grey","yellow","green","blue","red"],"door_color_assignment":["white","black"],"door_generator_assignment":[0,1],"goal":3,"start":1,"action_noise":0,"location_history":"[1,3]","action_history":"[0]","door_history":"[0]","location_rts":"[9749]","trial_type":"two-door-navigation","trial_index":6,"time_elapsed":98991,"internal_node_id":"0.0-2.0-4.0"},{"group":"hexagon_tri","room_assignment":["purple","grey","yellow","green","blue","red"],"door_color_assignment":["white","black"],"door_generator_assignment":[0,1],"goal":5,"start":3,"action_noise":0,"location_history":"[3,4,0,1,5]","action_history":"[1,0,1,1]","door_history":"[1,0,1,1]","location_rts":"[3303,2161,886,994]","trial_type":"two-door-navigation","trial_index":7,"time_elapsed":114418,"internal_node_id":"0.0-2.0-5.0"},{"group":"hexagon_tri","room_assignment":["purple","grey","yellow","green","blue","red"],"door_color_assignment":["white","black"],"door_generator_assignment":[0,1],"goal":4,"start":5,"action_noise":0,"location_history":"[5,4]","action_history":"[0]","door_history":"[0]","location_rts":"[55085]","trial_type":"two-door-navigation","trial_index":8,"time_elapsed":174526,"internal_node_id":"0.0-2.0-6.0"},{"group":"hexagon_tri","room_assignment":["purple","grey","yellow","green","blue","red"],"door_color_assignment":["white","black"],"door_generator_assignment":[0,1],"goal":0,"start":4,"action_noise":0,"location_history":"[4,0]","action_history":"[0]","door_history":"[0]","location_rts":"[5248]","trial_type":"two-door-navigation","trial_index":9,"time_elapsed":184793,"internal_node_id":"0.0-2.0-7.0"},{"group":"hexagon_tri","room_assignment":["purple","grey","yellow","green","blue","red"],"door_color_assignment":["white","black"],"door_generator_assignment":[0,1],"goal":2,"start":0,"action_noise":0,"location_history":"[0,1,3,2]","action_history":"[1,0,0]","door_history":"[1,0,0]","location_rts":"[1281,599,563]","trial_type":"two-door-navigation","trial_index":10,"time_elapsed":194301,"internal_node_id":"0.0-2.0-8.0"},{"group":"hexagon_tri","room_assignment":["purple","grey","yellow","green","blue","red"],"door_color_assignment":["white","black"],"door_generator_assignment":[0,1],"goal":4,"start":2,"action_noise":0,"location_history":"[2,3,4]","action_history":"[1,1]","door_history":"[1,1]","location_rts":"[32425,1452]","trial_type":"two-door-navigation","trial_index":11,"time_elapsed":234222,"internal_node_id":"0.0-2.0-9.0"},{"group":"hexagon_tri","room_assignment":["purple","grey","yellow","green","blue","red"],"door_color_assignment":["white","black"],"door_generator_assignment":[0,1],"goal":2,"start":4,"action_noise":0,"location_history":"[4,2]","action_history":"[1]","door_history":"[1]","location_rts":"[4999]","trial_type":"two-door-navigation","trial_index":12,"time_elapsed":244241,"internal_node_id":"0.0-2.0-10.0"},{"group":"hexagon_tri","room_assignment":["purple","grey","yellow","green","blue","red"],"door_color_assignment":["white","black"],"door_generator_assignment":[0,1],"goal":3,"start":2,"action_noise":0,"location_history":"[2,1,5,0,1,3]","action_history":"[0,1,1,1,0]","door_history":"[0,1,1,1,0]","location_rts":"[4143,2190,3955,885,762]","trial_type":"two-door-navigation","trial_index":13,"time_elapsed":265275,"internal_node_id":"0.0-2.0-11.0"},{"group":"hexagon_tri","room_assignment":["purple","grey","yellow","green","blue","red"],"door_color_assignment":["white","black"],"door_generator_assignment":[0,1],"goal":0,"start":3,"action_noise":0,"location_history":"[3,4,0]","action_history":"[1,0]","door_history":"[1,0]","location_rts":"[48084,908]","trial_type":"two-door-navigation","trial_index":14,"time_elapsed":320308,"internal_node_id":"0.0-2.0-12.0"},{"group":"hexagon_tri","room_assignment":["purple","grey","yellow","green","blue","red"],"door_color_assignment":["white","black"],"door_generator_assignment":[0,1],"goal":5,"start":0,"action_noise":0,"location_history":"[0,1,5]","action_history":"[1,1]","door_history":"[1,1]","location_rts":"[1694,447]","trial_type":"two-door-navigation","trial_index":15,"time_elapsed":328489,"internal_node_id":"0.0-2.0-13.0"},{"group":"hexagon_tri","room_assignment":["purple","grey","yellow","green","blue","red"],"door_color_assignment":["white","black"],"door_generator_assignment":[0,1],"goal":1,"start":5,"action_noise":0,"location_history":"[5,0,1]","action_history":"[1,1]","door_history":"[1,1]","location_rts":"[2169,683]","trial_type":"two-door-navigation","trial_index":16,"time_elapsed":337389,"internal_node_id":"0.0-2.0-14.0"},{"group":"hexagon_tri","room_assignment":["purple","grey","yellow","green","blue","red"],"door_color_assignment":["white","black"],"door_generator_assignment":[0,1],"goal":5,"start":1,"action_noise":0,"location_history":"[1,5]","action_history":"[1]","door_history":"[1]","location_rts":"[1870]","trial_type":"two-door-navigation","trial_index":17,"time_elapsed":344280,"internal_node_id":"0.0-2.0-15.0"},{"group":"hexagon_tri","room_assignment":["purple","grey","yellow","green","blue","red"],"door_color_assignment":["white","black"],"door_generator_assignment":[0,1],"goal":3,"start":5,"action_noise":0,"location_history":"[5,4,0,1,3]","action_history":"[0,0,1,0]","door_history":"[0,0,1,0]","location_rts":"[10859,682,986,1111]","trial_type":"two-door-navigation","trial_index":18,"time_elapsed":366007,"internal_node_id":"0.0-2.0-16.0"},{"group":"hexagon_tri","room_assignment":["purple","grey","yellow","green","blue","red"],"door_color_assignment":["white","black"],"door_generator_assignment":[0,1],"goal":2,"start":3,"action_noise":0,"location_history":"[3,2]","action_history":"[0]","door_history":"[0]","location_rts":"[3483]","trial_type":"two-door-navigation","trial_index":19,"time_elapsed":374520,"internal_node_id":"0.0-2.0-17.0"},{"group":"hexagon_tri","room_assignment":["purple","grey","yellow","green","blue","red"],"door_color_assignment":["white","black"],"door_generator_assignment":[0,1],"goal":1,"start":2,"action_noise":0,"location_history":"[2,3,2,1]","action_history":"[1,0,0]","door_history":"[1,0,0]","location_rts":"[2485,888,640]","trial_type":"two-door-navigation","trial_index":20,"time_elapsed":385597,"internal_node_id":"0.0-2.0-18.0"},{"group":"hexagon_tri","room_assignment":["purple","grey","yellow","green","blue","red"],"door_color_assignment":["white","black"],"door_generator_assignment":[0,1],"goal":4,"start":1,"action_noise":0,"location_history":"[1,3,4]","action_history":"[0,1]","door_history":"[0,1]","location_rts":"[2196,1334]","trial_type":"two-door-navigation","trial_index":21,"time_elapsed":395170,"internal_node_id":"0.0-2.0-19.0"},{"group":"hexagon_tri","room_assignment":["purple","grey","yellow","green","blue","red"],"door_color_assignment":["white","black"],"door_generator_assignment":[0,1],"goal":0,"start":4,"action_noise":0,"location_history":"[4,0]","action_history":"[0]","door_history":"[0]","location_rts":"[981]","trial_type":"two-door-navigation","trial_index":22,"time_elapsed":401175,"internal_node_id":"0.0-2.0-20.0"},{"group":"hexagon_tri","room_assignment":["purple","grey","yellow","green","blue","red"],"door_color_assignment":["white","black"],"door_generator_assignment":[0,1],"goal":3,"start":0,"action_noise":0,"location_history":"[0,1,3]","action_history":"[1,0]","door_history":"[1,0]","location_rts":"[1577,1352]","trial_type":"two-door-navigation","trial_index":23,"time_elapsed":410151,"internal_node_id":"0.0-2.0-21.0"},{"group":"hexagon_tri","room_assignment":["purple","grey","yellow","green","blue","red"],"door_color_assignment":["white","black"],"door_generator_assignment":[0,1],"goal":1,"start":3,"action_noise":0,"location_history":"[3,2,3,2,1]","action_history":"[0,1,0,0]","door_history":"[0,1,0,0]","location_rts":"[325,1454,1479,686]","trial_type":"two-door-navigation","trial_index":24,"time_elapsed":422182,"internal_node_id":"0.0-2.0-22.0"},{"group":"hexagon_tri","room_assignment":["purple","grey","yellow","green","blue","red"],"door_color_assignment":["white","black"],"door_generator_assignment":[0,1],"goal":0,"start":1,"action_noise":0,"location_history":"[1,5,4,0]","action_history":"[1,0,0]","door_history":"[1,0,0]","location_rts":"[2868,399,485]","trial_type":"two-door-navigation","trial_index":25,"time_elapsed":433003,"internal_node_id":"0.0-2.0-23.0"},{"group":"hexagon_tri","room_assignment":["purple","grey","yellow","green","blue","red"],"door_color_assignment":["white","black"],"door_generator_assignment":[0,1],"goal":2,"start":0,"action_noise":0,"location_history":"[0,5,0,5,4,2]","action_history":"[0,1,0,0,1]","door_history":"[0,1,0,0,1]","location_rts":"[1904,787,2820,695,1736]","trial_type":"two-door-navigation","trial_index":26,"time_elapsed":450047,"internal_node_id":"0.0-2.0-24.0"},{"group":"hexagon_tri","room_assignment":["purple","grey","yellow","green","blue","red"],"door_color_assignment":["white","black"],"door_generator_assignment":[0,1],"goal":4,"start":2,"action_noise":0,"location_history":"[2,3,4]","action_history":"[1,1]","door_history":"[1,1]","location_rts":"[2237,3465]","trial_type":"two-door-navigation","trial_index":27,"time_elapsed":461810,"internal_node_id":"0.0-2.0-25.0"},{"group":"hexagon_tri","room_assignment":["purple","grey","yellow","green","blue","red"],"door_color_assignment":["white","black"],"door_generator_assignment":[0,1],"goal":5,"start":4,"action_noise":0,"location_history":"[4,0,1,5]","action_history":"[0,1,1]","door_history":"[0,1,1]","location_rts":"[19459,907,444]","trial_type":"two-door-navigation","trial_index":28,"time_elapsed":489677,"internal_node_id":"0.0-2.0-26.0"},{"group":"hexagon_tri","room_assignment":["purple","grey","yellow","green","blue","red"],"door_color_assignment":["white","black"],"door_generator_assignment":[0,1],"goal":2,"start":5,"action_noise":0,"location_history":"[5,4,2]","action_history":"[0,1]","door_history":"[0,1]","location_rts":"[3312,1716]","trial_type":"two-door-navigation","trial_index":29,"time_elapsed":500751,"internal_node_id":"0.0-2.0-27.0"},{"group":"hexagon_tri","room_assignment":["purple","grey","yellow","green","blue","red"],"door_color_assignment":["white","black"],"door_generator_assignment":[0,1],"goal":3,"start":2,"action_noise":0,"location_history":"[2,1,3]","action_history":"[0,0]","door_history":"[0,0]","location_rts":"[3289,1186]","trial_type":"two-door-navigation","trial_index":30,"time_elapsed":511267,"internal_node_id":"0.0-2.0-28.0"},{"group":"hexagon_tri","room_assignment":["purple","grey","yellow","green","blue","red"],"door_color_assignment":["white","black"],"door_generator_assignment":[0,1],"goal":1,"start":3,"action_noise":0,"location_history":"[3,2,3,4,2,1]","action_history":"[0,1,1,1,0]","door_history":"[0,1,1,1,0]","location_rts":"[3685,1711,1304,1038,1174]","trial_type":"two-door-navigation","trial_index":31,"time_elapsed":529283,"internal_node_id":"0.0-2.0-29.0"},{"group":"hexagon_tri","room_assignment":["purple","grey","yellow","green","blue","red"],"door_color_assignment":["white","black"],"door_generator_assignment":[0,1],"goal":4,"start":1,"action_noise":0,"location_history":"[1,5,4]","action_history":"[1,0]","door_history":"[1,0]","location_rts":"[3177,1865]","trial_type":"two-door-navigation","trial_index":32,"time_elapsed":540370,"internal_node_id":"0.0-2.0-30.0"},{"group":"hexagon_tri","room_assignment":["purple","grey","yellow","green","blue","red"],"door_color_assignment":["white","black"],"door_generator_assignment":[0,1],"goal":5,"start":4,"action_noise":0,"location_history":"[4,0,1,5]","action_history":"[0,1,1]","door_history":"[0,1,1]","location_rts":"[1962,1257,802]","trial_type":"two-door-navigation","trial_index":33,"time_elapsed":551457,"internal_node_id":"0.0-2.0-31.0"},{"group":"hexagon_tri","room_assignment":["purple","grey","yellow","green","blue","red"],"door_color_assignment":["white","black"],"door_generator_assignment":[0,1],"goal":0,"start":5,"action_noise":0,"location_history":"[5,0]","action_history":"[1]","door_history":"[1]","location_rts":"[2256]","trial_type":"two-door-navigation","trial_index":34,"time_elapsed":558736,"internal_node_id":"0.0-2.0-32.0"},{"group":"hexagon_tri","room_assignment":["purple","grey","yellow","green","blue","red"],"door_color_assignment":["white","black"],"door_generator_assignment":[0,1],"goal":2,"start":0,"action_noise":0,"location_history":"[0,1,3,2]","action_history":"[1,0,0]","door_history":"[1,0,0]","location_rts":"[3666,2663,2477]","trial_type":"two-door-navigation","trial_index":35,"time_elapsed":574607,"internal_node_id":"0.0-2.0-33.0"},{"group":"hexagon_tri","room_assignment":["purple","grey","yellow","green","blue","red"],"door_color_assignment":["white","black"],"door_generator_assignment":[0,1],"goal":0,"start":2,"action_noise":0,"location_history":"[2,1,3,4,0]","action_history":"[0,0,1,0]","door_history":"[0,0,1,0]","location_rts":"[8169,2471,723,727]","trial_type":"two-door-navigation","trial_index":36,"time_elapsed":594783,"internal_node_id":"0.0-2.0-34.0"},{"group":"hexagon_tri","room_assignment":["purple","grey","yellow","green","blue","red"],"door_color_assignment":["white","black"],"door_generator_assignment":[0,1],"goal":5,"start":0,"action_noise":0,"location_history":"[0,1,5]","action_history":"[1,1]","door_history":"[1,1]","location_rts":"[6953,269]","trial_type":"two-door-navigation","trial_index":37,"time_elapsed":608044,"internal_node_id":"0.0-2.0-35.0"},{"group":"hexagon_tri","room_assignment":["purple","grey","yellow","green","blue","red"],"door_color_assignment":["white","black"],"door_generator_assignment":[0,1],"goal":1,"start":5,"action_noise":0,"location_history":"[5,4,2,1]","action_history":"[0,1,0]","door_history":"[0,1,0]","location_rts":"[7666,1106,3568]","trial_type":"two-door-navigation","trial_index":38,"time_elapsed":627456,"internal_node_id":"0.0-2.0-36.0"},{"group":"hexagon_tri","room_assignment":["purple","grey","yellow","green","blue","red"],"door_color_assignment":["white","black"],"door_generator_assignment":[0,1],"goal":4,"start":1,"action_noise":0,"location_history":"[1,5,0,1,5,4]","action_history":"[1,1,1,1,0]","door_history":"[1,1,1,1,0]","location_rts":"[8742,720,994,418,235]","trial_type":"two-door-navigation","trial_index":39,"time_elapsed":647670,"internal_node_id":"0.0-2.0-37.0"},{"group":"hexagon_tri","room_assignment":["purple","grey","yellow","green","blue","red"],"door_color_assignment":["white","black"],"door_generator_assignment":[0,1],"goal":3,"start":4,"action_noise":0,"location_history":"[4,2,1,3]","action_history":"[1,0,0]","door_history":"[1,0,0]","location_rts":"[7313,4054,1346]","trial_type":"two-door-navigation","trial_index":40,"time_elapsed":667447,"internal_node_id":"0.0-2.0-38.0"},{"group":"hexagon_tri","room_assignment":["purple","grey","yellow","green","blue","red"],"door_color_assignment":["white","black"],"door_generator_assignment":[0,1],"goal":5,"start":3,"action_noise":0,"location_history":"[3,2,3,4,2,1,3,2,1,5]","action_history":"[0,1,1,1,0,0,0,0,1]","door_history":"[0,1,1,1,0,0,0,0,1]","location_rts":"[1623,1002,255,1490,946,610,758,1132,211]","trial_type":"two-door-navigation","trial_index":41,"time_elapsed":688661,"internal_node_id":"0.0-2.0-39.0"},{"group":"hexagon_tri","room_assignment":["purple","grey","yellow","green","blue","red"],"door_color_assignment":["white","black"],"door_generator_assignment":[0,1],"goal":1,"start":5,"action_noise":0,"location_history":"[5,0,1]","action_history":"[1,1]","door_history":"[1,1]","location_rts":"[19274,2542]","trial_type":"two-door-navigation","trial_index":42,"time_elapsed":716523,"internal_node_id":"0.0-2.0-40.0"},{"group":"hexagon_tri","room_assignment":["purple","grey","yellow","green","blue","red"],"door_color_assignment":["white","black"],"door_generator_assignment":[0,1],"goal":2,"start":1,"action_noise":0,"location_history":"[1,3,2]","action_history":"[0,0]","door_history":"[0,0]","location_rts":"[2362,4096]","trial_type":"two-door-navigation","trial_index":43,"time_elapsed":729025,"internal_node_id":"0.0-2.0-41.0"},{"group":"hexagon_tri","room_assignment":["purple","grey","yellow","green","blue","red"],"door_color_assignment":["white","black"],"door_generator_assignment":[0,1],"goal":4,"start":2,"action_noise":0,"location_history":"[2,3,4]","action_history":"[1,1]","door_history":"[1,1]","location_rts":"[2176,1055]","trial_type":"two-door-navigation","trial_index":44,"time_elapsed":738298,"internal_node_id":"0.0-2.0-42.0"},{"group":"hexagon_tri","room_assignment":["purple","grey","yellow","green","blue","red"],"door_color_assignment":["white","black"],"door_generator_assignment":[0,1],"goal":0,"start":4,"action_noise":0,"location_history":"[4,0]","action_history":"[0]","door_history":"[0]","location_rts":"[1212]","trial_type":"two-door-navigation","trial_index":45,"time_elapsed":744535,"internal_node_id":"0.0-2.0-43.0"},{"group":"hexagon_tri","room_assignment":["purple","grey","yellow","green","blue","red"],"door_color_assignment":["white","black"],"door_generator_assignment":[0,1],"goal":3,"start":0,"action_noise":0,"location_history":"[0,1,3]","action_history":"[1,0]","door_history":"[1,0]","location_rts":"[63272,2130]","trial_type":"two-door-navigation","trial_index":46,"time_elapsed":815982,"internal_node_id":"0.0-2.0-44.0"},{"group":"hexagon_tri","room_assignment":["purple","grey","yellow","green","blue","red"],"door_color_assignment":["white","black"],"door_generator_assignment":[0,1],"goal":0,"start":3,"action_noise":0,"location_history":"[3,4,0]","action_history":"[1,0]","door_history":"[1,0]","location_rts":"[2838,952]","trial_type":"two-door-navigation","trial_index":47,"time_elapsed":825815,"internal_node_id":"0.0-2.0-45.0"},{"group":"hexagon_tri","room_assignment":["purple","grey","yellow","green","blue","red"],"door_color_assignment":["white","black"],"door_generator_assignment":[0,1],"goal":4,"start":0,"action_noise":0,"location_history":"[0,1,5,4]","action_history":"[1,1,0]","door_history":"[1,1,0]","location_rts":"[3592,1236,386]","trial_type":"two-door-navigation","trial_index":48,"time_elapsed":838095,"internal_node_id":"0.0-2.0-46.0"},{"group":"hexagon_tri","room_assignment":["purple","grey","yellow","green","blue","red"],"door_color_assignment":["white","black"],"door_generator_assignment":[0,1],"goal":5,"start":4,"action_noise":0,"location_history":"[4,0,1,5]","action_history":"[0,1,1]","door_history":"[0,1,1]","location_rts":"[1456,1554,808]","trial_type":"two-door-navigation","trial_index":49,"time_elapsed":848978,"internal_node_id":"0.0-2.0-47.0"},{"group":"hexagon_tri","room_assignment":["purple","grey","yellow","green","blue","red"],"door_color_assignment":["white","black"],"door_generator_assignment":[0,1],"goal":2,"start":5,"action_noise":0,"location_history":"[5,0,1,3,2]","action_history":"[1,1,0,0]","door_history":"[1,1,0,0]","location_rts":"[1465,1094,409,3932]","trial_type":"two-door-navigation","trial_index":50,"time_elapsed":863965,"internal_node_id":"0.0-2.0-48.0"},{"group":"hexagon_tri","room_assignment":["purple","grey","yellow","green","blue","red"],"door_color_assignment":["white","black"],"door_generator_assignment":[0,1],"goal":1,"start":2,"action_noise":0,"location_history":"[2,3,2,1]","action_history":"[1,0,0]","door_history":"[1,0,0]","location_rts":"[6317,1974,658]","trial_type":"two-door-navigation","trial_index":51,"time_elapsed":879978,"internal_node_id":"0.0-2.0-49.0"},{"view_history":"[{\"page_index\":0,\"viewing_time\":2475}]","rt":2475,"trial_type":"instructions","trial_index":52,"time_elapsed":883453,"internal_node_id":"0.0-3.0"},{"view_history":"[{\"page_index\":0,\"viewing_time\":1686},{\"page_index\":1,\"viewing_time\":1311}]","rt":2998,"trial_type":"instructions","trial_index":53,"time_elapsed":887451,"internal_node_id":"0.0-4.0"},{"group":"hexagon_bi","fractal_assignment":["../images/gry_blk.png","../images/pnk_blu.png","../images/org_blu.png","../images/cyn_red.png","../images/blu_wht.png","../images/ylw_slt.png"],"mutagen_generator_assignment":[0,1],"goal":2,"start":1,"action_noise":0,"location_history":"[1,2]","action_history":"[0]","mutagen_history":"[0]","location_rts":"[3936]","trial_type":"fractal-mutation","trial_index":54,"time_elapsed":896438,"internal_node_id":"0.0-5.0-0.0"},{"group":"hexagon_bi","fractal_assignment":["../images/gry_blk.png","../images/pnk_blu.png","../images/org_blu.png","../images/cyn_red.png","../images/blu_wht.png","../images/ylw_slt.png"],"mutagen_generator_assignment":[0,1],"goal":0,"start":2,"action_noise":0,"location_history":"[2,3,4,5,0]","action_history":"[1,0,1,0]","mutagen_history":"[1,0,1,0]","location_rts":"[1628,1242,750,1186]","trial_type":"fractal-mutation","trial_index":55,"time_elapsed":909450,"internal_node_id":"0.0-5.0-1.0"},{"group":"hexagon_bi","fractal_assignment":["../images/gry_blk.png","../images/pnk_blu.png","../images/org_blu.png","../images/cyn_red.png","../images/blu_wht.png","../images/ylw_slt.png"],"mutagen_generator_assignment":[0,1],"goal":5,"start":0,"action_noise":0,"location_history":"[0,5]","action_history":"[0]","mutagen_history":"[0]","location_rts":"[3258]","trial_type":"fractal-mutation","trial_index":56,"time_elapsed":917746,"internal_node_id":"0.0-5.0-2.0"},{"group":"hexagon_bi","fractal_assignment":["../images/gry_blk.png","../images/pnk_blu.png","../images/org_blu.png","../images/cyn_red.png","../images/blu_wht.png","../images/ylw_slt.png"],"mutagen_generator_assignment":[0,1],"goal":1,"start":5,"action_noise":0,"location_history":"[5,4,3,2,1]","action_history":"[1,0,1,0]","mutagen_history":"[1,0,1,0]","location_rts":"[1008,910,454,610]","trial_type":"fractal-mutation","trial_index":57,"time_elapsed":928877,"internal_node_id":"0.0-5.0-3.0"},{"group":"hexagon_bi","fractal_assignment":["../images/gry_blk.png","../images/pnk_blu.png","../images/org_blu.png","../images/cyn_red.png","../images/blu_wht.png","../images/ylw_slt.png"],"mutagen_generator_assignment":[0,1],"goal":3,"start":1,"action_noise":0,"location_history":"[1,0,5,4,3]","action_history":"[1,0,1,0]","mutagen_history":"[1,0,1,0]","location_rts":"[2959,4049,1094,115]","trial_type":"fractal-mutation","trial_index":58,"time_elapsed":945236,"internal_node_id":"0.0-5.0-4.0"},{"group":"hexagon_bi","fractal_assignment":["../images/gry_blk.png","../images/pnk_blu.png","../images/org_blu.png","../images/cyn_red.png","../images/blu_wht.png","../images/ylw_slt.png"],"mutagen_generator_assignment":[0,1],"goal":5,"start":3,"action_noise":0,"location_history":"[3,4,5]","action_history":"[0,1]","mutagen_history":"[0,1]","location_rts":"[2976,178]","trial_type":"fractal-mutation","trial_index":59,"time_elapsed":954466,"internal_node_id":"0.0-5.0-5.0"},{"group":"hexagon_bi","fractal_assignment":["../images/gry_blk.png","../images/pnk_blu.png","../images/org_blu.png","../images/cyn_red.png","../images/blu_wht.png","../images/ylw_slt.png"],"mutagen_generator_assignment":[0,1],"goal":4,"start":5,"action_noise":0,"location_history":"[5,4]","action_history":"[1]","mutagen_history":"[1]","location_rts":"[2206]","trial_type":"fractal-mutation","trial_index":60,"time_elapsed":961724,"internal_node_id":"0.0-5.0-6.0"},{"group":"hexagon_bi","fractal_assignment":["../images/gry_blk.png","../images/pnk_blu.png","../images/org_blu.png","../images/cyn_red.png","../images/blu_wht.png","../images/ylw_slt.png"],"mutagen_generator_assignment":[0,1],"goal":0,"start":4,"action_noise":0,"location_history":"[4,5,0]","action_history":"[1,0]","mutagen_history":"[1,0]","location_rts":"[1790,132]","trial_type":"fractal-mutation","trial_index":61,"time_elapsed":969719,"internal_node_id":"0.0-5.0-7.0"},{"group":"hexagon_bi","fractal_assignment":["../images/gry_blk.png","../images/pnk_blu.png","../images/org_blu.png","../images/cyn_red.png","../images/blu_wht.png","../images/ylw_slt.png"],"mutagen_generator_assignment":[0,1],"goal":2,"start":0,"action_noise":0,"location_history":"[0,1,2]","action_history":"[1,0]","mutagen_history":"[1,0]","location_rts":"[1929,709]","trial_type":"fractal-mutation","trial_index":62,"time_elapsed":978431,"internal_node_id":"0.0-5.0-8.0"},{"group":"hexagon_bi","fractal_assignment":["../images/gry_blk.png","../images/pnk_blu.png","../images/org_blu.png","../images/cyn_red.png","../images/blu_wht.png","../images/ylw_slt.png"],"mutagen_generator_assignment":[0,1],"goal":4,"start":2,"action_noise":0,"location_history":"[2,1,0,5,4]","action_history":"[0,1,0,1]","mutagen_history":"[0,1,0,1]","location_rts":"[2533,383,649,628]","trial_type":"fractal-mutation","trial_index":63,"time_elapsed":990766,"internal_node_id":"0.0-5.0-9.0"},{"group":"hexagon_bi","fractal_assignment":["../images/gry_blk.png","../images/pnk_blu.png","../images/org_blu.png","../images/cyn_red.png","../images/blu_wht.png","../images/ylw_slt.png"],"mutagen_generator_assignment":[0,1],"goal":2,"start":4,"action_noise":0,"location_history":"[4,5,0,1,2]","action_history":"[1,0,1,0]","mutagen_history":"[1,0,1,0]","location_rts":"[1239,477,1000,529]","trial_type":"fractal-mutation","trial_index":64,"time_elapsed":1002133,"internal_node_id":"0.0-5.0-10.0"},{"group":"hexagon_bi","fractal_assignment":["../images/gry_blk.png","../images/pnk_blu.png","../images/org_blu.png","../images/cyn_red.png","../images/blu_wht.png","../images/ylw_slt.png"],"mutagen_generator_assignment":[0,1],"goal":3,"start":2,"action_noise":0,"location_history":"[2,3]","action_history":"[1]","mutagen_history":"[1]","location_rts":"[2165]","trial_type":"fractal-mutation","trial_index":65,"time_elapsed":1009345,"internal_node_id":"0.0-5.0-11.0"},{"group":"hexagon_bi","fractal_assignment":["../images/gry_blk.png","../images/pnk_blu.png","../images/org_blu.png","../images/cyn_red.png","../images/blu_wht.png","../images/ylw_slt.png"],"mutagen_generator_assignment":[0,1],"goal":0,"start":3,"action_noise":0,"location_history":"[3,4,5,0]","action_history":"[0,1,0]","mutagen_history":"[0,1,0]","location_rts":"[1628,503,1123]","trial_type":"fractal-mutation","trial_index":66,"time_elapsed":1019694,"internal_node_id":"0.0-5.0-12.0"},{"group":"hexagon_bi","fractal_assignment":["../images/gry_blk.png","../images/pnk_blu.png","../images/org_blu.png","../images/cyn_red.png","../images/blu_wht.png","../images/ylw_slt.png"],"mutagen_generator_assignment":[0,1],"goal":5,"start":0,"action_noise":0,"location_history":"[0,5]","action_history":"[0]","mutagen_history":"[0]","location_rts":"[3726]","trial_type":"fractal-mutation","trial_index":67,"time_elapsed":1028448,"internal_node_id":"0.0-5.0-13.0"},{"group":"hexagon_bi","fractal_assignment":["../images/gry_blk.png","../images/pnk_blu.png","../images/org_blu.png","../images/cyn_red.png","../images/blu_wht.png","../images/ylw_slt.png"],"mutagen_generator_assignment":[0,1],"goal":1,"start":5,"action_noise":0,"location_history":"[5,4,5,0,1]","action_history":"[1,1,0,1]","mutagen_history":"[1,1,0,1]","location_rts":"[35294,845,424,676]","trial_type":"fractal-mutation","trial_index":68,"time_elapsed":1073836,"internal_node_id":"0.0-5.0-14.0"},{"group":"hexagon_bi","fractal_assignment":["../images/gry_blk.png","../images/pnk_blu.png","../images/org_blu.png","../images/cyn_red.png","../images/blu_wht.png","../images/ylw_slt.png"],"mutagen_generator_assignment":[0,1],"goal":5,"start":1,"action_noise":0,"location_history":"[1,2,1,0,5]","action_history":"[0,0,1,0]","mutagen_history":"[0,0,1,0]","location_rts":"[15569,609,67,899]","trial_type":"fractal-mutation","trial_index":69,"time_elapsed":1099097,"internal_node_id":"0.0-5.0-15.0"},{"group":"hexagon_bi","fractal_assignment":["../images/gry_blk.png","../images/pnk_blu.png","../images/org_blu.png","../images/cyn_red.png","../images/blu_wht.png","../images/ylw_slt.png"],"mutagen_generator_assignment":[0,1],"goal":3,"start":5,"action_noise":0,"location_history":"[5,0,1,2,3]","action_history":"[0,1,0,1]","mutagen_history":"[0,1,0,1]","location_rts":"[2075,368,1411,641]","trial_type":"fractal-mutation","trial_index":70,"time_elapsed":1111727,"internal_node_id":"0.0-5.0-16.0"},{"group":"hexagon_bi","fractal_assignment":["../images/gry_blk.png","../images/pnk_blu.png","../images/org_blu.png","../images/cyn_red.png","../images/blu_wht.png","../images/ylw_slt.png"],"mutagen_generator_assignment":[0,1],"goal":2,"start":3,"action_noise":0,"location_history":"[3,4,3,2]","action_history":"[0,0,1]","mutagen_history":"[0,0,1]","location_rts":"[2145,1118,31]","trial_type":"fractal-mutation","trial_index":71,"time_elapsed":1122127,"internal_node_id":"0.0-5.0-17.0"},{"group":"hexagon_bi","fractal_assignment":["../images/gry_blk.png","../images/pnk_blu.png","../images/org_blu.png","../images/cyn_red.png","../images/blu_wht.png","../images/ylw_slt.png"],"mutagen_generator_assignment":[0,1],"goal":1,"start":2,"action_noise":0,"location_history":"[2,1]","action_history":"[0]","mutagen_history":"[0]","location_rts":"[1466]","trial_type":"fractal-mutation","trial_index":72,"time_elapsed":1128624,"internal_node_id":"0.0-5.0-18.0"},{"group":"hexagon_bi","fractal_assignment":["../images/gry_blk.png","../images/pnk_blu.png","../images/org_blu.png","../images/cyn_red.png","../images/blu_wht.png","../images/ylw_slt.png"],"mutagen_generator_assignment":[0,1],"goal":4,"start":1,"action_noise":0,"location_history":"[1,0,5,4]","action_history":"[1,0,1]","mutagen_history":"[1,0,1]","location_rts":"[1255,1466,665]","trial_type":"fractal-mutation","trial_index":73,"time_elapsed":1139113,"internal_node_id":"0.0-5.0-19.0"},{"group":"hexagon_bi","fractal_assignment":["../images/gry_blk.png","../images/pnk_blu.png","../images/org_blu.png","../images/cyn_red.png","../images/blu_wht.png","../images/ylw_slt.png"],"mutagen_generator_assignment":[0,1],"goal":0,"start":4,"action_noise":0,"location_history":"[4,3,2,1,0]","action_history":"[0,1,0,1]","mutagen_history":"[0,1,0,1]","location_rts":"[1271,908,1156,904]","trial_type":"fractal-mutation","trial_index":74,"time_elapsed":1151490,"internal_node_id":"0.0-5.0-20.0"},{"group":"hexagon_bi","fractal_assignment":["../images/gry_blk.png","../images/pnk_blu.png","../images/org_blu.png","../images/cyn_red.png","../images/blu_wht.png","../images/ylw_slt.png"],"mutagen_generator_assignment":[0,1],"goal":3,"start":0,"action_noise":0,"location_history":"[0,5,4,3]","action_history":"[0,1,0]","mutagen_history":"[0,1,0]","location_rts":"[1610,1594,358]","trial_type":"fractal-mutation","trial_index":75,"time_elapsed":1162153,"internal_node_id":"0.0-5.0-21.0"},{"group":"hexagon_bi","fractal_assignment":["../images/gry_blk.png","../images/pnk_blu.png","../images/org_blu.png","../images/cyn_red.png","../images/blu_wht.png","../images/ylw_slt.png"],"mutagen_generator_assignment":[0,1],"goal":1,"start":3,"action_noise":0,"location_history":"[3,4,5,0,1]","action_history":"[0,1,0,1]","mutagen_history":"[0,1,0,1]","location_rts":"[2189,871,462,1307]","trial_type":"fractal-mutation","trial_index":76,"time_elapsed":1175115,"internal_node_id":"0.0-5.0-22.0"},{"group":"hexagon_bi","fractal_assignment":["../images/gry_blk.png","../images/pnk_blu.png","../images/org_blu.png","../images/cyn_red.png","../images/blu_wht.png","../images/ylw_slt.png"],"mutagen_generator_assignment":[0,1],"goal":0,"start":1,"action_noise":0,"location_history":"[1,2,3,4,5,0]","action_history":"[0,1,0,1,0]","mutagen_history":"[0,1,0,1,0]","location_rts":"[812,1074,641,1434,151]","trial_type":"fractal-mutation","trial_index":77,"time_elapsed":1188389,"internal_node_id":"0.0-5.0-23.0"},{"group":"hexagon_bi","fractal_assignment":["../images/gry_blk.png","../images/pnk_blu.png","../images/org_blu.png","../images/cyn_red.png","../images/blu_wht.png","../images/ylw_slt.png"],"mutagen_generator_assignment":[0,1],"goal":2,"start":0,"action_noise":0,"location_history":"[0,5,4,3,2]","action_history":"[0,1,0,1]","mutagen_history":"[0,1,0,1]","location_rts":"[1632,1943,487,178]","trial_type":"fractal-mutation","trial_index":78,"time_elapsed":1200769,"internal_node_id":"0.0-5.0-24.0"},{"group":"hexagon_bi","fractal_assignment":["../images/gry_blk.png","../images/pnk_blu.png","../images/org_blu.png","../images/cyn_red.png","../images/blu_wht.png","../images/ylw_slt.png"],"mutagen_generator_assignment":[0,1],"goal":4,"start":2,"action_noise":0,"location_history":"[2,1,0,5,4]","action_history":"[0,1,0,1]","mutagen_history":"[0,1,0,1]","location_rts":"[1439,460,2530,715]","trial_type":"fractal-mutation","trial_index":79,"time_elapsed":1214051,"internal_node_id":"0.0-5.0-25.0"},{"group":"hexagon_bi","fractal_assignment":["../images/gry_blk.png","../images/pnk_blu.png","../images/org_blu.png","../images/cyn_red.png","../images/blu_wht.png","../images/ylw_slt.png"],"mutagen_generator_assignment":[0,1],"goal":5,"start":4,"action_noise":0,"location_history":"[4,5]","action_history":"[1]","mutagen_history":"[1]","location_rts":"[1989]","trial_type":"fractal-mutation","trial_index":80,"time_elapsed":1221080,"internal_node_id":"0.0-5.0-26.0"},{"group":"hexagon_bi","fractal_assignment":["../images/gry_blk.png","../images/pnk_blu.png","../images/org_blu.png","../images/cyn_red.png","../images/blu_wht.png","../images/ylw_slt.png"],"mutagen_generator_assignment":[0,1],"goal":2,"start":5,"action_noise":0,"location_history":"[5,0,1,2]","action_history":"[0,1,0]","mutagen_history":"[0,1,0]","location_rts":"[2004,875,787]","trial_type":"fractal-mutation","trial_index":81,"time_elapsed":1231827,"internal_node_id":"0.0-5.0-27.0"},{"group":"hexagon_bi","fractal_assignment":["../images/gry_blk.png","../images/pnk_blu.png","../images/org_blu.png","../images/cyn_red.png","../images/blu_wht.png","../images/ylw_slt.png"],"mutagen_generator_assignment":[0,1],"goal":3,"start":2,"action_noise":0,"location_history":"[2,3]","action_history":"[1]","mutagen_history":"[1]","location_rts":"[1392]","trial_type":"fractal-mutation","trial_index":82,"time_elapsed":1238258,"internal_node_id":"0.0-5.0-28.0"},{"group":"hexagon_bi","fractal_assignment":["../images/gry_blk.png","../images/pnk_blu.png","../images/org_blu.png","../images/cyn_red.png","../images/blu_wht.png","../images/ylw_slt.png"],"mutagen_generator_assignment":[0,1],"goal":1,"start":3,"action_noise":0,"location_history":"[3,4,5,0,1]","action_history":"[0,1,0,1]","mutagen_history":"[0,1,0,1]","location_rts":"[856,1188,874,740]","trial_type":"fractal-mutation","trial_index":83,"time_elapsed":1250044,"internal_node_id":"0.0-5.0-29.0"},{"group":"hexagon_bi","fractal_assignment":["../images/gry_blk.png","../images/pnk_blu.png","../images/org_blu.png","../images/cyn_red.png","../images/blu_wht.png","../images/ylw_slt.png"],"mutagen_generator_assignment":[0,1],"goal":4,"start":1,"action_noise":0,"location_history":"[1,2,3,4]","action_history":"[0,1,0]","mutagen_history":"[0,1,0]","location_rts":"[1283,887,131]","trial_type":"fractal-mutation","trial_index":84,"time_elapsed":1259443,"internal_node_id":"0.0-5.0-30.0"},{"group":"hexagon_bi","fractal_assignment":["../images/gry_blk.png","../images/pnk_blu.png","../images/org_blu.png","../images/cyn_red.png","../images/blu_wht.png","../images/ylw_slt.png"],"mutagen_generator_assignment":[0,1],"goal":5,"start":4,"action_noise":0,"location_history":"[4,5]","action_history":"[1]","mutagen_history":"[1]","location_rts":"[1582]","trial_type":"fractal-mutation","trial_index":85,"time_elapsed":1266073,"internal_node_id":"0.0-5.0-31.0"},{"group":"hexagon_bi","fractal_assignment":["../images/gry_blk.png","../images/pnk_blu.png","../images/org_blu.png","../images/cyn_red.png","../images/blu_wht.png","../images/ylw_slt.png"],"mutagen_generator_assignment":[0,1],"goal":0,"start":5,"action_noise":0,"location_history":"[5,0]","action_history":"[0]","mutagen_history":"[0]","location_rts":"[1739]","trial_type":"fractal-mutation","trial_index":86,"time_elapsed":1272843,"internal_node_id":"0.0-5.0-32.0"},{"group":"hexagon_bi","fractal_assignment":["../images/gry_blk.png","../images/pnk_blu.png","../images/org_blu.png","../images/cyn_red.png","../images/blu_wht.png","../images/ylw_slt.png"],"mutagen_generator_assignment":[0,1],"goal":2,"start":0,"action_noise":0,"location_history":"[0,1,2]","action_history":"[1,0]","mutagen_history":"[1,0]","location_rts":"[1339,886]","trial_type":"fractal-mutation","trial_index":87,"time_elapsed":1281144,"internal_node_id":"0.0-5.0-33.0"},{"group":"hexagon_bi","fractal_assignment":["../images/gry_blk.png","../images/pnk_blu.png","../images/org_blu.png","../images/cyn_red.png","../images/blu_wht.png","../images/ylw_slt.png"],"mutagen_generator_assignment":[0,1],"goal":0,"start":2,"action_noise":0,"location_history":"[2,3,4,5,0]","action_history":"[1,0,1,0]","mutagen_history":"[1,0,1,0]","location_rts":"[1535,732,435,267]","trial_type":"fractal-mutation","trial_index":88,"time_elapsed":1292251,"internal_node_id":"0.0-5.0-34.0"},{"group":"hexagon_bi","fractal_assignment":["../images/gry_blk.png","../images/pnk_blu.png","../images/org_blu.png","../images/cyn_red.png","../images/blu_wht.png","../images/ylw_slt.png"],"mutagen_generator_assignment":[0,1],"goal":5,"start":0,"action_noise":0,"location_history":"[0,5]","action_history":"[0]","mutagen_history":"[0]","location_rts":"[1162]","trial_type":"fractal-mutation","trial_index":89,"time_elapsed":1298449,"internal_node_id":"0.0-5.0-35.0"},{"group":"hexagon_bi","fractal_assignment":["../images/gry_blk.png","../images/pnk_blu.png","../images/org_blu.png","../images/cyn_red.png","../images/blu_wht.png","../images/ylw_slt.png"],"mutagen_generator_assignment":[0,1],"goal":1,"start":5,"action_noise":0,"location_history":"[5,4,3,2,1]","action_history":"[1,0,1,0]","mutagen_history":"[1,0,1,0]","location_rts":"[2366,763,75,161]","trial_type":"fractal-mutation","trial_index":90,"time_elapsed":1309953,"internal_node_id":"0.0-5.0-36.0"},{"group":"hexagon_bi","fractal_assignment":["../images/gry_blk.png","../images/pnk_blu.png","../images/org_blu.png","../images/cyn_red.png","../images/blu_wht.png","../images/ylw_slt.png"],"mutagen_generator_assignment":[0,1],"goal":4,"start":1,"action_noise":0,"location_history":"[1,2,3,4]","action_history":"[0,1,0]","mutagen_history":"[0,1,0]","location_rts":"[1013,1914,524]","trial_type":"fractal-mutation","trial_index":91,"time_elapsed":1320496,"internal_node_id":"0.0-5.0-37.0"},{"group":"hexagon_bi","fractal_assignment":["../images/gry_blk.png","../images/pnk_blu.png","../images/org_blu.png","../images/cyn_red.png","../images/blu_wht.png","../images/ylw_slt.png"],"mutagen_generator_assignment":[0,1],"goal":3,"start":4,"action_noise":0,"location_history":"[4,3]","action_history":"[0]","mutagen_history":"[0]","location_rts":"[1371]","trial_type":"fractal-mutation","trial_index":92,"time_elapsed":1326900,"internal_node_id":"0.0-5.0-38.0"},{"group":"hexagon_bi","fractal_assignment":["../images/gry_blk.png","../images/pnk_blu.png","../images/org_blu.png","../images/cyn_red.png","../images/blu_wht.png","../images/ylw_slt.png"],"mutagen_generator_assignment":[0,1],"goal":5,"start":3,"action_noise":0,"location_history":"[3,2,1,0,5]","action_history":"[1,0,1,0]","mutagen_history":"[1,0,1,0]","location_rts":"[1410,194,1046,516]","trial_type":"fractal-mutation","trial_index":93,"time_elapsed":1338197,"internal_node_id":"0.0-5.0-39.0"},{"group":"hexagon_bi","fractal_assignment":["../images/gry_blk.png","../images/pnk_blu.png","../images/org_blu.png","../images/cyn_red.png","../images/blu_wht.png","../images/ylw_slt.png"],"mutagen_generator_assignment":[0,1],"goal":1,"start":5,"action_noise":0,"location_history":"[5,0,1]","action_history":"[0,1]","mutagen_history":"[0,1]","location_rts":"[1067,524]","trial_type":"fractal-mutation","trial_index":94,"time_elapsed":1345857,"internal_node_id":"0.0-5.0-40.0"},{"group":"hexagon_bi","fractal_assignment":["../images/gry_blk.png","../images/pnk_blu.png","../images/org_blu.png","../images/cyn_red.png","../images/blu_wht.png","../images/ylw_slt.png"],"mutagen_generator_assignment":[0,1],"goal":2,"start":1,"action_noise":0,"location_history":"[1,2]","action_history":"[0]","mutagen_history":"[0]","location_rts":"[1488]","trial_type":"fractal-mutation","trial_index":95,"time_elapsed":1352381,"internal_node_id":"0.0-5.0-41.0"},{"group":"hexagon_bi","fractal_assignment":["../images/gry_blk.png","../images/pnk_blu.png","../images/org_blu.png","../images/cyn_red.png","../images/blu_wht.png","../images/ylw_slt.png"],"mutagen_generator_assignment":[0,1],"goal":4,"start":2,"action_noise":0,"location_history":"[2,1,0,5,4]","action_history":"[0,1,0,1]","mutagen_history":"[0,1,0,1]","location_rts":"[1249,794,749,81]","trial_type":"fractal-mutation","trial_index":96,"time_elapsed":1363384,"internal_node_id":"0.0-5.0-42.0"},{"group":"hexagon_bi","fractal_assignment":["../images/gry_blk.png","../images/pnk_blu.png","../images/org_blu.png","../images/cyn_red.png","../images/blu_wht.png","../images/ylw_slt.png"],"mutagen_generator_assignment":[0,1],"goal":0,"start":4,"action_noise":0,"location_history":"[4,5,0]","action_history":"[1,0]","mutagen_history":"[1,0]","location_rts":"[1398,184]","trial_type":"fractal-mutation","trial_index":97,"time_elapsed":1371026,"internal_node_id":"0.0-5.0-43.0"},{"group":"hexagon_bi","fractal_assignment":["../images/gry_blk.png","../images/pnk_blu.png","../images/org_blu.png","../images/cyn_red.png","../images/blu_wht.png","../images/ylw_slt.png"],"mutagen_generator_assignment":[0,1],"goal":3,"start":0,"action_noise":0,"location_history":"[0,5,4,3]","action_history":"[0,1,0]","mutagen_history":"[0,1,0]","location_rts":"[1906,346,107]","trial_type":"fractal-mutation","trial_index":98,"time_elapsed":1380488,"internal_node_id":"0.0-5.0-44.0"},{"group":"hexagon_bi","fractal_assignment":["../images/gry_blk.png","../images/pnk_blu.png","../images/org_blu.png","../images/cyn_red.png","../images/blu_wht.png","../images/ylw_slt.png"],"mutagen_generator_assignment":[0,1],"goal":0,"start":3,"action_noise":0,"location_history":"[3,2,1,0]","action_history":"[1,0,1]","mutagen_history":"[1,0,1]","location_rts":"[2034,391,698]","trial_type":"fractal-mutation","trial_index":99,"time_elapsed":1390716,"internal_node_id":"0.0-5.0-45.0"},{"group":"hexagon_bi","fractal_assignment":["../images/gry_blk.png","../images/pnk_blu.png","../images/org_blu.png","../images/cyn_red.png","../images/blu_wht.png","../images/ylw_slt.png"],"mutagen_generator_assignment":[0,1],"goal":4,"start":0,"action_noise":0,"location_history":"[0,1,2,3,4]","action_history":"[1,0,1,0]","mutagen_history":"[1,0,1,0]","location_rts":"[1756,728,840,691]","trial_type":"fractal-mutation","trial_index":100,"time_elapsed":1402874,"internal_node_id":"0.0-5.0-46.0"},{"group":"hexagon_bi","fractal_assignment":["../images/gry_blk.png","../images/pnk_blu.png","../images/org_blu.png","../images/cyn_red.png","../images/blu_wht.png","../images/ylw_slt.png"],"mutagen_generator_assignment":[0,1],"goal":5,"start":4,"action_noise":0,"location_history":"[4,5]","action_history":"[1]","mutagen_history":"[1]","location_rts":"[13490]","trial_type":"fractal-mutation","trial_index":101,"time_elapsed":1421405,"internal_node_id":"0.0-5.0-47.0"},{"group":"hexagon_bi","fractal_assignment":["../images/gry_blk.png","../images/pnk_blu.png","../images/org_blu.png","../images/cyn_red.png","../images/blu_wht.png","../images/ylw_slt.png"],"mutagen_generator_assignment":[0,1],"goal":2,"start":5,"action_noise":0,"location_history":"[5,4,3,2]","action_history":"[1,0,1]","mutagen_history":"[1,0,1]","location_rts":"[2746,665,61]","trial_type":"fractal-mutation","trial_index":102,"time_elapsed":1431989,"internal_node_id":"0.0-5.0-48.0"},{"group":"hexagon_bi","fractal_assignment":["../images/gry_blk.png","../images/pnk_blu.png","../images/org_blu.png","../images/cyn_red.png","../images/blu_wht.png","../images/ylw_slt.png"],"mutagen_generator_assignment":[0,1],"goal":1,"start":2,"action_noise":0,"location_history":"[2,1]","action_history":"[0]","mutagen_history":"[0]","location_rts":"[2289]","trial_type":"fractal-mutation","trial_index":103,"time_elapsed":1439309,"internal_node_id":"0.0-5.0-49.0"},{"view_history":"[{\"page_index\":0,\"viewing_time\":2938}]","rt":2938,"trial_type":"instructions","trial_index":104,"time_elapsed":1443247,"internal_node_id":"0.0-6.0"},{"rt":28400,"responses":"{\"Q0\":\"If over a period of time, certain patterns can be learned subconsciously.\"}","trial_type":"survey-text","trial_index":105,"time_elapsed":1472651,"internal_node_id":"0.0-7.0-0.0"},{"rt":56612,"responses":"{\"Q0\":\"If over a period of time, having practice and being exposed to patterns, an individual could potentially teach themselves patterns without particularly trying.\"}","trial_type":"survey-text","trial_index":106,"time_elapsed":1530267,"internal_node_id":"0.0-7.0-1.0"},{"rt":16115,"responses":"{\"Q0\":\"<img src='../images/diagrams/hexagon_tri.png'>\"}","trial_type":"survey-multi-choice","trial_index":107,"time_elapsed":1547386,"internal_node_id":"0.0-7.0-2.0"},{"rt":46554,"assignments":["../images/gry_blk.png","../images/ylw_slt.png","../images/org_blu.png","../images/cyn_red.png","../images/blu_wht.png","../images/pnk_blu.png"],"trial_type":"drag-drop-on-image","trial_index":108,"time_elapsed":1594947,"internal_node_id":"0.0-7.0-3.0"},{"rt":5226,"responses":"{\"Q0\":\"2\"}","trial_type":"survey-likert","trial_index":109,"time_elapsed":1601173,"internal_node_id":"0.0-7.0-4.0"},{"rt":21432,"responses":"{\"Q0\":\"They both seemed to have the same premise, just a different way of going about it.\"}","trial_type":"survey-text","trial_index":110,"time_elapsed":1623608,"internal_node_id":"0.0-7.0-5.0"},{"rt":6662,"responses":"{\"Q0\":\"No\"}","trial_type":"survey-multi-choice","trial_index":111,"time_elapsed":1631275,"internal_node_id":"0.0-7.0-6.0"},{"rt":5179,"responses":"{\"Q0\":\"Did not notice\"}","trial_type":"survey-multi-choice","trial_index":112,"time_elapsed":1637461,"internal_node_id":"0.0-7.0-7.0"},{"rt":3875,"responses":"{\"Q0\":\"\"}","trial_type":"survey-text","trial_index":113,"time_elapsed":1642340,"internal_node_id":"0.0-7.0-8.0"},{"rt":4756,"responses":"{\"Q0\":\"3\"}","trial_type":"survey-likert","trial_index":114,"time_elapsed":1648099,"internal_node_id":"0.0-7.0-9.0"},{"rt":7005,"responses":"{\"Q0\":\"Different structure\"}","trial_type":"survey-multi-choice","trial_index":115,"time_elapsed":1656107,"internal_node_id":"0.0-7.0-10.0"},{"rt":57923,"assignments":["../images/ylw_slt.png","../images/org_blu.png","../images/cyn_red.png","../images/blu_wht.png","../images/pnk_blu.png","../images/gry_blk.png"],"background_order":[5,2,0,4,1,3],"trial_type":"drag-drop-on-image","trial_index":116,"time_elapsed":1715034,"internal_node_id":"0.0-7.0-11.0"},{"rt":25684,"responses":"{\"Q0\":\"left (white) door = ray, right (black) door = acid\",\"Q1\":\"Moderately confident\"}","trial_type":"survey-multi-choice","trial_index":117,"time_elapsed":1741722,"internal_node_id":"0.0-7.0-12.0"},{"rt":8684,"responses":"{\"Q0\":\"<25\",\"Q1\":\"Some college\",\"Q2\":\"Male\",\"Q3\":\"Black or African American\"}","trial_type":"survey-multi-choice","trial_index":118,"time_elapsed":1751434,"internal_node_id":"0.0-8.0"},{"rt":1195,"responses":"{\"Q0\":\"\"}","trial_type":"survey-text","trial_index":119,"time_elapsed":1753632,"internal_node_id":"0.0-9.0"}]