[{"view_history":"[{\"page_index\":0,\"viewing_time\":387751},{\"page_index\":1,\"viewing_time\":1173}]","rt":388925,"trial_type":"instructions","trial_index":0,"time_elapsed":388925,"internal_node_id":"0.0-0.0"},{"view_history":"[{\"page_index\":0,\"viewing_time\":1926},{\"page_index\":1,\"viewing_time\":1501}]","rt":3427,"trial_type":"instructions","trial_index":1,"time_elapsed":393356,"internal_node_id":"0.0-1.0"},{"group":"hexagon_tri","room_assignment":["grey","green","blue","purple","red","yellow"],"door_color_assignment":["white","black"],"door_generator_assignment":[0,1],"goal":2,"start":1,"action_noise":0,"location_history":"[1,3,2]","action_history":"[0,0]","door_history":"[0,0]","location_rts":"[215328,196]","trial_type":"two-door-navigation","trial_index":2,"time_elapsed":614991,"internal_node_id":"0.0-2.0-0.0"},{"group":"hexagon_tri","room_assignment":["grey","green","blue","purple","red","yellow"],"door_color_assignment":["white","black"],"door_generator_assignment":[0,1],"goal":0,"start":2,"action_noise":0,"location_history":"[2,3,4,0]","action_history":"[1,1,0]","door_history":"[1,1,0]","location_rts":"[16180,1214,787]","trial_type":"two-door-navigation","trial_index":3,"time_elapsed":640323,"internal_node_id":"0.0-2.0-1.0"},{"group":"hexagon_tri","room_assignment":["grey","green","blue","purple","red","yellow"],"door_color_assignment":["white","black"],"door_generator_assignment":[0,1],"goal":5,"start":0,"action_noise":0,"location_history":"[0,5]","action_history":"[0]","door_history":"[0]","location_rts":"[2537]","trial_type":"two-door-navigation","trial_index":4,"time_elapsed":647924,"internal_node_id":"0.0-2.0-2.0"},{"group":"hexagon_tri","room_assignment":["grey","green","blue","purple","red","yellow"],"door_color_assignment":["white","black"],"door_generator_assignment":[0,1],"goal":1,"start":5,"action_noise":0,"location_history":"[5,0,1]","action_history":"[1,1]","door_history":"[1,1]","location_rts":"[3810,451]","trial_type":"two-door-navigation","trial_index":5,"time_elapsed":658273,"internal_node_id":"0.0-2.0-3.0"},{"group":"hexagon_tri","room_assignment":["grey","green","blue","purple","red","yellow"],"door_color_assignment":["white","black"],"door_generator_assignment":[0,1],"goal":3,"start":1,"action_noise":0,"location_history":"[1,3]","action_history":"[0]","door_history":"[0]","location_rts":"[3680]","trial_type":"two-door-navigation","trial_index":6,"time_elapsed":667020,"internal_node_id":"0.0-2.0-4.0"},{"group":"hexagon_tri","room_assignment":["grey","green","blue","purple","red","yellow"],"door_color_assignment":["white","black"],"door_generator_assignment":[0,1],"goal":5,"start":3,"action_noise":0,"location_history":"[3,2,1,5]","action_history":"[0,0,1]","door_history":"[0,0,1]","location_rts":"[11277,348,326]","trial_type":"two-door-navigation","trial_index":7,"time_elapsed":686112,"internal_node_id":"0.0-2.0-5.0"},{"group":"hexagon_tri","room_assignment":["grey","green","blue","purple","red","yellow"],"door_color_assignment":["white","black"],"door_generator_assignment":[0,1],"goal":4,"start":5,"action_noise":0,"location_history":"[5,4]","action_history":"[0]","door_history":"[0]","location_rts":"[2117]","trial_type":"two-door-navigation","trial_index":8,"time_elapsed":693289,"internal_node_id":"0.0-2.0-6.0"},{"group":"hexagon_tri","room_assignment":["grey","green","blue","purple","red","yellow"],"door_color_assignment":["white","black"],"door_generator_assignment":[0,1],"goal":0,"start":4,"action_noise":0,"location_history":"[4,0]","action_history":"[0]","door_history":"[0]","location_rts":"[2431]","trial_type":"two-door-navigation","trial_index":9,"time_elapsed":700766,"internal_node_id":"0.0-2.0-7.0"},{"group":"hexagon_tri","room_assignment":["grey","green","blue","purple","red","yellow"],"door_color_assignment":["white","black"],"door_generator_assignment":[0,1],"goal":2,"start":0,"action_noise":0,"location_history":"[0,1,3,2]","action_history":"[1,0,0]","door_history":"[1,0,0]","location_rts":"[7365,432,90]","trial_type":"two-door-navigation","trial_index":10,"time_elapsed":715791,"internal_node_id":"0.0-2.0-8.0"},{"group":"hexagon_tri","room_assignment":["grey","green","blue","purple","red","yellow"],"door_color_assignment":["white","black"],"door_generator_assignment":[0,1],"goal":4,"start":2,"action_noise":0,"location_history":"[2,3,4]","action_history":"[1,1]","door_history":"[1,1]","location_rts":"[7865,281]","trial_type":"two-door-navigation","trial_index":11,"time_elapsed":730018,"internal_node_id":"0.0-2.0-9.0"},{"group":"hexagon_tri","room_assignment":["grey","green","blue","purple","red","yellow"],"door_color_assignment":["white","black"],"door_generator_assignment":[0,1],"goal":2,"start":4,"action_noise":0,"location_history":"[4,2]","action_history":"[1]","door_history":"[1]","location_rts":"[4231]","trial_type":"two-door-navigation","trial_index":12,"time_elapsed":739297,"internal_node_id":"0.0-2.0-10.0"},{"group":"hexagon_tri","room_assignment":["grey","green","blue","purple","red","yellow"],"door_color_assignment":["white","black"],"door_generator_assignment":[0,1],"goal":3,"start":2,"action_noise":0,"location_history":"[2,3]","action_history":"[1]","door_history":"[1]","location_rts":"[3703]","trial_type":"two-door-navigation","trial_index":13,"time_elapsed":748049,"internal_node_id":"0.0-2.0-11.0"},{"group":"hexagon_tri","room_assignment":["grey","green","blue","purple","red","yellow"],"door_color_assignment":["white","black"],"door_generator_assignment":[0,1],"goal":0,"start":3,"action_noise":0,"location_history":"[3,4,0]","action_history":"[1,0]","door_history":"[1,0]","location_rts":"[109551,686]","trial_type":"two-door-navigation","trial_index":14,"time_elapsed":864388,"internal_node_id":"0.0-2.0-12.0"},{"group":"hexagon_tri","room_assignment":["grey","green","blue","purple","red","yellow"],"door_color_assignment":["white","black"],"door_generator_assignment":[0,1],"goal":5,"start":0,"action_noise":0,"location_history":"[0,5]","action_history":"[0]","door_history":"[0]","location_rts":"[2023]","trial_type":"two-door-navigation","trial_index":15,"time_elapsed":871533,"internal_node_id":"0.0-2.0-13.0"},{"group":"hexagon_tri","room_assignment":["grey","green","blue","purple","red","yellow"],"door_color_assignment":["white","black"],"door_generator_assignment":[0,1],"goal":1,"start":5,"action_noise":0,"location_history":"[5,0,1]","action_history":"[1,1]","door_history":"[1,1]","location_rts":"[22439,423]","trial_type":"two-door-navigation","trial_index":16,"time_elapsed":901482,"internal_node_id":"0.0-2.0-14.0"},{"group":"hexagon_tri","room_assignment":["grey","green","blue","purple","red","yellow"],"door_color_assignment":["white","black"],"door_generator_assignment":[0,1],"goal":5,"start":1,"action_noise":0,"location_history":"[1,5]","action_history":"[1]","door_history":"[1]","location_rts":"[5301]","trial_type":"two-door-navigation","trial_index":17,"time_elapsed":911828,"internal_node_id":"0.0-2.0-15.0"},{"group":"hexagon_tri","room_assignment":["grey","green","blue","purple","red","yellow"],"door_color_assignment":["white","black"],"door_generator_assignment":[0,1],"goal":3,"start":5,"action_noise":0,"location_history":"[5,0,1,3]","action_history":"[1,1,0]","door_history":"[1,1,0]","location_rts":"[15698,368,319]","trial_type":"two-door-navigation","trial_index":18,"time_elapsed":935332,"internal_node_id":"0.0-2.0-16.0"},{"group":"hexagon_tri","room_assignment":["grey","green","blue","purple","red","yellow"],"door_color_assignment":["white","black"],"door_generator_assignment":[0,1],"goal":2,"start":3,"action_noise":0,"location_history":"[3,2]","action_history":"[0]","door_history":"[0]","location_rts":"[3947]","trial_type":"two-door-navigation","trial_index":19,"time_elapsed":944325,"internal_node_id":"0.0-2.0-17.0"},{"group":"hexagon_tri","room_assignment":["grey","green","blue","purple","red","yellow"],"door_color_assignment":["white","black"],"door_generator_assignment":[0,1],"goal":1,"start":2,"action_noise":0,"location_history":"[2,1]","action_history":"[0]","door_history":"[0]","location_rts":"[3162]","trial_type":"two-door-navigation","trial_index":20,"time_elapsed":952528,"internal_node_id":"0.0-2.0-18.0"},{"group":"hexagon_tri","room_assignment":["grey","green","blue","purple","red","yellow"],"door_color_assignment":["white","black"],"door_generator_assignment":[0,1],"goal":4,"start":1,"action_noise":0,"location_history":"[1,3,4]","action_history":"[0,1]","door_history":"[0,1]","location_rts":"[5339,392]","trial_type":"two-door-navigation","trial_index":21,"time_elapsed":964358,"internal_node_id":"0.0-2.0-19.0"},{"group":"hexagon_tri","room_assignment":["grey","green","blue","purple","red","yellow"],"door_color_assignment":["white","black"],"door_generator_assignment":[0,1],"goal":0,"start":4,"action_noise":0,"location_history":"[4,0]","action_history":"[0]","door_history":"[0]","location_rts":"[4219]","trial_type":"two-door-navigation","trial_index":22,"time_elapsed":973634,"internal_node_id":"0.0-2.0-20.0"},{"group":"hexagon_tri","room_assignment":["grey","green","blue","purple","red","yellow"],"door_color_assignment":["white","black"],"door_generator_assignment":[0,1],"goal":3,"start":0,"action_noise":0,"location_history":"[0,1,3]","action_history":"[1,0]","door_history":"[1,0]","location_rts":"[7218,578]","trial_type":"two-door-navigation","trial_index":23,"time_elapsed":987529,"internal_node_id":"0.0-2.0-21.0"},{"group":"hexagon_tri","room_assignment":["grey","green","blue","purple","red","yellow"],"door_color_assignment":["white","black"],"door_generator_assignment":[0,1],"goal":1,"start":3,"action_noise":0,"location_history":"[3,2,1]","action_history":"[0,0]","door_history":"[0,0]","location_rts":"[6223,592]","trial_type":"two-door-navigation","trial_index":24,"time_elapsed":1000443,"internal_node_id":"0.0-2.0-22.0"},{"group":"hexagon_tri","room_assignment":["grey","green","blue","purple","red","yellow"],"door_color_assignment":["white","black"],"door_generator_assignment":[0,1],"goal":0,"start":1,"action_noise":0,"location_history":"[1,5,0]","action_history":"[1,1]","door_history":"[1,1]","location_rts":"[5422,347]","trial_type":"two-door-navigation","trial_index":25,"time_elapsed":1012305,"internal_node_id":"0.0-2.0-23.0"},{"group":"hexagon_tri","room_assignment":["grey","green","blue","purple","red","yellow"],"door_color_assignment":["white","black"],"door_generator_assignment":[0,1],"goal":2,"start":0,"action_noise":0,"location_history":"[0,1,3,2]","action_history":"[1,0,0]","door_history":"[1,0,0]","location_rts":"[11253,733,862]","trial_type":"two-door-navigation","trial_index":26,"time_elapsed":1032290,"internal_node_id":"0.0-2.0-24.0"},{"group":"hexagon_tri","room_assignment":["grey","green","blue","purple","red","yellow"],"door_color_assignment":["white","black"],"door_generator_assignment":[0,1],"goal":4,"start":2,"action_noise":0,"location_history":"[2,3,4]","action_history":"[1,1]","door_history":"[1,1]","location_rts":"[5494,362]","trial_type":"two-door-navigation","trial_index":27,"time_elapsed":1044248,"internal_node_id":"0.0-2.0-25.0"},{"group":"hexagon_tri","room_assignment":["grey","green","blue","purple","red","yellow"],"door_color_assignment":["white","black"],"door_generator_assignment":[0,1],"goal":5,"start":4,"action_noise":0,"location_history":"[4,0,5]","action_history":"[0,0]","door_history":"[0,0]","location_rts":"[5170,287]","trial_type":"two-door-navigation","trial_index":28,"time_elapsed":1055800,"internal_node_id":"0.0-2.0-26.0"},{"group":"hexagon_tri","room_assignment":["grey","green","blue","purple","red","yellow"],"door_color_assignment":["white","black"],"door_generator_assignment":[0,1],"goal":2,"start":5,"action_noise":0,"location_history":"[5,4,2]","action_history":"[0,1]","door_history":"[0,1]","location_rts":"[6208,297]","trial_type":"two-door-navigation","trial_index":29,"time_elapsed":1068412,"internal_node_id":"0.0-2.0-27.0"},{"group":"hexagon_tri","room_assignment":["grey","green","blue","purple","red","yellow"],"door_color_assignment":["white","black"],"door_generator_assignment":[0,1],"goal":3,"start":2,"action_noise":0,"location_history":"[2,3]","action_history":"[1]","door_history":"[1]","location_rts":"[5618]","trial_type":"two-door-navigation","trial_index":30,"time_elapsed":1079081,"internal_node_id":"0.0-2.0-28.0"},{"group":"hexagon_tri","room_assignment":["grey","green","blue","purple","red","yellow"],"door_color_assignment":["white","black"],"door_generator_assignment":[0,1],"goal":1,"start":3,"action_noise":0,"location_history":"[3,2,1]","action_history":"[0,0]","door_history":"[0,0]","location_rts":"[6305,238]","trial_type":"two-door-navigation","trial_index":31,"time_elapsed":1091707,"internal_node_id":"0.0-2.0-29.0"},{"group":"hexagon_tri","room_assignment":["grey","green","blue","purple","red","yellow"],"door_color_assignment":["white","black"],"door_generator_assignment":[0,1],"goal":4,"start":1,"action_noise":0,"location_history":"[1,3,4]","action_history":"[0,1]","door_history":"[0,1]","location_rts":"[3393,1591]","trial_type":"two-door-navigation","trial_index":32,"time_elapsed":1102779,"internal_node_id":"0.0-2.0-30.0"},{"group":"hexagon_tri","room_assignment":["grey","green","blue","purple","red","yellow"],"door_color_assignment":["white","black"],"door_generator_assignment":[0,1],"goal":5,"start":4,"action_noise":0,"location_history":"[4,0,5]","action_history":"[0,0]","door_history":"[0,0]","location_rts":"[5147,231]","trial_type":"two-door-navigation","trial_index":33,"time_elapsed":1114260,"internal_node_id":"0.0-2.0-31.0"},{"group":"hexagon_tri","room_assignment":["grey","green","blue","purple","red","yellow"],"door_color_assignment":["white","black"],"door_generator_assignment":[0,1],"goal":0,"start":5,"action_noise":0,"location_history":"[5,0]","action_history":"[1]","door_history":"[1]","location_rts":"[3999]","trial_type":"two-door-navigation","trial_index":34,"time_elapsed":1123304,"internal_node_id":"0.0-2.0-32.0"},{"group":"hexagon_tri","room_assignment":["grey","green","blue","purple","red","yellow"],"door_color_assignment":["white","black"],"door_generator_assignment":[0,1],"goal":2,"start":0,"action_noise":0,"location_history":"[0,1,3,2]","action_history":"[1,0,0]","door_history":"[1,0,0]","location_rts":"[20925,686,575]","trial_type":"two-door-navigation","trial_index":35,"time_elapsed":1152630,"internal_node_id":"0.0-2.0-33.0"},{"group":"hexagon_tri","room_assignment":["grey","green","blue","purple","red","yellow"],"door_color_assignment":["white","black"],"door_generator_assignment":[0,1],"goal":0,"start":2,"action_noise":0,"location_history":"[2,3,4,0]","action_history":"[1,1,0]","door_history":"[1,1,0]","location_rts":"[25799,3463,432]","trial_type":"two-door-navigation","trial_index":36,"time_elapsed":1189477,"internal_node_id":"0.0-2.0-34.0"},{"group":"hexagon_tri","room_assignment":["grey","green","blue","purple","red","yellow"],"door_color_assignment":["white","black"],"door_generator_assignment":[0,1],"goal":5,"start":0,"action_noise":0,"location_history":"[0,5]","action_history":"[0]","door_history":"[0]","location_rts":"[77336]","trial_type":"two-door-navigation","trial_index":37,"time_elapsed":1272542,"internal_node_id":"0.0-2.0-35.0"},{"group":"hexagon_tri","room_assignment":["grey","green","blue","purple","red","yellow"],"door_color_assignment":["white","black"],"door_generator_assignment":[0,1],"goal":1,"start":5,"action_noise":0,"location_history":"[5,0,1]","action_history":"[1,1]","door_history":"[1,1]","location_rts":"[18954,327]","trial_type":"two-door-navigation","trial_index":38,"time_elapsed":1297897,"internal_node_id":"0.0-2.0-36.0"},{"group":"hexagon_tri","room_assignment":["grey","green","blue","purple","red","yellow"],"door_color_assignment":["white","black"],"door_generator_assignment":[0,1],"goal":4,"start":1,"action_noise":0,"location_history":"[1,3,4]","action_history":"[0,1]","door_history":"[0,1]","location_rts":"[4315,326]","trial_type":"two-door-navigation","trial_index":39,"time_elapsed":1308611,"internal_node_id":"0.0-2.0-37.0"},{"group":"hexagon_tri","room_assignment":["grey","green","blue","purple","red","yellow"],"door_color_assignment":["white","black"],"door_generator_assignment":[0,1],"goal":3,"start":4,"action_noise":0,"location_history":"[4,2,3]","action_history":"[1,1]","door_history":"[1,1]","location_rts":"[5779,139]","trial_type":"two-door-navigation","trial_index":40,"time_elapsed":1320621,"internal_node_id":"0.0-2.0-38.0"},{"group":"hexagon_tri","room_assignment":["grey","green","blue","purple","red","yellow"],"door_color_assignment":["white","black"],"door_generator_assignment":[0,1],"goal":5,"start":3,"action_noise":0,"location_history":"[3,2,1,5]","action_history":"[0,0,1]","door_history":"[0,0,1]","location_rts":"[13971,222,1215]","trial_type":"two-door-navigation","trial_index":41,"time_elapsed":1343167,"internal_node_id":"0.0-2.0-39.0"},{"group":"hexagon_tri","room_assignment":["grey","green","blue","purple","red","yellow"],"door_color_assignment":["white","black"],"door_generator_assignment":[0,1],"goal":1,"start":5,"action_noise":0,"location_history":"[5,0,1]","action_history":"[1,1]","door_history":"[1,1]","location_rts":"[5100,413]","trial_type":"two-door-navigation","trial_index":42,"time_elapsed":1354770,"internal_node_id":"0.0-2.0-40.0"},{"group":"hexagon_tri","room_assignment":["grey","green","blue","purple","red","yellow"],"door_color_assignment":["white","black"],"door_generator_assignment":[0,1],"goal":2,"start":1,"action_noise":0,"location_history":"[1,3,2]","action_history":"[0,0]","door_history":"[0,0]","location_rts":"[6922,297]","trial_type":"two-door-navigation","trial_index":43,"time_elapsed":1368085,"internal_node_id":"0.0-2.0-41.0"},{"group":"hexagon_tri","room_assignment":["grey","green","blue","purple","red","yellow"],"door_color_assignment":["white","black"],"door_generator_assignment":[0,1],"goal":4,"start":2,"action_noise":0,"location_history":"[2,3,4]","action_history":"[1,1]","door_history":"[1,1]","location_rts":"[7952,371]","trial_type":"two-door-navigation","trial_index":44,"time_elapsed":1382505,"internal_node_id":"0.0-2.0-42.0"},{"group":"hexagon_tri","room_assignment":["grey","green","blue","purple","red","yellow"],"door_color_assignment":["white","black"],"door_generator_assignment":[0,1],"goal":0,"start":4,"action_noise":0,"location_history":"[4,0]","action_history":"[0]","door_history":"[0]","location_rts":"[2344]","trial_type":"two-door-navigation","trial_index":45,"time_elapsed":1389889,"internal_node_id":"0.0-2.0-43.0"},{"group":"hexagon_tri","room_assignment":["grey","green","blue","purple","red","yellow"],"door_color_assignment":["white","black"],"door_generator_assignment":[0,1],"goal":3,"start":0,"action_noise":0,"location_history":"[0,1,3]","action_history":"[1,0]","door_history":"[1,0]","location_rts":"[5292,280]","trial_type":"two-door-navigation","trial_index":46,"time_elapsed":1401542,"internal_node_id":"0.0-2.0-44.0"},{"group":"hexagon_tri","room_assignment":["grey","green","blue","purple","red","yellow"],"door_color_assignment":["white","black"],"door_generator_assignment":[0,1],"goal":0,"start":3,"action_noise":0,"location_history":"[3,4,0]","action_history":"[1,0]","door_history":"[1,0]","location_rts":"[7148,422]","trial_type":"two-door-navigation","trial_index":47,"time_elapsed":1415210,"internal_node_id":"0.0-2.0-45.0"},{"group":"hexagon_tri","room_assignment":["grey","green","blue","purple","red","yellow"],"door_color_assignment":["white","black"],"door_generator_assignment":[0,1],"goal":4,"start":0,"action_noise":0,"location_history":"[0,5,4]","action_history":"[0,0]","door_history":"[0,0]","location_rts":"[8340,41]","trial_type":"two-door-navigation","trial_index":48,"time_elapsed":1429680,"internal_node_id":"0.0-2.0-46.0"},{"group":"hexagon_tri","room_assignment":["grey","green","blue","purple","red","yellow"],"door_color_assignment":["white","black"],"door_generator_assignment":[0,1],"goal":5,"start":4,"action_noise":0,"location_history":"[4,0,5]","action_history":"[0,0]","door_history":"[0,0]","location_rts":"[6680,102]","trial_type":"two-door-navigation","trial_index":49,"time_elapsed":1442548,"internal_node_id":"0.0-2.0-47.0"},{"group":"hexagon_tri","room_assignment":["grey","green","blue","purple","red","yellow"],"door_color_assignment":["white","black"],"door_generator_assignment":[0,1],"goal":2,"start":5,"action_noise":0,"location_history":"[5,4,2]","action_history":"[0,1]","door_history":"[0,1]","location_rts":"[7760,160]","trial_type":"two-door-navigation","trial_index":50,"time_elapsed":1456564,"internal_node_id":"0.0-2.0-48.0"},{"group":"hexagon_tri","room_assignment":["grey","green","blue","purple","red","yellow"],"door_color_assignment":["white","black"],"door_generator_assignment":[0,1],"goal":1,"start":2,"action_noise":0,"location_history":"[2,1]","action_history":"[0]","door_history":"[0]","location_rts":"[15327]","trial_type":"two-door-navigation","trial_index":51,"time_elapsed":1476948,"internal_node_id":"0.0-2.0-49.0"},{"view_history":"[{\"page_index\":0,\"viewing_time\":1332}]","rt":1333,"trial_type":"instructions","trial_index":52,"time_elapsed":1479283,"internal_node_id":"0.0-3.0"},{"view_history":"[{\"page_index\":0,\"viewing_time\":2062},{\"page_index\":1,\"viewing_time\":3430}]","rt":5492,"trial_type":"instructions","trial_index":53,"time_elapsed":1485779,"internal_node_id":"0.0-4.0"},{"group":"hexagon_bi","fractal_assignment":["../images/ylw_slt.png","../images/pnk_blu.png","../images/blu_wht.png","../images/gry_blk.png","../images/org_blu.png","../images/cyn_red.png"],"mutagen_generator_assignment":[1,0],"goal":2,"start":1,"action_noise":0,"location_history":"[1,0,1,0,5,4,3,2]","action_history":"[1,1,1,0,1,0,1]","mutagen_history":"[0,0,0,1,0,1,0]","location_rts":"[2505,770,288,444,421,332,441]","trial_type":"fractal-mutation","trial_index":54,"time_elapsed":1502368,"internal_node_id":"0.0-5.0-0.0"},{"group":"hexagon_bi","fractal_assignment":["../images/ylw_slt.png","../images/pnk_blu.png","../images/blu_wht.png","../images/gry_blk.png","../images/org_blu.png","../images/cyn_red.png"],"mutagen_generator_assignment":[1,0],"goal":0,"start":2,"action_noise":0,"location_history":"[2,1,0]","action_history":"[0,1]","mutagen_history":"[1,0]","location_rts":"[3164,372]","trial_type":"fractal-mutation","trial_index":55,"time_elapsed":1512016,"internal_node_id":"0.0-5.0-1.0"},{"group":"hexagon_bi","fractal_assignment":["../images/ylw_slt.png","../images/pnk_blu.png","../images/blu_wht.png","../images/gry_blk.png","../images/org_blu.png","../images/cyn_red.png"],"mutagen_generator_assignment":[1,0],"goal":5,"start":0,"action_noise":0,"location_history":"[0,5]","action_history":"[0]","mutagen_history":"[1]","location_rts":"[1346]","trial_type":"fractal-mutation","trial_index":56,"time_elapsed":1518425,"internal_node_id":"0.0-5.0-2.0"},{"group":"hexagon_bi","fractal_assignment":["../images/ylw_slt.png","../images/pnk_blu.png","../images/blu_wht.png","../images/gry_blk.png","../images/org_blu.png","../images/cyn_red.png"],"mutagen_generator_assignment":[1,0],"goal":1,"start":5,"action_noise":0,"location_history":"[5,4,3,2,1]","action_history":"[1,0,1,0]","mutagen_history":"[0,1,0,1]","location_rts":"[1121,490,445,434]","trial_type":"fractal-mutation","trial_index":57,"time_elapsed":1529126,"internal_node_id":"0.0-5.0-3.0"},{"group":"hexagon_bi","fractal_assignment":["../images/ylw_slt.png","../images/pnk_blu.png","../images/blu_wht.png","../images/gry_blk.png","../images/org_blu.png","../images/cyn_red.png"],"mutagen_generator_assignment":[1,0],"goal":3,"start":1,"action_noise":0,"location_history":"[1,0,5,4,3]","action_history":"[1,0,1,0]","mutagen_history":"[0,1,0,1]","location_rts":"[1707,525,488,353]","trial_type":"fractal-mutation","trial_index":58,"time_elapsed":1540423,"internal_node_id":"0.0-5.0-4.0"},{"group":"hexagon_bi","fractal_assignment":["../images/ylw_slt.png","../images/pnk_blu.png","../images/blu_wht.png","../images/gry_blk.png","../images/org_blu.png","../images/cyn_red.png"],"mutagen_generator_assignment":[1,0],"goal":5,"start":3,"action_noise":0,"location_history":"[3,4,5]","action_history":"[0,1]","mutagen_history":"[1,0]","location_rts":"[2019,336]","trial_type":"fractal-mutation","trial_index":59,"time_elapsed":1548899,"internal_node_id":"0.0-5.0-5.0"},{"group":"hexagon_bi","fractal_assignment":["../images/ylw_slt.png","../images/pnk_blu.png","../images/blu_wht.png","../images/gry_blk.png","../images/org_blu.png","../images/cyn_red.png"],"mutagen_generator_assignment":[1,0],"goal":4,"start":5,"action_noise":0,"location_history":"[5,4]","action_history":"[1]","mutagen_history":"[0]","location_rts":"[2193]","trial_type":"fractal-mutation","trial_index":60,"time_elapsed":1556160,"internal_node_id":"0.0-5.0-6.0"},{"group":"hexagon_bi","fractal_assignment":["../images/ylw_slt.png","../images/pnk_blu.png","../images/blu_wht.png","../images/gry_blk.png","../images/org_blu.png","../images/cyn_red.png"],"mutagen_generator_assignment":[1,0],"goal":0,"start":4,"action_noise":0,"location_history":"[4,3,2,1,0]","action_history":"[0,1,0,1]","mutagen_history":"[1,0,1,0]","location_rts":"[816,431,434,384]","trial_type":"fractal-mutation","trial_index":61,"time_elapsed":1566432,"internal_node_id":"0.0-5.0-7.0"},{"group":"hexagon_bi","fractal_assignment":["../images/ylw_slt.png","../images/pnk_blu.png","../images/blu_wht.png","../images/gry_blk.png","../images/org_blu.png","../images/cyn_red.png"],"mutagen_generator_assignment":[1,0],"goal":2,"start":0,"action_noise":0,"location_history":"[0,5,4,3,2]","action_history":"[0,1,0,1]","mutagen_history":"[1,0,1,0]","location_rts":"[1527,373,340,383]","trial_type":"fractal-mutation","trial_index":62,"time_elapsed":1577269,"internal_node_id":"0.0-5.0-8.0"},{"group":"hexagon_bi","fractal_assignment":["../images/ylw_slt.png","../images/pnk_blu.png","../images/blu_wht.png","../images/gry_blk.png","../images/org_blu.png","../images/cyn_red.png"],"mutagen_generator_assignment":[1,0],"goal":4,"start":2,"action_noise":0,"location_history":"[2,1,0,5,4]","action_history":"[0,1,0,1]","mutagen_history":"[1,0,1,0]","location_rts":"[1548,307,359,413]","trial_type":"fractal-mutation","trial_index":63,"time_elapsed":1588101,"internal_node_id":"0.0-5.0-9.0"},{"group":"hexagon_bi","fractal_assignment":["../images/ylw_slt.png","../images/pnk_blu.png","../images/blu_wht.png","../images/gry_blk.png","../images/org_blu.png","../images/cyn_red.png"],"mutagen_generator_assignment":[1,0],"goal":2,"start":4,"action_noise":0,"location_history":"[4,5,0,1,2]","action_history":"[1,0,1,0]","mutagen_history":"[0,1,0,1]","location_rts":"[687,275,361,354]","trial_type":"fractal-mutation","trial_index":64,"time_elapsed":1597987,"internal_node_id":"0.0-5.0-10.0"},{"group":"hexagon_bi","fractal_assignment":["../images/ylw_slt.png","../images/pnk_blu.png","../images/blu_wht.png","../images/gry_blk.png","../images/org_blu.png","../images/cyn_red.png"],"mutagen_generator_assignment":[1,0],"goal":3,"start":2,"action_noise":0,"location_history":"[2,3]","action_history":"[1]","mutagen_history":"[0]","location_rts":"[1487]","trial_type":"fractal-mutation","trial_index":65,"time_elapsed":1604533,"internal_node_id":"0.0-5.0-11.0"},{"group":"hexagon_bi","fractal_assignment":["../images/ylw_slt.png","../images/pnk_blu.png","../images/blu_wht.png","../images/gry_blk.png","../images/org_blu.png","../images/cyn_red.png"],"mutagen_generator_assignment":[1,0],"goal":0,"start":3,"action_noise":0,"location_history":"[3,2,1,0]","action_history":"[1,0,1]","mutagen_history":"[0,1,0]","location_rts":"[2407,308,373]","trial_type":"fractal-mutation","trial_index":66,"time_elapsed":1614798,"internal_node_id":"0.0-5.0-12.0"},{"group":"hexagon_bi","fractal_assignment":["../images/ylw_slt.png","../images/pnk_blu.png","../images/blu_wht.png","../images/gry_blk.png","../images/org_blu.png","../images/cyn_red.png"],"mutagen_generator_assignment":[1,0],"goal":5,"start":0,"action_noise":0,"location_history":"[0,1,2,3,4,5]","action_history":"[1,0,1,0,1]","mutagen_history":"[0,1,0,1,0]","location_rts":"[2254,499,387,452,479]","trial_type":"fractal-mutation","trial_index":67,"time_elapsed":1628134,"internal_node_id":"0.0-5.0-13.0"},{"group":"hexagon_bi","fractal_assignment":["../images/ylw_slt.png","../images/pnk_blu.png","../images/blu_wht.png","../images/gry_blk.png","../images/org_blu.png","../images/cyn_red.png"],"mutagen_generator_assignment":[1,0],"goal":1,"start":5,"action_noise":0,"location_history":"[5,0,1]","action_history":"[0,1]","mutagen_history":"[1,0]","location_rts":"[1625,324]","trial_type":"fractal-mutation","trial_index":68,"time_elapsed":1636205,"internal_node_id":"0.0-5.0-14.0"},{"group":"hexagon_bi","fractal_assignment":["../images/ylw_slt.png","../images/pnk_blu.png","../images/blu_wht.png","../images/gry_blk.png","../images/org_blu.png","../images/cyn_red.png"],"mutagen_generator_assignment":[1,0],"goal":5,"start":1,"action_noise":0,"location_history":"[1,0,5]","action_history":"[1,0]","mutagen_history":"[0,1]","location_rts":"[4469,347]","trial_type":"fractal-mutation","trial_index":69,"time_elapsed":1647124,"internal_node_id":"0.0-5.0-15.0"},{"group":"hexagon_bi","fractal_assignment":["../images/ylw_slt.png","../images/pnk_blu.png","../images/blu_wht.png","../images/gry_blk.png","../images/org_blu.png","../images/cyn_red.png"],"mutagen_generator_assignment":[1,0],"goal":3,"start":5,"action_noise":0,"location_history":"[5,0,1,2,3]","action_history":"[0,1,0,1]","mutagen_history":"[1,0,1,0]","location_rts":"[1587,551,313,368]","trial_type":"fractal-mutation","trial_index":70,"time_elapsed":1658181,"internal_node_id":"0.0-5.0-16.0"},{"group":"hexagon_bi","fractal_assignment":["../images/ylw_slt.png","../images/pnk_blu.png","../images/blu_wht.png","../images/gry_blk.png","../images/org_blu.png","../images/cyn_red.png"],"mutagen_generator_assignment":[1,0],"goal":2,"start":3,"action_noise":0,"location_history":"[3,2]","action_history":"[1]","mutagen_history":"[0]","location_rts":"[589]","trial_type":"fractal-mutation","trial_index":71,"time_elapsed":1663827,"internal_node_id":"0.0-5.0-17.0"},{"group":"hexagon_bi","fractal_assignment":["../images/ylw_slt.png","../images/pnk_blu.png","../images/blu_wht.png","../images/gry_blk.png","../images/org_blu.png","../images/cyn_red.png"],"mutagen_generator_assignment":[1,0],"goal":1,"start":2,"action_noise":0,"location_history":"[2,1]","action_history":"[0]","mutagen_history":"[1]","location_rts":"[1334]","trial_type":"fractal-mutation","trial_index":72,"time_elapsed":1670218,"internal_node_id":"0.0-5.0-18.0"},{"group":"hexagon_bi","fractal_assignment":["../images/ylw_slt.png","../images/pnk_blu.png","../images/blu_wht.png","../images/gry_blk.png","../images/org_blu.png","../images/cyn_red.png"],"mutagen_generator_assignment":[1,0],"goal":4,"start":1,"action_noise":0,"location_history":"[1,2,3,4]","action_history":"[0,1,0]","mutagen_history":"[1,0,1]","location_rts":"[3122,2623,373]","trial_type":"fractal-mutation","trial_index":73,"time_elapsed":1683493,"internal_node_id":"0.0-5.0-19.0"},{"group":"hexagon_bi","fractal_assignment":["../images/ylw_slt.png","../images/pnk_blu.png","../images/blu_wht.png","../images/gry_blk.png","../images/org_blu.png","../images/cyn_red.png"],"mutagen_generator_assignment":[1,0],"goal":0,"start":4,"action_noise":0,"location_history":"[4,5,0]","action_history":"[1,0]","mutagen_history":"[0,1]","location_rts":"[1200,423]","trial_type":"fractal-mutation","trial_index":74,"time_elapsed":1691234,"internal_node_id":"0.0-5.0-20.0"},{"group":"hexagon_bi","fractal_assignment":["../images/ylw_slt.png","../images/pnk_blu.png","../images/blu_wht.png","../images/gry_blk.png","../images/org_blu.png","../images/cyn_red.png"],"mutagen_generator_assignment":[1,0],"goal":3,"start":0,"action_noise":0,"location_history":"[0,1,2,3]","action_history":"[1,0,1]","mutagen_history":"[0,1,0]","location_rts":"[993,424,640]","trial_type":"fractal-mutation","trial_index":75,"time_elapsed":1700450,"internal_node_id":"0.0-5.0-21.0"},{"group":"hexagon_bi","fractal_assignment":["../images/ylw_slt.png","../images/pnk_blu.png","../images/blu_wht.png","../images/gry_blk.png","../images/org_blu.png","../images/cyn_red.png"],"mutagen_generator_assignment":[1,0],"goal":1,"start":3,"action_noise":0,"location_history":"[3,4,5,0,1]","action_history":"[0,1,0,1]","mutagen_history":"[1,0,1,0]","location_rts":"[1345,416,363,343]","trial_type":"fractal-mutation","trial_index":76,"time_elapsed":1711152,"internal_node_id":"0.0-5.0-22.0"},{"group":"hexagon_bi","fractal_assignment":["../images/ylw_slt.png","../images/pnk_blu.png","../images/blu_wht.png","../images/gry_blk.png","../images/org_blu.png","../images/cyn_red.png"],"mutagen_generator_assignment":[1,0],"goal":0,"start":1,"action_noise":0,"location_history":"[1,0]","action_history":"[1]","mutagen_history":"[0]","location_rts":"[2055]","trial_type":"fractal-mutation","trial_index":77,"time_elapsed":1718261,"internal_node_id":"0.0-5.0-23.0"},{"group":"hexagon_bi","fractal_assignment":["../images/ylw_slt.png","../images/pnk_blu.png","../images/blu_wht.png","../images/gry_blk.png","../images/org_blu.png","../images/cyn_red.png"],"mutagen_generator_assignment":[1,0],"goal":2,"start":0,"action_noise":0,"location_history":"[0,1,2]","action_history":"[1,0]","mutagen_history":"[0,1]","location_rts":"[1596,533]","trial_type":"fractal-mutation","trial_index":78,"time_elapsed":1726511,"internal_node_id":"0.0-5.0-24.0"},{"group":"hexagon_bi","fractal_assignment":["../images/ylw_slt.png","../images/pnk_blu.png","../images/blu_wht.png","../images/gry_blk.png","../images/org_blu.png","../images/cyn_red.png"],"mutagen_generator_assignment":[1,0],"goal":4,"start":2,"action_noise":0,"location_history":"[2,1,0,5,4]","action_history":"[0,1,0,1]","mutagen_history":"[1,0,1,0]","location_rts":"[898,249,262,394]","trial_type":"fractal-mutation","trial_index":79,"time_elapsed":1736528,"internal_node_id":"0.0-5.0-25.0"},{"group":"hexagon_bi","fractal_assignment":["../images/ylw_slt.png","../images/pnk_blu.png","../images/blu_wht.png","../images/gry_blk.png","../images/org_blu.png","../images/cyn_red.png"],"mutagen_generator_assignment":[1,0],"goal":5,"start":4,"action_noise":0,"location_history":"[4,5]","action_history":"[1]","mutagen_history":"[0]","location_rts":"[2072]","trial_type":"fractal-mutation","trial_index":80,"time_elapsed":1743658,"internal_node_id":"0.0-5.0-26.0"},{"group":"hexagon_bi","fractal_assignment":["../images/ylw_slt.png","../images/pnk_blu.png","../images/blu_wht.png","../images/gry_blk.png","../images/org_blu.png","../images/cyn_red.png"],"mutagen_generator_assignment":[1,0],"goal":2,"start":5,"action_noise":0,"location_history":"[5,4,3,2]","action_history":"[1,0,1]","mutagen_history":"[0,1,0]","location_rts":"[1230,310,417]","trial_type":"fractal-mutation","trial_index":81,"time_elapsed":1752767,"internal_node_id":"0.0-5.0-27.0"},{"group":"hexagon_bi","fractal_assignment":["../images/ylw_slt.png","../images/pnk_blu.png","../images/blu_wht.png","../images/gry_blk.png","../images/org_blu.png","../images/cyn_red.png"],"mutagen_generator_assignment":[1,0],"goal":3,"start":2,"action_noise":0,"location_history":"[2,3]","action_history":"[1]","mutagen_history":"[0]","location_rts":"[1134]","trial_type":"fractal-mutation","trial_index":82,"time_elapsed":1758962,"internal_node_id":"0.0-5.0-28.0"},{"group":"hexagon_bi","fractal_assignment":["../images/ylw_slt.png","../images/pnk_blu.png","../images/blu_wht.png","../images/gry_blk.png","../images/org_blu.png","../images/cyn_red.png"],"mutagen_generator_assignment":[1,0],"goal":1,"start":3,"action_noise":0,"location_history":"[3,2,1]","action_history":"[1,0]","mutagen_history":"[0,1]","location_rts":"[1020,468]","trial_type":"fractal-mutation","trial_index":83,"time_elapsed":1766568,"internal_node_id":"0.0-5.0-29.0"},{"group":"hexagon_bi","fractal_assignment":["../images/ylw_slt.png","../images/pnk_blu.png","../images/blu_wht.png","../images/gry_blk.png","../images/org_blu.png","../images/cyn_red.png"],"mutagen_generator_assignment":[1,0],"goal":4,"start":1,"action_noise":0,"location_history":"[1,0,5,4]","action_history":"[1,0,1]","mutagen_history":"[0,1,0]","location_rts":"[1587,391,393]","trial_type":"fractal-mutation","trial_index":84,"time_elapsed":1776097,"internal_node_id":"0.0-5.0-30.0"},{"group":"hexagon_bi","fractal_assignment":["../images/ylw_slt.png","../images/pnk_blu.png","../images/blu_wht.png","../images/gry_blk.png","../images/org_blu.png","../images/cyn_red.png"],"mutagen_generator_assignment":[1,0],"goal":5,"start":4,"action_noise":0,"location_history":"[4,5]","action_history":"[1]","mutagen_history":"[0]","location_rts":"[3057]","trial_type":"fractal-mutation","trial_index":85,"time_elapsed":1784214,"internal_node_id":"0.0-5.0-31.0"},{"group":"hexagon_bi","fractal_assignment":["../images/ylw_slt.png","../images/pnk_blu.png","../images/blu_wht.png","../images/gry_blk.png","../images/org_blu.png","../images/cyn_red.png"],"mutagen_generator_assignment":[1,0],"goal":0,"start":5,"action_noise":0,"location_history":"[5,4,3,2,1,0]","action_history":"[1,0,1,0,1]","mutagen_history":"[0,1,0,1,0]","location_rts":"[950,411,469,457,462]","trial_type":"fractal-mutation","trial_index":86,"time_elapsed":1796231,"internal_node_id":"0.0-5.0-32.0"},{"group":"hexagon_bi","fractal_assignment":["../images/ylw_slt.png","../images/pnk_blu.png","../images/blu_wht.png","../images/gry_blk.png","../images/org_blu.png","../images/cyn_red.png"],"mutagen_generator_assignment":[1,0],"goal":2,"start":0,"action_noise":0,"location_history":"[0,5,4,3,2]","action_history":"[0,1,0,1]","mutagen_history":"[1,0,1,0]","location_rts":"[969,418,389,559]","trial_type":"fractal-mutation","trial_index":87,"time_elapsed":1806784,"internal_node_id":"0.0-5.0-33.0"},{"group":"hexagon_bi","fractal_assignment":["../images/ylw_slt.png","../images/pnk_blu.png","../images/blu_wht.png","../images/gry_blk.png","../images/org_blu.png","../images/cyn_red.png"],"mutagen_generator_assignment":[1,0],"goal":0,"start":2,"action_noise":0,"location_history":"[2,3,4,5,0]","action_history":"[1,0,1,0]","mutagen_history":"[0,1,0,1]","location_rts":"[674,835,490,351]","trial_type":"fractal-mutation","trial_index":88,"time_elapsed":1817357,"internal_node_id":"0.0-5.0-34.0"},{"group":"hexagon_bi","fractal_assignment":["../images/ylw_slt.png","../images/pnk_blu.png","../images/blu_wht.png","../images/gry_blk.png","../images/org_blu.png","../images/cyn_red.png"],"mutagen_generator_assignment":[1,0],"goal":5,"start":0,"action_noise":0,"location_history":"[0,1,2,3,4,5]","action_history":"[1,0,1,0,1]","mutagen_history":"[0,1,0,1,0]","location_rts":"[5263,1739,431,1271,746]","trial_type":"fractal-mutation","trial_index":89,"time_elapsed":1836097,"internal_node_id":"0.0-5.0-35.0"},{"group":"hexagon_bi","fractal_assignment":["../images/ylw_slt.png","../images/pnk_blu.png","../images/blu_wht.png","../images/gry_blk.png","../images/org_blu.png","../images/cyn_red.png"],"mutagen_generator_assignment":[1,0],"goal":1,"start":5,"action_noise":0,"location_history":"[5,4,3,2,1]","action_history":"[1,0,1,0]","mutagen_history":"[0,1,0,1]","location_rts":"[2692,398,1050,495]","trial_type":"fractal-mutation","trial_index":90,"time_elapsed":1848959,"internal_node_id":"0.0-5.0-36.0"},{"group":"hexagon_bi","fractal_assignment":["../images/ylw_slt.png","../images/pnk_blu.png","../images/blu_wht.png","../images/gry_blk.png","../images/org_blu.png","../images/cyn_red.png"],"mutagen_generator_assignment":[1,0],"goal":4,"start":1,"action_noise":0,"location_history":"[1,2,3,4]","action_history":"[0,1,0]","mutagen_history":"[1,0,1]","location_rts":"[3939,398,129]","trial_type":"fractal-mutation","trial_index":91,"time_elapsed":1860571,"internal_node_id":"0.0-5.0-37.0"},{"group":"hexagon_bi","fractal_assignment":["../images/ylw_slt.png","../images/pnk_blu.png","../images/blu_wht.png","../images/gry_blk.png","../images/org_blu.png","../images/cyn_red.png"],"mutagen_generator_assignment":[1,0],"goal":3,"start":4,"action_noise":0,"location_history":"[4,5,0,1,2,3]","action_history":"[1,0,1,0,1]","mutagen_history":"[0,1,0,1,0]","location_rts":"[2607,331,490,344,437]","trial_type":"fractal-mutation","trial_index":92,"time_elapsed":1874025,"internal_node_id":"0.0-5.0-38.0"},{"group":"hexagon_bi","fractal_assignment":["../images/ylw_slt.png","../images/pnk_blu.png","../images/blu_wht.png","../images/gry_blk.png","../images/org_blu.png","../images/cyn_red.png"],"mutagen_generator_assignment":[1,0],"goal":5,"start":3,"action_noise":0,"location_history":"[3,4,5]","action_history":"[0,1]","mutagen_history":"[1,0]","location_rts":"[1141,379]","trial_type":"fractal-mutation","trial_index":93,"time_elapsed":1881640,"internal_node_id":"0.0-5.0-39.0"},{"group":"hexagon_bi","fractal_assignment":["../images/ylw_slt.png","../images/pnk_blu.png","../images/blu_wht.png","../images/gry_blk.png","../images/org_blu.png","../images/cyn_red.png"],"mutagen_generator_assignment":[1,0],"goal":1,"start":5,"action_noise":0,"location_history":"[5,4,3,2,1]","action_history":"[1,0,1,0]","mutagen_history":"[0,1,0,1]","location_rts":"[807,394,376,381]","trial_type":"fractal-mutation","trial_index":94,"time_elapsed":1891808,"internal_node_id":"0.0-5.0-40.0"},{"group":"hexagon_bi","fractal_assignment":["../images/ylw_slt.png","../images/pnk_blu.png","../images/blu_wht.png","../images/gry_blk.png","../images/org_blu.png","../images/cyn_red.png"],"mutagen_generator_assignment":[1,0],"goal":2,"start":1,"action_noise":0,"location_history":"[1,2]","action_history":"[0]","mutagen_history":"[1]","location_rts":"[826]","trial_type":"fractal-mutation","trial_index":95,"time_elapsed":1897700,"internal_node_id":"0.0-5.0-41.0"},{"group":"hexagon_bi","fractal_assignment":["../images/ylw_slt.png","../images/pnk_blu.png","../images/blu_wht.png","../images/gry_blk.png","../images/org_blu.png","../images/cyn_red.png"],"mutagen_generator_assignment":[1,0],"goal":4,"start":2,"action_noise":0,"location_history":"[2,3,4]","action_history":"[1,0]","mutagen_history":"[0,1]","location_rts":"[880,381]","trial_type":"fractal-mutation","trial_index":96,"time_elapsed":1905075,"internal_node_id":"0.0-5.0-42.0"},{"group":"hexagon_bi","fractal_assignment":["../images/ylw_slt.png","../images/pnk_blu.png","../images/blu_wht.png","../images/gry_blk.png","../images/org_blu.png","../images/cyn_red.png"],"mutagen_generator_assignment":[1,0],"goal":0,"start":4,"action_noise":0,"location_history":"[4,5,0]","action_history":"[1,0]","mutagen_history":"[0,1]","location_rts":"[1048,341]","trial_type":"fractal-mutation","trial_index":97,"time_elapsed":1912583,"internal_node_id":"0.0-5.0-43.0"},{"group":"hexagon_bi","fractal_assignment":["../images/ylw_slt.png","../images/pnk_blu.png","../images/blu_wht.png","../images/gry_blk.png","../images/org_blu.png","../images/cyn_red.png"],"mutagen_generator_assignment":[1,0],"goal":3,"start":0,"action_noise":0,"location_history":"[0,5,4,3]","action_history":"[0,1,0]","mutagen_history":"[1,0,1]","location_rts":"[1235,341,363]","trial_type":"fractal-mutation","trial_index":98,"time_elapsed":1921687,"internal_node_id":"0.0-5.0-44.0"},{"group":"hexagon_bi","fractal_assignment":["../images/ylw_slt.png","../images/pnk_blu.png","../images/blu_wht.png","../images/gry_blk.png","../images/org_blu.png","../images/cyn_red.png"],"mutagen_generator_assignment":[1,0],"goal":0,"start":3,"action_noise":0,"location_history":"[3,2,1,0]","action_history":"[1,0,1]","mutagen_history":"[0,1,0]","location_rts":"[706,419,405]","trial_type":"fractal-mutation","trial_index":99,"time_elapsed":1930374,"internal_node_id":"0.0-5.0-45.0"},{"group":"hexagon_bi","fractal_assignment":["../images/ylw_slt.png","../images/pnk_blu.png","../images/blu_wht.png","../images/gry_blk.png","../images/org_blu.png","../images/cyn_red.png"],"mutagen_generator_assignment":[1,0],"goal":4,"start":0,"action_noise":0,"location_history":"[0,1,2,3,4]","action_history":"[1,0,1,0]","mutagen_history":"[0,1,0,1]","location_rts":"[1085,336,400,450]","trial_type":"fractal-mutation","trial_index":100,"time_elapsed":1940865,"internal_node_id":"0.0-5.0-46.0"},{"group":"hexagon_bi","fractal_assignment":["../images/ylw_slt.png","../images/pnk_blu.png","../images/blu_wht.png","../images/gry_blk.png","../images/org_blu.png","../images/cyn_red.png"],"mutagen_generator_assignment":[1,0],"goal":5,"start":4,"action_noise":0,"location_history":"[4,3,2,1,0,5]","action_history":"[0,1,0,1,0]","mutagen_history":"[1,0,1,0,1]","location_rts":"[877,495,349,391,432]","trial_type":"fractal-mutation","trial_index":101,"time_elapsed":1952681,"internal_node_id":"0.0-5.0-47.0"},{"group":"hexagon_bi","fractal_assignment":["../images/ylw_slt.png","../images/pnk_blu.png","../images/blu_wht.png","../images/gry_blk.png","../images/org_blu.png","../images/cyn_red.png"],"mutagen_generator_assignment":[1,0],"goal":2,"start":5,"action_noise":0,"location_history":"[5,4,3,2]","action_history":"[1,0,1]","mutagen_history":"[0,1,0]","location_rts":"[821,374,387]","trial_type":"fractal-mutation","trial_index":102,"time_elapsed":1961414,"internal_node_id":"0.0-5.0-48.0"},{"group":"hexagon_bi","fractal_assignment":["../images/ylw_slt.png","../images/pnk_blu.png","../images/blu_wht.png","../images/gry_blk.png","../images/org_blu.png","../images/cyn_red.png"],"mutagen_generator_assignment":[1,0],"goal":1,"start":2,"action_noise":0,"location_history":"[2,1]","action_history":"[0]","mutagen_history":"[1]","location_rts":"[1400]","trial_type":"fractal-mutation","trial_index":103,"time_elapsed":1967874,"internal_node_id":"0.0-5.0-49.0"},{"view_history":"[{\"page_index\":0,\"viewing_time\":1064}]","rt":1064,"trial_type":"instructions","trial_index":104,"time_elapsed":1969941,"internal_node_id":"0.0-6.0"},{"rt":9100,"responses":"{\"Q0\":\"See how people remember things based on colors.\"}","trial_type":"survey-text","trial_index":105,"time_elapsed":1980049,"internal_node_id":"0.0-7.0-0.0"},{"rt":9581,"responses":"{\"Q0\":\"See how people learn things based on patterns of images.\"}","trial_type":"survey-text","trial_index":106,"time_elapsed":1990633,"internal_node_id":"0.0-7.0-1.0"},{"rt":23269,"responses":"{\"Q0\":\"<img src='../images/diagrams/hexagon_bi.png'>\"}","trial_type":"survey-multi-choice","trial_index":107,"time_elapsed":2014910,"internal_node_id":"0.0-7.0-2.0"},{"rt":18599,"assignments":["../images/ylw_slt.png","../images/cyn_red.png","../images/org_blu.png","../images/pnk_blu.png","../images/blu_wht.png","../images/gry_blk.png"],"trial_type":"drag-drop-on-image","trial_index":108,"time_elapsed":2034513,"internal_node_id":"0.0-7.0-3.0"},{"rt":3030,"responses":"{\"Q0\":\"2\"}","trial_type":"survey-likert","trial_index":109,"time_elapsed":2038546,"internal_node_id":"0.0-7.0-4.0"},{"rt":9115,"responses":"{\"Q0\":\"They both involved memorizing things.\"}","trial_type":"survey-text","trial_index":110,"time_elapsed":2048663,"internal_node_id":"0.0-7.0-5.0"},{"rt":3972,"responses":"{\"Q0\":\"No\"}","trial_type":"survey-multi-choice","trial_index":111,"time_elapsed":2053638,"internal_node_id":"0.0-7.0-6.0"},{"rt":4560,"responses":"{\"Q0\":\"Did not notice\"}","trial_type":"survey-multi-choice","trial_index":112,"time_elapsed":2059202,"internal_node_id":"0.0-7.0-7.0"},{"rt":3955,"responses":"{\"Q0\":\"\"}","trial_type":"survey-text","trial_index":113,"time_elapsed":2064162,"internal_node_id":"0.0-7.0-8.0"},{"rt":4025,"responses":"{\"Q0\":\"1\"}","trial_type":"survey-likert","trial_index":114,"time_elapsed":2069193,"internal_node_id":"0.0-7.0-9.0"},{"rt":34797,"responses":"{\"Q0\":\"Different structure\"}","trial_type":"survey-multi-choice","trial_index":115,"time_elapsed":2104992,"internal_node_id":"0.0-7.0-10.0"},{"rt":17819,"responses":"{\"Q0\":\"left (white) door = ray, right (black) door = acid\",\"Q1\":\"Slightly confident\"}","trial_type":"survey-multi-choice","trial_index":116,"time_elapsed":2123817,"internal_node_id":"0.0-7.0-11.0"},{"rt":13484,"responses":"{\"Q0\":\"25-35\",\"Q1\":\"Bachelor's degree\",\"Q2\":\"Male\",\"Q3\":\"White\"}","trial_type":"survey-multi-choice","trial_index":117,"time_elapsed":2138310,"internal_node_id":"0.0-8.0"},{"rt":3738,"responses":"{\"Q0\":\"Thanks\"}","trial_type":"survey-text","trial_index":118,"time_elapsed":2143049,"internal_node_id":"0.0-9.0"}]