[{"view_history":"[{\"page_index\":0,\"viewing_time\":1591},{\"page_index\":1,\"viewing_time\":7766}]","rt":9357,"trial_type":"instructions","trial_index":0,"time_elapsed":9358,"internal_node_id":"0.0-0.0"},{"view_history":"[{\"page_index\":0,\"viewing_time\":3547},{\"page_index\":1,\"viewing_time\":3947}]","rt":7494,"trial_type":"instructions","trial_index":1,"time_elapsed":17856,"internal_node_id":"0.0-1.0"},{"group":"hexagon_bi","room_assignment":["yellow","purple","red","blue","green","grey"],"door_color_assignment":["white","black"],"door_generator_assignment":[1,0],"goal":2,"start":1,"action_noise":0,"location_history":"[1,2]","action_history":"[0]","door_history":"[1]","location_rts":"[2026]","trial_type":"two-door-navigation","trial_index":2,"time_elapsed":24936,"internal_node_id":"0.0-2.0-0.0"},{"group":"hexagon_bi","room_assignment":["yellow","purple","red","blue","green","grey"],"door_color_assignment":["white","black"],"door_generator_assignment":[1,0],"goal":0,"start":2,"action_noise":0,"location_history":"[2,1,2,3,4,5,0]","action_history":"[0,0,1,0,1,0]","door_history":"[1,1,0,1,0,1]","location_rts":"[2427,666,442,749,575,688]","trial_type":"two-door-navigation","trial_index":3,"time_elapsed":40990,"internal_node_id":"0.0-2.0-1.0"},{"group":"hexagon_bi","room_assignment":["yellow","purple","red","blue","green","grey"],"door_color_assignment":["white","black"],"door_generator_assignment":[1,0],"goal":5,"start":0,"action_noise":0,"location_history":"[0,5]","action_history":"[0]","door_history":"[1]","location_rts":"[3187]","trial_type":"two-door-navigation","trial_index":4,"time_elapsed":50205,"internal_node_id":"0.0-2.0-2.0"},{"group":"hexagon_bi","room_assignment":["yellow","purple","red","blue","green","grey"],"door_color_assignment":["white","black"],"door_generator_assignment":[1,0],"goal":1,"start":5,"action_noise":0,"location_history":"[5,0,1]","action_history":"[0,1]","door_history":"[1,0]","location_rts":"[4633,671]","trial_type":"two-door-navigation","trial_index":5,"time_elapsed":61572,"internal_node_id":"0.0-2.0-3.0"},{"group":"hexagon_bi","room_assignment":["yellow","purple","red","blue","green","grey"],"door_color_assignment":["white","black"],"door_generator_assignment":[1,0],"goal":3,"start":1,"action_noise":0,"location_history":"[1,2,3]","action_history":"[0,1]","door_history":"[1,0]","location_rts":"[2763,333]","trial_type":"two-door-navigation","trial_index":6,"time_elapsed":70721,"internal_node_id":"0.0-2.0-4.0"},{"group":"hexagon_bi","room_assignment":["yellow","purple","red","blue","green","grey"],"door_color_assignment":["white","black"],"door_generator_assignment":[1,0],"goal":5,"start":3,"action_noise":0,"location_history":"[3,2,1,0,5]","action_history":"[1,0,1,0]","door_history":"[0,1,0,1]","location_rts":"[1771,583,633,267]","trial_type":"two-door-navigation","trial_index":7,"time_elapsed":82078,"internal_node_id":"0.0-2.0-5.0"},{"group":"hexagon_bi","room_assignment":["yellow","purple","red","blue","green","grey"],"door_color_assignment":["white","black"],"door_generator_assignment":[1,0],"goal":4,"start":5,"action_noise":0,"location_history":"[5,0,1,2,3,4]","action_history":"[0,1,0,1,0]","door_history":"[1,0,1,0,1]","location_rts":"[3292,330,433,283,600]","trial_type":"two-door-navigation","trial_index":8,"time_elapsed":96133,"internal_node_id":"0.0-2.0-6.0"},{"group":"hexagon_bi","room_assignment":["yellow","purple","red","blue","green","grey"],"door_color_assignment":["white","black"],"door_generator_assignment":[1,0],"goal":0,"start":4,"action_noise":0,"location_history":"[4,5,0]","action_history":"[1,0]","door_history":"[0,1]","location_rts":"[4441,710]","trial_type":"two-door-navigation","trial_index":9,"time_elapsed":107334,"internal_node_id":"0.0-2.0-7.0"},{"group":"hexagon_bi","room_assignment":["yellow","purple","red","blue","green","grey"],"door_color_assignment":["white","black"],"door_generator_assignment":[1,0],"goal":2,"start":0,"action_noise":0,"location_history":"[0,1,2]","action_history":"[1,0]","door_history":"[0,1]","location_rts":"[3095,585]","trial_type":"two-door-navigation","trial_index":10,"time_elapsed":117065,"internal_node_id":"0.0-2.0-8.0"},{"group":"hexagon_bi","room_assignment":["yellow","purple","red","blue","green","grey"],"door_color_assignment":["white","black"],"door_generator_assignment":[1,0],"goal":4,"start":2,"action_noise":0,"location_history":"[2,1,0,5,4]","action_history":"[0,1,0,1]","door_history":"[1,0,1,0]","location_rts":"[1668,299,327,504]","trial_type":"two-door-navigation","trial_index":11,"time_elapsed":127961,"internal_node_id":"0.0-2.0-9.0"},{"group":"hexagon_bi","room_assignment":["yellow","purple","red","blue","green","grey"],"door_color_assignment":["white","black"],"door_generator_assignment":[1,0],"goal":2,"start":4,"action_noise":0,"location_history":"[4,3,2]","action_history":"[0,1]","door_history":"[1,0]","location_rts":"[4540,569]","trial_type":"two-door-navigation","trial_index":12,"time_elapsed":139121,"internal_node_id":"0.0-2.0-10.0"},{"group":"hexagon_bi","room_assignment":["yellow","purple","red","blue","green","grey"],"door_color_assignment":["white","black"],"door_generator_assignment":[1,0],"goal":3,"start":2,"action_noise":0,"location_history":"[2,3]","action_history":"[1]","door_history":"[0]","location_rts":"[1770]","trial_type":"two-door-navigation","trial_index":13,"time_elapsed":145924,"internal_node_id":"0.0-2.0-11.0"},{"group":"hexagon_bi","room_assignment":["yellow","purple","red","blue","green","grey"],"door_color_assignment":["white","black"],"door_generator_assignment":[1,0],"goal":0,"start":3,"action_noise":0,"location_history":"[3,4,5,0]","action_history":"[0,1,0]","door_history":"[1,0,1]","location_rts":"[2712,619,554]","trial_type":"two-door-navigation","trial_index":14,"time_elapsed":156877,"internal_node_id":"0.0-2.0-12.0"},{"group":"hexagon_bi","room_assignment":["yellow","purple","red","blue","green","grey"],"door_color_assignment":["white","black"],"door_generator_assignment":[1,0],"goal":5,"start":0,"action_noise":0,"location_history":"[0,1,2,3,4,5]","action_history":"[1,0,1,0,1]","door_history":"[0,1,0,1,0]","location_rts":"[1569,962,299,406,748]","trial_type":"two-door-navigation","trial_index":15,"time_elapsed":169984,"internal_node_id":"0.0-2.0-13.0"},{"group":"hexagon_bi","room_assignment":["yellow","purple","red","blue","green","grey"],"door_color_assignment":["white","black"],"door_generator_assignment":[1,0],"goal":1,"start":5,"action_noise":0,"location_history":"[5,0,1]","action_history":"[0,1]","door_history":"[1,0]","location_rts":"[1863,237]","trial_type":"two-door-navigation","trial_index":16,"time_elapsed":178130,"internal_node_id":"0.0-2.0-14.0"},{"group":"hexagon_bi","room_assignment":["yellow","purple","red","blue","green","grey"],"door_color_assignment":["white","black"],"door_generator_assignment":[1,0],"goal":5,"start":1,"action_noise":0,"location_history":"[1,0,5]","action_history":"[1,0]","door_history":"[0,1]","location_rts":"[2282,541]","trial_type":"two-door-navigation","trial_index":17,"time_elapsed":187005,"internal_node_id":"0.0-2.0-15.0"},{"group":"hexagon_bi","room_assignment":["yellow","purple","red","blue","green","grey"],"door_color_assignment":["white","black"],"door_generator_assignment":[1,0],"goal":3,"start":5,"action_noise":0,"location_history":"[5,4,3]","action_history":"[1,0]","door_history":"[0,1]","location_rts":"[2119,335]","trial_type":"two-door-navigation","trial_index":18,"time_elapsed":195512,"internal_node_id":"0.0-2.0-16.0"},{"group":"hexagon_bi","room_assignment":["yellow","purple","red","blue","green","grey"],"door_color_assignment":["white","black"],"door_generator_assignment":[1,0],"goal":2,"start":3,"action_noise":0,"location_history":"[3,2]","action_history":"[1]","door_history":"[0]","location_rts":"[1884]","trial_type":"two-door-navigation","trial_index":19,"time_elapsed":202423,"internal_node_id":"0.0-2.0-17.0"},{"group":"hexagon_bi","room_assignment":["yellow","purple","red","blue","green","grey"],"door_color_assignment":["white","black"],"door_generator_assignment":[1,0],"goal":1,"start":2,"action_noise":0,"location_history":"[2,1]","action_history":"[0]","door_history":"[1]","location_rts":"[1779]","trial_type":"two-door-navigation","trial_index":20,"time_elapsed":209230,"internal_node_id":"0.0-2.0-18.0"},{"group":"hexagon_bi","room_assignment":["yellow","purple","red","blue","green","grey"],"door_color_assignment":["white","black"],"door_generator_assignment":[1,0],"goal":4,"start":1,"action_noise":0,"location_history":"[1,2,3,4]","action_history":"[0,1,0]","door_history":"[1,0,1]","location_rts":"[1719,304,298]","trial_type":"two-door-navigation","trial_index":21,"time_elapsed":218623,"internal_node_id":"0.0-2.0-19.0"},{"group":"hexagon_bi","room_assignment":["yellow","purple","red","blue","green","grey"],"door_color_assignment":["white","black"],"door_generator_assignment":[1,0],"goal":0,"start":4,"action_noise":0,"location_history":"[4,3,2,1,0]","action_history":"[0,1,0,1]","door_history":"[1,0,1,0]","location_rts":"[2037,306,306,318]","trial_type":"two-door-navigation","trial_index":22,"time_elapsed":229701,"internal_node_id":"0.0-2.0-20.0"},{"group":"hexagon_bi","room_assignment":["yellow","purple","red","blue","green","grey"],"door_color_assignment":["white","black"],"door_generator_assignment":[1,0],"goal":3,"start":0,"action_noise":0,"location_history":"[0,5,4,3]","action_history":"[0,1,0]","door_history":"[1,0,1]","location_rts":"[1559,380,328]","trial_type":"two-door-navigation","trial_index":23,"time_elapsed":239038,"internal_node_id":"0.0-2.0-21.0"},{"group":"hexagon_bi","room_assignment":["yellow","purple","red","blue","green","grey"],"door_color_assignment":["white","black"],"door_generator_assignment":[1,0],"goal":1,"start":3,"action_noise":0,"location_history":"[3,4,5,0,1]","action_history":"[0,1,0,1]","door_history":"[1,0,1,0]","location_rts":"[2687,684,552,576]","trial_type":"two-door-navigation","trial_index":24,"time_elapsed":251632,"internal_node_id":"0.0-2.0-22.0"},{"group":"hexagon_bi","room_assignment":["yellow","purple","red","blue","green","grey"],"door_color_assignment":["white","black"],"door_generator_assignment":[1,0],"goal":0,"start":1,"action_noise":0,"location_history":"[1,2,3,4,5,0]","action_history":"[0,1,0,1,0]","door_history":"[1,0,1,0,1]","location_rts":"[1594,573,424,510,469]","trial_type":"two-door-navigation","trial_index":25,"time_elapsed":264327,"internal_node_id":"0.0-2.0-23.0"},{"group":"hexagon_bi","room_assignment":["yellow","purple","red","blue","green","grey"],"door_color_assignment":["white","black"],"door_generator_assignment":[1,0],"goal":2,"start":0,"action_noise":0,"location_history":"[0,5,4,3,2]","action_history":"[0,1,0,1]","door_history":"[1,0,1,0]","location_rts":"[2636,603,616,505]","trial_type":"two-door-navigation","trial_index":26,"time_elapsed":276794,"internal_node_id":"0.0-2.0-24.0"},{"group":"hexagon_bi","room_assignment":["yellow","purple","red","blue","green","grey"],"door_color_assignment":["white","black"],"door_generator_assignment":[1,0],"goal":4,"start":2,"action_noise":0,"location_history":"[2,3,4]","action_history":"[1,0]","door_history":"[0,1]","location_rts":"[1882,695]","trial_type":"two-door-navigation","trial_index":27,"time_elapsed":285426,"internal_node_id":"0.0-2.0-25.0"},{"group":"hexagon_bi","room_assignment":["yellow","purple","red","blue","green","grey"],"door_color_assignment":["white","black"],"door_generator_assignment":[1,0],"goal":5,"start":4,"action_noise":0,"location_history":"[4,5]","action_history":"[1]","door_history":"[0]","location_rts":"[2218]","trial_type":"two-door-navigation","trial_index":28,"time_elapsed":292675,"internal_node_id":"0.0-2.0-26.0"},{"group":"hexagon_bi","room_assignment":["yellow","purple","red","blue","green","grey"],"door_color_assignment":["white","black"],"door_generator_assignment":[1,0],"goal":2,"start":5,"action_noise":0,"location_history":"[5,0,1,2]","action_history":"[0,1,0]","door_history":"[1,0,1]","location_rts":"[1547,401,256]","trial_type":"two-door-navigation","trial_index":29,"time_elapsed":301950,"internal_node_id":"0.0-2.0-27.0"},{"group":"hexagon_bi","room_assignment":["yellow","purple","red","blue","green","grey"],"door_color_assignment":["white","black"],"door_generator_assignment":[1,0],"goal":3,"start":2,"action_noise":0,"location_history":"[2,1,0,5,4,3]","action_history":"[0,1,0,1,0]","door_history":"[1,0,1,0,1]","location_rts":"[1749,588,392,832,408]","trial_type":"two-door-navigation","trial_index":30,"time_elapsed":315044,"internal_node_id":"0.0-2.0-28.0"},{"group":"hexagon_bi","room_assignment":["yellow","purple","red","blue","green","grey"],"door_color_assignment":["white","black"],"door_generator_assignment":[1,0],"goal":1,"start":3,"action_noise":0,"location_history":"[3,2,1]","action_history":"[1,0]","door_history":"[0,1]","location_rts":"[3905,417]","trial_type":"two-door-navigation","trial_index":31,"time_elapsed":325413,"internal_node_id":"0.0-2.0-29.0"},{"group":"hexagon_bi","room_assignment":["yellow","purple","red","blue","green","grey"],"door_color_assignment":["white","black"],"door_generator_assignment":[1,0],"goal":4,"start":1,"action_noise":0,"location_history":"[1,0,5,4]","action_history":"[1,0,1]","door_history":"[0,1,0]","location_rts":"[3301,478,647]","trial_type":"two-door-navigation","trial_index":32,"time_elapsed":336911,"internal_node_id":"0.0-2.0-30.0"},{"group":"hexagon_bi","room_assignment":["yellow","purple","red","blue","green","grey"],"door_color_assignment":["white","black"],"door_generator_assignment":[1,0],"goal":5,"start":4,"action_noise":0,"location_history":"[4,3,2,1,0,5]","action_history":"[0,1,0,1,0]","door_history":"[1,0,1,0,1]","location_rts":"[2933,992,559,657,230]","trial_type":"two-door-navigation","trial_index":33,"time_elapsed":351426,"internal_node_id":"0.0-2.0-31.0"},{"group":"hexagon_bi","room_assignment":["yellow","purple","red","blue","green","grey"],"door_color_assignment":["white","black"],"door_generator_assignment":[1,0],"goal":0,"start":5,"action_noise":0,"location_history":"[5,4,3,2,1,0]","action_history":"[1,0,1,0,1]","door_history":"[0,1,0,1,0]","location_rts":"[1649,498,596,398,709]","trial_type":"two-door-navigation","trial_index":34,"time_elapsed":364386,"internal_node_id":"0.0-2.0-32.0"},{"group":"hexagon_bi","room_assignment":["yellow","purple","red","blue","green","grey"],"door_color_assignment":["white","black"],"door_generator_assignment":[1,0],"goal":2,"start":0,"action_noise":0,"location_history":"[0,1,2]","action_history":"[1,0]","door_history":"[0,1]","location_rts":"[2769,692]","trial_type":"two-door-navigation","trial_index":35,"time_elapsed":373897,"internal_node_id":"0.0-2.0-33.0"},{"group":"hexagon_bi","room_assignment":["yellow","purple","red","blue","green","grey"],"door_color_assignment":["white","black"],"door_generator_assignment":[1,0],"goal":0,"start":2,"action_noise":0,"location_history":"[2,1,0]","action_history":"[0,1]","door_history":"[1,0]","location_rts":"[2930,509]","trial_type":"two-door-navigation","trial_index":36,"time_elapsed":383385,"internal_node_id":"0.0-2.0-34.0"},{"group":"hexagon_bi","room_assignment":["yellow","purple","red","blue","green","grey"],"door_color_assignment":["white","black"],"door_generator_assignment":[1,0],"goal":5,"start":0,"action_noise":0,"location_history":"[0,1,2,3,4,5]","action_history":"[1,0,1,0,1]","door_history":"[0,1,0,1,0]","location_rts":"[2732,781,370,544,564]","trial_type":"two-door-navigation","trial_index":37,"time_elapsed":397498,"internal_node_id":"0.0-2.0-35.0"},{"group":"hexagon_bi","room_assignment":["yellow","purple","red","blue","green","grey"],"door_color_assignment":["white","black"],"door_generator_assignment":[1,0],"goal":1,"start":5,"action_noise":0,"location_history":"[5,0,1]","action_history":"[0,1]","door_history":"[1,0]","location_rts":"[1906,261]","trial_type":"two-door-navigation","trial_index":38,"time_elapsed":405724,"internal_node_id":"0.0-2.0-36.0"},{"group":"hexagon_bi","room_assignment":["yellow","purple","red","blue","green","grey"],"door_color_assignment":["white","black"],"door_generator_assignment":[1,0],"goal":4,"start":1,"action_noise":0,"location_history":"[1,2,3,4]","action_history":"[0,1,0]","door_history":"[1,0,1]","location_rts":"[1600,650,359]","trial_type":"two-door-navigation","trial_index":39,"time_elapsed":415401,"internal_node_id":"0.0-2.0-37.0"},{"group":"hexagon_bi","room_assignment":["yellow","purple","red","blue","green","grey"],"door_color_assignment":["white","black"],"door_generator_assignment":[1,0],"goal":3,"start":4,"action_noise":0,"location_history":"[4,5,0,1,2,3]","action_history":"[1,0,1,0,1]","door_history":"[0,1,0,1,0]","location_rts":"[2625,652,739,680,992]","trial_type":"two-door-navigation","trial_index":40,"time_elapsed":430214,"internal_node_id":"0.0-2.0-38.0"},{"group":"hexagon_bi","room_assignment":["yellow","purple","red","blue","green","grey"],"door_color_assignment":["white","black"],"door_generator_assignment":[1,0],"goal":5,"start":3,"action_noise":0,"location_history":"[3,4,5]","action_history":"[0,1]","door_history":"[1,0]","location_rts":"[4878,335]","trial_type":"two-door-navigation","trial_index":41,"time_elapsed":441478,"internal_node_id":"0.0-2.0-39.0"},{"group":"hexagon_bi","room_assignment":["yellow","purple","red","blue","green","grey"],"door_color_assignment":["white","black"],"door_generator_assignment":[1,0],"goal":1,"start":5,"action_noise":0,"location_history":"[5,0,1]","action_history":"[0,1]","door_history":"[1,0]","location_rts":"[2635,318]","trial_type":"two-door-navigation","trial_index":42,"time_elapsed":450480,"internal_node_id":"0.0-2.0-40.0"},{"group":"hexagon_bi","room_assignment":["yellow","purple","red","blue","green","grey"],"door_color_assignment":["white","black"],"door_generator_assignment":[1,0],"goal":2,"start":1,"action_noise":0,"location_history":"[1,2]","action_history":"[0]","door_history":"[1]","location_rts":"[2019]","trial_type":"two-door-navigation","trial_index":43,"time_elapsed":457533,"internal_node_id":"0.0-2.0-41.0"},{"group":"hexagon_bi","room_assignment":["yellow","purple","red","blue","green","grey"],"door_color_assignment":["white","black"],"door_generator_assignment":[1,0],"goal":4,"start":2,"action_noise":0,"location_history":"[2,3,4]","action_history":"[1,0]","door_history":"[0,1]","location_rts":"[4511,592]","trial_type":"two-door-navigation","trial_index":44,"time_elapsed":468682,"internal_node_id":"0.0-2.0-42.0"},{"group":"hexagon_bi","room_assignment":["yellow","purple","red","blue","green","grey"],"door_color_assignment":["white","black"],"door_generator_assignment":[1,0],"goal":0,"start":4,"action_noise":0,"location_history":"[4,5,0]","action_history":"[1,0]","door_history":"[0,1]","location_rts":"[3449,426]","trial_type":"two-door-navigation","trial_index":45,"time_elapsed":478607,"internal_node_id":"0.0-2.0-43.0"},{"group":"hexagon_bi","room_assignment":["yellow","purple","red","blue","green","grey"],"door_color_assignment":["white","black"],"door_generator_assignment":[1,0],"goal":3,"start":0,"action_noise":0,"location_history":"[0,5,4,3]","action_history":"[0,1,0]","door_history":"[1,0,1]","location_rts":"[1867,551,447]","trial_type":"two-door-navigation","trial_index":46,"time_elapsed":488540,"internal_node_id":"0.0-2.0-44.0"},{"group":"hexagon_bi","room_assignment":["yellow","purple","red","blue","green","grey"],"door_color_assignment":["white","black"],"door_generator_assignment":[1,0],"goal":0,"start":3,"action_noise":0,"location_history":"[3,2,1,0]","action_history":"[1,0,1]","door_history":"[0,1,0]","location_rts":"[2015,329,647]","trial_type":"two-door-navigation","trial_index":47,"time_elapsed":498604,"internal_node_id":"0.0-2.0-45.0"},{"group":"hexagon_bi","room_assignment":["yellow","purple","red","blue","green","grey"],"door_color_assignment":["white","black"],"door_generator_assignment":[1,0],"goal":4,"start":0,"action_noise":0,"location_history":"[0,5,4]","action_history":"[0,1]","door_history":"[1,0]","location_rts":"[1798,338]","trial_type":"two-door-navigation","trial_index":48,"time_elapsed":506791,"internal_node_id":"0.0-2.0-46.0"},{"group":"hexagon_bi","room_assignment":["yellow","purple","red","blue","green","grey"],"door_color_assignment":["white","black"],"door_generator_assignment":[1,0],"goal":5,"start":4,"action_noise":0,"location_history":"[4,3,2,1,0,5]","action_history":"[0,1,0,1,0]","door_history":"[1,0,1,0,1]","location_rts":"[2372,544,545,933,557]","trial_type":"two-door-navigation","trial_index":49,"time_elapsed":520861,"internal_node_id":"0.0-2.0-47.0"},{"group":"hexagon_bi","room_assignment":["yellow","purple","red","blue","green","grey"],"door_color_assignment":["white","black"],"door_generator_assignment":[1,0],"goal":2,"start":5,"action_noise":0,"location_history":"[5,0,1,2]","action_history":"[0,1,0]","door_history":"[1,0,1]","location_rts":"[2621,423,393]","trial_type":"two-door-navigation","trial_index":50,"time_elapsed":531373,"internal_node_id":"0.0-2.0-48.0"},{"group":"hexagon_bi","room_assignment":["yellow","purple","red","blue","green","grey"],"door_color_assignment":["white","black"],"door_generator_assignment":[1,0],"goal":1,"start":2,"action_noise":0,"location_history":"[2,1]","action_history":"[0]","door_history":"[1]","location_rts":"[2471]","trial_type":"two-door-navigation","trial_index":51,"time_elapsed":538875,"internal_node_id":"0.0-2.0-49.0"},{"view_history":"[{\"page_index\":0,\"viewing_time\":2040}]","rt":2040,"trial_type":"instructions","trial_index":52,"time_elapsed":541916,"internal_node_id":"0.0-3.0"},{"view_history":"[{\"page_index\":0,\"viewing_time\":3198},{\"page_index\":1,\"viewing_time\":4512}]","rt":7711,"trial_type":"instructions","trial_index":53,"time_elapsed":550628,"internal_node_id":"0.0-4.0"},{"group":"hexagon_bi","fractal_assignment":["../images/blu_wht.png","../images/org_blu.png","../images/pnk_blu.png","../images/ylw_slt.png","../images/cyn_red.png","../images/gry_blk.png"],"mutagen_generator_assignment":[1,0],"goal":2,"start":1,"action_noise":0,"location_history":"[1,2]","action_history":"[0]","mutagen_history":"[1]","location_rts":"[4137]","trial_type":"fractal-mutation","trial_index":54,"time_elapsed":559838,"internal_node_id":"0.0-5.0-0.0"},{"group":"hexagon_bi","fractal_assignment":["../images/blu_wht.png","../images/org_blu.png","../images/pnk_blu.png","../images/ylw_slt.png","../images/cyn_red.png","../images/gry_blk.png"],"mutagen_generator_assignment":[1,0],"goal":0,"start":2,"action_noise":0,"location_history":"[2,3,4,5,0]","action_history":"[1,0,1,0]","mutagen_history":"[0,1,0,1]","location_rts":"[1695,737,703,554]","trial_type":"fractal-mutation","trial_index":55,"time_elapsed":571745,"internal_node_id":"0.0-5.0-1.0"},{"group":"hexagon_bi","fractal_assignment":["../images/blu_wht.png","../images/org_blu.png","../images/pnk_blu.png","../images/ylw_slt.png","../images/cyn_red.png","../images/gry_blk.png"],"mutagen_generator_assignment":[1,0],"goal":5,"start":0,"action_noise":0,"location_history":"[0,1,2,3,4,5]","action_history":"[1,0,1,0,1]","mutagen_history":"[0,1,0,1,0]","location_rts":"[1562,518,653,492,510]","trial_type":"fractal-mutation","trial_index":56,"time_elapsed":584758,"internal_node_id":"0.0-5.0-2.0"},{"group":"hexagon_bi","fractal_assignment":["../images/blu_wht.png","../images/org_blu.png","../images/pnk_blu.png","../images/ylw_slt.png","../images/cyn_red.png","../images/gry_blk.png"],"mutagen_generator_assignment":[1,0],"goal":1,"start":5,"action_noise":0,"location_history":"[5,0,1]","action_history":"[0,1]","mutagen_history":"[1,0]","location_rts":"[1033,820]","trial_type":"fractal-mutation","trial_index":57,"time_elapsed":592714,"internal_node_id":"0.0-5.0-3.0"},{"group":"hexagon_bi","fractal_assignment":["../images/blu_wht.png","../images/org_blu.png","../images/pnk_blu.png","../images/ylw_slt.png","../images/cyn_red.png","../images/gry_blk.png"],"mutagen_generator_assignment":[1,0],"goal":3,"start":1,"action_noise":0,"location_history":"[1,2,3]","action_history":"[0,1]","mutagen_history":"[1,0]","location_rts":"[1272,469]","trial_type":"fractal-mutation","trial_index":58,"time_elapsed":600546,"internal_node_id":"0.0-5.0-4.0"},{"group":"hexagon_bi","fractal_assignment":["../images/blu_wht.png","../images/org_blu.png","../images/pnk_blu.png","../images/ylw_slt.png","../images/cyn_red.png","../images/gry_blk.png"],"mutagen_generator_assignment":[1,0],"goal":5,"start":3,"action_noise":0,"location_history":"[3,2,1,0,5]","action_history":"[1,0,1,0]","mutagen_history":"[0,1,0,1]","location_rts":"[1302,450,546,478]","trial_type":"fractal-mutation","trial_index":59,"time_elapsed":611521,"internal_node_id":"0.0-5.0-5.0"},{"group":"hexagon_bi","fractal_assignment":["../images/blu_wht.png","../images/org_blu.png","../images/pnk_blu.png","../images/ylw_slt.png","../images/cyn_red.png","../images/gry_blk.png"],"mutagen_generator_assignment":[1,0],"goal":4,"start":5,"action_noise":0,"location_history":"[5,4]","action_history":"[1]","mutagen_history":"[0]","location_rts":"[1206]","trial_type":"fractal-mutation","trial_index":60,"time_elapsed":617770,"internal_node_id":"0.0-5.0-6.0"},{"group":"hexagon_bi","fractal_assignment":["../images/blu_wht.png","../images/org_blu.png","../images/pnk_blu.png","../images/ylw_slt.png","../images/cyn_red.png","../images/gry_blk.png"],"mutagen_generator_assignment":[1,0],"goal":0,"start":4,"action_noise":0,"location_history":"[4,3,2,1,0]","action_history":"[0,1,0,1]","mutagen_history":"[1,0,1,0]","location_rts":"[933,437,587,388]","trial_type":"fractal-mutation","trial_index":61,"time_elapsed":628298,"internal_node_id":"0.0-5.0-7.0"},{"group":"hexagon_bi","fractal_assignment":["../images/blu_wht.png","../images/org_blu.png","../images/pnk_blu.png","../images/ylw_slt.png","../images/cyn_red.png","../images/gry_blk.png"],"mutagen_generator_assignment":[1,0],"goal":2,"start":0,"action_noise":0,"location_history":"[0,5,4,3,2]","action_history":"[0,1,0,1]","mutagen_history":"[1,0,1,0]","location_rts":"[1085,419,421,684]","trial_type":"fractal-mutation","trial_index":62,"time_elapsed":639080,"internal_node_id":"0.0-5.0-8.0"},{"group":"hexagon_bi","fractal_assignment":["../images/blu_wht.png","../images/org_blu.png","../images/pnk_blu.png","../images/ylw_slt.png","../images/cyn_red.png","../images/gry_blk.png"],"mutagen_generator_assignment":[1,0],"goal":4,"start":2,"action_noise":0,"location_history":"[2,1,0,5,4]","action_history":"[0,1,0,1]","mutagen_history":"[1,0,1,0]","location_rts":"[3335,551,544,448]","trial_type":"fractal-mutation","trial_index":63,"time_elapsed":652131,"internal_node_id":"0.0-5.0-9.0"},{"group":"hexagon_bi","fractal_assignment":["../images/blu_wht.png","../images/org_blu.png","../images/pnk_blu.png","../images/ylw_slt.png","../images/cyn_red.png","../images/gry_blk.png"],"mutagen_generator_assignment":[1,0],"goal":2,"start":4,"action_noise":0,"location_history":"[4,3,2]","action_history":"[0,1]","mutagen_history":"[1,0]","location_rts":"[1231,324]","trial_type":"fractal-mutation","trial_index":64,"time_elapsed":659771,"internal_node_id":"0.0-5.0-10.0"},{"group":"hexagon_bi","fractal_assignment":["../images/blu_wht.png","../images/org_blu.png","../images/pnk_blu.png","../images/ylw_slt.png","../images/cyn_red.png","../images/gry_blk.png"],"mutagen_generator_assignment":[1,0],"goal":3,"start":2,"action_noise":0,"location_history":"[2,3]","action_history":"[1]","mutagen_history":"[0]","location_rts":"[1849]","trial_type":"fractal-mutation","trial_index":65,"time_elapsed":666666,"internal_node_id":"0.0-5.0-11.0"},{"group":"hexagon_bi","fractal_assignment":["../images/blu_wht.png","../images/org_blu.png","../images/pnk_blu.png","../images/ylw_slt.png","../images/cyn_red.png","../images/gry_blk.png"],"mutagen_generator_assignment":[1,0],"goal":0,"start":3,"action_noise":0,"location_history":"[3,4,5,0]","action_history":"[0,1,0]","mutagen_history":"[1,0,1]","location_rts":"[1062,490,588]","trial_type":"fractal-mutation","trial_index":66,"time_elapsed":675948,"internal_node_id":"0.0-5.0-12.0"},{"group":"hexagon_bi","fractal_assignment":["../images/blu_wht.png","../images/org_blu.png","../images/pnk_blu.png","../images/ylw_slt.png","../images/cyn_red.png","../images/gry_blk.png"],"mutagen_generator_assignment":[1,0],"goal":5,"start":0,"action_noise":0,"location_history":"[0,1,2,3,4,5]","action_history":"[1,0,1,0,1]","mutagen_history":"[0,1,0,1,0]","location_rts":"[1309,442,681,548,1264]","trial_type":"fractal-mutation","trial_index":67,"time_elapsed":689398,"internal_node_id":"0.0-5.0-13.0"},{"group":"hexagon_bi","fractal_assignment":["../images/blu_wht.png","../images/org_blu.png","../images/pnk_blu.png","../images/ylw_slt.png","../images/cyn_red.png","../images/gry_blk.png"],"mutagen_generator_assignment":[1,0],"goal":1,"start":5,"action_noise":0,"location_history":"[5,0,1]","action_history":"[0,1]","mutagen_history":"[1,0]","location_rts":"[4113,328]","trial_type":"fractal-mutation","trial_index":68,"time_elapsed":699928,"internal_node_id":"0.0-5.0-14.0"},{"group":"hexagon_bi","fractal_assignment":["../images/blu_wht.png","../images/org_blu.png","../images/pnk_blu.png","../images/ylw_slt.png","../images/cyn_red.png","../images/gry_blk.png"],"mutagen_generator_assignment":[1,0],"goal":5,"start":1,"action_noise":0,"location_history":"[1,0,5]","action_history":"[1,0]","mutagen_history":"[0,1]","location_rts":"[1107,585]","trial_type":"fractal-mutation","trial_index":69,"time_elapsed":707717,"internal_node_id":"0.0-5.0-15.0"},{"group":"hexagon_bi","fractal_assignment":["../images/blu_wht.png","../images/org_blu.png","../images/pnk_blu.png","../images/ylw_slt.png","../images/cyn_red.png","../images/gry_blk.png"],"mutagen_generator_assignment":[1,0],"goal":3,"start":5,"action_noise":0,"location_history":"[5,0,1,2,3]","action_history":"[0,1,0,1]","mutagen_history":"[1,0,1,0]","location_rts":"[1021,435,397,627]","trial_type":"fractal-mutation","trial_index":70,"time_elapsed":718379,"internal_node_id":"0.0-5.0-16.0"},{"group":"hexagon_bi","fractal_assignment":["../images/blu_wht.png","../images/org_blu.png","../images/pnk_blu.png","../images/ylw_slt.png","../images/cyn_red.png","../images/gry_blk.png"],"mutagen_generator_assignment":[1,0],"goal":2,"start":3,"action_noise":0,"location_history":"[3,2]","action_history":"[1]","mutagen_history":"[0]","location_rts":"[1405]","trial_type":"fractal-mutation","trial_index":71,"time_elapsed":724826,"internal_node_id":"0.0-5.0-17.0"},{"group":"hexagon_bi","fractal_assignment":["../images/blu_wht.png","../images/org_blu.png","../images/pnk_blu.png","../images/ylw_slt.png","../images/cyn_red.png","../images/gry_blk.png"],"mutagen_generator_assignment":[1,0],"goal":1,"start":2,"action_noise":0,"location_history":"[2,1]","action_history":"[0]","mutagen_history":"[1]","location_rts":"[1333]","trial_type":"fractal-mutation","trial_index":72,"time_elapsed":731212,"internal_node_id":"0.0-5.0-18.0"},{"group":"hexagon_bi","fractal_assignment":["../images/blu_wht.png","../images/org_blu.png","../images/pnk_blu.png","../images/ylw_slt.png","../images/cyn_red.png","../images/gry_blk.png"],"mutagen_generator_assignment":[1,0],"goal":4,"start":1,"action_noise":0,"location_history":"[1,0,5,4]","action_history":"[1,0,1]","mutagen_history":"[0,1,0]","location_rts":"[1089,427,428]","trial_type":"fractal-mutation","trial_index":73,"time_elapsed":740289,"internal_node_id":"0.0-5.0-19.0"},{"group":"hexagon_bi","fractal_assignment":["../images/blu_wht.png","../images/org_blu.png","../images/pnk_blu.png","../images/ylw_slt.png","../images/cyn_red.png","../images/gry_blk.png"],"mutagen_generator_assignment":[1,0],"goal":0,"start":4,"action_noise":0,"location_history":"[4,3,2,1,0]","action_history":"[0,1,0,1]","mutagen_history":"[1,0,1,0]","location_rts":"[1125,463,461,385]","trial_type":"fractal-mutation","trial_index":74,"time_elapsed":750919,"internal_node_id":"0.0-5.0-20.0"},{"group":"hexagon_bi","fractal_assignment":["../images/blu_wht.png","../images/org_blu.png","../images/pnk_blu.png","../images/ylw_slt.png","../images/cyn_red.png","../images/gry_blk.png"],"mutagen_generator_assignment":[1,0],"goal":3,"start":0,"action_noise":0,"location_history":"[0,5,4,3]","action_history":"[0,1,0]","mutagen_history":"[1,0,1]","location_rts":"[2679,439,355]","trial_type":"fractal-mutation","trial_index":75,"time_elapsed":761539,"internal_node_id":"0.0-5.0-21.0"},{"group":"hexagon_bi","fractal_assignment":["../images/blu_wht.png","../images/org_blu.png","../images/pnk_blu.png","../images/ylw_slt.png","../images/cyn_red.png","../images/gry_blk.png"],"mutagen_generator_assignment":[1,0],"goal":1,"start":3,"action_noise":0,"location_history":"[3,2,1]","action_history":"[1,0]","mutagen_history":"[0,1]","location_rts":"[1478,445]","trial_type":"fractal-mutation","trial_index":76,"time_elapsed":769555,"internal_node_id":"0.0-5.0-22.0"},{"group":"hexagon_bi","fractal_assignment":["../images/blu_wht.png","../images/org_blu.png","../images/pnk_blu.png","../images/ylw_slt.png","../images/cyn_red.png","../images/gry_blk.png"],"mutagen_generator_assignment":[1,0],"goal":0,"start":1,"action_noise":0,"location_history":"[1,0]","action_history":"[1]","mutagen_history":"[0]","location_rts":"[1852]","trial_type":"fractal-mutation","trial_index":77,"time_elapsed":776452,"internal_node_id":"0.0-5.0-23.0"},{"group":"hexagon_bi","fractal_assignment":["../images/blu_wht.png","../images/org_blu.png","../images/pnk_blu.png","../images/ylw_slt.png","../images/cyn_red.png","../images/gry_blk.png"],"mutagen_generator_assignment":[1,0],"goal":2,"start":0,"action_noise":0,"location_history":"[0,5,4,3,2]","action_history":"[0,1,0,1]","mutagen_history":"[1,0,1,0]","location_rts":"[978,397,420,370]","trial_type":"fractal-mutation","trial_index":78,"time_elapsed":786792,"internal_node_id":"0.0-5.0-24.0"},{"group":"hexagon_bi","fractal_assignment":["../images/blu_wht.png","../images/org_blu.png","../images/pnk_blu.png","../images/ylw_slt.png","../images/cyn_red.png","../images/gry_blk.png"],"mutagen_generator_assignment":[1,0],"goal":4,"start":2,"action_noise":0,"location_history":"[2,1,0,5,4]","action_history":"[0,1,0,1]","mutagen_history":"[1,0,1,0]","location_rts":"[1356,599,950,528]","trial_type":"fractal-mutation","trial_index":79,"time_elapsed":798495,"internal_node_id":"0.0-5.0-25.0"},{"group":"hexagon_bi","fractal_assignment":["../images/blu_wht.png","../images/org_blu.png","../images/pnk_blu.png","../images/ylw_slt.png","../images/cyn_red.png","../images/gry_blk.png"],"mutagen_generator_assignment":[1,0],"goal":5,"start":4,"action_noise":0,"location_history":"[4,3,2,1,2,3,4,5]","action_history":"[0,1,0,0,1,0,1]","mutagen_history":"[1,0,1,1,0,1,0]","location_rts":"[4370,2628,355,395,439,459,468]","trial_type":"fractal-mutation","trial_index":80,"time_elapsed":818920,"internal_node_id":"0.0-5.0-26.0"},{"group":"hexagon_bi","fractal_assignment":["../images/blu_wht.png","../images/org_blu.png","../images/pnk_blu.png","../images/ylw_slt.png","../images/cyn_red.png","../images/gry_blk.png"],"mutagen_generator_assignment":[1,0],"goal":2,"start":5,"action_noise":0,"location_history":"[5,0,1,2]","action_history":"[0,1,0]","mutagen_history":"[1,0,1]","location_rts":"[1400,567,426]","trial_type":"fractal-mutation","trial_index":81,"time_elapsed":828464,"internal_node_id":"0.0-5.0-27.0"},{"group":"hexagon_bi","fractal_assignment":["../images/blu_wht.png","../images/org_blu.png","../images/pnk_blu.png","../images/ylw_slt.png","../images/cyn_red.png","../images/gry_blk.png"],"mutagen_generator_assignment":[1,0],"goal":3,"start":2,"action_noise":0,"location_history":"[2,3]","action_history":"[1]","mutagen_history":"[0]","location_rts":"[1489]","trial_type":"fractal-mutation","trial_index":82,"time_elapsed":834997,"internal_node_id":"0.0-5.0-28.0"},{"group":"hexagon_bi","fractal_assignment":["../images/blu_wht.png","../images/org_blu.png","../images/pnk_blu.png","../images/ylw_slt.png","../images/cyn_red.png","../images/gry_blk.png"],"mutagen_generator_assignment":[1,0],"goal":1,"start":3,"action_noise":0,"location_history":"[3,4,5,0,1]","action_history":"[0,1,0,1]","mutagen_history":"[1,0,1,0]","location_rts":"[1239,681,576,335]","trial_type":"fractal-mutation","trial_index":83,"time_elapsed":846002,"internal_node_id":"0.0-5.0-29.0"},{"group":"hexagon_bi","fractal_assignment":["../images/blu_wht.png","../images/org_blu.png","../images/pnk_blu.png","../images/ylw_slt.png","../images/cyn_red.png","../images/gry_blk.png"],"mutagen_generator_assignment":[1,0],"goal":4,"start":1,"action_noise":0,"location_history":"[1,2,3,4]","action_history":"[0,1,0]","mutagen_history":"[1,0,1]","location_rts":"[1341,477,406]","trial_type":"fractal-mutation","trial_index":84,"time_elapsed":855380,"internal_node_id":"0.0-5.0-30.0"},{"group":"hexagon_bi","fractal_assignment":["../images/blu_wht.png","../images/org_blu.png","../images/pnk_blu.png","../images/ylw_slt.png","../images/cyn_red.png","../images/gry_blk.png"],"mutagen_generator_assignment":[1,0],"goal":5,"start":4,"action_noise":0,"location_history":"[4,5]","action_history":"[1]","mutagen_history":"[0]","location_rts":"[1251]","trial_type":"fractal-mutation","trial_index":85,"time_elapsed":861676,"internal_node_id":"0.0-5.0-31.0"},{"group":"hexagon_bi","fractal_assignment":["../images/blu_wht.png","../images/org_blu.png","../images/pnk_blu.png","../images/ylw_slt.png","../images/cyn_red.png","../images/gry_blk.png"],"mutagen_generator_assignment":[1,0],"goal":0,"start":5,"action_noise":0,"location_history":"[5,4,3,2,1,0]","action_history":"[1,0,1,0,1]","mutagen_history":"[0,1,0,1,0]","location_rts":"[1843,517,1642,597,3417]","trial_type":"fractal-mutation","trial_index":86,"time_elapsed":878896,"internal_node_id":"0.0-5.0-32.0"},{"group":"hexagon_bi","fractal_assignment":["../images/blu_wht.png","../images/org_blu.png","../images/pnk_blu.png","../images/ylw_slt.png","../images/cyn_red.png","../images/gry_blk.png"],"mutagen_generator_assignment":[1,0],"goal":2,"start":0,"action_noise":0,"location_history":"[0,5,4,3,2]","action_history":"[0,1,0,1]","mutagen_history":"[1,0,1,0]","location_rts":"[1881,396,501,677]","trial_type":"fractal-mutation","trial_index":87,"time_elapsed":890542,"internal_node_id":"0.0-5.0-33.0"},{"group":"hexagon_bi","fractal_assignment":["../images/blu_wht.png","../images/org_blu.png","../images/pnk_blu.png","../images/ylw_slt.png","../images/cyn_red.png","../images/gry_blk.png"],"mutagen_generator_assignment":[1,0],"goal":0,"start":2,"action_noise":0,"location_history":"[2,3,4,5,0]","action_history":"[1,0,1,0]","mutagen_history":"[0,1,0,1]","location_rts":"[1336,804,691,374]","trial_type":"fractal-mutation","trial_index":88,"time_elapsed":901937,"internal_node_id":"0.0-5.0-34.0"},{"group":"hexagon_bi","fractal_assignment":["../images/blu_wht.png","../images/org_blu.png","../images/pnk_blu.png","../images/ylw_slt.png","../images/cyn_red.png","../images/gry_blk.png"],"mutagen_generator_assignment":[1,0],"goal":5,"start":0,"action_noise":0,"location_history":"[0,5]","action_history":"[0]","mutagen_history":"[1]","location_rts":"[1855]","trial_type":"fractal-mutation","trial_index":89,"time_elapsed":908844,"internal_node_id":"0.0-5.0-35.0"},{"group":"hexagon_bi","fractal_assignment":["../images/blu_wht.png","../images/org_blu.png","../images/pnk_blu.png","../images/ylw_slt.png","../images/cyn_red.png","../images/gry_blk.png"],"mutagen_generator_assignment":[1,0],"goal":1,"start":5,"action_noise":0,"location_history":"[5,0,1]","action_history":"[0,1]","mutagen_history":"[1,0]","location_rts":"[1362,456]","trial_type":"fractal-mutation","trial_index":90,"time_elapsed":916757,"internal_node_id":"0.0-5.0-36.0"},{"group":"hexagon_bi","fractal_assignment":["../images/blu_wht.png","../images/org_blu.png","../images/pnk_blu.png","../images/ylw_slt.png","../images/cyn_red.png","../images/gry_blk.png"],"mutagen_generator_assignment":[1,0],"goal":4,"start":1,"action_noise":0,"location_history":"[1,0,5,4]","action_history":"[1,0,1]","mutagen_history":"[0,1,0]","location_rts":"[1994,489,439]","trial_type":"fractal-mutation","trial_index":91,"time_elapsed":926799,"internal_node_id":"0.0-5.0-37.0"},{"group":"hexagon_bi","fractal_assignment":["../images/blu_wht.png","../images/org_blu.png","../images/pnk_blu.png","../images/ylw_slt.png","../images/cyn_red.png","../images/gry_blk.png"],"mutagen_generator_assignment":[1,0],"goal":3,"start":4,"action_noise":0,"location_history":"[4,3]","action_history":"[0]","mutagen_history":"[1]","location_rts":"[1168]","trial_type":"fractal-mutation","trial_index":92,"time_elapsed":933022,"internal_node_id":"0.0-5.0-38.0"},{"group":"hexagon_bi","fractal_assignment":["../images/blu_wht.png","../images/org_blu.png","../images/pnk_blu.png","../images/ylw_slt.png","../images/cyn_red.png","../images/gry_blk.png"],"mutagen_generator_assignment":[1,0],"goal":5,"start":3,"action_noise":0,"location_history":"[3,4,5]","action_history":"[0,1]","mutagen_history":"[1,0]","location_rts":"[2644,294]","trial_type":"fractal-mutation","trial_index":93,"time_elapsed":942052,"internal_node_id":"0.0-5.0-39.0"},{"group":"hexagon_bi","fractal_assignment":["../images/blu_wht.png","../images/org_blu.png","../images/pnk_blu.png","../images/ylw_slt.png","../images/cyn_red.png","../images/gry_blk.png"],"mutagen_generator_assignment":[1,0],"goal":1,"start":5,"action_noise":0,"location_history":"[5,0,1]","action_history":"[0,1]","mutagen_history":"[1,0]","location_rts":"[963,407]","trial_type":"fractal-mutation","trial_index":94,"time_elapsed":949509,"internal_node_id":"0.0-5.0-40.0"},{"group":"hexagon_bi","fractal_assignment":["../images/blu_wht.png","../images/org_blu.png","../images/pnk_blu.png","../images/ylw_slt.png","../images/cyn_red.png","../images/gry_blk.png"],"mutagen_generator_assignment":[1,0],"goal":2,"start":1,"action_noise":0,"location_history":"[1,2]","action_history":"[0]","mutagen_history":"[1]","location_rts":"[1151]","trial_type":"fractal-mutation","trial_index":95,"time_elapsed":955720,"internal_node_id":"0.0-5.0-41.0"},{"group":"hexagon_bi","fractal_assignment":["../images/blu_wht.png","../images/org_blu.png","../images/pnk_blu.png","../images/ylw_slt.png","../images/cyn_red.png","../images/gry_blk.png"],"mutagen_generator_assignment":[1,0],"goal":4,"start":2,"action_noise":0,"location_history":"[2,3,4]","action_history":"[1,0]","mutagen_history":"[0,1]","location_rts":"[1012,529]","trial_type":"fractal-mutation","trial_index":96,"time_elapsed":963363,"internal_node_id":"0.0-5.0-42.0"},{"group":"hexagon_bi","fractal_assignment":["../images/blu_wht.png","../images/org_blu.png","../images/pnk_blu.png","../images/ylw_slt.png","../images/cyn_red.png","../images/gry_blk.png"],"mutagen_generator_assignment":[1,0],"goal":0,"start":4,"action_noise":0,"location_history":"[4,5,0]","action_history":"[1,0]","mutagen_history":"[0,1]","location_rts":"[1729,453]","trial_type":"fractal-mutation","trial_index":97,"time_elapsed":971644,"internal_node_id":"0.0-5.0-43.0"},{"group":"hexagon_bi","fractal_assignment":["../images/blu_wht.png","../images/org_blu.png","../images/pnk_blu.png","../images/ylw_slt.png","../images/cyn_red.png","../images/gry_blk.png"],"mutagen_generator_assignment":[1,0],"goal":3,"start":0,"action_noise":0,"location_history":"[0,1,2,3]","action_history":"[1,0,1]","mutagen_history":"[0,1,0]","location_rts":"[1829,413,559]","trial_type":"fractal-mutation","trial_index":98,"time_elapsed":981574,"internal_node_id":"0.0-5.0-44.0"},{"group":"hexagon_bi","fractal_assignment":["../images/blu_wht.png","../images/org_blu.png","../images/pnk_blu.png","../images/ylw_slt.png","../images/cyn_red.png","../images/gry_blk.png"],"mutagen_generator_assignment":[1,0],"goal":0,"start":3,"action_noise":0,"location_history":"[3,2,1,0]","action_history":"[1,0,1]","mutagen_history":"[0,1,0]","location_rts":"[1656,492,344]","trial_type":"fractal-mutation","trial_index":99,"time_elapsed":991200,"internal_node_id":"0.0-5.0-45.0"},{"group":"hexagon_bi","fractal_assignment":["../images/blu_wht.png","../images/org_blu.png","../images/pnk_blu.png","../images/ylw_slt.png","../images/cyn_red.png","../images/gry_blk.png"],"mutagen_generator_assignment":[1,0],"goal":4,"start":0,"action_noise":0,"location_history":"[0,5,4]","action_history":"[0,1]","mutagen_history":"[1,0]","location_rts":"[1429,362]","trial_type":"fractal-mutation","trial_index":100,"time_elapsed":999082,"internal_node_id":"0.0-5.0-46.0"},{"group":"hexagon_bi","fractal_assignment":["../images/blu_wht.png","../images/org_blu.png","../images/pnk_blu.png","../images/ylw_slt.png","../images/cyn_red.png","../images/gry_blk.png"],"mutagen_generator_assignment":[1,0],"goal":5,"start":4,"action_noise":0,"location_history":"[4,3,4,5]","action_history":"[0,0,1]","mutagen_history":"[1,1,0]","location_rts":"[1516,2201,307]","trial_type":"fractal-mutation","trial_index":101,"time_elapsed":1010253,"internal_node_id":"0.0-5.0-47.0"},{"group":"hexagon_bi","fractal_assignment":["../images/blu_wht.png","../images/org_blu.png","../images/pnk_blu.png","../images/ylw_slt.png","../images/cyn_red.png","../images/gry_blk.png"],"mutagen_generator_assignment":[1,0],"goal":2,"start":5,"action_noise":0,"location_history":"[5,0,1,2]","action_history":"[0,1,0]","mutagen_history":"[1,0,1]","location_rts":"[3511,684,789]","trial_type":"fractal-mutation","trial_index":102,"time_elapsed":1022385,"internal_node_id":"0.0-5.0-48.0"},{"group":"hexagon_bi","fractal_assignment":["../images/blu_wht.png","../images/org_blu.png","../images/pnk_blu.png","../images/ylw_slt.png","../images/cyn_red.png","../images/gry_blk.png"],"mutagen_generator_assignment":[1,0],"goal":1,"start":2,"action_noise":0,"location_history":"[2,1]","action_history":"[0]","mutagen_history":"[1]","location_rts":"[1358]","trial_type":"fractal-mutation","trial_index":103,"time_elapsed":1028794,"internal_node_id":"0.0-5.0-49.0"},{"view_history":"[{\"page_index\":0,\"viewing_time\":2292}]","rt":2292,"trial_type":"instructions","trial_index":104,"time_elapsed":1032087,"internal_node_id":"0.0-6.0"},{"rt":10475,"responses":"{\"Q0\":\"How fast a person learns.\"}","trial_type":"survey-text","trial_index":105,"time_elapsed":1043570,"internal_node_id":"0.0-7.0-0.0"},{"rt":20114,"responses":"{\"Q0\":\"How fast a person learns patterns.\"}","trial_type":"survey-text","trial_index":106,"time_elapsed":1064687,"internal_node_id":"0.0-7.0-1.0"},{"rt":20958,"responses":"{\"Q0\":\"<img src='../images/diagrams/hexagon_tri.png'>\"}","trial_type":"survey-multi-choice","trial_index":107,"time_elapsed":1086649,"internal_node_id":"0.0-7.0-2.0"},{"rt":29011,"assignments":["../images/blu_wht.png","../images/gry_blk.png","../images/cyn_red.png","../images/ylw_slt.png","../images/org_blu.png","../images/pnk_blu.png"],"trial_type":"drag-drop-on-image","trial_index":108,"time_elapsed":1116664,"internal_node_id":"0.0-7.0-3.0"},{"rt":4931,"responses":"{\"Q0\":\"2\"}","trial_type":"survey-likert","trial_index":109,"time_elapsed":1122600,"internal_node_id":"0.0-7.0-4.0"},{"rt":30973,"responses":"{\"Q0\":\"They both required memory and had a distinct pattern.\"}","trial_type":"survey-text","trial_index":110,"time_elapsed":1154575,"internal_node_id":"0.0-7.0-5.0"},{"rt":4450,"responses":"{\"Q0\":\"Yes\"}","trial_type":"survey-multi-choice","trial_index":111,"time_elapsed":1160031,"internal_node_id":"0.0-7.0-6.0"},{"rt":9519,"responses":"{\"Q0\":\"Between sessions 1 and 2\"}","trial_type":"survey-multi-choice","trial_index":112,"time_elapsed":1170559,"internal_node_id":"0.0-7.0-7.0"},{"rt":28803,"responses":"{\"Q0\":\"There was a pattern that I noticed in both.\"}","trial_type":"survey-text","trial_index":113,"time_elapsed":1200366,"internal_node_id":"0.0-7.0-8.0"},{"rt":5660,"responses":"{\"Q0\":\"2\"}","trial_type":"survey-likert","trial_index":114,"time_elapsed":1207032,"internal_node_id":"0.0-7.0-9.0"},{"rt":10027,"responses":"{\"Q0\":\"Same structure\"}","trial_type":"survey-multi-choice","trial_index":115,"time_elapsed":1218062,"internal_node_id":"0.0-7.0-10.0"},{"rt":60403,"assignments":["../images/cyn_red.png","../images/ylw_slt.png","../images/pnk_blu.png","../images/blu_wht.png","../images/org_blu.png","../images/gry_blk.png"],"background_order":[2,0,1,3,4,5],"trial_type":"drag-drop-on-image","trial_index":116,"time_elapsed":1279469,"internal_node_id":"0.0-7.0-11.0"},{"rt":19848,"responses":"{\"Q0\":\"left (white) door = acid, right (black) door = ray\",\"Q1\":\"Moderately confident\"}","trial_type":"survey-multi-choice","trial_index":117,"time_elapsed":1300326,"internal_node_id":"0.0-7.0-12.0"},{"rt":6352,"responses":"{\"Q0\":\"35-45\",\"Q1\":\"Some college\",\"Q2\":\"Female\",\"Q3\":\"Hispanic\"}","trial_type":"survey-multi-choice","trial_index":118,"time_elapsed":1307702,"internal_node_id":"0.0-8.0"},{"rt":5460,"responses":"{\"Q0\":\"no\"}","trial_type":"survey-text","trial_index":119,"time_elapsed":1314165,"internal_node_id":"0.0-9.0"}]