[{"view_history":"[{\"page_index\":0,\"viewing_time\":76344},{\"page_index\":1,\"viewing_time\":1606}]","rt":77951,"trial_type":"instructions","trial_index":0,"time_elapsed":77951,"internal_node_id":"0.0-0.0"},{"view_history":"[{\"page_index\":0,\"viewing_time\":155470},{\"page_index\":1,\"viewing_time\":1808}]","rt":157278,"trial_type":"instructions","trial_index":1,"time_elapsed":236230,"internal_node_id":"0.0-1.0"},{"group":"hexagon_tri","room_assignment":["green","grey","purple","yellow","red","blue"],"door_color_assignment":["white","black"],"door_generator_assignment":[0,1],"goal":2,"start":1,"action_noise":0,"location_history":"[1,3,2]","action_history":"[0,0]","door_history":"[0,0]","location_rts":"[12046,511]","trial_type":"two-door-navigation","trial_index":2,"time_elapsed":254826,"internal_node_id":"0.0-2.0-0.0"},{"group":"hexagon_tri","room_assignment":["green","grey","purple","yellow","red","blue"],"door_color_assignment":["white","black"],"door_generator_assignment":[0,1],"goal":0,"start":2,"action_noise":0,"location_history":"[2,3,4,0]","action_history":"[1,1,0]","door_history":"[1,1,0]","location_rts":"[8932,2661,297]","trial_type":"two-door-navigation","trial_index":3,"time_elapsed":273771,"internal_node_id":"0.0-2.0-1.0"},{"group":"hexagon_tri","room_assignment":["green","grey","purple","yellow","red","blue"],"door_color_assignment":["white","black"],"door_generator_assignment":[0,1],"goal":5,"start":0,"action_noise":0,"location_history":"[0,5]","action_history":"[0]","door_history":"[0]","location_rts":"[3299]","trial_type":"two-door-navigation","trial_index":4,"time_elapsed":282089,"internal_node_id":"0.0-2.0-2.0"},{"group":"hexagon_tri","room_assignment":["green","grey","purple","yellow","red","blue"],"door_color_assignment":["white","black"],"door_generator_assignment":[0,1],"goal":1,"start":5,"action_noise":0,"location_history":"[5,0,1]","action_history":"[1,1]","door_history":"[1,1]","location_rts":"[7596,1190]","trial_type":"two-door-navigation","trial_index":5,"time_elapsed":296912,"internal_node_id":"0.0-2.0-3.0"},{"group":"hexagon_tri","room_assignment":["green","grey","purple","yellow","red","blue"],"door_color_assignment":["white","black"],"door_generator_assignment":[0,1],"goal":3,"start":1,"action_noise":0,"location_history":"[1,3]","action_history":"[0]","door_history":"[0]","location_rts":"[3694]","trial_type":"two-door-navigation","trial_index":6,"time_elapsed":305626,"internal_node_id":"0.0-2.0-4.0"},{"group":"hexagon_tri","room_assignment":["green","grey","purple","yellow","red","blue"],"door_color_assignment":["white","black"],"door_generator_assignment":[0,1],"goal":5,"start":3,"action_noise":0,"location_history":"[3,2,1,5]","action_history":"[0,0,1]","door_history":"[0,0,1]","location_rts":"[12892,1585,401]","trial_type":"two-door-navigation","trial_index":7,"time_elapsed":327550,"internal_node_id":"0.0-2.0-5.0"},{"group":"hexagon_tri","room_assignment":["green","grey","purple","yellow","red","blue"],"door_color_assignment":["white","black"],"door_generator_assignment":[0,1],"goal":4,"start":5,"action_noise":0,"location_history":"[5,4]","action_history":"[0]","door_history":"[0]","location_rts":"[3071]","trial_type":"two-door-navigation","trial_index":8,"time_elapsed":335640,"internal_node_id":"0.0-2.0-6.0"},{"group":"hexagon_tri","room_assignment":["green","grey","purple","yellow","red","blue"],"door_color_assignment":["white","black"],"door_generator_assignment":[0,1],"goal":0,"start":4,"action_noise":0,"location_history":"[4,0]","action_history":"[0]","door_history":"[0]","location_rts":"[2899]","trial_type":"two-door-navigation","trial_index":9,"time_elapsed":343555,"internal_node_id":"0.0-2.0-7.0"},{"group":"hexagon_tri","room_assignment":["green","grey","purple","yellow","red","blue"],"door_color_assignment":["white","black"],"door_generator_assignment":[0,1],"goal":2,"start":0,"action_noise":0,"location_history":"[0,5,4,2]","action_history":"[0,0,1]","door_history":"[0,0,1]","location_rts":"[9794,403,513]","trial_type":"two-door-navigation","trial_index":10,"time_elapsed":361312,"internal_node_id":"0.0-2.0-8.0"},{"group":"hexagon_tri","room_assignment":["green","grey","purple","yellow","red","blue"],"door_color_assignment":["white","black"],"door_generator_assignment":[0,1],"goal":4,"start":2,"action_noise":0,"location_history":"[2,3,4]","action_history":"[1,1]","door_history":"[1,1]","location_rts":"[6038,472]","trial_type":"two-door-navigation","trial_index":11,"time_elapsed":373855,"internal_node_id":"0.0-2.0-9.0"},{"group":"hexagon_tri","room_assignment":["green","grey","purple","yellow","red","blue"],"door_color_assignment":["white","black"],"door_generator_assignment":[0,1],"goal":2,"start":4,"action_noise":0,"location_history":"[4,2]","action_history":"[1]","door_history":"[1]","location_rts":"[3991]","trial_type":"two-door-navigation","trial_index":12,"time_elapsed":382863,"internal_node_id":"0.0-2.0-10.0"},{"group":"hexagon_tri","room_assignment":["green","grey","purple","yellow","red","blue"],"door_color_assignment":["white","black"],"door_generator_assignment":[0,1],"goal":3,"start":2,"action_noise":0,"location_history":"[2,3]","action_history":"[1]","door_history":"[1]","location_rts":"[4070]","trial_type":"two-door-navigation","trial_index":13,"time_elapsed":391949,"internal_node_id":"0.0-2.0-11.0"},{"group":"hexagon_tri","room_assignment":["green","grey","purple","yellow","red","blue"],"door_color_assignment":["white","black"],"door_generator_assignment":[0,1],"goal":0,"start":3,"action_noise":0,"location_history":"[3,4,0]","action_history":"[1,0]","door_history":"[1,0]","location_rts":"[6039,365]","trial_type":"two-door-navigation","trial_index":14,"time_elapsed":404388,"internal_node_id":"0.0-2.0-12.0"},{"group":"hexagon_tri","room_assignment":["green","grey","purple","yellow","red","blue"],"door_color_assignment":["white","black"],"door_generator_assignment":[0,1],"goal":5,"start":0,"action_noise":0,"location_history":"[0,5]","action_history":"[0]","door_history":"[0]","location_rts":"[2968]","trial_type":"two-door-navigation","trial_index":15,"time_elapsed":412375,"internal_node_id":"0.0-2.0-13.0"},{"group":"hexagon_tri","room_assignment":["green","grey","purple","yellow","red","blue"],"door_color_assignment":["white","black"],"door_generator_assignment":[0,1],"goal":1,"start":5,"action_noise":0,"location_history":"[5,4,2,1]","action_history":"[0,1,0]","door_history":"[0,1,0]","location_rts":"[9949,3331,1179]","trial_type":"two-door-navigation","trial_index":16,"time_elapsed":433881,"internal_node_id":"0.0-2.0-14.0"},{"group":"hexagon_tri","room_assignment":["green","grey","purple","yellow","red","blue"],"door_color_assignment":["white","black"],"door_generator_assignment":[0,1],"goal":5,"start":1,"action_noise":0,"location_history":"[1,5]","action_history":"[1]","door_history":"[1]","location_rts":"[16364]","trial_type":"two-door-navigation","trial_index":17,"time_elapsed":455265,"internal_node_id":"0.0-2.0-15.0"},{"group":"hexagon_tri","room_assignment":["green","grey","purple","yellow","red","blue"],"door_color_assignment":["white","black"],"door_generator_assignment":[0,1],"goal":3,"start":5,"action_noise":0,"location_history":"[5,0,1,3]","action_history":"[1,1,0]","door_history":"[1,1,0]","location_rts":"[14659,1982,1116]","trial_type":"two-door-navigation","trial_index":18,"time_elapsed":480068,"internal_node_id":"0.0-2.0-16.0"},{"group":"hexagon_tri","room_assignment":["green","grey","purple","yellow","red","blue"],"door_color_assignment":["white","black"],"door_generator_assignment":[0,1],"goal":2,"start":3,"action_noise":0,"location_history":"[3,2]","action_history":"[0]","door_history":"[0]","location_rts":"[4114]","trial_type":"two-door-navigation","trial_index":19,"time_elapsed":489207,"internal_node_id":"0.0-2.0-17.0"},{"group":"hexagon_tri","room_assignment":["green","grey","purple","yellow","red","blue"],"door_color_assignment":["white","black"],"door_generator_assignment":[0,1],"goal":1,"start":2,"action_noise":0,"location_history":"[2,1]","action_history":"[0]","door_history":"[0]","location_rts":"[10607]","trial_type":"two-door-navigation","trial_index":20,"time_elapsed":504834,"internal_node_id":"0.0-2.0-18.0"},{"group":"hexagon_tri","room_assignment":["green","grey","purple","yellow","red","blue"],"door_color_assignment":["white","black"],"door_generator_assignment":[0,1],"goal":4,"start":1,"action_noise":0,"location_history":"[1,5,4]","action_history":"[1,0]","door_history":"[1,0]","location_rts":"[5660,298]","trial_type":"two-door-navigation","trial_index":21,"time_elapsed":516826,"internal_node_id":"0.0-2.0-19.0"},{"group":"hexagon_tri","room_assignment":["green","grey","purple","yellow","red","blue"],"door_color_assignment":["white","black"],"door_generator_assignment":[0,1],"goal":0,"start":4,"action_noise":0,"location_history":"[4,0]","action_history":"[0]","door_history":"[0]","location_rts":"[12210]","trial_type":"two-door-navigation","trial_index":22,"time_elapsed":534057,"internal_node_id":"0.0-2.0-20.0"},{"group":"hexagon_tri","room_assignment":["green","grey","purple","yellow","red","blue"],"door_color_assignment":["white","black"],"door_generator_assignment":[0,1],"goal":3,"start":0,"action_noise":0,"location_history":"[0,1,3]","action_history":"[1,0]","door_history":"[1,0]","location_rts":"[7829,793]","trial_type":"two-door-navigation","trial_index":23,"time_elapsed":548710,"internal_node_id":"0.0-2.0-21.0"},{"group":"hexagon_tri","room_assignment":["green","grey","purple","yellow","red","blue"],"door_color_assignment":["white","black"],"door_generator_assignment":[0,1],"goal":1,"start":3,"action_noise":0,"location_history":"[3,2,1]","action_history":"[0,0]","door_history":"[0,0]","location_rts":"[22872,268]","trial_type":"two-door-navigation","trial_index":24,"time_elapsed":577884,"internal_node_id":"0.0-2.0-22.0"},{"group":"hexagon_tri","room_assignment":["green","grey","purple","yellow","red","blue"],"door_color_assignment":["white","black"],"door_generator_assignment":[0,1],"goal":0,"start":1,"action_noise":0,"location_history":"[1,5,0]","action_history":"[1,1]","door_history":"[1,1]","location_rts":"[8160,624]","trial_type":"two-door-navigation","trial_index":25,"time_elapsed":592700,"internal_node_id":"0.0-2.0-23.0"},{"group":"hexagon_tri","room_assignment":["green","grey","purple","yellow","red","blue"],"door_color_assignment":["white","black"],"door_generator_assignment":[0,1],"goal":2,"start":0,"action_noise":0,"location_history":"[0,1,3,2]","action_history":"[1,0,0]","door_history":"[1,0,0]","location_rts":"[8175,1033,1161]","trial_type":"two-door-navigation","trial_index":26,"time_elapsed":610115,"internal_node_id":"0.0-2.0-24.0"},{"group":"hexagon_tri","room_assignment":["green","grey","purple","yellow","red","blue"],"door_color_assignment":["white","black"],"door_generator_assignment":[0,1],"goal":4,"start":2,"action_noise":0,"location_history":"[2,3,4]","action_history":"[1,1]","door_history":"[1,1]","location_rts":"[7840,344]","trial_type":"two-door-navigation","trial_index":27,"time_elapsed":624330,"internal_node_id":"0.0-2.0-25.0"},{"group":"hexagon_tri","room_assignment":["green","grey","purple","yellow","red","blue"],"door_color_assignment":["white","black"],"door_generator_assignment":[0,1],"goal":5,"start":4,"action_noise":0,"location_history":"[4,0,5]","action_history":"[0,0]","door_history":"[0,0]","location_rts":"[5250,361]","trial_type":"two-door-navigation","trial_index":28,"time_elapsed":635974,"internal_node_id":"0.0-2.0-26.0"},{"group":"hexagon_tri","room_assignment":["green","grey","purple","yellow","red","blue"],"door_color_assignment":["white","black"],"door_generator_assignment":[0,1],"goal":2,"start":5,"action_noise":0,"location_history":"[5,4,2]","action_history":"[0,1]","door_history":"[0,1]","location_rts":"[9310,1704]","trial_type":"two-door-navigation","trial_index":29,"time_elapsed":653024,"internal_node_id":"0.0-2.0-27.0"},{"group":"hexagon_tri","room_assignment":["green","grey","purple","yellow","red","blue"],"door_color_assignment":["white","black"],"door_generator_assignment":[0,1],"goal":3,"start":2,"action_noise":0,"location_history":"[2,3]","action_history":"[1]","door_history":"[1]","location_rts":"[4996]","trial_type":"two-door-navigation","trial_index":30,"time_elapsed":663035,"internal_node_id":"0.0-2.0-28.0"},{"group":"hexagon_tri","room_assignment":["green","grey","purple","yellow","red","blue"],"door_color_assignment":["white","black"],"door_generator_assignment":[0,1],"goal":1,"start":3,"action_noise":0,"location_history":"[3,2,1]","action_history":"[0,0]","door_history":"[0,0]","location_rts":"[15704,290]","trial_type":"two-door-navigation","trial_index":31,"time_elapsed":685065,"internal_node_id":"0.0-2.0-29.0"},{"group":"hexagon_tri","room_assignment":["green","grey","purple","yellow","red","blue"],"door_color_assignment":["white","black"],"door_generator_assignment":[0,1],"goal":4,"start":1,"action_noise":0,"location_history":"[1,5,4]","action_history":"[1,0]","door_history":"[1,0]","location_rts":"[5202,775]","trial_type":"two-door-navigation","trial_index":32,"time_elapsed":697075,"internal_node_id":"0.0-2.0-30.0"},{"group":"hexagon_tri","room_assignment":["green","grey","purple","yellow","red","blue"],"door_color_assignment":["white","black"],"door_generator_assignment":[0,1],"goal":5,"start":4,"action_noise":0,"location_history":"[4,0,5]","action_history":"[0,0]","door_history":"[0,0]","location_rts":"[6240,339]","trial_type":"two-door-navigation","trial_index":33,"time_elapsed":709691,"internal_node_id":"0.0-2.0-31.0"},{"group":"hexagon_tri","room_assignment":["green","grey","purple","yellow","red","blue"],"door_color_assignment":["white","black"],"door_generator_assignment":[0,1],"goal":0,"start":5,"action_noise":0,"location_history":"[5,0]","action_history":"[1]","door_history":"[1]","location_rts":"[4272]","trial_type":"two-door-navigation","trial_index":34,"time_elapsed":718981,"internal_node_id":"0.0-2.0-32.0"},{"group":"hexagon_tri","room_assignment":["green","grey","purple","yellow","red","blue"],"door_color_assignment":["white","black"],"door_generator_assignment":[0,1],"goal":2,"start":0,"action_noise":0,"location_history":"[0,1,3,2]","action_history":"[1,0,0]","door_history":"[1,0,0]","location_rts":"[10156,3265,461]","trial_type":"two-door-navigation","trial_index":35,"time_elapsed":739919,"internal_node_id":"0.0-2.0-33.0"},{"group":"hexagon_tri","room_assignment":["green","grey","purple","yellow","red","blue"],"door_color_assignment":["white","black"],"door_generator_assignment":[0,1],"goal":0,"start":2,"action_noise":0,"location_history":"[2,3,4,0]","action_history":"[1,1,0]","door_history":"[1,1,0]","location_rts":"[10245,13836,756]","trial_type":"two-door-navigation","trial_index":36,"time_elapsed":771794,"internal_node_id":"0.0-2.0-34.0"},{"group":"hexagon_tri","room_assignment":["green","grey","purple","yellow","red","blue"],"door_color_assignment":["white","black"],"door_generator_assignment":[0,1],"goal":5,"start":0,"action_noise":0,"location_history":"[0,5]","action_history":"[0]","door_history":"[0]","location_rts":"[3497]","trial_type":"two-door-navigation","trial_index":37,"time_elapsed":780310,"internal_node_id":"0.0-2.0-35.0"},{"group":"hexagon_tri","room_assignment":["green","grey","purple","yellow","red","blue"],"door_color_assignment":["white","black"],"door_generator_assignment":[0,1],"goal":1,"start":5,"action_noise":0,"location_history":"[5,0,1]","action_history":"[1,1]","door_history":"[1,1]","location_rts":"[8542,376]","trial_type":"two-door-navigation","trial_index":38,"time_elapsed":795263,"internal_node_id":"0.0-2.0-36.0"},{"group":"hexagon_tri","room_assignment":["green","grey","purple","yellow","red","blue"],"door_color_assignment":["white","black"],"door_generator_assignment":[0,1],"goal":4,"start":1,"action_noise":0,"location_history":"[1,5,4]","action_history":"[1,0]","door_history":"[1,0]","location_rts":"[5980,344]","trial_type":"two-door-navigation","trial_index":39,"time_elapsed":807622,"internal_node_id":"0.0-2.0-37.0"},{"group":"hexagon_tri","room_assignment":["green","grey","purple","yellow","red","blue"],"door_color_assignment":["white","black"],"door_generator_assignment":[0,1],"goal":3,"start":4,"action_noise":0,"location_history":"[4,2,3]","action_history":"[1,1]","door_history":"[1,1]","location_rts":"[7574,465]","trial_type":"two-door-navigation","trial_index":40,"time_elapsed":821692,"internal_node_id":"0.0-2.0-38.0"},{"group":"hexagon_tri","room_assignment":["green","grey","purple","yellow","red","blue"],"door_color_assignment":["white","black"],"door_generator_assignment":[0,1],"goal":5,"start":3,"action_noise":0,"location_history":"[3,2,3,4,0,5]","action_history":"[0,1,1,0,0]","door_history":"[0,1,1,0,0]","location_rts":"[17049,1280,10916,5448,286]","trial_type":"two-door-navigation","trial_index":41,"time_elapsed":865738,"internal_node_id":"0.0-2.0-39.0"},{"group":"hexagon_tri","room_assignment":["green","grey","purple","yellow","red","blue"],"door_color_assignment":["white","black"],"door_generator_assignment":[0,1],"goal":1,"start":5,"action_noise":0,"location_history":"[5,0,1]","action_history":"[1,1]","door_history":"[1,1]","location_rts":"[6193,1232]","trial_type":"two-door-navigation","trial_index":42,"time_elapsed":879193,"internal_node_id":"0.0-2.0-40.0"},{"group":"hexagon_tri","room_assignment":["green","grey","purple","yellow","red","blue"],"door_color_assignment":["white","black"],"door_generator_assignment":[0,1],"goal":2,"start":1,"action_noise":0,"location_history":"[1,3,2]","action_history":"[0,0]","door_history":"[0,0]","location_rts":"[4241,521]","trial_type":"two-door-navigation","trial_index":43,"time_elapsed":889986,"internal_node_id":"0.0-2.0-41.0"},{"group":"hexagon_tri","room_assignment":["green","grey","purple","yellow","red","blue"],"door_color_assignment":["white","black"],"door_generator_assignment":[0,1],"goal":4,"start":2,"action_noise":0,"location_history":"[2,3,4]","action_history":"[1,1]","door_history":"[1,1]","location_rts":"[8751,434]","trial_type":"two-door-navigation","trial_index":44,"time_elapsed":905207,"internal_node_id":"0.0-2.0-42.0"},{"group":"hexagon_tri","room_assignment":["green","grey","purple","yellow","red","blue"],"door_color_assignment":["white","black"],"door_generator_assignment":[0,1],"goal":0,"start":4,"action_noise":0,"location_history":"[4,0]","action_history":"[0]","door_history":"[0]","location_rts":"[5708]","trial_type":"two-door-navigation","trial_index":45,"time_elapsed":915936,"internal_node_id":"0.0-2.0-43.0"},{"group":"hexagon_tri","room_assignment":["green","grey","purple","yellow","red","blue"],"door_color_assignment":["white","black"],"door_generator_assignment":[0,1],"goal":3,"start":0,"action_noise":0,"location_history":"[0,1,3]","action_history":"[1,0]","door_history":"[1,0]","location_rts":"[8115,748]","trial_type":"two-door-navigation","trial_index":46,"time_elapsed":930828,"internal_node_id":"0.0-2.0-44.0"},{"group":"hexagon_tri","room_assignment":["green","grey","purple","yellow","red","blue"],"door_color_assignment":["white","black"],"door_generator_assignment":[0,1],"goal":0,"start":3,"action_noise":0,"location_history":"[3,4,0]","action_history":"[1,0]","door_history":"[1,0]","location_rts":"[9431,399]","trial_type":"two-door-navigation","trial_index":47,"time_elapsed":946690,"internal_node_id":"0.0-2.0-45.0"},{"group":"hexagon_tri","room_assignment":["green","grey","purple","yellow","red","blue"],"door_color_assignment":["white","black"],"door_generator_assignment":[0,1],"goal":4,"start":0,"action_noise":0,"location_history":"[0,5,4]","action_history":"[0,0]","door_history":"[0,0]","location_rts":"[3426,297]","trial_type":"two-door-navigation","trial_index":48,"time_elapsed":956443,"internal_node_id":"0.0-2.0-46.0"},{"group":"hexagon_tri","room_assignment":["green","grey","purple","yellow","red","blue"],"door_color_assignment":["white","black"],"door_generator_assignment":[0,1],"goal":5,"start":4,"action_noise":0,"location_history":"[4,0,5]","action_history":"[0,0]","door_history":"[0,0]","location_rts":"[5095,281]","trial_type":"two-door-navigation","trial_index":49,"time_elapsed":967849,"internal_node_id":"0.0-2.0-47.0"},{"group":"hexagon_tri","room_assignment":["green","grey","purple","yellow","red","blue"],"door_color_assignment":["white","black"],"door_generator_assignment":[0,1],"goal":2,"start":5,"action_noise":0,"location_history":"[5,4,2]","action_history":"[0,1]","door_history":"[0,1]","location_rts":"[6370,378]","trial_type":"two-door-navigation","trial_index":50,"time_elapsed":980626,"internal_node_id":"0.0-2.0-48.0"},{"group":"hexagon_tri","room_assignment":["green","grey","purple","yellow","red","blue"],"door_color_assignment":["white","black"],"door_generator_assignment":[0,1],"goal":1,"start":2,"action_noise":0,"location_history":"[2,1]","action_history":"[0]","door_history":"[0]","location_rts":"[3769]","trial_type":"two-door-navigation","trial_index":51,"time_elapsed":989414,"internal_node_id":"0.0-2.0-49.0"},{"view_history":"[{\"page_index\":0,\"viewing_time\":2246}]","rt":2246,"trial_type":"instructions","trial_index":52,"time_elapsed":992659,"internal_node_id":"0.0-3.0"},{"view_history":"[{\"page_index\":0,\"viewing_time\":1583},{\"page_index\":1,\"viewing_time\":6193}]","rt":7776,"trial_type":"instructions","trial_index":53,"time_elapsed":1001436,"internal_node_id":"0.0-4.0"},{"group":"hexagon_tri","fractal_assignment":["../images/ylw_slt.png","../images/blu_wht.png","../images/gry_blk.png","../images/pnk_blu.png","../images/org_blu.png","../images/cyn_red.png"],"mutagen_generator_assignment":[1,0],"goal":2,"start":1,"action_noise":0,"location_history":"[1,3,4,2]","action_history":"[0,1,1]","mutagen_history":"[1,0,0]","location_rts":"[2019,1471,450]","trial_type":"fractal-mutation","trial_index":54,"time_elapsed":1012441,"internal_node_id":"0.0-5.0-0.0"},{"group":"hexagon_tri","fractal_assignment":["../images/ylw_slt.png","../images/blu_wht.png","../images/gry_blk.png","../images/pnk_blu.png","../images/org_blu.png","../images/cyn_red.png"],"mutagen_generator_assignment":[1,0],"goal":0,"start":2,"action_noise":0,"location_history":"[2,1,5,0]","action_history":"[0,1,1]","mutagen_history":"[1,0,0]","location_rts":"[2041,507,445]","trial_type":"fractal-mutation","trial_index":55,"time_elapsed":1022498,"internal_node_id":"0.0-5.0-1.0"},{"group":"hexagon_tri","fractal_assignment":["../images/ylw_slt.png","../images/blu_wht.png","../images/gry_blk.png","../images/pnk_blu.png","../images/org_blu.png","../images/cyn_red.png"],"mutagen_generator_assignment":[1,0],"goal":5,"start":0,"action_noise":0,"location_history":"[0,5]","action_history":"[0]","mutagen_history":"[1]","location_rts":"[1846]","trial_type":"fractal-mutation","trial_index":56,"time_elapsed":1029372,"internal_node_id":"0.0-5.0-2.0"},{"group":"hexagon_tri","fractal_assignment":["../images/ylw_slt.png","../images/blu_wht.png","../images/gry_blk.png","../images/pnk_blu.png","../images/org_blu.png","../images/cyn_red.png"],"mutagen_generator_assignment":[1,0],"goal":1,"start":5,"action_noise":0,"location_history":"[5,0,1]","action_history":"[1,1]","mutagen_history":"[0,0]","location_rts":"[34496,698]","trial_type":"fractal-mutation","trial_index":57,"time_elapsed":1070604,"internal_node_id":"0.0-5.0-3.0"},{"group":"hexagon_tri","fractal_assignment":["../images/ylw_slt.png","../images/blu_wht.png","../images/gry_blk.png","../images/pnk_blu.png","../images/org_blu.png","../images/cyn_red.png"],"mutagen_generator_assignment":[1,0],"goal":3,"start":1,"action_noise":0,"location_history":"[1,3]","action_history":"[0]","mutagen_history":"[1]","location_rts":"[2422]","trial_type":"fractal-mutation","trial_index":58,"time_elapsed":1078050,"internal_node_id":"0.0-5.0-4.0"},{"group":"hexagon_tri","fractal_assignment":["../images/ylw_slt.png","../images/blu_wht.png","../images/gry_blk.png","../images/pnk_blu.png","../images/org_blu.png","../images/cyn_red.png"],"mutagen_generator_assignment":[1,0],"goal":5,"start":3,"action_noise":0,"location_history":"[3,4,2,1,5]","action_history":"[1,1,0,1]","mutagen_history":"[0,0,1,0]","location_rts":"[2283,649,701,630]","trial_type":"fractal-mutation","trial_index":59,"time_elapsed":1090401,"internal_node_id":"0.0-5.0-5.0"},{"group":"hexagon_tri","fractal_assignment":["../images/ylw_slt.png","../images/blu_wht.png","../images/gry_blk.png","../images/pnk_blu.png","../images/org_blu.png","../images/cyn_red.png"],"mutagen_generator_assignment":[1,0],"goal":4,"start":5,"action_noise":0,"location_history":"[5,4]","action_history":"[0]","mutagen_history":"[1]","location_rts":"[2709]","trial_type":"fractal-mutation","trial_index":60,"time_elapsed":1098140,"internal_node_id":"0.0-5.0-6.0"},{"group":"hexagon_tri","fractal_assignment":["../images/ylw_slt.png","../images/blu_wht.png","../images/gry_blk.png","../images/pnk_blu.png","../images/org_blu.png","../images/cyn_red.png"],"mutagen_generator_assignment":[1,0],"goal":0,"start":4,"action_noise":0,"location_history":"[4,2,3,4,0]","action_history":"[1,1,1,0]","mutagen_history":"[0,0,0,1]","location_rts":"[1566,1608,636,665]","trial_type":"fractal-mutation","trial_index":61,"time_elapsed":1110701,"internal_node_id":"0.0-5.0-7.0"},{"group":"hexagon_tri","fractal_assignment":["../images/ylw_slt.png","../images/blu_wht.png","../images/gry_blk.png","../images/pnk_blu.png","../images/org_blu.png","../images/cyn_red.png"],"mutagen_generator_assignment":[1,0],"goal":2,"start":0,"action_noise":0,"location_history":"[0,5,4,2]","action_history":"[0,0,1]","mutagen_history":"[1,1,0]","location_rts":"[2236,1044,568]","trial_type":"fractal-mutation","trial_index":62,"time_elapsed":1121616,"internal_node_id":"0.0-5.0-8.0"},{"group":"hexagon_tri","fractal_assignment":["../images/ylw_slt.png","../images/blu_wht.png","../images/gry_blk.png","../images/pnk_blu.png","../images/org_blu.png","../images/cyn_red.png"],"mutagen_generator_assignment":[1,0],"goal":4,"start":2,"action_noise":0,"location_history":"[2,3,4]","action_history":"[1,1]","mutagen_history":"[0,0]","location_rts":"[1184,544]","trial_type":"fractal-mutation","trial_index":63,"time_elapsed":1129383,"internal_node_id":"0.0-5.0-9.0"},{"group":"hexagon_tri","fractal_assignment":["../images/ylw_slt.png","../images/blu_wht.png","../images/gry_blk.png","../images/pnk_blu.png","../images/org_blu.png","../images/cyn_red.png"],"mutagen_generator_assignment":[1,0],"goal":2,"start":4,"action_noise":0,"location_history":"[4,2]","action_history":"[1]","mutagen_history":"[0]","location_rts":"[1041]","trial_type":"fractal-mutation","trial_index":64,"time_elapsed":1135449,"internal_node_id":"0.0-5.0-10.0"},{"group":"hexagon_tri","fractal_assignment":["../images/ylw_slt.png","../images/blu_wht.png","../images/gry_blk.png","../images/pnk_blu.png","../images/org_blu.png","../images/cyn_red.png"],"mutagen_generator_assignment":[1,0],"goal":3,"start":2,"action_noise":0,"location_history":"[2,3]","action_history":"[1]","mutagen_history":"[0]","location_rts":"[1597]","trial_type":"fractal-mutation","trial_index":65,"time_elapsed":1142071,"internal_node_id":"0.0-5.0-11.0"},{"group":"hexagon_tri","fractal_assignment":["../images/ylw_slt.png","../images/blu_wht.png","../images/gry_blk.png","../images/pnk_blu.png","../images/org_blu.png","../images/cyn_red.png"],"mutagen_generator_assignment":[1,0],"goal":0,"start":3,"action_noise":0,"location_history":"[3,2,1,3,2,3,2,1,5,0]","action_history":"[0,0,0,0,1,0,0,1,1]","mutagen_history":"[1,1,1,1,0,1,1,0,0]","location_rts":"[1160,963,526,828,472,760,839,580,547]","trial_type":"fractal-mutation","trial_index":66,"time_elapsed":1161943,"internal_node_id":"0.0-5.0-12.0"},{"group":"hexagon_tri","fractal_assignment":["../images/ylw_slt.png","../images/blu_wht.png","../images/gry_blk.png","../images/pnk_blu.png","../images/org_blu.png","../images/cyn_red.png"],"mutagen_generator_assignment":[1,0],"goal":5,"start":0,"action_noise":0,"location_history":"[0,1,3,4,2,3,2,1,5]","action_history":"[1,0,1,1,1,0,0,1]","mutagen_history":"[0,1,0,0,0,1,1,0]","location_rts":"[2692,512,1820,691,657,715,808,754]","trial_type":"fractal-mutation","trial_index":67,"time_elapsed":1182765,"internal_node_id":"0.0-5.0-13.0"},{"group":"hexagon_tri","fractal_assignment":["../images/ylw_slt.png","../images/blu_wht.png","../images/gry_blk.png","../images/pnk_blu.png","../images/org_blu.png","../images/cyn_red.png"],"mutagen_generator_assignment":[1,0],"goal":1,"start":5,"action_noise":0,"location_history":"[5,4,2,3,4,2,1]","action_history":"[0,1,1,1,1,0]","mutagen_history":"[1,0,0,0,0,1]","location_rts":"[2751,1361,958,658,618,561]","trial_type":"fractal-mutation","trial_index":68,"time_elapsed":1199789,"internal_node_id":"0.0-5.0-14.0"},{"group":"hexagon_tri","fractal_assignment":["../images/ylw_slt.png","../images/blu_wht.png","../images/gry_blk.png","../images/pnk_blu.png","../images/org_blu.png","../images/cyn_red.png"],"mutagen_generator_assignment":[1,0],"goal":5,"start":1,"action_noise":0,"location_history":"[1,3,2,1,5]","action_history":"[0,0,0,1]","mutagen_history":"[1,1,1,0]","location_rts":"[3127,1772,695,1131]","trial_type":"fractal-mutation","trial_index":69,"time_elapsed":1214600,"internal_node_id":"0.0-5.0-15.0"},{"group":"hexagon_tri","fractal_assignment":["../images/ylw_slt.png","../images/blu_wht.png","../images/gry_blk.png","../images/pnk_blu.png","../images/org_blu.png","../images/cyn_red.png"],"mutagen_generator_assignment":[1,0],"goal":3,"start":5,"action_noise":0,"location_history":"[5,0,5,0,1,3]","action_history":"[1,0,1,1,0]","mutagen_history":"[0,1,0,0,1]","location_rts":"[1308,1254,854,502,1188]","trial_type":"fractal-mutation","trial_index":70,"time_elapsed":1228810,"internal_node_id":"0.0-5.0-16.0"},{"group":"hexagon_tri","fractal_assignment":["../images/ylw_slt.png","../images/blu_wht.png","../images/gry_blk.png","../images/pnk_blu.png","../images/org_blu.png","../images/cyn_red.png"],"mutagen_generator_assignment":[1,0],"goal":2,"start":3,"action_noise":0,"location_history":"[3,4,2]","action_history":"[1,1]","mutagen_history":"[0,0]","location_rts":"[1950,466]","trial_type":"fractal-mutation","trial_index":71,"time_elapsed":1237265,"internal_node_id":"0.0-5.0-17.0"},{"group":"hexagon_tri","fractal_assignment":["../images/ylw_slt.png","../images/blu_wht.png","../images/gry_blk.png","../images/pnk_blu.png","../images/org_blu.png","../images/cyn_red.png"],"mutagen_generator_assignment":[1,0],"goal":1,"start":2,"action_noise":0,"location_history":"[2,1]","action_history":"[0]","mutagen_history":"[1]","location_rts":"[1453]","trial_type":"fractal-mutation","trial_index":72,"time_elapsed":1243744,"internal_node_id":"0.0-5.0-18.0"},{"group":"hexagon_tri","fractal_assignment":["../images/ylw_slt.png","../images/blu_wht.png","../images/gry_blk.png","../images/pnk_blu.png","../images/org_blu.png","../images/cyn_red.png"],"mutagen_generator_assignment":[1,0],"goal":4,"start":1,"action_noise":0,"location_history":"[1,5,0,1,5,4]","action_history":"[1,1,1,1,0]","mutagen_history":"[0,0,0,0,1]","location_rts":"[1326,498,586,1173,620]","trial_type":"fractal-mutation","trial_index":73,"time_elapsed":1257047,"internal_node_id":"0.0-5.0-19.0"},{"group":"hexagon_tri","fractal_assignment":["../images/ylw_slt.png","../images/blu_wht.png","../images/gry_blk.png","../images/pnk_blu.png","../images/org_blu.png","../images/cyn_red.png"],"mutagen_generator_assignment":[1,0],"goal":0,"start":4,"action_noise":0,"location_history":"[4,0]","action_history":"[0]","mutagen_history":"[1]","location_rts":"[2847]","trial_type":"fractal-mutation","trial_index":74,"time_elapsed":1264915,"internal_node_id":"0.0-5.0-20.0"},{"group":"hexagon_tri","fractal_assignment":["../images/ylw_slt.png","../images/blu_wht.png","../images/gry_blk.png","../images/pnk_blu.png","../images/org_blu.png","../images/cyn_red.png"],"mutagen_generator_assignment":[1,0],"goal":3,"start":0,"action_noise":0,"location_history":"[0,1,5,4,2,3]","action_history":"[1,1,0,1,1]","mutagen_history":"[0,0,1,0,0]","location_rts":"[1268,910,730,1231,525]","trial_type":"fractal-mutation","trial_index":75,"time_elapsed":1278680,"internal_node_id":"0.0-5.0-21.0"},{"group":"hexagon_tri","fractal_assignment":["../images/ylw_slt.png","../images/blu_wht.png","../images/gry_blk.png","../images/pnk_blu.png","../images/org_blu.png","../images/cyn_red.png"],"mutagen_generator_assignment":[1,0],"goal":1,"start":3,"action_noise":0,"location_history":"[3,2,1]","action_history":"[0,0]","mutagen_history":"[1,1]","location_rts":"[4131,1493]","trial_type":"fractal-mutation","trial_index":76,"time_elapsed":1290351,"internal_node_id":"0.0-5.0-22.0"},{"group":"hexagon_tri","fractal_assignment":["../images/ylw_slt.png","../images/blu_wht.png","../images/gry_blk.png","../images/pnk_blu.png","../images/org_blu.png","../images/cyn_red.png"],"mutagen_generator_assignment":[1,0],"goal":0,"start":1,"action_noise":0,"location_history":"[1,5,0]","action_history":"[1,1]","mutagen_history":"[0,0]","location_rts":"[2141,568]","trial_type":"fractal-mutation","trial_index":77,"time_elapsed":1299100,"internal_node_id":"0.0-5.0-23.0"},{"group":"hexagon_tri","fractal_assignment":["../images/ylw_slt.png","../images/blu_wht.png","../images/gry_blk.png","../images/pnk_blu.png","../images/org_blu.png","../images/cyn_red.png"],"mutagen_generator_assignment":[1,0],"goal":2,"start":0,"action_noise":0,"location_history":"[0,1,5,4,2]","action_history":"[1,1,0,1]","mutagen_history":"[0,0,1,0]","location_rts":"[1202,864,759,737]","trial_type":"fractal-mutation","trial_index":78,"time_elapsed":1310749,"internal_node_id":"0.0-5.0-24.0"},{"group":"hexagon_tri","fractal_assignment":["../images/ylw_slt.png","../images/blu_wht.png","../images/gry_blk.png","../images/pnk_blu.png","../images/org_blu.png","../images/cyn_red.png"],"mutagen_generator_assignment":[1,0],"goal":4,"start":2,"action_noise":0,"location_history":"[2,3,4]","action_history":"[1,1]","mutagen_history":"[0,0]","location_rts":"[1463,691]","trial_type":"fractal-mutation","trial_index":79,"time_elapsed":1318945,"internal_node_id":"0.0-5.0-25.0"},{"group":"hexagon_tri","fractal_assignment":["../images/ylw_slt.png","../images/blu_wht.png","../images/gry_blk.png","../images/pnk_blu.png","../images/org_blu.png","../images/cyn_red.png"],"mutagen_generator_assignment":[1,0],"goal":5,"start":4,"action_noise":0,"location_history":"[4,0,5]","action_history":"[0,0]","mutagen_history":"[1,1]","location_rts":"[1202,544]","trial_type":"fractal-mutation","trial_index":80,"time_elapsed":1326736,"internal_node_id":"0.0-5.0-26.0"},{"group":"hexagon_tri","fractal_assignment":["../images/ylw_slt.png","../images/blu_wht.png","../images/gry_blk.png","../images/pnk_blu.png","../images/org_blu.png","../images/cyn_red.png"],"mutagen_generator_assignment":[1,0],"goal":2,"start":5,"action_noise":0,"location_history":"[5,0,1,3,4,2]","action_history":"[1,1,0,1,1]","mutagen_history":"[0,0,1,0,0]","location_rts":"[1613,907,1252,887,558]","trial_type":"fractal-mutation","trial_index":81,"time_elapsed":1341048,"internal_node_id":"0.0-5.0-27.0"},{"group":"hexagon_tri","fractal_assignment":["../images/ylw_slt.png","../images/blu_wht.png","../images/gry_blk.png","../images/pnk_blu.png","../images/org_blu.png","../images/cyn_red.png"],"mutagen_generator_assignment":[1,0],"goal":3,"start":2,"action_noise":0,"location_history":"[2,3]","action_history":"[1]","mutagen_history":"[0]","location_rts":"[1142]","trial_type":"fractal-mutation","trial_index":82,"time_elapsed":1347209,"internal_node_id":"0.0-5.0-28.0"},{"group":"hexagon_tri","fractal_assignment":["../images/ylw_slt.png","../images/blu_wht.png","../images/gry_blk.png","../images/pnk_blu.png","../images/org_blu.png","../images/cyn_red.png"],"mutagen_generator_assignment":[1,0],"goal":1,"start":3,"action_noise":0,"location_history":"[3,2,3,2,1]","action_history":"[0,1,0,0]","mutagen_history":"[1,0,1,1]","location_rts":"[1190,1607,707,392]","trial_type":"fractal-mutation","trial_index":83,"time_elapsed":1359192,"internal_node_id":"0.0-5.0-29.0"},{"group":"hexagon_tri","fractal_assignment":["../images/ylw_slt.png","../images/blu_wht.png","../images/gry_blk.png","../images/pnk_blu.png","../images/org_blu.png","../images/cyn_red.png"],"mutagen_generator_assignment":[1,0],"goal":4,"start":1,"action_noise":0,"location_history":"[1,3,4]","action_history":"[0,1]","mutagen_history":"[1,0]","location_rts":"[2957,695]","trial_type":"fractal-mutation","trial_index":84,"time_elapsed":1368889,"internal_node_id":"0.0-5.0-30.0"},{"group":"hexagon_tri","fractal_assignment":["../images/ylw_slt.png","../images/blu_wht.png","../images/gry_blk.png","../images/pnk_blu.png","../images/org_blu.png","../images/cyn_red.png"],"mutagen_generator_assignment":[1,0],"goal":5,"start":4,"action_noise":0,"location_history":"[4,0,5]","action_history":"[0,0]","mutagen_history":"[1,1]","location_rts":"[1315,623]","trial_type":"fractal-mutation","trial_index":85,"time_elapsed":1376874,"internal_node_id":"0.0-5.0-31.0"},{"group":"hexagon_tri","fractal_assignment":["../images/ylw_slt.png","../images/blu_wht.png","../images/gry_blk.png","../images/pnk_blu.png","../images/org_blu.png","../images/cyn_red.png"],"mutagen_generator_assignment":[1,0],"goal":0,"start":5,"action_noise":0,"location_history":"[5,0]","action_history":"[1]","mutagen_history":"[0]","location_rts":"[1144]","trial_type":"fractal-mutation","trial_index":86,"time_elapsed":1383040,"internal_node_id":"0.0-5.0-32.0"},{"group":"hexagon_tri","fractal_assignment":["../images/ylw_slt.png","../images/blu_wht.png","../images/gry_blk.png","../images/pnk_blu.png","../images/org_blu.png","../images/cyn_red.png"],"mutagen_generator_assignment":[1,0],"goal":2,"start":0,"action_noise":0,"location_history":"[0,1,3,4,2]","action_history":"[1,0,1,1]","mutagen_history":"[0,1,0,0]","location_rts":"[1059,930,855,987]","trial_type":"fractal-mutation","trial_index":87,"time_elapsed":1394950,"internal_node_id":"0.0-5.0-33.0"},{"group":"hexagon_tri","fractal_assignment":["../images/ylw_slt.png","../images/blu_wht.png","../images/gry_blk.png","../images/pnk_blu.png","../images/org_blu.png","../images/cyn_red.png"],"mutagen_generator_assignment":[1,0],"goal":0,"start":2,"action_noise":0,"location_history":"[2,1,5,0]","action_history":"[0,1,1]","mutagen_history":"[1,0,0]","location_rts":"[1689,791,545]","trial_type":"fractal-mutation","trial_index":88,"time_elapsed":1405038,"internal_node_id":"0.0-5.0-34.0"},{"group":"hexagon_tri","fractal_assignment":["../images/ylw_slt.png","../images/blu_wht.png","../images/gry_blk.png","../images/pnk_blu.png","../images/org_blu.png","../images/cyn_red.png"],"mutagen_generator_assignment":[1,0],"goal":5,"start":0,"action_noise":0,"location_history":"[0,5]","action_history":"[0]","mutagen_history":"[1]","location_rts":"[1144]","trial_type":"fractal-mutation","trial_index":89,"time_elapsed":1411209,"internal_node_id":"0.0-5.0-35.0"},{"group":"hexagon_tri","fractal_assignment":["../images/ylw_slt.png","../images/blu_wht.png","../images/gry_blk.png","../images/pnk_blu.png","../images/org_blu.png","../images/cyn_red.png"],"mutagen_generator_assignment":[1,0],"goal":1,"start":5,"action_noise":0,"location_history":"[5,0,1]","action_history":"[1,1]","mutagen_history":"[0,0]","location_rts":"[1416,945]","trial_type":"fractal-mutation","trial_index":90,"time_elapsed":1419612,"internal_node_id":"0.0-5.0-36.0"},{"group":"hexagon_tri","fractal_assignment":["../images/ylw_slt.png","../images/blu_wht.png","../images/gry_blk.png","../images/pnk_blu.png","../images/org_blu.png","../images/cyn_red.png"],"mutagen_generator_assignment":[1,0],"goal":4,"start":1,"action_noise":0,"location_history":"[1,3,4]","action_history":"[0,1]","mutagen_history":"[1,0]","location_rts":"[2952,707]","trial_type":"fractal-mutation","trial_index":91,"time_elapsed":1429314,"internal_node_id":"0.0-5.0-37.0"},{"group":"hexagon_tri","fractal_assignment":["../images/ylw_slt.png","../images/blu_wht.png","../images/gry_blk.png","../images/pnk_blu.png","../images/org_blu.png","../images/cyn_red.png"],"mutagen_generator_assignment":[1,0],"goal":3,"start":4,"action_noise":0,"location_history":"[4,2,3]","action_history":"[1,1]","mutagen_history":"[0,0]","location_rts":"[1164,497]","trial_type":"fractal-mutation","trial_index":92,"time_elapsed":1437016,"internal_node_id":"0.0-5.0-38.0"},{"group":"hexagon_tri","fractal_assignment":["../images/ylw_slt.png","../images/blu_wht.png","../images/gry_blk.png","../images/pnk_blu.png","../images/org_blu.png","../images/cyn_red.png"],"mutagen_generator_assignment":[1,0],"goal":5,"start":3,"action_noise":0,"location_history":"[3,2,1,5]","action_history":"[0,0,1]","mutagen_history":"[1,1,0]","location_rts":"[1237,692,694]","trial_type":"fractal-mutation","trial_index":93,"time_elapsed":1446707,"internal_node_id":"0.0-5.0-39.0"},{"group":"hexagon_tri","fractal_assignment":["../images/ylw_slt.png","../images/blu_wht.png","../images/gry_blk.png","../images/pnk_blu.png","../images/org_blu.png","../images/cyn_red.png"],"mutagen_generator_assignment":[1,0],"goal":1,"start":5,"action_noise":0,"location_history":"[5,0,1]","action_history":"[1,1]","mutagen_history":"[0,0]","location_rts":"[1166,984]","trial_type":"fractal-mutation","trial_index":94,"time_elapsed":1454897,"internal_node_id":"0.0-5.0-40.0"},{"group":"hexagon_tri","fractal_assignment":["../images/ylw_slt.png","../images/blu_wht.png","../images/gry_blk.png","../images/pnk_blu.png","../images/org_blu.png","../images/cyn_red.png"],"mutagen_generator_assignment":[1,0],"goal":2,"start":1,"action_noise":0,"location_history":"[1,3,4,2]","action_history":"[0,1,1]","mutagen_history":"[1,0,0]","location_rts":"[1898,656,657]","trial_type":"fractal-mutation","trial_index":95,"time_elapsed":1465173,"internal_node_id":"0.0-5.0-41.0"},{"group":"hexagon_tri","fractal_assignment":["../images/ylw_slt.png","../images/blu_wht.png","../images/gry_blk.png","../images/pnk_blu.png","../images/org_blu.png","../images/cyn_red.png"],"mutagen_generator_assignment":[1,0],"goal":4,"start":2,"action_noise":0,"location_history":"[2,3,4]","action_history":"[1,1]","mutagen_history":"[0,0]","location_rts":"[1702,694]","trial_type":"fractal-mutation","trial_index":96,"time_elapsed":1473609,"internal_node_id":"0.0-5.0-42.0"},{"group":"hexagon_tri","fractal_assignment":["../images/ylw_slt.png","../images/blu_wht.png","../images/gry_blk.png","../images/pnk_blu.png","../images/org_blu.png","../images/cyn_red.png"],"mutagen_generator_assignment":[1,0],"goal":0,"start":4,"action_noise":0,"location_history":"[4,2,1,3,2,3,2,1,5,0]","action_history":"[1,0,0,0,1,0,0,1,1]","mutagen_history":"[0,1,1,1,0,1,1,0,0]","location_rts":"[1392,654,995,1186,495,513,695,539,622]","trial_type":"fractal-mutation","trial_index":97,"time_elapsed":1493896,"internal_node_id":"0.0-5.0-43.0"},{"group":"hexagon_tri","fractal_assignment":["../images/ylw_slt.png","../images/blu_wht.png","../images/gry_blk.png","../images/pnk_blu.png","../images/org_blu.png","../images/cyn_red.png"],"mutagen_generator_assignment":[1,0],"goal":3,"start":0,"action_noise":0,"location_history":"[0,5,0,1,3]","action_history":"[0,1,1,0]","mutagen_history":"[1,0,0,1]","location_rts":"[1841,584,649,1057]","trial_type":"fractal-mutation","trial_index":98,"time_elapsed":1506110,"internal_node_id":"0.0-5.0-44.0"},{"group":"hexagon_tri","fractal_assignment":["../images/ylw_slt.png","../images/blu_wht.png","../images/gry_blk.png","../images/pnk_blu.png","../images/org_blu.png","../images/cyn_red.png"],"mutagen_generator_assignment":[1,0],"goal":0,"start":3,"action_noise":0,"location_history":"[3,2,3,4,0]","action_history":"[0,1,1,0]","mutagen_history":"[1,0,0,1]","location_rts":"[1233,632,544,675]","trial_type":"fractal-mutation","trial_index":99,"time_elapsed":1517281,"internal_node_id":"0.0-5.0-45.0"},{"group":"hexagon_tri","fractal_assignment":["../images/ylw_slt.png","../images/blu_wht.png","../images/gry_blk.png","../images/pnk_blu.png","../images/org_blu.png","../images/cyn_red.png"],"mutagen_generator_assignment":[1,0],"goal":4,"start":0,"action_noise":0,"location_history":"[0,5,0,1,3,4]","action_history":"[0,1,1,0,1]","mutagen_history":"[1,0,0,1,0]","location_rts":"[1991,1011,590,706,1029]","trial_type":"fractal-mutation","trial_index":100,"time_elapsed":1531716,"internal_node_id":"0.0-5.0-46.0"},{"group":"hexagon_tri","fractal_assignment":["../images/ylw_slt.png","../images/blu_wht.png","../images/gry_blk.png","../images/pnk_blu.png","../images/org_blu.png","../images/cyn_red.png"],"mutagen_generator_assignment":[1,0],"goal":5,"start":4,"action_noise":0,"location_history":"[4,0,1,5]","action_history":"[0,1,1]","mutagen_history":"[1,0,0]","location_rts":"[1572,797,548]","trial_type":"fractal-mutation","trial_index":101,"time_elapsed":1541699,"internal_node_id":"0.0-5.0-47.0"},{"group":"hexagon_tri","fractal_assignment":["../images/ylw_slt.png","../images/blu_wht.png","../images/gry_blk.png","../images/pnk_blu.png","../images/org_blu.png","../images/cyn_red.png"],"mutagen_generator_assignment":[1,0],"goal":2,"start":5,"action_noise":0,"location_history":"[5,0,1,3,4,2]","action_history":"[1,1,0,1,1]","mutagen_history":"[0,0,1,0,0]","location_rts":"[1270,542,1461,612,556]","trial_type":"fractal-mutation","trial_index":102,"time_elapsed":1555245,"internal_node_id":"0.0-5.0-48.0"},{"group":"hexagon_tri","fractal_assignment":["../images/ylw_slt.png","../images/blu_wht.png","../images/gry_blk.png","../images/pnk_blu.png","../images/org_blu.png","../images/cyn_red.png"],"mutagen_generator_assignment":[1,0],"goal":1,"start":2,"action_noise":0,"location_history":"[2,1]","action_history":"[0]","mutagen_history":"[1]","location_rts":"[1459]","trial_type":"fractal-mutation","trial_index":103,"time_elapsed":1561730,"internal_node_id":"0.0-5.0-49.0"},{"view_history":"[{\"page_index\":0,\"viewing_time\":4327}]","rt":4327,"trial_type":"instructions","trial_index":104,"time_elapsed":1567057,"internal_node_id":"0.0-6.0"},{"rt":14670,"responses":"{\"Q0\":\"If you could memorize a pattern\"}","trial_type":"survey-text","trial_index":105,"time_elapsed":1582731,"internal_node_id":"0.0-7.0-0.0"},{"rt":17077,"responses":"{\"Q0\":\"Same, to see if you could memorize a pattern.\"}","trial_type":"survey-text","trial_index":106,"time_elapsed":1600809,"internal_node_id":"0.0-7.0-1.0"},{"rt":16335,"responses":"{\"Q0\":\"<img src='../images/diagrams/hexagon_tri.png'>\"}","trial_type":"survey-multi-choice","trial_index":107,"time_elapsed":1618146,"internal_node_id":"0.0-7.0-2.0"},{"rt":64805,"assignments":["../images/ylw_slt.png","../images/blu_wht.png","../images/pnk_blu.png","../images/gry_blk.png","../images/org_blu.png","../images/cyn_red.png"],"trial_type":"drag-drop-on-image","trial_index":108,"time_elapsed":1683953,"internal_node_id":"0.0-7.0-3.0"},{"rt":5965,"responses":"{\"Q0\":\"4\"}","trial_type":"survey-likert","trial_index":109,"time_elapsed":1690921,"internal_node_id":"0.0-7.0-4.0"},{"rt":31678,"responses":"{\"Q0\":\"The second one was harder to see the pattern but I thought they were related as I was doing them.\"}","trial_type":"survey-text","trial_index":110,"time_elapsed":1723600,"internal_node_id":"0.0-7.0-5.0"},{"rt":4047,"responses":"{\"Q0\":\"Yes\"}","trial_type":"survey-multi-choice","trial_index":111,"time_elapsed":1728649,"internal_node_id":"0.0-7.0-6.0"},{"rt":20469,"responses":"{\"Q0\":\"During session 2\"}","trial_type":"survey-multi-choice","trial_index":112,"time_elapsed":1750121,"internal_node_id":"0.0-7.0-7.0"},{"rt":6173,"responses":"{\"Q0\":\"\"}","trial_type":"survey-text","trial_index":113,"time_elapsed":1757296,"internal_node_id":"0.0-7.0-8.0"},{"rt":5591,"responses":"{\"Q0\":\"2\"}","trial_type":"survey-likert","trial_index":114,"time_elapsed":1763889,"internal_node_id":"0.0-7.0-9.0"},{"rt":7844,"responses":"{\"Q0\":\"Same structure\"}","trial_type":"survey-multi-choice","trial_index":115,"time_elapsed":1772736,"internal_node_id":"0.0-7.0-10.0"},{"rt":21054,"assignments":["../images/blu_wht.png","../images/cyn_red.png","../images/org_blu.png","../images/pnk_blu.png","../images/gry_blk.png","../images/ylw_slt.png"],"background_order":[5,4,2,0,1,3],"trial_type":"drag-drop-on-image","trial_index":116,"time_elapsed":1794792,"internal_node_id":"0.0-7.0-11.0"},{"rt":12126,"responses":"{\"Q0\":\"left (white) door = ray, right (black) door = acid\",\"Q1\":\"Not at all confident\"}","trial_type":"survey-multi-choice","trial_index":117,"time_elapsed":1807921,"internal_node_id":"0.0-7.0-12.0"},{"rt":9313,"responses":"{\"Q0\":\"55-65\",\"Q1\":\"Bachelor's degree\",\"Q2\":\"Male\",\"Q3\":\"White\"}","trial_type":"survey-multi-choice","trial_index":118,"time_elapsed":1818242,"internal_node_id":"0.0-8.0"},{"rt":9669,"responses":"{\"Q0\":\"Thank You!\"}","trial_type":"survey-text","trial_index":119,"time_elapsed":1828912,"internal_node_id":"0.0-9.0"}]