[{"view_history":"[{\"page_index\":0,\"viewing_time\":74720},{\"page_index\":1,\"viewing_time\":13837}]","rt":88557,"trial_type":"instructions","trial_index":0,"time_elapsed":88558,"internal_node_id":"0.0-0.0"},{"view_history":"[{\"page_index\":0,\"viewing_time\":4988},{\"page_index\":1,\"viewing_time\":32440}]","rt":37428,"trial_type":"instructions","trial_index":1,"time_elapsed":126988,"internal_node_id":"0.0-1.0"},{"group":"hexagon_bi","room_assignment":["grey","blue","purple","red","yellow","green"],"door_color_assignment":["black","white"],"door_generator_assignment":[1,0],"goal":2,"start":1,"action_noise":0,"location_history":"[1,2]","action_history":"[0]","door_history":"[1]","location_rts":"[5038]","trial_type":"two-door-navigation","trial_index":2,"time_elapsed":137056,"internal_node_id":"0.0-2.0-0.0"},{"group":"hexagon_bi","room_assignment":["grey","blue","purple","red","yellow","green"],"door_color_assignment":["black","white"],"door_generator_assignment":[1,0],"goal":0,"start":2,"action_noise":0,"location_history":"[2,3,4,3,2,3,2,1,0]","action_history":"[1,0,0,1,1,1,0,1]","door_history":"[0,1,1,0,0,0,1,0]","location_rts":"[5783,4862,3495,1364,2741,3399,1215,3558]","trial_type":"two-door-navigation","trial_index":3,"time_elapsed":175619,"internal_node_id":"0.0-2.0-1.0"},{"group":"hexagon_bi","room_assignment":["grey","blue","purple","red","yellow","green"],"door_color_assignment":["black","white"],"door_generator_assignment":[1,0],"goal":5,"start":0,"action_noise":0,"location_history":"[0,1,2,3,2,1,2,3,4,3,2,3,4,5]","action_history":"[1,0,1,1,0,0,1,0,0,1,1,0,1]","door_history":"[0,1,0,0,1,1,0,1,1,0,0,1,0]","location_rts":"[8450,1696,1841,4915,2655,4376,1265,6065,4657,1916,1813,1602,1271]","trial_type":"two-door-navigation","trial_index":4,"time_elapsed":235356,"internal_node_id":"0.0-2.0-2.0"},{"group":"hexagon_bi","room_assignment":["grey","blue","purple","red","yellow","green"],"door_color_assignment":["black","white"],"door_generator_assignment":[1,0],"goal":1,"start":5,"action_noise":0,"location_history":"[5,4,3,4,5,0,5,4,5,0,5,4,5,4,3,4,5,0,5,4,5,4,3,2,3,2,1]","action_history":"[1,0,0,1,0,0,1,1,0,0,1,1,1,0,0,1,0,0,1,1,1,0,1,1,1,0]","door_history":"[0,1,1,0,1,1,0,0,1,1,0,0,0,1,1,0,1,1,0,0,0,1,0,0,0,1]","location_rts":"[7599,3018,2238,3628,4280,1950,1242,2308,1634,1615,1459,2626,4259,1283,8939,2112,3754,2962,1128,1765,2670,1421,3424,1232,1112,985]","trial_type":"two-door-navigation","trial_index":5,"time_elapsed":336402,"internal_node_id":"0.0-2.0-3.0"},{"group":"hexagon_bi","room_assignment":["grey","blue","purple","red","yellow","green"],"door_color_assignment":["black","white"],"door_generator_assignment":[1,0],"goal":3,"start":1,"action_noise":0,"location_history":"[1,2,3]","action_history":"[0,1]","door_history":"[1,0]","location_rts":"[4624,3386]","trial_type":"two-door-navigation","trial_index":6,"time_elapsed":350453,"internal_node_id":"0.0-2.0-4.0"},{"group":"hexagon_bi","room_assignment":["grey","blue","purple","red","yellow","green"],"door_color_assignment":["black","white"],"door_generator_assignment":[1,0],"goal":5,"start":3,"action_noise":0,"location_history":"[3,2,1,0,5]","action_history":"[1,0,1,0]","door_history":"[0,1,0,1]","location_rts":"[7776,2092,2538,1848]","trial_type":"two-door-navigation","trial_index":7,"time_elapsed":372764,"internal_node_id":"0.0-2.0-5.0"},{"group":"hexagon_bi","room_assignment":["grey","blue","purple","red","yellow","green"],"door_color_assignment":["black","white"],"door_generator_assignment":[1,0],"goal":4,"start":5,"action_noise":0,"location_history":"[5,0,1,2,3,4]","action_history":"[0,1,0,1,0]","door_history":"[1,0,1,0,1]","location_rts":"[4104,1872,3280,2056,4189]","trial_type":"two-door-navigation","trial_index":8,"time_elapsed":397340,"internal_node_id":"0.0-2.0-6.0"},{"group":"hexagon_bi","room_assignment":["grey","blue","purple","red","yellow","green"],"door_color_assignment":["black","white"],"door_generator_assignment":[1,0],"goal":0,"start":4,"action_noise":0,"location_history":"[4,3,4,5,0]","action_history":"[0,0,1,0]","door_history":"[1,1,0,1]","location_rts":"[8864,4926,11022,3912]","trial_type":"two-door-navigation","trial_index":9,"time_elapsed":434138,"internal_node_id":"0.0-2.0-7.0"},{"group":"hexagon_bi","room_assignment":["grey","blue","purple","red","yellow","green"],"door_color_assignment":["black","white"],"door_generator_assignment":[1,0],"goal":2,"start":0,"action_noise":0,"location_history":"[0,5,4,3,2]","action_history":"[0,1,0,1]","door_history":"[1,0,1,0]","location_rts":"[6449,4161,3001,1204]","trial_type":"two-door-navigation","trial_index":10,"time_elapsed":457011,"internal_node_id":"0.0-2.0-8.0"},{"group":"hexagon_bi","room_assignment":["grey","blue","purple","red","yellow","green"],"door_color_assignment":["black","white"],"door_generator_assignment":[1,0],"goal":4,"start":2,"action_noise":0,"location_history":"[2,3,4]","action_history":"[1,0]","door_history":"[0,1]","location_rts":"[4672,1393]","trial_type":"two-door-navigation","trial_index":11,"time_elapsed":469111,"internal_node_id":"0.0-2.0-9.0"},{"group":"hexagon_bi","room_assignment":["grey","blue","purple","red","yellow","green"],"door_color_assignment":["black","white"],"door_generator_assignment":[1,0],"goal":2,"start":4,"action_noise":0,"location_history":"[4,3,2]","action_history":"[0,1]","door_history":"[1,0]","location_rts":"[6045,3404]","trial_type":"two-door-navigation","trial_index":12,"time_elapsed":484590,"internal_node_id":"0.0-2.0-10.0"},{"group":"hexagon_bi","room_assignment":["grey","blue","purple","red","yellow","green"],"door_color_assignment":["black","white"],"door_generator_assignment":[1,0],"goal":3,"start":2,"action_noise":0,"location_history":"[2,1,0,5,4,3]","action_history":"[0,1,0,1,0]","door_history":"[1,0,1,0,1]","location_rts":"[8781,2329,2892,2155,1402]","trial_type":"two-door-navigation","trial_index":13,"time_elapsed":511221,"internal_node_id":"0.0-2.0-11.0"},{"group":"hexagon_bi","room_assignment":["grey","blue","purple","red","yellow","green"],"door_color_assignment":["black","white"],"door_generator_assignment":[1,0],"goal":0,"start":3,"action_noise":0,"location_history":"[3,2,1,0]","action_history":"[1,0,1]","door_history":"[0,1,0]","location_rts":"[6127,3306,1237]","trial_type":"two-door-navigation","trial_index":14,"time_elapsed":528949,"internal_node_id":"0.0-2.0-12.0"},{"group":"hexagon_bi","room_assignment":["grey","blue","purple","red","yellow","green"],"door_color_assignment":["black","white"],"door_generator_assignment":[1,0],"goal":5,"start":0,"action_noise":0,"location_history":"[0,1,2,3,2,1,0,5]","action_history":"[1,0,1,1,0,1,0]","door_history":"[0,1,0,0,1,0,1]","location_rts":"[8087,2525,2251,2464,1103,7607,4928]","trial_type":"two-door-navigation","trial_index":15,"time_elapsed":569030,"internal_node_id":"0.0-2.0-13.0"},{"group":"hexagon_bi","room_assignment":["grey","blue","purple","red","yellow","green"],"door_color_assignment":["black","white"],"door_generator_assignment":[1,0],"goal":1,"start":5,"action_noise":0,"location_history":"[5,0,5,4,3,4,5,4,5,0,5,4,3,2,1]","action_history":"[0,0,1,0,0,1,1,1,0,0,1,0,1,0]","door_history":"[1,1,0,1,1,0,0,0,1,1,0,1,0,1]","location_rts":"[6030,3340,1115,3787,7288,1442,2563,3034,3204,6368,2472,6527,3001,1851]","trial_type":"two-door-navigation","trial_index":16,"time_elapsed":639269,"internal_node_id":"0.0-2.0-14.0"},{"group":"hexagon_bi","room_assignment":["grey","blue","purple","red","yellow","green"],"door_color_assignment":["black","white"],"door_generator_assignment":[1,0],"goal":5,"start":1,"action_noise":0,"location_history":"[1,2,3,2,1,2,3,2,1,0,1,2,1,0,5]","action_history":"[0,1,1,0,0,1,1,0,1,1,0,0,1,0]","door_history":"[1,0,0,1,1,0,0,1,0,0,1,1,0,1]","location_rts":"[11071,1779,3962,1339,1267,1624,2533,3717,2744,4265,990,1056,3185,6385]","trial_type":"two-door-navigation","trial_index":17,"time_elapsed":703395,"internal_node_id":"0.0-2.0-15.0"},{"group":"hexagon_bi","room_assignment":["grey","blue","purple","red","yellow","green"],"door_color_assignment":["black","white"],"door_generator_assignment":[1,0],"goal":3,"start":5,"action_noise":0,"location_history":"[5,4,3]","action_history":"[1,0]","door_history":"[0,1]","location_rts":"[7024,2929]","trial_type":"two-door-navigation","trial_index":18,"time_elapsed":719380,"internal_node_id":"0.0-2.0-16.0"},{"group":"hexagon_bi","room_assignment":["grey","blue","purple","red","yellow","green"],"door_color_assignment":["black","white"],"door_generator_assignment":[1,0],"goal":2,"start":3,"action_noise":0,"location_history":"[3,2]","action_history":"[1]","door_history":"[0]","location_rts":"[6718]","trial_type":"two-door-navigation","trial_index":19,"time_elapsed":731119,"internal_node_id":"0.0-2.0-17.0"},{"group":"hexagon_bi","room_assignment":["grey","blue","purple","red","yellow","green"],"door_color_assignment":["black","white"],"door_generator_assignment":[1,0],"goal":1,"start":2,"action_noise":0,"location_history":"[2,1]","action_history":"[0]","door_history":"[1]","location_rts":"[3614]","trial_type":"two-door-navigation","trial_index":20,"time_elapsed":739748,"internal_node_id":"0.0-2.0-18.0"},{"group":"hexagon_bi","room_assignment":["grey","blue","purple","red","yellow","green"],"door_color_assignment":["black","white"],"door_generator_assignment":[1,0],"goal":4,"start":1,"action_noise":0,"location_history":"[1,2,3,4]","action_history":"[0,1,0]","door_history":"[1,0,1]","location_rts":"[6935,1928,1740]","trial_type":"two-door-navigation","trial_index":21,"time_elapsed":757394,"internal_node_id":"0.0-2.0-19.0"},{"group":"hexagon_bi","room_assignment":["grey","blue","purple","red","yellow","green"],"door_color_assignment":["black","white"],"door_generator_assignment":[1,0],"goal":0,"start":4,"action_noise":0,"location_history":"[4,5,0]","action_history":"[1,0]","door_history":"[0,1]","location_rts":"[11537,2228]","trial_type":"two-door-navigation","trial_index":22,"time_elapsed":777189,"internal_node_id":"0.0-2.0-20.0"},{"group":"hexagon_bi","room_assignment":["grey","blue","purple","red","yellow","green"],"door_color_assignment":["black","white"],"door_generator_assignment":[1,0],"goal":3,"start":0,"action_noise":0,"location_history":"[0,1,2,1,2,3]","action_history":"[1,0,0,0,1]","door_history":"[0,1,1,1,0]","location_rts":"[7207,3770,1861,5487,2162]","trial_type":"two-door-navigation","trial_index":23,"time_elapsed":806738,"internal_node_id":"0.0-2.0-21.0"},{"group":"hexagon_bi","room_assignment":["grey","blue","purple","red","yellow","green"],"door_color_assignment":["black","white"],"door_generator_assignment":[1,0],"goal":1,"start":3,"action_noise":0,"location_history":"[3,4,3,2,1]","action_history":"[0,0,1,0]","door_history":"[1,1,0,1]","location_rts":"[5905,4651,2925,1929]","trial_type":"two-door-navigation","trial_index":24,"time_elapsed":830209,"internal_node_id":"0.0-2.0-22.0"},{"group":"hexagon_bi","room_assignment":["grey","blue","purple","red","yellow","green"],"door_color_assignment":["black","white"],"door_generator_assignment":[1,0],"goal":0,"start":1,"action_noise":0,"location_history":"[1,2,3,2,1,0]","action_history":"[0,1,1,0,1]","door_history":"[1,0,0,1,0]","location_rts":"[7916,1009,2714,2028,2124]","trial_type":"two-door-navigation","trial_index":25,"time_elapsed":855071,"internal_node_id":"0.0-2.0-23.0"},{"group":"hexagon_bi","room_assignment":["grey","blue","purple","red","yellow","green"],"door_color_assignment":["black","white"],"door_generator_assignment":[1,0],"goal":2,"start":0,"action_noise":0,"location_history":"[0,5,4,5,0,5,4,5,0,5,4,5,0,5,4,3,2]","action_history":"[0,1,1,0,0,1,1,0,0,1,1,0,0,1,0,1]","door_history":"[1,0,0,1,1,0,0,1,1,0,0,1,1,0,1,0]","location_rts":"[9556,2142,5575,1312,5544,1478,1494,2143,4405,1544,1125,1193,1890,1785,4552,4489]","trial_type":"two-door-navigation","trial_index":26,"time_elapsed":925547,"internal_node_id":"0.0-2.0-24.0"},{"group":"hexagon_bi","room_assignment":["grey","blue","purple","red","yellow","green"],"door_color_assignment":["black","white"],"door_generator_assignment":[1,0],"goal":4,"start":2,"action_noise":0,"location_history":"[2,3,4]","action_history":"[1,0]","door_history":"[0,1]","location_rts":"[5063,2055]","trial_type":"two-door-navigation","trial_index":27,"time_elapsed":938698,"internal_node_id":"0.0-2.0-25.0"},{"group":"hexagon_bi","room_assignment":["grey","blue","purple","red","yellow","green"],"door_color_assignment":["black","white"],"door_generator_assignment":[1,0],"goal":5,"start":4,"action_noise":0,"location_history":"[4,5]","action_history":"[1]","door_history":"[0]","location_rts":"[6609]","trial_type":"two-door-navigation","trial_index":28,"time_elapsed":950324,"internal_node_id":"0.0-2.0-26.0"},{"group":"hexagon_bi","room_assignment":["grey","blue","purple","red","yellow","green"],"door_color_assignment":["black","white"],"door_generator_assignment":[1,0],"goal":2,"start":5,"action_noise":0,"location_history":"[5,4,3,2]","action_history":"[1,0,1]","door_history":"[0,1,0]","location_rts":"[6558,1542,1033]","trial_type":"two-door-navigation","trial_index":29,"time_elapsed":966500,"internal_node_id":"0.0-2.0-27.0"},{"group":"hexagon_bi","room_assignment":["grey","blue","purple","red","yellow","green"],"door_color_assignment":["black","white"],"door_generator_assignment":[1,0],"goal":3,"start":2,"action_noise":0,"location_history":"[2,1,0,1,2,3]","action_history":"[0,1,1,0,1]","door_history":"[1,0,0,1,0]","location_rts":"[9246,4716,3069,1480,3096]","trial_type":"two-door-navigation","trial_index":30,"time_elapsed":997187,"internal_node_id":"0.0-2.0-28.0"},{"group":"hexagon_bi","room_assignment":["grey","blue","purple","red","yellow","green"],"door_color_assignment":["black","white"],"door_generator_assignment":[1,0],"goal":1,"start":3,"action_noise":0,"location_history":"[3,4,5,0,1]","action_history":"[0,1,0,1]","door_history":"[1,0,1,0]","location_rts":"[11528,2311,2858,3871]","trial_type":"two-door-navigation","trial_index":31,"time_elapsed":1025822,"internal_node_id":"0.0-2.0-29.0"},{"group":"hexagon_bi","room_assignment":["grey","blue","purple","red","yellow","green"],"door_color_assignment":["black","white"],"door_generator_assignment":[1,0],"goal":4,"start":1,"action_noise":0,"location_history":"[1,0,5,4]","action_history":"[1,0,1]","door_history":"[0,1,0]","location_rts":"[5380,3542,1848]","trial_type":"two-door-navigation","trial_index":32,"time_elapsed":1043646,"internal_node_id":"0.0-2.0-30.0"},{"group":"hexagon_bi","room_assignment":["grey","blue","purple","red","yellow","green"],"door_color_assignment":["black","white"],"door_generator_assignment":[1,0],"goal":5,"start":4,"action_noise":0,"location_history":"[4,3,2,1,0,5]","action_history":"[0,1,0,1,0]","door_history":"[1,0,1,0,1]","location_rts":"[4532,2455,2295,5546,2370]","trial_type":"two-door-navigation","trial_index":33,"time_elapsed":1069923,"internal_node_id":"0.0-2.0-31.0"},{"group":"hexagon_bi","room_assignment":["grey","blue","purple","red","yellow","green"],"door_color_assignment":["black","white"],"door_generator_assignment":[1,0],"goal":0,"start":5,"action_noise":0,"location_history":"[5,0]","action_history":"[0]","door_history":"[1]","location_rts":"[15137]","trial_type":"two-door-navigation","trial_index":34,"time_elapsed":1090080,"internal_node_id":"0.0-2.0-32.0"},{"group":"hexagon_bi","room_assignment":["grey","blue","purple","red","yellow","green"],"door_color_assignment":["black","white"],"door_generator_assignment":[1,0],"goal":2,"start":0,"action_noise":0,"location_history":"[0,1,2]","action_history":"[1,0]","door_history":"[0,1]","location_rts":"[6811,2226]","trial_type":"two-door-navigation","trial_index":35,"time_elapsed":1105144,"internal_node_id":"0.0-2.0-33.0"},{"group":"hexagon_bi","room_assignment":["grey","blue","purple","red","yellow","green"],"door_color_assignment":["black","white"],"door_generator_assignment":[1,0],"goal":0,"start":2,"action_noise":0,"location_history":"[2,1,0]","action_history":"[0,1]","door_history":"[1,0]","location_rts":"[6644,2061]","trial_type":"two-door-navigation","trial_index":36,"time_elapsed":1119882,"internal_node_id":"0.0-2.0-34.0"},{"group":"hexagon_bi","room_assignment":["grey","blue","purple","red","yellow","green"],"door_color_assignment":["black","white"],"door_generator_assignment":[1,0],"goal":5,"start":0,"action_noise":0,"location_history":"[0,1,2,1,2,3,2,1,0,5]","action_history":"[1,0,0,0,1,1,0,1,0]","door_history":"[0,1,1,1,0,0,1,0,1]","location_rts":"[5969,1926,1711,5240,1708,3600,1266,1524,4914]","trial_type":"two-door-navigation","trial_index":37,"time_elapsed":1160887,"internal_node_id":"0.0-2.0-35.0"},{"group":"hexagon_bi","room_assignment":["grey","blue","purple","red","yellow","green"],"door_color_assignment":["black","white"],"door_generator_assignment":[1,0],"goal":1,"start":5,"action_noise":0,"location_history":"[5,4,3,2,1]","action_history":"[1,0,1,0]","door_history":"[0,1,0,1]","location_rts":"[11116,1707,3777,1564]","trial_type":"two-door-navigation","trial_index":38,"time_elapsed":1187111,"internal_node_id":"0.0-2.0-36.0"},{"group":"hexagon_bi","room_assignment":["grey","blue","purple","red","yellow","green"],"door_color_assignment":["black","white"],"door_generator_assignment":[1,0],"goal":4,"start":1,"action_noise":0,"location_history":"[1,2,1,0,5,0,1,0,5,0,1,2,3,4]","action_history":"[0,0,1,0,0,1,1,0,0,1,0,1,0]","door_history":"[1,1,0,1,1,0,0,1,1,0,1,0,1]","location_rts":"[6003,1688,1048,3816,5262,1247,1289,2112,840,1777,2555,2577,2455]","trial_type":"two-door-navigation","trial_index":39,"time_elapsed":1236987,"internal_node_id":"0.0-2.0-37.0"},{"group":"hexagon_bi","room_assignment":["grey","blue","purple","red","yellow","green"],"door_color_assignment":["black","white"],"door_generator_assignment":[1,0],"goal":3,"start":4,"action_noise":0,"location_history":"[4,3]","action_history":"[0]","door_history":"[1]","location_rts":"[4406]","trial_type":"two-door-navigation","trial_index":40,"time_elapsed":1246412,"internal_node_id":"0.0-2.0-38.0"},{"group":"hexagon_bi","room_assignment":["grey","blue","purple","red","yellow","green"],"door_color_assignment":["black","white"],"door_generator_assignment":[1,0],"goal":5,"start":3,"action_noise":0,"location_history":"[3,4,5]","action_history":"[0,1]","door_history":"[1,0]","location_rts":"[5664,949]","trial_type":"two-door-navigation","trial_index":41,"time_elapsed":1259062,"internal_node_id":"0.0-2.0-39.0"},{"group":"hexagon_bi","room_assignment":["grey","blue","purple","red","yellow","green"],"door_color_assignment":["black","white"],"door_generator_assignment":[1,0],"goal":1,"start":5,"action_noise":0,"location_history":"[5,4,3,2,1]","action_history":"[1,0,1,0]","door_history":"[0,1,0,1]","location_rts":"[3894,2776,1609,1950]","trial_type":"two-door-navigation","trial_index":42,"time_elapsed":1277347,"internal_node_id":"0.0-2.0-40.0"},{"group":"hexagon_bi","room_assignment":["grey","blue","purple","red","yellow","green"],"door_color_assignment":["black","white"],"door_generator_assignment":[1,0],"goal":2,"start":1,"action_noise":0,"location_history":"[1,2]","action_history":"[0]","door_history":"[1]","location_rts":"[5952]","trial_type":"two-door-navigation","trial_index":43,"time_elapsed":1288318,"internal_node_id":"0.0-2.0-41.0"},{"group":"hexagon_bi","room_assignment":["grey","blue","purple","red","yellow","green"],"door_color_assignment":["black","white"],"door_generator_assignment":[1,0],"goal":4,"start":2,"action_noise":0,"location_history":"[2,3,4]","action_history":"[1,0]","door_history":"[0,1]","location_rts":"[6661,1635]","trial_type":"two-door-navigation","trial_index":44,"time_elapsed":1302642,"internal_node_id":"0.0-2.0-42.0"},{"group":"hexagon_bi","room_assignment":["grey","blue","purple","red","yellow","green"],"door_color_assignment":["black","white"],"door_generator_assignment":[1,0],"goal":0,"start":4,"action_noise":0,"location_history":"[4,3,2,3,2,1,0]","action_history":"[0,1,1,1,0,1]","door_history":"[1,0,0,0,1,0]","location_rts":"[5169,4351,5543,4449,1614,7631]","trial_type":"two-door-navigation","trial_index":45,"time_elapsed":1341503,"internal_node_id":"0.0-2.0-43.0"},{"group":"hexagon_bi","room_assignment":["grey","blue","purple","red","yellow","green"],"door_color_assignment":["black","white"],"door_generator_assignment":[1,0],"goal":3,"start":0,"action_noise":0,"location_history":"[0,1,2,1,0,5,0,1,2,1,0,5,4,3]","action_history":"[1,0,0,1,0,0,1,0,0,1,0,1,0]","door_history":"[0,1,1,0,1,1,0,1,1,0,1,0,1]","location_rts":"[8755,3474,6473,1264,4456,1839,1824,2185,1691,1359,2825,2079,2841]","trial_type":"two-door-navigation","trial_index":46,"time_elapsed":1399768,"internal_node_id":"0.0-2.0-44.0"},{"group":"hexagon_bi","room_assignment":["grey","blue","purple","red","yellow","green"],"door_color_assignment":["black","white"],"door_generator_assignment":[1,0],"goal":0,"start":3,"action_noise":0,"location_history":"[3,2,1,0]","action_history":"[1,0,1]","door_history":"[0,1,0]","location_rts":"[4977,2734,1816]","trial_type":"two-door-navigation","trial_index":47,"time_elapsed":1416338,"internal_node_id":"0.0-2.0-45.0"},{"group":"hexagon_bi","room_assignment":["grey","blue","purple","red","yellow","green"],"door_color_assignment":["black","white"],"door_generator_assignment":[1,0],"goal":4,"start":0,"action_noise":0,"location_history":"[0,1,2,3,4]","action_history":"[1,0,1,0]","door_history":"[0,1,0,1]","location_rts":"[5711,2177,1578,1311]","trial_type":"two-door-navigation","trial_index":48,"time_elapsed":1435182,"internal_node_id":"0.0-2.0-46.0"},{"group":"hexagon_bi","room_assignment":["grey","blue","purple","red","yellow","green"],"door_color_assignment":["black","white"],"door_generator_assignment":[1,0],"goal":5,"start":4,"action_noise":0,"location_history":"[4,3,2,1,0,5]","action_history":"[0,1,0,1,0]","door_history":"[1,0,1,0,1]","location_rts":"[9692,1448,1407,1652,1804]","trial_type":"two-door-navigation","trial_index":49,"time_elapsed":1460267,"internal_node_id":"0.0-2.0-47.0"},{"group":"hexagon_bi","room_assignment":["grey","blue","purple","red","yellow","green"],"door_color_assignment":["black","white"],"door_generator_assignment":[1,0],"goal":2,"start":5,"action_noise":0,"location_history":"[5,0,1,2]","action_history":"[0,1,0]","door_history":"[1,0,1]","location_rts":"[6391,2034,1393]","trial_type":"two-door-navigation","trial_index":50,"time_elapsed":1477131,"internal_node_id":"0.0-2.0-48.0"},{"group":"hexagon_bi","room_assignment":["grey","blue","purple","red","yellow","green"],"door_color_assignment":["black","white"],"door_generator_assignment":[1,0],"goal":1,"start":2,"action_noise":0,"location_history":"[2,1]","action_history":"[0]","door_history":"[1]","location_rts":"[13023]","trial_type":"two-door-navigation","trial_index":51,"time_elapsed":1495171,"internal_node_id":"0.0-2.0-49.0"},{"view_history":"[{\"page_index\":0,\"viewing_time\":19889}]","rt":19889,"trial_type":"instructions","trial_index":52,"time_elapsed":1516060,"internal_node_id":"0.0-3.0"},{"view_history":"[{\"page_index\":0,\"viewing_time\":6389},{\"page_index\":1,\"viewing_time\":27417}]","rt":33806,"trial_type":"instructions","trial_index":53,"time_elapsed":1550867,"internal_node_id":"0.0-4.0"},{"group":"hexagon_tri","fractal_assignment":["../images/ylw_slt.png","../images/blu_wht.png","../images/pnk_blu.png","../images/cyn_red.png","../images/org_blu.png","../images/gry_blk.png"],"mutagen_generator_assignment":[1,0],"goal":2,"start":1,"action_noise":0,"location_history":"[1,5,0,1,3,4,0,1,5,4,0,5,0,5,0,1,3,2]","action_history":"[1,1,1,0,1,0,1,1,0,0,0,1,0,1,1,0,0]","mutagen_history":"[0,0,0,1,0,1,0,0,1,1,1,0,1,0,0,1,1]","location_rts":"[2406,1918,1632,925,1389,1033,1372,1188,296,901,494,3495,320,1817,1675,804,823]","trial_type":"fractal-mutation","trial_index":54,"time_elapsed":1594771,"internal_node_id":"0.0-5.0-0.0"},{"group":"hexagon_tri","fractal_assignment":["../images/ylw_slt.png","../images/blu_wht.png","../images/pnk_blu.png","../images/cyn_red.png","../images/org_blu.png","../images/gry_blk.png"],"mutagen_generator_assignment":[1,0],"goal":0,"start":2,"action_noise":0,"location_history":"[2,3,2,1,5,0]","action_history":"[1,0,0,1,1]","mutagen_history":"[0,1,1,0,0]","location_rts":"[2887,1745,3035,4164,4087]","trial_type":"fractal-mutation","trial_index":55,"time_elapsed":1619822,"internal_node_id":"0.0-5.0-1.0"},{"group":"hexagon_tri","fractal_assignment":["../images/ylw_slt.png","../images/blu_wht.png","../images/pnk_blu.png","../images/cyn_red.png","../images/org_blu.png","../images/gry_blk.png"],"mutagen_generator_assignment":[1,0],"goal":5,"start":0,"action_noise":0,"location_history":"[0,1,3,2,3,2,1,5]","action_history":"[1,0,0,1,0,0,1]","mutagen_history":"[0,1,1,0,1,1,0]","location_rts":"[3090,3139,1591,829,309,795,726]","trial_type":"fractal-mutation","trial_index":56,"time_elapsed":1641493,"internal_node_id":"0.0-5.0-2.0"},{"group":"hexagon_tri","fractal_assignment":["../images/ylw_slt.png","../images/blu_wht.png","../images/pnk_blu.png","../images/cyn_red.png","../images/org_blu.png","../images/gry_blk.png"],"mutagen_generator_assignment":[1,0],"goal":1,"start":5,"action_noise":0,"location_history":"[5,4,0,1]","action_history":"[0,0,1]","mutagen_history":"[1,1,0]","location_rts":"[2876,362,2009]","trial_type":"fractal-mutation","trial_index":57,"time_elapsed":1653811,"internal_node_id":"0.0-5.0-3.0"},{"group":"hexagon_tri","fractal_assignment":["../images/ylw_slt.png","../images/blu_wht.png","../images/pnk_blu.png","../images/cyn_red.png","../images/org_blu.png","../images/gry_blk.png"],"mutagen_generator_assignment":[1,0],"goal":3,"start":1,"action_noise":0,"location_history":"[1,5,4,0,1,3]","action_history":"[1,0,0,1,0]","mutagen_history":"[0,1,1,0,1]","location_rts":"[3198,43,1809,2142,64]","trial_type":"fractal-mutation","trial_index":58,"time_elapsed":1670190,"internal_node_id":"0.0-5.0-4.0"},{"group":"hexagon_tri","fractal_assignment":["../images/ylw_slt.png","../images/blu_wht.png","../images/pnk_blu.png","../images/cyn_red.png","../images/org_blu.png","../images/gry_blk.png"],"mutagen_generator_assignment":[1,0],"goal":5,"start":3,"action_noise":0,"location_history":"[3,2,3,2,1,3,4,0,1,3,2,3,2,1,5]","action_history":"[0,1,0,0,0,1,0,1,0,0,1,0,0,1]","mutagen_history":"[1,0,1,1,1,0,1,0,1,1,0,1,1,0]","location_rts":"[2868,1089,1383,576,943,873,2060,145,485,133,235,252,598,1448]","trial_type":"fractal-mutation","trial_index":59,"time_elapsed":1701600,"internal_node_id":"0.0-5.0-5.0"},{"group":"hexagon_tri","fractal_assignment":["../images/ylw_slt.png","../images/blu_wht.png","../images/pnk_blu.png","../images/cyn_red.png","../images/org_blu.png","../images/gry_blk.png"],"mutagen_generator_assignment":[1,0],"goal":4,"start":5,"action_noise":0,"location_history":"[5,4]","action_history":"[0]","mutagen_history":"[1]","location_rts":"[3474]","trial_type":"fractal-mutation","trial_index":60,"time_elapsed":1710102,"internal_node_id":"0.0-5.0-6.0"},{"group":"hexagon_tri","fractal_assignment":["../images/ylw_slt.png","../images/blu_wht.png","../images/pnk_blu.png","../images/cyn_red.png","../images/org_blu.png","../images/gry_blk.png"],"mutagen_generator_assignment":[1,0],"goal":0,"start":4,"action_noise":0,"location_history":"[4,2,1,5,0]","action_history":"[1,0,1,1]","mutagen_history":"[0,1,0,0]","location_rts":"[2241,4378,983,816]","trial_type":"fractal-mutation","trial_index":61,"time_elapsed":1726619,"internal_node_id":"0.0-5.0-7.0"},{"group":"hexagon_tri","fractal_assignment":["../images/ylw_slt.png","../images/blu_wht.png","../images/pnk_blu.png","../images/cyn_red.png","../images/org_blu.png","../images/gry_blk.png"],"mutagen_generator_assignment":[1,0],"goal":2,"start":0,"action_noise":0,"location_history":"[0,1,3,4,0,1,3,4,0,1,3,4,2]","action_history":"[1,0,1,0,1,0,1,0,1,0,1,1]","mutagen_history":"[0,1,0,1,0,1,0,1,0,1,0,0]","location_rts":"[1879,508,169,49,407,354,111,364,691,712,614,122]","trial_type":"fractal-mutation","trial_index":62,"time_elapsed":1748883,"internal_node_id":"0.0-5.0-8.0"},{"group":"hexagon_tri","fractal_assignment":["../images/ylw_slt.png","../images/blu_wht.png","../images/pnk_blu.png","../images/cyn_red.png","../images/org_blu.png","../images/gry_blk.png"],"mutagen_generator_assignment":[1,0],"goal":4,"start":2,"action_noise":0,"location_history":"[2,3,2,3,2,1,5,4]","action_history":"[1,0,1,0,0,1,0]","mutagen_history":"[0,1,0,1,1,0,1]","location_rts":"[3407,728,19,25,927,678,2003]","trial_type":"fractal-mutation","trial_index":63,"time_elapsed":1767853,"internal_node_id":"0.0-5.0-9.0"},{"group":"hexagon_tri","fractal_assignment":["../images/ylw_slt.png","../images/blu_wht.png","../images/pnk_blu.png","../images/cyn_red.png","../images/org_blu.png","../images/gry_blk.png"],"mutagen_generator_assignment":[1,0],"goal":2,"start":4,"action_noise":0,"location_history":"[4,0,1,3,4,2]","action_history":"[0,1,0,1,1]","mutagen_history":"[1,0,1,0,0]","location_rts":"[2923,634,689,816,1221]","trial_type":"fractal-mutation","trial_index":64,"time_elapsed":1783248,"internal_node_id":"0.0-5.0-10.0"},{"group":"hexagon_tri","fractal_assignment":["../images/ylw_slt.png","../images/blu_wht.png","../images/pnk_blu.png","../images/cyn_red.png","../images/org_blu.png","../images/gry_blk.png"],"mutagen_generator_assignment":[1,0],"goal":3,"start":2,"action_noise":0,"location_history":"[2,1,3]","action_history":"[0,0]","mutagen_history":"[1,1]","location_rts":"[2169,1615]","trial_type":"fractal-mutation","trial_index":65,"time_elapsed":1793089,"internal_node_id":"0.0-5.0-11.0"},{"group":"hexagon_tri","fractal_assignment":["../images/ylw_slt.png","../images/blu_wht.png","../images/pnk_blu.png","../images/cyn_red.png","../images/org_blu.png","../images/gry_blk.png"],"mutagen_generator_assignment":[1,0],"goal":0,"start":3,"action_noise":0,"location_history":"[3,2,1,5,4,2,3,4,0]","action_history":"[0,0,1,0,1,1,1,0]","mutagen_history":"[1,1,0,1,0,0,0,1]","location_rts":"[1959,817,1417,1979,1243,1330,1224,583]","trial_type":"fractal-mutation","trial_index":66,"time_elapsed":1815847,"internal_node_id":"0.0-5.0-12.0"},{"group":"hexagon_tri","fractal_assignment":["../images/ylw_slt.png","../images/blu_wht.png","../images/pnk_blu.png","../images/cyn_red.png","../images/org_blu.png","../images/gry_blk.png"],"mutagen_generator_assignment":[1,0],"goal":5,"start":0,"action_noise":0,"location_history":"[0,5]","action_history":"[0]","mutagen_history":"[1]","location_rts":"[2074]","trial_type":"fractal-mutation","trial_index":67,"time_elapsed":1822948,"internal_node_id":"0.0-5.0-13.0"},{"group":"hexagon_tri","fractal_assignment":["../images/ylw_slt.png","../images/blu_wht.png","../images/pnk_blu.png","../images/cyn_red.png","../images/org_blu.png","../images/gry_blk.png"],"mutagen_generator_assignment":[1,0],"goal":1,"start":5,"action_noise":0,"location_history":"[5,4,2,1]","action_history":"[0,1,0]","mutagen_history":"[1,0,1]","location_rts":"[1589,259,920]","trial_type":"fractal-mutation","trial_index":68,"time_elapsed":1832796,"internal_node_id":"0.0-5.0-14.0"},{"group":"hexagon_tri","fractal_assignment":["../images/ylw_slt.png","../images/blu_wht.png","../images/pnk_blu.png","../images/cyn_red.png","../images/org_blu.png","../images/gry_blk.png"],"mutagen_generator_assignment":[1,0],"goal":5,"start":1,"action_noise":0,"location_history":"[1,3,4,2,3,2,1,5]","action_history":"[0,1,1,1,0,0,1]","mutagen_history":"[1,0,0,0,1,1,0]","location_rts":"[2451,793,1220,764,763,3424,1322]","trial_type":"fractal-mutation","trial_index":69,"time_elapsed":1854688,"internal_node_id":"0.0-5.0-15.0"},{"group":"hexagon_tri","fractal_assignment":["../images/ylw_slt.png","../images/blu_wht.png","../images/pnk_blu.png","../images/cyn_red.png","../images/org_blu.png","../images/gry_blk.png"],"mutagen_generator_assignment":[1,0],"goal":3,"start":5,"action_noise":0,"location_history":"[5,4,2,1,3]","action_history":"[0,1,0,0]","mutagen_history":"[1,0,1,1]","location_rts":"[2432,129,2493,2426]","trial_type":"fractal-mutation","trial_index":70,"time_elapsed":1870261,"internal_node_id":"0.0-5.0-16.0"},{"group":"hexagon_tri","fractal_assignment":["../images/ylw_slt.png","../images/blu_wht.png","../images/pnk_blu.png","../images/cyn_red.png","../images/org_blu.png","../images/gry_blk.png"],"mutagen_generator_assignment":[1,0],"goal":2,"start":3,"action_noise":0,"location_history":"[3,2]","action_history":"[0]","mutagen_history":"[1]","location_rts":"[2389]","trial_type":"fractal-mutation","trial_index":71,"time_elapsed":1877679,"internal_node_id":"0.0-5.0-17.0"},{"group":"hexagon_tri","fractal_assignment":["../images/ylw_slt.png","../images/blu_wht.png","../images/pnk_blu.png","../images/cyn_red.png","../images/org_blu.png","../images/gry_blk.png"],"mutagen_generator_assignment":[1,0],"goal":1,"start":2,"action_noise":0,"location_history":"[2,3,2,3,2,3,2,3,2,3,2,3,4,0,1]","action_history":"[1,0,1,0,1,0,1,0,1,0,1,1,0,1]","mutagen_history":"[0,1,0,1,0,1,0,1,0,1,0,0,1,0]","location_rts":"[2394,41,2150,212,640,1062,212,164,600,748,1156,719,56,1074]","trial_type":"fractal-mutation","trial_index":72,"time_elapsed":1907220,"internal_node_id":"0.0-5.0-18.0"},{"group":"hexagon_tri","fractal_assignment":["../images/ylw_slt.png","../images/blu_wht.png","../images/pnk_blu.png","../images/cyn_red.png","../images/org_blu.png","../images/gry_blk.png"],"mutagen_generator_assignment":[1,0],"goal":4,"start":1,"action_noise":0,"location_history":"[1,5,0,5,0,5,0,1,5,0,1,5,0,5,0,1,3,2,1,5,0,1,3,2,3,2,3,2,3,2,3,2,1,3,4]","action_history":"[1,1,0,1,0,1,1,1,1,1,1,1,0,1,1,0,0,0,1,1,1,0,0,1,0,1,0,1,0,1,0,0,0,1]","mutagen_history":"[0,0,1,0,1,0,0,0,0,0,0,0,1,0,0,1,1,1,0,0,0,1,1,0,1,0,1,0,1,0,1,1,1,0]","location_rts":"[3291,1872,258,12,1220,286,201,448,426,571,702,3088,2177,58,219,18,258,1264,1225,2747,716,996,434,2458,437,74,5,644,791,2217,763,3,1415,1034]","trial_type":"fractal-mutation","trial_index":73,"time_elapsed":1978309,"internal_node_id":"0.0-5.0-19.0"},{"group":"hexagon_tri","fractal_assignment":["../images/ylw_slt.png","../images/blu_wht.png","../images/pnk_blu.png","../images/cyn_red.png","../images/org_blu.png","../images/gry_blk.png"],"mutagen_generator_assignment":[1,0],"goal":0,"start":4,"action_noise":0,"location_history":"[4,2,1,3,4,0]","action_history":"[1,0,0,1,0]","mutagen_history":"[0,1,1,0,1]","location_rts":"[3953,4471,3333,232,371]","trial_type":"fractal-mutation","trial_index":74,"time_elapsed":1999785,"internal_node_id":"0.0-5.0-20.0"},{"group":"hexagon_tri","fractal_assignment":["../images/ylw_slt.png","../images/blu_wht.png","../images/pnk_blu.png","../images/cyn_red.png","../images/org_blu.png","../images/gry_blk.png"],"mutagen_generator_assignment":[1,0],"goal":3,"start":0,"action_noise":0,"location_history":"[0,5,4,2,3]","action_history":"[0,0,1,1]","mutagen_history":"[1,1,0,0]","location_rts":"[2120,418,654,503]","trial_type":"fractal-mutation","trial_index":75,"time_elapsed":2011576,"internal_node_id":"0.0-5.0-21.0"},{"group":"hexagon_tri","fractal_assignment":["../images/ylw_slt.png","../images/blu_wht.png","../images/pnk_blu.png","../images/cyn_red.png","../images/org_blu.png","../images/gry_blk.png"],"mutagen_generator_assignment":[1,0],"goal":1,"start":3,"action_noise":0,"location_history":"[3,2,1]","action_history":"[0,0]","mutagen_history":"[1,1]","location_rts":"[1384,655]","trial_type":"fractal-mutation","trial_index":76,"time_elapsed":2019669,"internal_node_id":"0.0-5.0-22.0"},{"group":"hexagon_tri","fractal_assignment":["../images/ylw_slt.png","../images/blu_wht.png","../images/pnk_blu.png","../images/cyn_red.png","../images/org_blu.png","../images/gry_blk.png"],"mutagen_generator_assignment":[1,0],"goal":0,"start":1,"action_noise":0,"location_history":"[1,5,4,2,3,2,3,2,3,2,3,4,0]","action_history":"[1,0,1,1,0,1,0,1,0,1,1,0]","mutagen_history":"[0,1,0,0,1,0,1,0,1,0,0,1]","location_rts":"[2244,561,189,625,466,501,856,310,208,1155,1448,738]","trial_type":"fractal-mutation","trial_index":77,"time_elapsed":2045267,"internal_node_id":"0.0-5.0-23.0"},{"group":"hexagon_tri","fractal_assignment":["../images/ylw_slt.png","../images/blu_wht.png","../images/pnk_blu.png","../images/cyn_red.png","../images/org_blu.png","../images/gry_blk.png"],"mutagen_generator_assignment":[1,0],"goal":2,"start":0,"action_noise":0,"location_history":"[0,5,4,0,1,5,0,1,3,4,2]","action_history":"[0,0,0,1,1,1,1,0,1,1]","mutagen_history":"[1,1,1,0,0,0,0,1,0,0]","location_rts":"[3829,1235,1154,158,316,1109,64,19,31,460]","trial_type":"fractal-mutation","trial_index":78,"time_elapsed":2067893,"internal_node_id":"0.0-5.0-24.0"},{"group":"hexagon_tri","fractal_assignment":["../images/ylw_slt.png","../images/blu_wht.png","../images/pnk_blu.png","../images/cyn_red.png","../images/org_blu.png","../images/gry_blk.png"],"mutagen_generator_assignment":[1,0],"goal":4,"start":2,"action_noise":0,"location_history":"[2,1,5,0,1,3,4]","action_history":"[0,1,1,1,0,1]","mutagen_history":"[1,0,0,0,1,0]","location_rts":"[2842,462,1258,1810,512,6]","trial_type":"fractal-mutation","trial_index":79,"time_elapsed":2084931,"internal_node_id":"0.0-5.0-25.0"},{"group":"hexagon_tri","fractal_assignment":["../images/ylw_slt.png","../images/blu_wht.png","../images/pnk_blu.png","../images/cyn_red.png","../images/org_blu.png","../images/gry_blk.png"],"mutagen_generator_assignment":[1,0],"goal":5,"start":4,"action_noise":0,"location_history":"[4,0,1,3,2,3,4,2,3,2,3,2,1,5]","action_history":"[0,1,0,0,1,1,1,1,0,1,0,0,1]","mutagen_history":"[1,0,1,1,0,0,0,0,1,0,1,1,0]","location_rts":"[1899,2829,152,678,141,150,989,1101,1043,5,220,374,1122]","trial_type":"fractal-mutation","trial_index":80,"time_elapsed":2112944,"internal_node_id":"0.0-5.0-26.0"},{"group":"hexagon_tri","fractal_assignment":["../images/ylw_slt.png","../images/blu_wht.png","../images/pnk_blu.png","../images/cyn_red.png","../images/org_blu.png","../images/gry_blk.png"],"mutagen_generator_assignment":[1,0],"goal":2,"start":5,"action_noise":0,"location_history":"[5,0,1,3,4,0,1,3,2]","action_history":"[1,1,0,1,0,1,0,0]","mutagen_history":"[0,0,1,0,1,0,1,1]","location_rts":"[3432,1882,1705,301,125,96,128,664]","trial_type":"fractal-mutation","trial_index":81,"time_elapsed":2133469,"internal_node_id":"0.0-5.0-27.0"},{"group":"hexagon_tri","fractal_assignment":["../images/ylw_slt.png","../images/blu_wht.png","../images/pnk_blu.png","../images/cyn_red.png","../images/org_blu.png","../images/gry_blk.png"],"mutagen_generator_assignment":[1,0],"goal":3,"start":2,"action_noise":0,"location_history":"[2,1,5,4,2,1,5,4,2,1,5,4,2,3]","action_history":"[0,1,0,1,0,1,0,1,0,1,0,1,1]","mutagen_history":"[1,0,1,0,1,0,1,0,1,0,1,0,0]","location_rts":"[2571,3040,442,1351,681,875,1690,65,657,71,1380,30,196]","trial_type":"fractal-mutation","trial_index":82,"time_elapsed":2163827,"internal_node_id":"0.0-5.0-28.0"},{"group":"hexagon_tri","fractal_assignment":["../images/ylw_slt.png","../images/blu_wht.png","../images/pnk_blu.png","../images/cyn_red.png","../images/org_blu.png","../images/gry_blk.png"],"mutagen_generator_assignment":[1,0],"goal":1,"start":3,"action_noise":0,"location_history":"[3,2,3,4,0,5,4,2,3,2,3,4,0,5,0,1]","action_history":"[0,1,1,0,0,0,1,1,0,1,1,0,0,1,1]","mutagen_history":"[1,0,0,1,1,1,0,0,1,0,0,1,1,0,0]","location_rts":"[2774,304,797,1287,1282,93,97,71,153,352,290,1106,334,97,114]","trial_type":"fractal-mutation","trial_index":83,"time_elapsed":2192343,"internal_node_id":"0.0-5.0-29.0"},{"group":"hexagon_tri","fractal_assignment":["../images/ylw_slt.png","../images/blu_wht.png","../images/pnk_blu.png","../images/cyn_red.png","../images/org_blu.png","../images/gry_blk.png"],"mutagen_generator_assignment":[1,0],"goal":4,"start":1,"action_noise":0,"location_history":"[1,5,0,5,4]","action_history":"[1,1,0,0]","mutagen_history":"[0,0,1,1]","location_rts":"[2713,743,723,732]","trial_type":"fractal-mutation","trial_index":84,"time_elapsed":2205360,"internal_node_id":"0.0-5.0-30.0"},{"group":"hexagon_tri","fractal_assignment":["../images/ylw_slt.png","../images/blu_wht.png","../images/pnk_blu.png","../images/cyn_red.png","../images/org_blu.png","../images/gry_blk.png"],"mutagen_generator_assignment":[1,0],"goal":5,"start":4,"action_noise":0,"location_history":"[4,2,3,2,1,5]","action_history":"[1,1,0,0,1]","mutagen_history":"[0,0,1,1,0]","location_rts":"[1688,243,1625,522,574]","trial_type":"fractal-mutation","trial_index":85,"time_elapsed":2219131,"internal_node_id":"0.0-5.0-31.0"},{"group":"hexagon_tri","fractal_assignment":["../images/ylw_slt.png","../images/blu_wht.png","../images/pnk_blu.png","../images/cyn_red.png","../images/org_blu.png","../images/gry_blk.png"],"mutagen_generator_assignment":[1,0],"goal":0,"start":5,"action_noise":0,"location_history":"[5,4,0]","action_history":"[0,0]","mutagen_history":"[1,1]","location_rts":"[1853,1148]","trial_type":"fractal-mutation","trial_index":86,"time_elapsed":2228189,"internal_node_id":"0.0-5.0-32.0"},{"group":"hexagon_tri","fractal_assignment":["../images/ylw_slt.png","../images/blu_wht.png","../images/pnk_blu.png","../images/cyn_red.png","../images/org_blu.png","../images/gry_blk.png"],"mutagen_generator_assignment":[1,0],"goal":2,"start":0,"action_noise":0,"location_history":"[0,5,0,1,3,4,2]","action_history":"[0,1,1,0,1,1]","mutagen_history":"[1,0,0,1,0,0]","location_rts":"[2132,377,1624,2104,714,1080]","trial_type":"fractal-mutation","trial_index":87,"time_elapsed":2246371,"internal_node_id":"0.0-5.0-33.0"},{"group":"hexagon_tri","fractal_assignment":["../images/ylw_slt.png","../images/blu_wht.png","../images/pnk_blu.png","../images/cyn_red.png","../images/org_blu.png","../images/gry_blk.png"],"mutagen_generator_assignment":[1,0],"goal":0,"start":2,"action_noise":0,"location_history":"[2,1,3,2,3,2,3,2,1,5,0]","action_history":"[0,0,0,1,0,1,0,0,1,1]","mutagen_history":"[1,1,1,0,1,0,1,1,0,0]","location_rts":"[2461,1519,1359,1503,1466,1239,1119,231,533,303]","trial_type":"fractal-mutation","trial_index":88,"time_elapsed":2272357,"internal_node_id":"0.0-5.0-34.0"},{"group":"hexagon_tri","fractal_assignment":["../images/ylw_slt.png","../images/blu_wht.png","../images/pnk_blu.png","../images/cyn_red.png","../images/org_blu.png","../images/gry_blk.png"],"mutagen_generator_assignment":[1,0],"goal":5,"start":0,"action_noise":0,"location_history":"[0,1,5]","action_history":"[1,1]","mutagen_history":"[0,0]","location_rts":"[2883,293]","trial_type":"fractal-mutation","trial_index":89,"time_elapsed":2281577,"internal_node_id":"0.0-5.0-35.0"},{"group":"hexagon_tri","fractal_assignment":["../images/ylw_slt.png","../images/blu_wht.png","../images/pnk_blu.png","../images/cyn_red.png","../images/org_blu.png","../images/gry_blk.png"],"mutagen_generator_assignment":[1,0],"goal":1,"start":5,"action_noise":0,"location_history":"[5,4,2,3,2,3,4,2,1]","action_history":"[0,1,1,0,1,1,1,0]","mutagen_history":"[1,0,0,1,0,0,0,1]","location_rts":"[2800,2822,1177,971,540,418,912,138]","trial_type":"fractal-mutation","trial_index":90,"time_elapsed":2303549,"internal_node_id":"0.0-5.0-36.0"},{"group":"hexagon_tri","fractal_assignment":["../images/ylw_slt.png","../images/blu_wht.png","../images/pnk_blu.png","../images/cyn_red.png","../images/org_blu.png","../images/gry_blk.png"],"mutagen_generator_assignment":[1,0],"goal":4,"start":1,"action_noise":0,"location_history":"[1,5,4]","action_history":"[1,0]","mutagen_history":"[0,1]","location_rts":"[1995,1229]","trial_type":"fractal-mutation","trial_index":91,"time_elapsed":2312827,"internal_node_id":"0.0-5.0-37.0"},{"group":"hexagon_tri","fractal_assignment":["../images/ylw_slt.png","../images/blu_wht.png","../images/pnk_blu.png","../images/cyn_red.png","../images/org_blu.png","../images/gry_blk.png"],"mutagen_generator_assignment":[1,0],"goal":3,"start":4,"action_noise":0,"location_history":"[4,2,1,5,4,0,1,3]","action_history":"[1,0,1,0,0,1,0]","mutagen_history":"[0,1,0,1,1,0,1]","location_rts":"[3580,1091,1671,225,767,501,809]","trial_type":"fractal-mutation","trial_index":92,"time_elapsed":2332647,"internal_node_id":"0.0-5.0-38.0"},{"group":"hexagon_tri","fractal_assignment":["../images/ylw_slt.png","../images/blu_wht.png","../images/pnk_blu.png","../images/cyn_red.png","../images/org_blu.png","../images/gry_blk.png"],"mutagen_generator_assignment":[1,0],"goal":5,"start":3,"action_noise":0,"location_history":"[3,2,1,3,4,0,5]","action_history":"[0,0,0,1,0,0]","mutagen_history":"[1,1,1,0,1,1]","location_rts":"[1962,295,1061,736,401,1472]","trial_type":"fractal-mutation","trial_index":93,"time_elapsed":2348725,"internal_node_id":"0.0-5.0-39.0"},{"group":"hexagon_tri","fractal_assignment":["../images/ylw_slt.png","../images/blu_wht.png","../images/pnk_blu.png","../images/cyn_red.png","../images/org_blu.png","../images/gry_blk.png"],"mutagen_generator_assignment":[1,0],"goal":1,"start":5,"action_noise":0,"location_history":"[5,0,5,4,2,1]","action_history":"[1,0,0,1,0]","mutagen_history":"[0,1,1,0,1]","location_rts":"[1796,570,1567,965,490]","trial_type":"fractal-mutation","trial_index":94,"time_elapsed":2363238,"internal_node_id":"0.0-5.0-40.0"},{"group":"hexagon_tri","fractal_assignment":["../images/ylw_slt.png","../images/blu_wht.png","../images/pnk_blu.png","../images/cyn_red.png","../images/org_blu.png","../images/gry_blk.png"],"mutagen_generator_assignment":[1,0],"goal":2,"start":1,"action_noise":0,"location_history":"[1,5,0,1,3,4,2]","action_history":"[1,1,1,0,1,1]","mutagen_history":"[0,0,0,1,0,0]","location_rts":"[1834,1460,954,1038,791,1174]","trial_type":"fractal-mutation","trial_index":95,"time_elapsed":2380633,"internal_node_id":"0.0-5.0-41.0"},{"group":"hexagon_tri","fractal_assignment":["../images/ylw_slt.png","../images/blu_wht.png","../images/pnk_blu.png","../images/cyn_red.png","../images/org_blu.png","../images/gry_blk.png"],"mutagen_generator_assignment":[1,0],"goal":4,"start":2,"action_noise":0,"location_history":"[2,3,2,3,2,1,3,4]","action_history":"[1,0,1,0,0,0,1]","mutagen_history":"[0,1,0,1,1,1,0]","location_rts":"[2390,1131,200,72,118,944,630]","trial_type":"fractal-mutation","trial_index":96,"time_elapsed":2397291,"internal_node_id":"0.0-5.0-42.0"},{"group":"hexagon_tri","fractal_assignment":["../images/ylw_slt.png","../images/blu_wht.png","../images/pnk_blu.png","../images/cyn_red.png","../images/org_blu.png","../images/gry_blk.png"],"mutagen_generator_assignment":[1,0],"goal":0,"start":4,"action_noise":0,"location_history":"[4,2,3,2,1,5,0]","action_history":"[1,1,0,0,1,1]","mutagen_history":"[0,0,1,1,0,0]","location_rts":"[4118,114,747,1269,182,526]","trial_type":"fractal-mutation","trial_index":97,"time_elapsed":2414396,"internal_node_id":"0.0-5.0-43.0"},{"group":"hexagon_tri","fractal_assignment":["../images/ylw_slt.png","../images/blu_wht.png","../images/pnk_blu.png","../images/cyn_red.png","../images/org_blu.png","../images/gry_blk.png"],"mutagen_generator_assignment":[1,0],"goal":3,"start":0,"action_noise":0,"location_history":"[0,5,0,1,5,4,2,3]","action_history":"[0,1,1,1,0,1,1]","mutagen_history":"[1,0,0,0,1,0,0]","location_rts":"[2347,173,66,55,990,710,705]","trial_type":"fractal-mutation","trial_index":98,"time_elapsed":2430619,"internal_node_id":"0.0-5.0-44.0"},{"group":"hexagon_tri","fractal_assignment":["../images/ylw_slt.png","../images/blu_wht.png","../images/pnk_blu.png","../images/cyn_red.png","../images/org_blu.png","../images/gry_blk.png"],"mutagen_generator_assignment":[1,0],"goal":0,"start":3,"action_noise":0,"location_history":"[3,4,2,1,3,2,3,4,0]","action_history":"[1,1,0,0,0,1,1,0]","mutagen_history":"[0,0,1,1,1,0,0,1]","location_rts":"[2846,2187,489,661,606,141,436,1562]","trial_type":"fractal-mutation","trial_index":99,"time_elapsed":2451740,"internal_node_id":"0.0-5.0-45.0"},{"group":"hexagon_tri","fractal_assignment":["../images/ylw_slt.png","../images/blu_wht.png","../images/pnk_blu.png","../images/cyn_red.png","../images/org_blu.png","../images/gry_blk.png"],"mutagen_generator_assignment":[1,0],"goal":4,"start":0,"action_noise":0,"location_history":"[0,1,5,4]","action_history":"[1,1,0]","mutagen_history":"[0,0,1]","location_rts":"[4340,650,1831]","trial_type":"fractal-mutation","trial_index":100,"time_elapsed":2465639,"internal_node_id":"0.0-5.0-46.0"},{"group":"hexagon_tri","fractal_assignment":["../images/ylw_slt.png","../images/blu_wht.png","../images/pnk_blu.png","../images/cyn_red.png","../images/org_blu.png","../images/gry_blk.png"],"mutagen_generator_assignment":[1,0],"goal":5,"start":4,"action_noise":0,"location_history":"[4,2,3,2,1,3,4,0,5]","action_history":"[1,1,0,0,0,1,0,0]","mutagen_history":"[0,0,1,1,1,0,1,1]","location_rts":"[3897,1467,194,482,570,833,588,791]","trial_type":"fractal-mutation","trial_index":101,"time_elapsed":2486643,"internal_node_id":"0.0-5.0-47.0"},{"group":"hexagon_tri","fractal_assignment":["../images/ylw_slt.png","../images/blu_wht.png","../images/pnk_blu.png","../images/cyn_red.png","../images/org_blu.png","../images/gry_blk.png"],"mutagen_generator_assignment":[1,0],"goal":2,"start":5,"action_noise":0,"location_history":"[5,0,1,5,4,2]","action_history":"[1,1,1,0,1]","mutagen_history":"[0,0,0,1,0]","location_rts":"[2829,2010,643,642,407]","trial_type":"fractal-mutation","trial_index":102,"time_elapsed":2502293,"internal_node_id":"0.0-5.0-48.0"},{"group":"hexagon_tri","fractal_assignment":["../images/ylw_slt.png","../images/blu_wht.png","../images/pnk_blu.png","../images/cyn_red.png","../images/org_blu.png","../images/gry_blk.png"],"mutagen_generator_assignment":[1,0],"goal":1,"start":2,"action_noise":0,"location_history":"[2,3,4,2,1]","action_history":"[1,1,1,0]","mutagen_history":"[0,0,0,1]","location_rts":"[2868,1646,1529,1744]","trial_type":"fractal-mutation","trial_index":103,"time_elapsed":2518177,"internal_node_id":"0.0-5.0-49.0"},{"view_history":"[{\"page_index\":0,\"viewing_time\":6720}]","rt":6720,"trial_type":"instructions","trial_index":104,"time_elapsed":2525898,"internal_node_id":"0.0-6.0"},{"rt":87240,"responses":"{\"Q0\":\"How your memory for getting around improves over time or if it does.\"}","trial_type":"survey-text","trial_index":105,"time_elapsed":2614141,"internal_node_id":"0.0-7.0-0.0"},{"rt":52804,"responses":"{\"Q0\":\"How motor memory behaves over time. \"}","trial_type":"survey-text","trial_index":106,"time_elapsed":2667946,"internal_node_id":"0.0-7.0-1.0"},{"rt":59716,"responses":"{\"Q0\":\"<img src='../images/diagrams/hexagon_tri.png'>\"}","trial_type":"survey-multi-choice","trial_index":107,"time_elapsed":2728666,"internal_node_id":"0.0-7.0-2.0"},{"rt":108006,"assignments":["../images/ylw_slt.png","../images/blu_wht.png","../images/org_blu.png","../images/pnk_blu.png","../images/gry_blk.png","../images/cyn_red.png"],"trial_type":"drag-drop-on-image","trial_index":108,"time_elapsed":2837674,"internal_node_id":"0.0-7.0-3.0"},{"rt":18902,"responses":"{\"Q0\":\"1\"}","trial_type":"survey-likert","trial_index":109,"time_elapsed":2857579,"internal_node_id":"0.0-7.0-4.0"},{"rt":81413,"responses":"{\"Q0\":\"They both moved in patterns are seemed to.\"}","trial_type":"survey-text","trial_index":110,"time_elapsed":2939994,"internal_node_id":"0.0-7.0-5.0"},{"rt":12062,"responses":"{\"Q0\":\"No\"}","trial_type":"survey-multi-choice","trial_index":111,"time_elapsed":2953058,"internal_node_id":"0.0-7.0-6.0"},{"rt":24877,"responses":"{\"Q0\":\"During these questions/I wasn't aware until you pointed it out\"}","trial_type":"survey-multi-choice","trial_index":112,"time_elapsed":2978937,"internal_node_id":"0.0-7.0-7.0"},{"rt":10333,"responses":"{\"Q0\":\"\"}","trial_type":"survey-text","trial_index":113,"time_elapsed":2990274,"internal_node_id":"0.0-7.0-8.0"},{"rt":13045,"responses":"{\"Q0\":\"0\"}","trial_type":"survey-likert","trial_index":114,"time_elapsed":3004322,"internal_node_id":"0.0-7.0-9.0"},{"rt":15223,"responses":"{\"Q0\":\"Different structure\"}","trial_type":"survey-multi-choice","trial_index":115,"time_elapsed":3020546,"internal_node_id":"0.0-7.0-10.0"},{"rt":85795,"responses":"{\"Q0\":\"left (black) door = acid, right (white) door = ray\",\"Q1\":\"Slightly confident\"}","trial_type":"survey-multi-choice","trial_index":116,"time_elapsed":3107346,"internal_node_id":"0.0-7.0-11.0"},{"rt":18033,"responses":"{\"Q0\":\">65\",\"Q1\":\"Some college\",\"Q2\":\"Male\",\"Q3\":\"White\"}","trial_type":"survey-multi-choice","trial_index":117,"time_elapsed":3126387,"internal_node_id":"0.0-8.0"},{"rt":5213,"responses":"{\"Q0\":\"\"}","trial_type":"survey-text","trial_index":118,"time_elapsed":3132601,"internal_node_id":"0.0-9.0"}]