[{"view_history":"[{\"page_index\":0,\"viewing_time\":2717},{\"page_index\":1,\"viewing_time\":7444}]","rt":10164,"trial_type":"instructions","trial_index":0,"time_elapsed":10167,"internal_node_id":"0.0-0.0"},{"view_history":"[{\"page_index\":0,\"viewing_time\":3828},{\"page_index\":1,\"viewing_time\":20969}]","rt":24797,"trial_type":"instructions","trial_index":1,"time_elapsed":35964,"internal_node_id":"0.0-1.0"},{"group":"hexagon_bi","room_assignment":["green","blue","grey","red","purple","yellow"],"door_color_assignment":["black","white"],"door_generator_assignment":[0,1],"goal":2,"start":1,"action_noise":0,"location_history":"[1,2]","action_history":"[0]","door_history":"[0]","location_rts":"[5442]","trial_type":"two-door-navigation","trial_index":2,"time_elapsed":46694,"internal_node_id":"0.0-2.0-0.0"},{"group":"hexagon_bi","room_assignment":["green","blue","grey","red","purple","yellow"],"door_color_assignment":["black","white"],"door_generator_assignment":[0,1],"goal":0,"start":2,"action_noise":0,"location_history":"[2,3,2,1,0]","action_history":"[1,1,0,1]","door_history":"[1,1,0,1]","location_rts":"[2496,1769,462,632]","trial_type":"two-door-navigation","trial_index":3,"time_elapsed":60352,"internal_node_id":"0.0-2.0-1.0"},{"group":"hexagon_bi","room_assignment":["green","blue","grey","red","purple","yellow"],"door_color_assignment":["black","white"],"door_generator_assignment":[0,1],"goal":5,"start":0,"action_noise":0,"location_history":"[0,1,0,5]","action_history":"[1,1,0]","door_history":"[1,1,0]","location_rts":"[8105,2499,524]","trial_type":"two-door-navigation","trial_index":4,"time_elapsed":78876,"internal_node_id":"0.0-2.0-2.0"},{"group":"hexagon_bi","room_assignment":["green","blue","grey","red","purple","yellow"],"door_color_assignment":["black","white"],"door_generator_assignment":[0,1],"goal":1,"start":5,"action_noise":0,"location_history":"[5,4,5,0,1]","action_history":"[1,1,0,1]","door_history":"[1,1,0,1]","location_rts":"[12138,2683,690,1438]","trial_type":"two-door-navigation","trial_index":5,"time_elapsed":104488,"internal_node_id":"0.0-2.0-3.0"},{"group":"hexagon_bi","room_assignment":["green","blue","grey","red","purple","yellow"],"door_color_assignment":["black","white"],"door_generator_assignment":[0,1],"goal":3,"start":1,"action_noise":0,"location_history":"[1,0,1,2,3]","action_history":"[1,1,0,1]","door_history":"[1,1,0,1]","location_rts":"[6648,1784,365,377]","trial_type":"two-door-navigation","trial_index":6,"time_elapsed":122223,"internal_node_id":"0.0-2.0-4.0"},{"group":"hexagon_bi","room_assignment":["green","blue","grey","red","purple","yellow"],"door_color_assignment":["black","white"],"door_generator_assignment":[0,1],"goal":5,"start":3,"action_noise":0,"location_history":"[3,2,3,4,5]","action_history":"[1,1,0,1]","door_history":"[1,1,0,1]","location_rts":"[4278,1773,773,562]","trial_type":"two-door-navigation","trial_index":7,"time_elapsed":138285,"internal_node_id":"0.0-2.0-5.0"},{"group":"hexagon_bi","room_assignment":["green","blue","grey","red","purple","yellow"],"door_color_assignment":["black","white"],"door_generator_assignment":[0,1],"goal":4,"start":5,"action_noise":0,"location_history":"[5,0,5,4]","action_history":"[0,0,1]","door_history":"[0,0,1]","location_rts":"[3207,1793,568]","trial_type":"two-door-navigation","trial_index":8,"time_elapsed":151197,"internal_node_id":"0.0-2.0-6.0"},{"group":"hexagon_bi","room_assignment":["green","blue","grey","red","purple","yellow"],"door_color_assignment":["black","white"],"door_generator_assignment":[0,1],"goal":0,"start":4,"action_noise":0,"location_history":"[4,3,4,5,0]","action_history":"[0,0,1,0]","door_history":"[0,0,1,0]","location_rts":"[5408,2148,6544,881]","trial_type":"two-door-navigation","trial_index":9,"time_elapsed":174523,"internal_node_id":"0.0-2.0-7.0"},{"group":"hexagon_bi","room_assignment":["green","blue","grey","red","purple","yellow"],"door_color_assignment":["black","white"],"door_generator_assignment":[0,1],"goal":2,"start":0,"action_noise":0,"location_history":"[0,1,2]","action_history":"[1,0]","door_history":"[1,0]","location_rts":"[3326,974]","trial_type":"two-door-navigation","trial_index":10,"time_elapsed":185285,"internal_node_id":"0.0-2.0-8.0"},{"group":"hexagon_bi","room_assignment":["green","blue","grey","red","purple","yellow"],"door_color_assignment":["black","white"],"door_generator_assignment":[0,1],"goal":4,"start":2,"action_noise":0,"location_history":"[2,1,2,3,4]","action_history":"[0,0,1,0]","door_history":"[0,0,1,0]","location_rts":"[4876,1384,707,947]","trial_type":"two-door-navigation","trial_index":11,"time_elapsed":201473,"internal_node_id":"0.0-2.0-9.0"},{"group":"hexagon_bi","room_assignment":["green","blue","grey","red","purple","yellow"],"door_color_assignment":["black","white"],"door_generator_assignment":[0,1],"goal":2,"start":4,"action_noise":0,"location_history":"[4,5,4,3,2]","action_history":"[1,1,0,1]","door_history":"[1,1,0,1]","location_rts":"[5535,954,552,2574]","trial_type":"two-door-navigation","trial_index":12,"time_elapsed":219619,"internal_node_id":"0.0-2.0-10.0"},{"group":"hexagon_bi","room_assignment":["green","blue","grey","red","purple","yellow"],"door_color_assignment":["black","white"],"door_generator_assignment":[0,1],"goal":3,"start":2,"action_noise":0,"location_history":"[2,3]","action_history":"[1]","door_history":"[1]","location_rts":"[4878]","trial_type":"two-door-navigation","trial_index":13,"time_elapsed":229677,"internal_node_id":"0.0-2.0-11.0"},{"group":"hexagon_bi","room_assignment":["green","blue","grey","red","purple","yellow"],"door_color_assignment":["black","white"],"door_generator_assignment":[0,1],"goal":0,"start":3,"action_noise":0,"location_history":"[3,4,5,0]","action_history":"[0,1,0]","door_history":"[0,1,0]","location_rts":"[7107,2241,717]","trial_type":"two-door-navigation","trial_index":14,"time_elapsed":247276,"internal_node_id":"0.0-2.0-12.0"},{"group":"hexagon_bi","room_assignment":["green","blue","grey","red","purple","yellow"],"door_color_assignment":["black","white"],"door_generator_assignment":[0,1],"goal":5,"start":0,"action_noise":0,"location_history":"[0,1,0,5]","action_history":"[1,1,0]","door_history":"[1,1,0]","location_rts":"[3492,1682,295]","trial_type":"two-door-navigation","trial_index":15,"time_elapsed":260065,"internal_node_id":"0.0-2.0-13.0"},{"group":"hexagon_bi","room_assignment":["green","blue","grey","red","purple","yellow"],"door_color_assignment":["black","white"],"door_generator_assignment":[0,1],"goal":1,"start":5,"action_noise":0,"location_history":"[5,0,1]","action_history":"[0,1]","door_history":"[0,1]","location_rts":"[4298,1028]","trial_type":"two-door-navigation","trial_index":16,"time_elapsed":271411,"internal_node_id":"0.0-2.0-14.0"},{"group":"hexagon_bi","room_assignment":["green","blue","grey","red","purple","yellow"],"door_color_assignment":["black","white"],"door_generator_assignment":[0,1],"goal":5,"start":1,"action_noise":0,"location_history":"[1,0,5]","action_history":"[1,0]","door_history":"[1,0]","location_rts":"[2902,1098]","trial_type":"two-door-navigation","trial_index":17,"time_elapsed":281777,"internal_node_id":"0.0-2.0-15.0"},{"group":"hexagon_bi","room_assignment":["green","blue","grey","red","purple","yellow"],"door_color_assignment":["black","white"],"door_generator_assignment":[0,1],"goal":3,"start":5,"action_noise":0,"location_history":"[5,0,1,2,3]","action_history":"[0,1,0,1]","door_history":"[0,1,0,1]","location_rts":"[2289,2527,665,430]","trial_type":"two-door-navigation","trial_index":18,"time_elapsed":296311,"internal_node_id":"0.0-2.0-16.0"},{"group":"hexagon_bi","room_assignment":["green","blue","grey","red","purple","yellow"],"door_color_assignment":["black","white"],"door_generator_assignment":[0,1],"goal":2,"start":3,"action_noise":0,"location_history":"[3,4,3,2]","action_history":"[0,0,1]","door_history":"[0,0,1]","location_rts":"[4324,1329,331]","trial_type":"two-door-navigation","trial_index":19,"time_elapsed":309651,"internal_node_id":"0.0-2.0-17.0"},{"group":"hexagon_bi","room_assignment":["green","blue","grey","red","purple","yellow"],"door_color_assignment":["black","white"],"door_generator_assignment":[0,1],"goal":1,"start":2,"action_noise":0,"location_history":"[2,3,2,1]","action_history":"[1,1,0]","door_history":"[1,1,0]","location_rts":"[3464,1533,827]","trial_type":"two-door-navigation","trial_index":20,"time_elapsed":322877,"internal_node_id":"0.0-2.0-18.0"},{"group":"hexagon_bi","room_assignment":["green","blue","grey","red","purple","yellow"],"door_color_assignment":["black","white"],"door_generator_assignment":[0,1],"goal":4,"start":1,"action_noise":0,"location_history":"[1,0,5,4]","action_history":"[1,0,1]","door_history":"[1,0,1]","location_rts":"[25053,2075,296]","trial_type":"two-door-navigation","trial_index":21,"time_elapsed":357863,"internal_node_id":"0.0-2.0-19.0"},{"group":"hexagon_bi","room_assignment":["green","blue","grey","red","purple","yellow"],"door_color_assignment":["black","white"],"door_generator_assignment":[0,1],"goal":0,"start":4,"action_noise":0,"location_history":"[4,5,0]","action_history":"[1,0]","door_history":"[1,0]","location_rts":"[6608,941]","trial_type":"two-door-navigation","trial_index":22,"time_elapsed":372029,"internal_node_id":"0.0-2.0-20.0"},{"group":"hexagon_bi","room_assignment":["green","blue","grey","red","purple","yellow"],"door_color_assignment":["black","white"],"door_generator_assignment":[0,1],"goal":3,"start":0,"action_noise":0,"location_history":"[0,1,2,3]","action_history":"[1,0,1]","door_history":"[1,0,1]","location_rts":"[3687,2135,393]","trial_type":"two-door-navigation","trial_index":23,"time_elapsed":385798,"internal_node_id":"0.0-2.0-21.0"},{"group":"hexagon_bi","room_assignment":["green","blue","grey","red","purple","yellow"],"door_color_assignment":["black","white"],"door_generator_assignment":[0,1],"goal":1,"start":3,"action_noise":0,"location_history":"[3,4,3,2,1]","action_history":"[0,0,1,0]","door_history":"[0,0,1,0]","location_rts":"[5085,1430,261,966]","trial_type":"two-door-navigation","trial_index":24,"time_elapsed":402109,"internal_node_id":"0.0-2.0-22.0"},{"group":"hexagon_bi","room_assignment":["green","blue","grey","red","purple","yellow"],"door_color_assignment":["black","white"],"door_generator_assignment":[0,1],"goal":0,"start":1,"action_noise":0,"location_history":"[1,2,1,0]","action_history":"[0,0,1]","door_history":"[0,0,1]","location_rts":"[1677,2619,331]","trial_type":"two-door-navigation","trial_index":25,"time_elapsed":414286,"internal_node_id":"0.0-2.0-23.0"},{"group":"hexagon_bi","room_assignment":["green","blue","grey","red","purple","yellow"],"door_color_assignment":["black","white"],"door_generator_assignment":[0,1],"goal":2,"start":0,"action_noise":0,"location_history":"[0,1,2]","action_history":"[1,0]","door_history":"[1,0]","location_rts":"[2286,1148]","trial_type":"two-door-navigation","trial_index":26,"time_elapsed":424022,"internal_node_id":"0.0-2.0-24.0"},{"group":"hexagon_bi","room_assignment":["green","blue","grey","red","purple","yellow"],"door_color_assignment":["black","white"],"door_generator_assignment":[0,1],"goal":4,"start":2,"action_noise":0,"location_history":"[2,1,0,5,4]","action_history":"[0,1,0,1]","door_history":"[0,1,0,1]","location_rts":"[3283,2027,360,398]","trial_type":"two-door-navigation","trial_index":27,"time_elapsed":438687,"internal_node_id":"0.0-2.0-25.0"},{"group":"hexagon_bi","room_assignment":["green","blue","grey","red","purple","yellow"],"door_color_assignment":["black","white"],"door_generator_assignment":[0,1],"goal":5,"start":4,"action_noise":0,"location_history":"[4,5]","action_history":"[1]","door_history":"[1]","location_rts":"[3074]","trial_type":"two-door-navigation","trial_index":28,"time_elapsed":446790,"internal_node_id":"0.0-2.0-26.0"},{"group":"hexagon_bi","room_assignment":["green","blue","grey","red","purple","yellow"],"door_color_assignment":["black","white"],"door_generator_assignment":[0,1],"goal":2,"start":5,"action_noise":0,"location_history":"[5,4,3,2]","action_history":"[1,0,1]","door_history":"[1,0,1]","location_rts":"[3364,2436,1010]","trial_type":"two-door-navigation","trial_index":29,"time_elapsed":461061,"internal_node_id":"0.0-2.0-27.0"},{"group":"hexagon_bi","room_assignment":["green","blue","grey","red","purple","yellow"],"door_color_assignment":["black","white"],"door_generator_assignment":[0,1],"goal":3,"start":2,"action_noise":0,"location_history":"[2,3]","action_history":"[1]","door_history":"[1]","location_rts":"[4205]","trial_type":"two-door-navigation","trial_index":30,"time_elapsed":470306,"internal_node_id":"0.0-2.0-28.0"},{"group":"hexagon_bi","room_assignment":["green","blue","grey","red","purple","yellow"],"door_color_assignment":["black","white"],"door_generator_assignment":[0,1],"goal":1,"start":3,"action_noise":0,"location_history":"[3,4,3,2,1]","action_history":"[0,0,1,0]","door_history":"[0,0,1,0]","location_rts":"[14446,1872,337,332]","trial_type":"two-door-navigation","trial_index":31,"time_elapsed":495788,"internal_node_id":"0.0-2.0-29.0"},{"group":"hexagon_bi","room_assignment":["green","blue","grey","red","purple","yellow"],"door_color_assignment":["black","white"],"door_generator_assignment":[0,1],"goal":4,"start":1,"action_noise":0,"location_history":"[1,2,3,4]","action_history":"[0,1,0]","door_history":"[0,1,0]","location_rts":"[6386,2055,751]","trial_type":"two-door-navigation","trial_index":32,"time_elapsed":512318,"internal_node_id":"0.0-2.0-30.0"},{"group":"hexagon_bi","room_assignment":["green","blue","grey","red","purple","yellow"],"door_color_assignment":["black","white"],"door_generator_assignment":[0,1],"goal":5,"start":4,"action_noise":0,"location_history":"[4,5]","action_history":"[1]","door_history":"[1]","location_rts":"[3541]","trial_type":"two-door-navigation","trial_index":33,"time_elapsed":521101,"internal_node_id":"0.0-2.0-31.0"},{"group":"hexagon_bi","room_assignment":["green","blue","grey","red","purple","yellow"],"door_color_assignment":["black","white"],"door_generator_assignment":[0,1],"goal":0,"start":5,"action_noise":0,"location_history":"[5,0]","action_history":"[0]","door_history":"[0]","location_rts":"[5509]","trial_type":"two-door-navigation","trial_index":34,"time_elapsed":531672,"internal_node_id":"0.0-2.0-32.0"},{"group":"hexagon_bi","room_assignment":["green","blue","grey","red","purple","yellow"],"door_color_assignment":["black","white"],"door_generator_assignment":[0,1],"goal":2,"start":0,"action_noise":0,"location_history":"[0,1,2]","action_history":"[1,0]","door_history":"[1,0]","location_rts":"[6264,943]","trial_type":"two-door-navigation","trial_index":35,"time_elapsed":545356,"internal_node_id":"0.0-2.0-33.0"},{"group":"hexagon_bi","room_assignment":["green","blue","grey","red","purple","yellow"],"door_color_assignment":["black","white"],"door_generator_assignment":[0,1],"goal":0,"start":2,"action_noise":0,"location_history":"[2,3,2,1,0]","action_history":"[1,1,0,1]","door_history":"[1,1,0,1]","location_rts":"[5447,6356,446,1223]","trial_type":"two-door-navigation","trial_index":36,"time_elapsed":567220,"internal_node_id":"0.0-2.0-34.0"},{"group":"hexagon_bi","room_assignment":["green","blue","grey","red","purple","yellow"],"door_color_assignment":["black","white"],"door_generator_assignment":[0,1],"goal":5,"start":0,"action_noise":0,"location_history":"[0,1,0,5]","action_history":"[1,1,0]","door_history":"[1,1,0]","location_rts":"[1782,1388,959]","trial_type":"two-door-navigation","trial_index":37,"time_elapsed":578775,"internal_node_id":"0.0-2.0-35.0"},{"group":"hexagon_bi","room_assignment":["green","blue","grey","red","purple","yellow"],"door_color_assignment":["black","white"],"door_generator_assignment":[0,1],"goal":1,"start":5,"action_noise":0,"location_history":"[5,0,1]","action_history":"[0,1]","door_history":"[0,1]","location_rts":"[4680,1162]","trial_type":"two-door-navigation","trial_index":38,"time_elapsed":590855,"internal_node_id":"0.0-2.0-36.0"},{"group":"hexagon_bi","room_assignment":["green","blue","grey","red","purple","yellow"],"door_color_assignment":["black","white"],"door_generator_assignment":[0,1],"goal":4,"start":1,"action_noise":0,"location_history":"[1,2,3,4]","action_history":"[0,1,0]","door_history":"[0,1,0]","location_rts":"[5496,1457,516]","trial_type":"two-door-navigation","trial_index":39,"time_elapsed":605700,"internal_node_id":"0.0-2.0-37.0"},{"group":"hexagon_bi","room_assignment":["green","blue","grey","red","purple","yellow"],"door_color_assignment":["black","white"],"door_generator_assignment":[0,1],"goal":3,"start":4,"action_noise":0,"location_history":"[4,3]","action_history":"[0]","door_history":"[0]","location_rts":"[2773]","trial_type":"two-door-navigation","trial_index":40,"time_elapsed":613635,"internal_node_id":"0.0-2.0-38.0"},{"group":"hexagon_bi","room_assignment":["green","blue","grey","red","purple","yellow"],"door_color_assignment":["black","white"],"door_generator_assignment":[0,1],"goal":5,"start":3,"action_noise":0,"location_history":"[3,2,1,0,5]","action_history":"[1,0,1,0]","door_history":"[1,0,1,0]","location_rts":"[6039,1715,439,386]","trial_type":"two-door-navigation","trial_index":41,"time_elapsed":630525,"internal_node_id":"0.0-2.0-39.0"},{"group":"hexagon_bi","room_assignment":["green","blue","grey","red","purple","yellow"],"door_color_assignment":["black","white"],"door_generator_assignment":[0,1],"goal":1,"start":5,"action_noise":0,"location_history":"[5,0,1]","action_history":"[0,1]","door_history":"[0,1]","location_rts":"[2819,1070]","trial_type":"two-door-navigation","trial_index":42,"time_elapsed":640713,"internal_node_id":"0.0-2.0-40.0"},{"group":"hexagon_bi","room_assignment":["green","blue","grey","red","purple","yellow"],"door_color_assignment":["black","white"],"door_generator_assignment":[0,1],"goal":2,"start":1,"action_noise":0,"location_history":"[1,0,1,2]","action_history":"[1,1,0]","door_history":"[1,1,0]","location_rts":"[4396,1592,567]","trial_type":"two-door-navigation","trial_index":43,"time_elapsed":654802,"internal_node_id":"0.0-2.0-41.0"},{"group":"hexagon_bi","room_assignment":["green","blue","grey","red","purple","yellow"],"door_color_assignment":["black","white"],"door_generator_assignment":[0,1],"goal":4,"start":2,"action_noise":0,"location_history":"[2,3,4]","action_history":"[1,0]","door_history":"[1,0]","location_rts":"[8021,896]","trial_type":"two-door-navigation","trial_index":44,"time_elapsed":669974,"internal_node_id":"0.0-2.0-42.0"},{"group":"hexagon_bi","room_assignment":["green","blue","grey","red","purple","yellow"],"door_color_assignment":["black","white"],"door_generator_assignment":[0,1],"goal":0,"start":4,"action_noise":0,"location_history":"[4,5,0]","action_history":"[1,0]","door_history":"[1,0]","location_rts":"[6429,2094]","trial_type":"two-door-navigation","trial_index":45,"time_elapsed":684624,"internal_node_id":"0.0-2.0-43.0"},{"group":"hexagon_bi","room_assignment":["green","blue","grey","red","purple","yellow"],"door_color_assignment":["black","white"],"door_generator_assignment":[0,1],"goal":3,"start":0,"action_noise":0,"location_history":"[0,5,4,3]","action_history":"[0,1,0]","door_history":"[0,1,0]","location_rts":"[6618,1388,751]","trial_type":"two-door-navigation","trial_index":46,"time_elapsed":700861,"internal_node_id":"0.0-2.0-44.0"},{"group":"hexagon_bi","room_assignment":["green","blue","grey","red","purple","yellow"],"door_color_assignment":["black","white"],"door_generator_assignment":[0,1],"goal":0,"start":3,"action_noise":0,"location_history":"[3,2,1,0]","action_history":"[1,0,1]","door_history":"[1,0,1]","location_rts":"[7612,1348,407]","trial_type":"two-door-navigation","trial_index":47,"time_elapsed":717768,"internal_node_id":"0.0-2.0-45.0"},{"group":"hexagon_bi","room_assignment":["green","blue","grey","red","purple","yellow"],"door_color_assignment":["black","white"],"door_generator_assignment":[0,1],"goal":4,"start":0,"action_noise":0,"location_history":"[0,1,0,5,4]","action_history":"[1,1,0,1]","door_history":"[1,1,0,1]","location_rts":"[5121,887,276,406]","trial_type":"two-door-navigation","trial_index":48,"time_elapsed":733013,"internal_node_id":"0.0-2.0-46.0"},{"group":"hexagon_bi","room_assignment":["green","blue","grey","red","purple","yellow"],"door_color_assignment":["black","white"],"door_generator_assignment":[0,1],"goal":5,"start":4,"action_noise":0,"location_history":"[4,3,4,5]","action_history":"[0,0,1]","door_history":"[0,0,1]","location_rts":"[4142,1162,225]","trial_type":"two-door-navigation","trial_index":49,"time_elapsed":745981,"internal_node_id":"0.0-2.0-47.0"},{"group":"hexagon_bi","room_assignment":["green","blue","grey","red","purple","yellow"],"door_color_assignment":["black","white"],"door_generator_assignment":[0,1],"goal":2,"start":5,"action_noise":0,"location_history":"[5,4,3,2]","action_history":"[1,0,1]","door_history":"[1,0,1]","location_rts":"[5574,863,458]","trial_type":"two-door-navigation","trial_index":50,"time_elapsed":760269,"internal_node_id":"0.0-2.0-48.0"},{"group":"hexagon_bi","room_assignment":["green","blue","grey","red","purple","yellow"],"door_color_assignment":["black","white"],"door_generator_assignment":[0,1],"goal":1,"start":2,"action_noise":0,"location_history":"[2,3,2,1]","action_history":"[1,1,0]","door_history":"[1,1,0]","location_rts":"[3379,986,531]","trial_type":"two-door-navigation","trial_index":51,"time_elapsed":772642,"internal_node_id":"0.0-2.0-49.0"},{"view_history":"[{\"page_index\":0,\"viewing_time\":2028}]","rt":2030,"trial_type":"instructions","trial_index":52,"time_elapsed":775690,"internal_node_id":"0.0-3.0"},{"view_history":"[{\"page_index\":0,\"viewing_time\":2525},{\"page_index\":1,\"viewing_time\":4058}]","rt":6584,"trial_type":"instructions","trial_index":53,"time_elapsed":783386,"internal_node_id":"0.0-4.0"},{"group":"hexagon_bi","fractal_assignment":["../images/ylw_slt.png","../images/pnk_blu.png","../images/gry_blk.png","../images/org_blu.png","../images/cyn_red.png","../images/blu_wht.png"],"mutagen_generator_assignment":[1,0],"goal":2,"start":1,"action_noise":0,"location_history":"[1,2]","action_history":"[0]","mutagen_history":"[1]","location_rts":"[9786]","trial_type":"fractal-mutation","trial_index":54,"time_elapsed":798409,"internal_node_id":"0.0-5.0-0.0"},{"group":"hexagon_bi","fractal_assignment":["../images/ylw_slt.png","../images/pnk_blu.png","../images/gry_blk.png","../images/org_blu.png","../images/cyn_red.png","../images/blu_wht.png"],"mutagen_generator_assignment":[1,0],"goal":0,"start":2,"action_noise":0,"location_history":"[2,1,0]","action_history":"[0,1]","mutagen_history":"[1,0]","location_rts":"[6887,421]","trial_type":"fractal-mutation","trial_index":55,"time_elapsed":811958,"internal_node_id":"0.0-5.0-1.0"},{"group":"hexagon_bi","fractal_assignment":["../images/ylw_slt.png","../images/pnk_blu.png","../images/gry_blk.png","../images/org_blu.png","../images/cyn_red.png","../images/blu_wht.png"],"mutagen_generator_assignment":[1,0],"goal":5,"start":0,"action_noise":0,"location_history":"[0,5]","action_history":"[0]","mutagen_history":"[1]","location_rts":"[1538]","trial_type":"fractal-mutation","trial_index":56,"time_elapsed":818913,"internal_node_id":"0.0-5.0-2.0"},{"group":"hexagon_bi","fractal_assignment":["../images/ylw_slt.png","../images/pnk_blu.png","../images/gry_blk.png","../images/org_blu.png","../images/cyn_red.png","../images/blu_wht.png"],"mutagen_generator_assignment":[1,0],"goal":1,"start":5,"action_noise":0,"location_history":"[5,0,1]","action_history":"[0,1]","mutagen_history":"[1,0]","location_rts":"[4640,549]","trial_type":"fractal-mutation","trial_index":57,"time_elapsed":830754,"internal_node_id":"0.0-5.0-3.0"},{"group":"hexagon_bi","fractal_assignment":["../images/ylw_slt.png","../images/pnk_blu.png","../images/gry_blk.png","../images/org_blu.png","../images/cyn_red.png","../images/blu_wht.png"],"mutagen_generator_assignment":[1,0],"goal":3,"start":1,"action_noise":0,"location_history":"[1,2,3]","action_history":"[0,1]","mutagen_history":"[1,0]","location_rts":"[5029,409]","trial_type":"fractal-mutation","trial_index":58,"time_elapsed":842595,"internal_node_id":"0.0-5.0-4.0"},{"group":"hexagon_bi","fractal_assignment":["../images/ylw_slt.png","../images/pnk_blu.png","../images/gry_blk.png","../images/org_blu.png","../images/cyn_red.png","../images/blu_wht.png"],"mutagen_generator_assignment":[1,0],"goal":5,"start":3,"action_noise":0,"location_history":"[3,2,1,0,5]","action_history":"[1,0,1,0]","mutagen_history":"[0,1,0,1]","location_rts":"[6871,1210,1001,794]","trial_type":"fractal-mutation","trial_index":59,"time_elapsed":861111,"internal_node_id":"0.0-5.0-5.0"},{"group":"hexagon_bi","fractal_assignment":["../images/ylw_slt.png","../images/pnk_blu.png","../images/gry_blk.png","../images/org_blu.png","../images/cyn_red.png","../images/blu_wht.png"],"mutagen_generator_assignment":[1,0],"goal":4,"start":5,"action_noise":0,"location_history":"[5,0,5,4]","action_history":"[0,0,1]","mutagen_history":"[1,1,0]","location_rts":"[2645,703,330]","trial_type":"fractal-mutation","trial_index":60,"time_elapsed":872158,"internal_node_id":"0.0-5.0-6.0"},{"group":"hexagon_bi","fractal_assignment":["../images/ylw_slt.png","../images/pnk_blu.png","../images/gry_blk.png","../images/org_blu.png","../images/cyn_red.png","../images/blu_wht.png"],"mutagen_generator_assignment":[1,0],"goal":0,"start":4,"action_noise":0,"location_history":"[4,5,0]","action_history":"[1,0]","mutagen_history":"[0,1]","location_rts":"[3418,1112]","trial_type":"fractal-mutation","trial_index":61,"time_elapsed":882955,"internal_node_id":"0.0-5.0-7.0"},{"group":"hexagon_bi","fractal_assignment":["../images/ylw_slt.png","../images/pnk_blu.png","../images/gry_blk.png","../images/org_blu.png","../images/cyn_red.png","../images/blu_wht.png"],"mutagen_generator_assignment":[1,0],"goal":2,"start":0,"action_noise":0,"location_history":"[0,1,2]","action_history":"[1,0]","mutagen_history":"[0,1]","location_rts":"[3904,563]","trial_type":"fractal-mutation","trial_index":62,"time_elapsed":893692,"internal_node_id":"0.0-5.0-8.0"},{"group":"hexagon_bi","fractal_assignment":["../images/ylw_slt.png","../images/pnk_blu.png","../images/gry_blk.png","../images/org_blu.png","../images/cyn_red.png","../images/blu_wht.png"],"mutagen_generator_assignment":[1,0],"goal":4,"start":2,"action_noise":0,"location_history":"[2,1,0,5,4]","action_history":"[0,1,0,1]","mutagen_history":"[1,0,1,0]","location_rts":"[2709,428,913,418]","trial_type":"fractal-mutation","trial_index":63,"time_elapsed":906972,"internal_node_id":"0.0-5.0-9.0"},{"group":"hexagon_bi","fractal_assignment":["../images/ylw_slt.png","../images/pnk_blu.png","../images/gry_blk.png","../images/org_blu.png","../images/cyn_red.png","../images/blu_wht.png"],"mutagen_generator_assignment":[1,0],"goal":2,"start":4,"action_noise":0,"location_history":"[4,5,4,3,2]","action_history":"[1,1,0,1]","mutagen_history":"[0,0,1,0]","location_rts":"[3390,2075,648,2256]","trial_type":"fractal-mutation","trial_index":64,"time_elapsed":923969,"internal_node_id":"0.0-5.0-10.0"},{"group":"hexagon_bi","fractal_assignment":["../images/ylw_slt.png","../images/pnk_blu.png","../images/gry_blk.png","../images/org_blu.png","../images/cyn_red.png","../images/blu_wht.png"],"mutagen_generator_assignment":[1,0],"goal":3,"start":2,"action_noise":0,"location_history":"[2,3]","action_history":"[1]","mutagen_history":"[0]","location_rts":"[2491]","trial_type":"fractal-mutation","trial_index":65,"time_elapsed":931706,"internal_node_id":"0.0-5.0-11.0"},{"group":"hexagon_bi","fractal_assignment":["../images/ylw_slt.png","../images/pnk_blu.png","../images/gry_blk.png","../images/org_blu.png","../images/cyn_red.png","../images/blu_wht.png"],"mutagen_generator_assignment":[1,0],"goal":0,"start":3,"action_noise":0,"location_history":"[3,4,5,0]","action_history":"[0,1,0]","mutagen_history":"[1,0,1]","location_rts":"[7082,1162,534]","trial_type":"fractal-mutation","trial_index":66,"time_elapsed":947938,"internal_node_id":"0.0-5.0-12.0"},{"group":"hexagon_bi","fractal_assignment":["../images/ylw_slt.png","../images/pnk_blu.png","../images/gry_blk.png","../images/org_blu.png","../images/cyn_red.png","../images/blu_wht.png"],"mutagen_generator_assignment":[1,0],"goal":5,"start":0,"action_noise":0,"location_history":"[0,5]","action_history":"[0]","mutagen_history":"[1]","location_rts":"[2248]","trial_type":"fractal-mutation","trial_index":67,"time_elapsed":955575,"internal_node_id":"0.0-5.0-13.0"},{"group":"hexagon_bi","fractal_assignment":["../images/ylw_slt.png","../images/pnk_blu.png","../images/gry_blk.png","../images/org_blu.png","../images/cyn_red.png","../images/blu_wht.png"],"mutagen_generator_assignment":[1,0],"goal":1,"start":5,"action_noise":0,"location_history":"[5,0,1]","action_history":"[0,1]","mutagen_history":"[1,0]","location_rts":"[2889,1211]","trial_type":"fractal-mutation","trial_index":68,"time_elapsed":966020,"internal_node_id":"0.0-5.0-14.0"},{"group":"hexagon_bi","fractal_assignment":["../images/ylw_slt.png","../images/pnk_blu.png","../images/gry_blk.png","../images/org_blu.png","../images/cyn_red.png","../images/blu_wht.png"],"mutagen_generator_assignment":[1,0],"goal":5,"start":1,"action_noise":0,"location_history":"[1,0,5]","action_history":"[1,0]","mutagen_history":"[0,1]","location_rts":"[10343,1405]","trial_type":"fractal-mutation","trial_index":69,"time_elapsed":984157,"internal_node_id":"0.0-5.0-15.0"},{"group":"hexagon_bi","fractal_assignment":["../images/ylw_slt.png","../images/pnk_blu.png","../images/gry_blk.png","../images/org_blu.png","../images/cyn_red.png","../images/blu_wht.png"],"mutagen_generator_assignment":[1,0],"goal":3,"start":5,"action_noise":0,"location_history":"[5,0,1,2,3]","action_history":"[0,1,0,1]","mutagen_history":"[1,0,1,0]","location_rts":"[2970,902,1319,423]","trial_type":"fractal-mutation","trial_index":70,"time_elapsed":998416,"internal_node_id":"0.0-5.0-16.0"},{"group":"hexagon_bi","fractal_assignment":["../images/ylw_slt.png","../images/pnk_blu.png","../images/gry_blk.png","../images/org_blu.png","../images/cyn_red.png","../images/blu_wht.png"],"mutagen_generator_assignment":[1,0],"goal":2,"start":3,"action_noise":0,"location_history":"[3,4,5,0,1,2]","action_history":"[0,1,0,1,0]","mutagen_history":"[1,0,1,0,1]","location_rts":"[9975,2999,632,460,542]","trial_type":"fractal-mutation","trial_index":71,"time_elapsed":1022724,"internal_node_id":"0.0-5.0-17.0"},{"group":"hexagon_bi","fractal_assignment":["../images/ylw_slt.png","../images/pnk_blu.png","../images/gry_blk.png","../images/org_blu.png","../images/cyn_red.png","../images/blu_wht.png"],"mutagen_generator_assignment":[1,0],"goal":1,"start":2,"action_noise":0,"location_history":"[2,3,4,5,0,1]","action_history":"[1,0,1,0,1]","mutagen_history":"[0,1,0,1,0]","location_rts":"[4213,488,781,1323,2632]","trial_type":"fractal-mutation","trial_index":72,"time_elapsed":1042104,"internal_node_id":"0.0-5.0-18.0"},{"group":"hexagon_bi","fractal_assignment":["../images/ylw_slt.png","../images/pnk_blu.png","../images/gry_blk.png","../images/org_blu.png","../images/cyn_red.png","../images/blu_wht.png"],"mutagen_generator_assignment":[1,0],"goal":4,"start":1,"action_noise":0,"location_history":"[1,2,3,4]","action_history":"[0,1,0]","mutagen_history":"[1,0,1]","location_rts":"[4110,2471,486]","trial_type":"fractal-mutation","trial_index":73,"time_elapsed":1056742,"internal_node_id":"0.0-5.0-19.0"},{"group":"hexagon_bi","fractal_assignment":["../images/ylw_slt.png","../images/pnk_blu.png","../images/gry_blk.png","../images/org_blu.png","../images/cyn_red.png","../images/blu_wht.png"],"mutagen_generator_assignment":[1,0],"goal":0,"start":4,"action_noise":0,"location_history":"[4,5,0]","action_history":"[1,0]","mutagen_history":"[0,1]","location_rts":"[2157,1112]","trial_type":"fractal-mutation","trial_index":74,"time_elapsed":1066353,"internal_node_id":"0.0-5.0-20.0"},{"group":"hexagon_bi","fractal_assignment":["../images/ylw_slt.png","../images/pnk_blu.png","../images/gry_blk.png","../images/org_blu.png","../images/cyn_red.png","../images/blu_wht.png"],"mutagen_generator_assignment":[1,0],"goal":3,"start":0,"action_noise":0,"location_history":"[0,1,2,3]","action_history":"[1,0,1]","mutagen_history":"[0,1,0]","location_rts":"[9971,894,374]","trial_type":"fractal-mutation","trial_index":75,"time_elapsed":1085121,"internal_node_id":"0.0-5.0-21.0"},{"group":"hexagon_bi","fractal_assignment":["../images/ylw_slt.png","../images/pnk_blu.png","../images/gry_blk.png","../images/org_blu.png","../images/cyn_red.png","../images/blu_wht.png"],"mutagen_generator_assignment":[1,0],"goal":1,"start":3,"action_noise":0,"location_history":"[3,2,1]","action_history":"[1,0]","mutagen_history":"[0,1]","location_rts":"[6810,1672]","trial_type":"fractal-mutation","trial_index":76,"time_elapsed":1099728,"internal_node_id":"0.0-5.0-22.0"},{"group":"hexagon_bi","fractal_assignment":["../images/ylw_slt.png","../images/pnk_blu.png","../images/gry_blk.png","../images/org_blu.png","../images/cyn_red.png","../images/blu_wht.png"],"mutagen_generator_assignment":[1,0],"goal":0,"start":1,"action_noise":0,"location_history":"[1,0]","action_history":"[1]","mutagen_history":"[0]","location_rts":"[11401]","trial_type":"fractal-mutation","trial_index":77,"time_elapsed":1116304,"internal_node_id":"0.0-5.0-23.0"},{"group":"hexagon_bi","fractal_assignment":["../images/ylw_slt.png","../images/pnk_blu.png","../images/gry_blk.png","../images/org_blu.png","../images/cyn_red.png","../images/blu_wht.png"],"mutagen_generator_assignment":[1,0],"goal":2,"start":0,"action_noise":0,"location_history":"[0,1,2]","action_history":"[1,0]","mutagen_history":"[0,1]","location_rts":"[3627,1188]","trial_type":"fractal-mutation","trial_index":78,"time_elapsed":1127330,"internal_node_id":"0.0-5.0-24.0"},{"group":"hexagon_bi","fractal_assignment":["../images/ylw_slt.png","../images/pnk_blu.png","../images/gry_blk.png","../images/org_blu.png","../images/cyn_red.png","../images/blu_wht.png"],"mutagen_generator_assignment":[1,0],"goal":4,"start":2,"action_noise":0,"location_history":"[2,1,0,5,4]","action_history":"[0,1,0,1]","mutagen_history":"[1,0,1,0]","location_rts":"[8449,1453,1082,428]","trial_type":"fractal-mutation","trial_index":79,"time_elapsed":1147279,"internal_node_id":"0.0-5.0-25.0"},{"group":"hexagon_bi","fractal_assignment":["../images/ylw_slt.png","../images/pnk_blu.png","../images/gry_blk.png","../images/org_blu.png","../images/cyn_red.png","../images/blu_wht.png"],"mutagen_generator_assignment":[1,0],"goal":5,"start":4,"action_noise":0,"location_history":"[4,5]","action_history":"[1]","mutagen_history":"[0]","location_rts":"[3920]","trial_type":"fractal-mutation","trial_index":80,"time_elapsed":1156476,"internal_node_id":"0.0-5.0-26.0"},{"group":"hexagon_bi","fractal_assignment":["../images/ylw_slt.png","../images/pnk_blu.png","../images/gry_blk.png","../images/org_blu.png","../images/cyn_red.png","../images/blu_wht.png"],"mutagen_generator_assignment":[1,0],"goal":2,"start":5,"action_noise":0,"location_history":"[5,0,1,2]","action_history":"[0,1,0]","mutagen_history":"[1,0,1]","location_rts":"[22620,2140,2248]","trial_type":"fractal-mutation","trial_index":81,"time_elapsed":1191067,"internal_node_id":"0.0-5.0-27.0"},{"group":"hexagon_bi","fractal_assignment":["../images/ylw_slt.png","../images/pnk_blu.png","../images/gry_blk.png","../images/org_blu.png","../images/cyn_red.png","../images/blu_wht.png"],"mutagen_generator_assignment":[1,0],"goal":3,"start":2,"action_noise":0,"location_history":"[2,3]","action_history":"[1]","mutagen_history":"[0]","location_rts":"[34029]","trial_type":"fractal-mutation","trial_index":82,"time_elapsed":1230198,"internal_node_id":"0.0-5.0-28.0"},{"group":"hexagon_bi","fractal_assignment":["../images/ylw_slt.png","../images/pnk_blu.png","../images/gry_blk.png","../images/org_blu.png","../images/cyn_red.png","../images/blu_wht.png"],"mutagen_generator_assignment":[1,0],"goal":1,"start":3,"action_noise":0,"location_history":"[3,4,5,0,1]","action_history":"[0,1,0,1]","mutagen_history":"[1,0,1,0]","location_rts":"[2263,1060,689,822]","trial_type":"fractal-mutation","trial_index":83,"time_elapsed":1243698,"internal_node_id":"0.0-5.0-29.0"},{"group":"hexagon_bi","fractal_assignment":["../images/ylw_slt.png","../images/pnk_blu.png","../images/gry_blk.png","../images/org_blu.png","../images/cyn_red.png","../images/blu_wht.png"],"mutagen_generator_assignment":[1,0],"goal":4,"start":1,"action_noise":0,"location_history":"[1,0,5,4]","action_history":"[1,0,1]","mutagen_history":"[0,1,0]","location_rts":"[4158,1624,817]","trial_type":"fractal-mutation","trial_index":84,"time_elapsed":1257802,"internal_node_id":"0.0-5.0-30.0"},{"group":"hexagon_bi","fractal_assignment":["../images/ylw_slt.png","../images/pnk_blu.png","../images/gry_blk.png","../images/org_blu.png","../images/cyn_red.png","../images/blu_wht.png"],"mutagen_generator_assignment":[1,0],"goal":5,"start":4,"action_noise":0,"location_history":"[4,5]","action_history":"[1]","mutagen_history":"[0]","location_rts":"[1700]","trial_type":"fractal-mutation","trial_index":85,"time_elapsed":1264537,"internal_node_id":"0.0-5.0-31.0"},{"group":"hexagon_bi","fractal_assignment":["../images/ylw_slt.png","../images/pnk_blu.png","../images/gry_blk.png","../images/org_blu.png","../images/cyn_red.png","../images/blu_wht.png"],"mutagen_generator_assignment":[1,0],"goal":0,"start":5,"action_noise":0,"location_history":"[5,0]","action_history":"[0]","mutagen_history":"[1]","location_rts":"[2268]","trial_type":"fractal-mutation","trial_index":86,"time_elapsed":1272275,"internal_node_id":"0.0-5.0-32.0"},{"group":"hexagon_bi","fractal_assignment":["../images/ylw_slt.png","../images/pnk_blu.png","../images/gry_blk.png","../images/org_blu.png","../images/cyn_red.png","../images/blu_wht.png"],"mutagen_generator_assignment":[1,0],"goal":2,"start":0,"action_noise":0,"location_history":"[0,1,2]","action_history":"[1,0]","mutagen_history":"[0,1]","location_rts":"[5553,746]","trial_type":"fractal-mutation","trial_index":87,"time_elapsed":1284936,"internal_node_id":"0.0-5.0-33.0"},{"group":"hexagon_bi","fractal_assignment":["../images/ylw_slt.png","../images/pnk_blu.png","../images/gry_blk.png","../images/org_blu.png","../images/cyn_red.png","../images/blu_wht.png"],"mutagen_generator_assignment":[1,0],"goal":0,"start":2,"action_noise":0,"location_history":"[2,3,4,5,0]","action_history":"[1,0,1,0]","mutagen_history":"[0,1,0,1]","location_rts":"[4299,370,1004,384]","trial_type":"fractal-mutation","trial_index":88,"time_elapsed":1300009,"internal_node_id":"0.0-5.0-34.0"},{"group":"hexagon_bi","fractal_assignment":["../images/ylw_slt.png","../images/pnk_blu.png","../images/gry_blk.png","../images/org_blu.png","../images/cyn_red.png","../images/blu_wht.png"],"mutagen_generator_assignment":[1,0],"goal":5,"start":0,"action_noise":0,"location_history":"[0,5]","action_history":"[0]","mutagen_history":"[1]","location_rts":"[2410]","trial_type":"fractal-mutation","trial_index":89,"time_elapsed":1307716,"internal_node_id":"0.0-5.0-35.0"},{"group":"hexagon_bi","fractal_assignment":["../images/ylw_slt.png","../images/pnk_blu.png","../images/gry_blk.png","../images/org_blu.png","../images/cyn_red.png","../images/blu_wht.png"],"mutagen_generator_assignment":[1,0],"goal":1,"start":5,"action_noise":0,"location_history":"[5,0,1]","action_history":"[0,1]","mutagen_history":"[1,0]","location_rts":"[4370,940]","trial_type":"fractal-mutation","trial_index":90,"time_elapsed":1319363,"internal_node_id":"0.0-5.0-36.0"},{"group":"hexagon_bi","fractal_assignment":["../images/ylw_slt.png","../images/pnk_blu.png","../images/gry_blk.png","../images/org_blu.png","../images/cyn_red.png","../images/blu_wht.png"],"mutagen_generator_assignment":[1,0],"goal":4,"start":1,"action_noise":0,"location_history":"[1,0,5,4]","action_history":"[1,0,1]","mutagen_history":"[0,1,0]","location_rts":"[5607,1462,392]","trial_type":"fractal-mutation","trial_index":91,"time_elapsed":1334522,"internal_node_id":"0.0-5.0-37.0"},{"group":"hexagon_bi","fractal_assignment":["../images/ylw_slt.png","../images/pnk_blu.png","../images/gry_blk.png","../images/org_blu.png","../images/cyn_red.png","../images/blu_wht.png"],"mutagen_generator_assignment":[1,0],"goal":3,"start":4,"action_noise":0,"location_history":"[4,3]","action_history":"[0]","mutagen_history":"[1]","location_rts":"[30489]","trial_type":"fractal-mutation","trial_index":92,"time_elapsed":1370165,"internal_node_id":"0.0-5.0-38.0"},{"group":"hexagon_bi","fractal_assignment":["../images/ylw_slt.png","../images/pnk_blu.png","../images/gry_blk.png","../images/org_blu.png","../images/cyn_red.png","../images/blu_wht.png"],"mutagen_generator_assignment":[1,0],"goal":5,"start":3,"action_noise":0,"location_history":"[3,2,1,0,5]","action_history":"[1,0,1,0]","mutagen_history":"[0,1,0,1]","location_rts":"[9530,2284,386,904]","trial_type":"fractal-mutation","trial_index":93,"time_elapsed":1391857,"internal_node_id":"0.0-5.0-39.0"},{"group":"hexagon_bi","fractal_assignment":["../images/ylw_slt.png","../images/pnk_blu.png","../images/gry_blk.png","../images/org_blu.png","../images/cyn_red.png","../images/blu_wht.png"],"mutagen_generator_assignment":[1,0],"goal":1,"start":5,"action_noise":0,"location_history":"[5,4,3,2,1]","action_history":"[1,0,1,0]","mutagen_history":"[0,1,0,1]","location_rts":"[9132,298,951,834]","trial_type":"fractal-mutation","trial_index":94,"time_elapsed":1411883,"internal_node_id":"0.0-5.0-40.0"},{"group":"hexagon_bi","fractal_assignment":["../images/ylw_slt.png","../images/pnk_blu.png","../images/gry_blk.png","../images/org_blu.png","../images/cyn_red.png","../images/blu_wht.png"],"mutagen_generator_assignment":[1,0],"goal":2,"start":1,"action_noise":0,"location_history":"[1,2]","action_history":"[0]","mutagen_history":"[1]","location_rts":"[16496]","trial_type":"fractal-mutation","trial_index":95,"time_elapsed":1433545,"internal_node_id":"0.0-5.0-41.0"},{"group":"hexagon_bi","fractal_assignment":["../images/ylw_slt.png","../images/pnk_blu.png","../images/gry_blk.png","../images/org_blu.png","../images/cyn_red.png","../images/blu_wht.png"],"mutagen_generator_assignment":[1,0],"goal":4,"start":2,"action_noise":0,"location_history":"[2,1,0,5,4]","action_history":"[0,1,0,1]","mutagen_history":"[1,0,1,0]","location_rts":"[1803,1082,695,603]","trial_type":"fractal-mutation","trial_index":96,"time_elapsed":1446453,"internal_node_id":"0.0-5.0-42.0"},{"group":"hexagon_bi","fractal_assignment":["../images/ylw_slt.png","../images/pnk_blu.png","../images/gry_blk.png","../images/org_blu.png","../images/cyn_red.png","../images/blu_wht.png"],"mutagen_generator_assignment":[1,0],"goal":0,"start":4,"action_noise":0,"location_history":"[4,5,0]","action_history":"[1,0]","mutagen_history":"[0,1]","location_rts":"[4038,541]","trial_type":"fractal-mutation","trial_index":97,"time_elapsed":1457432,"internal_node_id":"0.0-5.0-43.0"},{"group":"hexagon_bi","fractal_assignment":["../images/ylw_slt.png","../images/pnk_blu.png","../images/gry_blk.png","../images/org_blu.png","../images/cyn_red.png","../images/blu_wht.png"],"mutagen_generator_assignment":[1,0],"goal":3,"start":0,"action_noise":0,"location_history":"[0,1,2,3]","action_history":"[1,0,1]","mutagen_history":"[0,1,0]","location_rts":"[5462,586,1278]","trial_type":"fractal-mutation","trial_index":98,"time_elapsed":1472099,"internal_node_id":"0.0-5.0-44.0"},{"group":"hexagon_bi","fractal_assignment":["../images/ylw_slt.png","../images/pnk_blu.png","../images/gry_blk.png","../images/org_blu.png","../images/cyn_red.png","../images/blu_wht.png"],"mutagen_generator_assignment":[1,0],"goal":0,"start":3,"action_noise":0,"location_history":"[3,4,5,0]","action_history":"[0,1,0]","mutagen_history":"[1,0,1]","location_rts":"[4400,2336,626]","trial_type":"fractal-mutation","trial_index":99,"time_elapsed":1486976,"internal_node_id":"0.0-5.0-45.0"},{"group":"hexagon_bi","fractal_assignment":["../images/ylw_slt.png","../images/pnk_blu.png","../images/gry_blk.png","../images/org_blu.png","../images/cyn_red.png","../images/blu_wht.png"],"mutagen_generator_assignment":[1,0],"goal":4,"start":0,"action_noise":0,"location_history":"[0,5,4]","action_history":"[0,1]","mutagen_history":"[1,0]","location_rts":"[5038,426]","trial_type":"fractal-mutation","trial_index":100,"time_elapsed":1498546,"internal_node_id":"0.0-5.0-46.0"},{"group":"hexagon_bi","fractal_assignment":["../images/ylw_slt.png","../images/pnk_blu.png","../images/gry_blk.png","../images/org_blu.png","../images/cyn_red.png","../images/blu_wht.png"],"mutagen_generator_assignment":[1,0],"goal":5,"start":4,"action_noise":0,"location_history":"[4,5]","action_history":"[1]","mutagen_history":"[0]","location_rts":"[2372]","trial_type":"fractal-mutation","trial_index":101,"time_elapsed":1506047,"internal_node_id":"0.0-5.0-47.0"},{"group":"hexagon_bi","fractal_assignment":["../images/ylw_slt.png","../images/pnk_blu.png","../images/gry_blk.png","../images/org_blu.png","../images/cyn_red.png","../images/blu_wht.png"],"mutagen_generator_assignment":[1,0],"goal":2,"start":5,"action_noise":0,"location_history":"[5,0,1,2]","action_history":"[0,1,0]","mutagen_history":"[1,0,1]","location_rts":"[3937,1289,829]","trial_type":"fractal-mutation","trial_index":102,"time_elapsed":1519286,"internal_node_id":"0.0-5.0-48.0"},{"group":"hexagon_bi","fractal_assignment":["../images/ylw_slt.png","../images/pnk_blu.png","../images/gry_blk.png","../images/org_blu.png","../images/cyn_red.png","../images/blu_wht.png"],"mutagen_generator_assignment":[1,0],"goal":1,"start":2,"action_noise":0,"location_history":"[2,1]","action_history":"[0]","mutagen_history":"[1]","location_rts":"[6458]","trial_type":"fractal-mutation","trial_index":103,"time_elapsed":1531047,"internal_node_id":"0.0-5.0-49.0"},{"view_history":"[{\"page_index\":0,\"viewing_time\":15779}]","rt":15781,"trial_type":"instructions","trial_index":104,"time_elapsed":1547828,"internal_node_id":"0.0-6.0"},{"rt":30143,"responses":"{\"Q0\":\"thinking process to solve a problem\"}","trial_type":"survey-text","trial_index":105,"time_elapsed":1579007,"internal_node_id":"0.0-7.0-0.0"},{"rt":52592,"responses":"{\"Q0\":\"how long it takes to learn patterns.\"}","trial_type":"survey-text","trial_index":106,"time_elapsed":1632601,"internal_node_id":"0.0-7.0-1.0"},{"rt":34009,"responses":"{\"Q0\":\"<img src='../images/diagrams/hexagon_bi.png'>\"}","trial_type":"survey-multi-choice","trial_index":107,"time_elapsed":1667622,"internal_node_id":"0.0-7.0-2.0"},{"rt":39886,"assignments":["../images/ylw_slt.png","../images/blu_wht.png","../images/cyn_red.png","../images/pnk_blu.png","../images/gry_blk.png","../images/org_blu.png"],"trial_type":"drag-drop-on-image","trial_index":108,"time_elapsed":1708600,"internal_node_id":"0.0-7.0-3.0"},{"rt":9138,"responses":"{\"Q0\":\"4\"}","trial_type":"survey-likert","trial_index":109,"time_elapsed":1718754,"internal_node_id":"0.0-7.0-4.0"},{"rt":27564,"responses":"{\"Q0\":\"They were both linear\"}","trial_type":"survey-text","trial_index":110,"time_elapsed":1747356,"internal_node_id":"0.0-7.0-5.0"},{"rt":43273,"responses":"{\"Q0\":\"Yes\"}","trial_type":"survey-multi-choice","trial_index":111,"time_elapsed":1791635,"internal_node_id":"0.0-7.0-6.0"},{"rt":82100,"responses":"{\"Q0\":\"During session 1\"}","trial_type":"survey-multi-choice","trial_index":112,"time_elapsed":1874740,"internal_node_id":"0.0-7.0-7.0"},{"rt":39627,"responses":"{\"Q0\":\"i found their patterns were both linear\"}","trial_type":"survey-text","trial_index":113,"time_elapsed":1915368,"internal_node_id":"0.0-7.0-8.0"},{"rt":6280,"responses":"{\"Q0\":\"4\"}","trial_type":"survey-likert","trial_index":114,"time_elapsed":1922650,"internal_node_id":"0.0-7.0-9.0"},{"rt":14247,"responses":"{\"Q0\":\"Same structure\"}","trial_type":"survey-multi-choice","trial_index":115,"time_elapsed":1937979,"internal_node_id":"0.0-7.0-10.0"},{"rt":39424,"responses":"{\"Q0\":\"left (black) door = ray, right (white) door = acid\",\"Q1\":\"Not at all confident\"}","trial_type":"survey-multi-choice","trial_index":116,"time_elapsed":1978413,"internal_node_id":"0.0-7.0-11.0"},{"rt":9880,"responses":"{\"Q0\":\"35-45\",\"Q1\":\"High school degree or GED\",\"Q2\":\"Male\",\"Q3\":\"White\"}","trial_type":"survey-multi-choice","trial_index":117,"time_elapsed":1989311,"internal_node_id":"0.0-8.0"},{"rt":22181,"responses":"{\"Q0\":\"\"}","trial_type":"survey-text","trial_index":118,"time_elapsed":2012494,"internal_node_id":"0.0-9.0"}]