[{"view_history":"[{\"page_index\":0,\"viewing_time\":2846},{\"page_index\":1,\"viewing_time\":2067}]","rt":4915,"trial_type":"instructions","trial_index":0,"time_elapsed":4915,"internal_node_id":"0.0-0.0"},{"view_history":"[{\"page_index\":0,\"viewing_time\":2027},{\"page_index\":1,\"viewing_time\":1185}]","rt":3213,"trial_type":"instructions","trial_index":1,"time_elapsed":9129,"internal_node_id":"0.0-1.0"},{"group":"hexagon_tri","room_assignment":["yellow","red","purple","blue","grey","green"],"door_color_assignment":["white","black"],"door_generator_assignment":[0,1],"goal":2,"start":1,"action_noise":0,"location_history":"[1,5,0,5,4,2]","action_history":"[1,1,0,0,1]","door_history":"[1,1,0,0,1]","location_rts":"[1763,654,4385,374,566]","trial_type":"two-door-navigation","trial_index":2,"time_elapsed":26434,"internal_node_id":"0.0-2.0-0.0"},{"group":"hexagon_tri","room_assignment":["yellow","red","purple","blue","grey","green"],"door_color_assignment":["white","black"],"door_generator_assignment":[0,1],"goal":0,"start":2,"action_noise":0,"location_history":"[2,1,3,2,3,4,0]","action_history":"[0,0,0,1,1,0]","door_history":"[0,0,0,1,1,0]","location_rts":"[577,1372,606,366,370,662]","trial_type":"two-door-navigation","trial_index":3,"time_elapsed":41013,"internal_node_id":"0.0-2.0-1.0"},{"group":"hexagon_tri","room_assignment":["yellow","red","purple","blue","grey","green"],"door_color_assignment":["white","black"],"door_generator_assignment":[0,1],"goal":5,"start":0,"action_noise":0,"location_history":"[0,1,5]","action_history":"[1,1]","door_history":"[1,1]","location_rts":"[1692,376]","trial_type":"two-door-navigation","trial_index":4,"time_elapsed":49237,"internal_node_id":"0.0-2.0-2.0"},{"group":"hexagon_tri","room_assignment":["yellow","red","purple","blue","grey","green"],"door_color_assignment":["white","black"],"door_generator_assignment":[0,1],"goal":1,"start":5,"action_noise":0,"location_history":"[5,0,1]","action_history":"[1,1]","door_history":"[1,1]","location_rts":"[493,1276]","trial_type":"two-door-navigation","trial_index":5,"time_elapsed":57168,"internal_node_id":"0.0-2.0-3.0"},{"group":"hexagon_tri","room_assignment":["yellow","red","purple","blue","grey","green"],"door_color_assignment":["white","black"],"door_generator_assignment":[0,1],"goal":3,"start":1,"action_noise":0,"location_history":"[1,5,4,2,3]","action_history":"[1,0,1,1]","door_history":"[1,0,1,1]","location_rts":"[638,674,1387,640]","trial_type":"two-door-navigation","trial_index":6,"time_elapsed":68926,"internal_node_id":"0.0-2.0-4.0"},{"group":"hexagon_tri","room_assignment":["yellow","red","purple","blue","grey","green"],"door_color_assignment":["white","black"],"door_generator_assignment":[0,1],"goal":5,"start":3,"action_noise":0,"location_history":"[3,4,0,5]","action_history":"[1,0,0]","door_history":"[1,0,0]","location_rts":"[662,570,376]","trial_type":"two-door-navigation","trial_index":7,"time_elapsed":77771,"internal_node_id":"0.0-2.0-5.0"},{"group":"hexagon_tri","room_assignment":["yellow","red","purple","blue","grey","green"],"door_color_assignment":["white","black"],"door_generator_assignment":[0,1],"goal":4,"start":5,"action_noise":0,"location_history":"[5,4]","action_history":"[0]","door_history":"[0]","location_rts":"[914]","trial_type":"two-door-navigation","trial_index":8,"time_elapsed":83755,"internal_node_id":"0.0-2.0-6.0"},{"group":"hexagon_tri","room_assignment":["yellow","red","purple","blue","grey","green"],"door_color_assignment":["white","black"],"door_generator_assignment":[0,1],"goal":0,"start":4,"action_noise":0,"location_history":"[4,0]","action_history":"[0]","door_history":"[0]","location_rts":"[1772]","trial_type":"two-door-navigation","trial_index":9,"time_elapsed":90592,"internal_node_id":"0.0-2.0-7.0"},{"group":"hexagon_tri","room_assignment":["yellow","red","purple","blue","grey","green"],"door_color_assignment":["white","black"],"door_generator_assignment":[0,1],"goal":2,"start":0,"action_noise":0,"location_history":"[0,1,5,4,2]","action_history":"[1,1,0,1]","door_history":"[1,1,0,1]","location_rts":"[1641,442,924,795]","trial_type":"two-door-navigation","trial_index":10,"time_elapsed":102869,"internal_node_id":"0.0-2.0-8.0"},{"group":"hexagon_tri","room_assignment":["yellow","red","purple","blue","grey","green"],"door_color_assignment":["white","black"],"door_generator_assignment":[0,1],"goal":4,"start":2,"action_noise":0,"location_history":"[2,1,3,4]","action_history":"[0,0,1]","door_history":"[0,0,1]","location_rts":"[730,903,672]","trial_type":"two-door-navigation","trial_index":11,"time_elapsed":112484,"internal_node_id":"0.0-2.0-9.0"},{"group":"hexagon_tri","room_assignment":["yellow","red","purple","blue","grey","green"],"door_color_assignment":["white","black"],"door_generator_assignment":[0,1],"goal":2,"start":4,"action_noise":0,"location_history":"[4,0,1,5,0,5,4,2]","action_history":"[0,1,1,1,0,0,1]","door_history":"[0,1,1,1,0,0,1]","location_rts":"[459,476,357,439,1109,482,722]","trial_type":"two-door-navigation","trial_index":12,"time_elapsed":128216,"internal_node_id":"0.0-2.0-10.0"},{"group":"hexagon_tri","room_assignment":["yellow","red","purple","blue","grey","green"],"door_color_assignment":["white","black"],"door_generator_assignment":[0,1],"goal":3,"start":2,"action_noise":0,"location_history":"[2,1,5,0,5,4,2,1,5,0,5,4,0,1,5,0,1,5,4,0,1,5,0,1,3]","action_history":"[0,1,1,0,0,1,0,1,1,0,0,0,1,1,1,1,1,0,0,1,1,1,1,0]","door_history":"[0,1,1,0,0,1,0,1,1,0,0,0,1,1,1,1,1,0,0,1,1,1,1,0]","location_rts":"[843,484,376,766,1249,597,808,635,420,619,488,414,314,618,425,400,400,603,1088,445,433,1056,619,392]","trial_type":"two-door-navigation","trial_index":13,"time_elapsed":175333,"internal_node_id":"0.0-2.0-11.0"},{"group":"hexagon_tri","room_assignment":["yellow","red","purple","blue","grey","green"],"door_color_assignment":["white","black"],"door_generator_assignment":[0,1],"goal":0,"start":3,"action_noise":0,"location_history":"[3,2,1,5,4,0]","action_history":"[0,0,1,0,0]","door_history":"[0,0,1,0,0]","location_rts":"[1861,566,2543,1096,426]","trial_type":"two-door-navigation","trial_index":14,"time_elapsed":191602,"internal_node_id":"0.0-2.0-12.0"},{"group":"hexagon_tri","room_assignment":["yellow","red","purple","blue","grey","green"],"door_color_assignment":["white","black"],"door_generator_assignment":[0,1],"goal":5,"start":0,"action_noise":0,"location_history":"[0,1,5]","action_history":"[1,1]","door_history":"[1,1]","location_rts":"[1091,1617]","trial_type":"two-door-navigation","trial_index":15,"time_elapsed":200465,"internal_node_id":"0.0-2.0-13.0"},{"group":"hexagon_tri","room_assignment":["yellow","red","purple","blue","grey","green"],"door_color_assignment":["white","black"],"door_generator_assignment":[0,1],"goal":1,"start":5,"action_noise":0,"location_history":"[5,0,5,4,0,1]","action_history":"[1,0,0,0,1]","door_history":"[1,0,0,0,1]","location_rts":"[1610,705,98,624,512]","trial_type":"two-door-navigation","trial_index":16,"time_elapsed":213396,"internal_node_id":"0.0-2.0-14.0"},{"group":"hexagon_tri","room_assignment":["yellow","red","purple","blue","grey","green"],"door_color_assignment":["white","black"],"door_generator_assignment":[0,1],"goal":5,"start":1,"action_noise":0,"location_history":"[1,3,2,3,2,1,5]","action_history":"[0,0,1,0,0,1]","door_history":"[0,0,1,0,0,1]","location_rts":"[689,1603,618,609,502,512]","trial_type":"two-door-navigation","trial_index":17,"time_elapsed":228764,"internal_node_id":"0.0-2.0-15.0"},{"group":"hexagon_tri","room_assignment":["yellow","red","purple","blue","grey","green"],"door_color_assignment":["white","black"],"door_generator_assignment":[0,1],"goal":3,"start":5,"action_noise":0,"location_history":"[5,0,5,0,5,4,2,1,5,0,5,4,2,1,3]","action_history":"[1,0,1,0,0,1,0,1,1,0,0,1,0,0]","door_history":"[1,0,1,0,0,1,0,1,1,0,0,1,0,0]","location_rts":"[2447,562,709,951,1087,956,1433,679,2282,741,462,899,600,921]","trial_type":"two-door-navigation","trial_index":18,"time_elapsed":263004,"internal_node_id":"0.0-2.0-16.0"},{"group":"hexagon_tri","room_assignment":["yellow","red","purple","blue","grey","green"],"door_color_assignment":["white","black"],"door_generator_assignment":[0,1],"goal":2,"start":3,"action_noise":0,"location_history":"[3,2]","action_history":"[0]","door_history":"[0]","location_rts":"[1260]","trial_type":"two-door-navigation","trial_index":19,"time_elapsed":269348,"internal_node_id":"0.0-2.0-17.0"},{"group":"hexagon_tri","room_assignment":["yellow","red","purple","blue","grey","green"],"door_color_assignment":["white","black"],"door_generator_assignment":[0,1],"goal":1,"start":2,"action_noise":0,"location_history":"[2,3,2,1]","action_history":"[1,0,0]","door_history":"[1,0,0]","location_rts":"[1637,502,441]","trial_type":"two-door-navigation","trial_index":20,"time_elapsed":279134,"internal_node_id":"0.0-2.0-18.0"},{"group":"hexagon_tri","room_assignment":["yellow","red","purple","blue","grey","green"],"door_color_assignment":["white","black"],"door_generator_assignment":[0,1],"goal":4,"start":1,"action_noise":0,"location_history":"[1,5,4]","action_history":"[1,0]","door_history":"[1,0]","location_rts":"[1181,544]","trial_type":"two-door-navigation","trial_index":21,"time_elapsed":287005,"internal_node_id":"0.0-2.0-19.0"},{"group":"hexagon_tri","room_assignment":["yellow","red","purple","blue","grey","green"],"door_color_assignment":["white","black"],"door_generator_assignment":[0,1],"goal":0,"start":4,"action_noise":0,"location_history":"[4,0]","action_history":"[0]","door_history":"[0]","location_rts":"[2462]","trial_type":"two-door-navigation","trial_index":22,"time_elapsed":294549,"internal_node_id":"0.0-2.0-20.0"},{"group":"hexagon_tri","room_assignment":["yellow","red","purple","blue","grey","green"],"door_color_assignment":["white","black"],"door_generator_assignment":[0,1],"goal":3,"start":0,"action_noise":0,"location_history":"[0,5,4,2,1,3]","action_history":"[0,0,1,0,0]","door_history":"[0,0,1,0,0]","location_rts":"[1426,549,886,799,466]","trial_type":"two-door-navigation","trial_index":23,"time_elapsed":308456,"internal_node_id":"0.0-2.0-21.0"},{"group":"hexagon_tri","room_assignment":["yellow","red","purple","blue","grey","green"],"door_color_assignment":["white","black"],"door_generator_assignment":[0,1],"goal":1,"start":3,"action_noise":0,"location_history":"[3,2,1]","action_history":"[0,0]","door_history":"[0,0]","location_rts":"[1450,531]","trial_type":"two-door-navigation","trial_index":24,"time_elapsed":316588,"internal_node_id":"0.0-2.0-22.0"},{"group":"hexagon_tri","room_assignment":["yellow","red","purple","blue","grey","green"],"door_color_assignment":["white","black"],"door_generator_assignment":[0,1],"goal":0,"start":1,"action_noise":0,"location_history":"[1,3,4,0]","action_history":"[0,1,0]","door_history":"[0,1,0]","location_rts":"[2947,1435,790]","trial_type":"two-door-navigation","trial_index":25,"time_elapsed":328974,"internal_node_id":"0.0-2.0-23.0"},{"group":"hexagon_tri","room_assignment":["yellow","red","purple","blue","grey","green"],"door_color_assignment":["white","black"],"door_generator_assignment":[0,1],"goal":2,"start":0,"action_noise":0,"location_history":"[0,5,4,0,5,0,1,3,4,0,1,5,0,1,5,4,2]","action_history":"[0,0,0,0,1,1,0,1,0,1,1,1,1,1,0,1]","door_history":"[0,0,0,0,1,1,0,1,0,1,1,1,1,1,0,1]","location_rts":"[1462,672,1131,960,664,903,778,987,707,27,503,494,677,422,222,928]","trial_type":"two-door-navigation","trial_index":26,"time_elapsed":362046,"internal_node_id":"0.0-2.0-24.0"},{"group":"hexagon_tri","room_assignment":["yellow","red","purple","blue","grey","green"],"door_color_assignment":["white","black"],"door_generator_assignment":[0,1],"goal":4,"start":2,"action_noise":0,"location_history":"[2,3,2,1,5,4]","action_history":"[1,0,0,1,0]","door_history":"[1,0,0,1,0]","location_rts":"[775,646,726,445,603]","trial_type":"two-door-navigation","trial_index":27,"time_elapsed":374580,"internal_node_id":"0.0-2.0-25.0"},{"group":"hexagon_tri","room_assignment":["yellow","red","purple","blue","grey","green"],"door_color_assignment":["white","black"],"door_generator_assignment":[0,1],"goal":5,"start":4,"action_noise":0,"location_history":"[4,0,1,3,4,2,3,2,3,4,0,5]","action_history":"[0,1,0,1,1,1,0,1,1,0,0]","door_history":"[0,1,0,1,1,1,0,1,1,0,0]","location_rts":"[1111,1237,1920,752,901,667,719,704,1498,1519,459]","trial_type":"two-door-navigation","trial_index":28,"time_elapsed":402356,"internal_node_id":"0.0-2.0-26.0"},{"group":"hexagon_tri","room_assignment":["yellow","red","purple","blue","grey","green"],"door_color_assignment":["white","black"],"door_generator_assignment":[0,1],"goal":2,"start":5,"action_noise":0,"location_history":"[5,0,1,3,4,2]","action_history":"[1,1,0,1,1]","door_history":"[1,1,0,1,1]","location_rts":"[1112,435,830,646,786]","trial_type":"two-door-navigation","trial_index":29,"time_elapsed":415816,"internal_node_id":"0.0-2.0-27.0"},{"group":"hexagon_tri","room_assignment":["yellow","red","purple","blue","grey","green"],"door_color_assignment":["white","black"],"door_generator_assignment":[0,1],"goal":3,"start":2,"action_noise":0,"location_history":"[2,3]","action_history":"[1]","door_history":"[1]","location_rts":"[1375]","trial_type":"two-door-navigation","trial_index":30,"time_elapsed":422269,"internal_node_id":"0.0-2.0-28.0"},{"group":"hexagon_tri","room_assignment":["yellow","red","purple","blue","grey","green"],"door_color_assignment":["white","black"],"door_generator_assignment":[0,1],"goal":1,"start":3,"action_noise":0,"location_history":"[3,4,2,3,4,0,5,4,2,1]","action_history":"[1,1,1,1,0,0,0,1,0]","door_history":"[1,1,1,1,0,0,0,1,0]","location_rts":"[1231,783,558,728,742,437,477,3083,1322]","trial_type":"two-door-navigation","trial_index":31,"time_elapsed":445539,"internal_node_id":"0.0-2.0-29.0"},{"group":"hexagon_tri","room_assignment":["yellow","red","purple","blue","grey","green"],"door_color_assignment":["white","black"],"door_generator_assignment":[0,1],"goal":4,"start":1,"action_noise":0,"location_history":"[1,5,0,1,3,4]","action_history":"[1,1,1,0,1]","door_history":"[1,1,1,0,1]","location_rts":"[879,437,451,752,582]","trial_type":"two-door-navigation","trial_index":32,"time_elapsed":458026,"internal_node_id":"0.0-2.0-30.0"},{"group":"hexagon_tri","room_assignment":["yellow","red","purple","blue","grey","green"],"door_color_assignment":["white","black"],"door_generator_assignment":[0,1],"goal":5,"start":4,"action_noise":0,"location_history":"[4,2,1,3,4,2,1,5]","action_history":"[1,0,0,1,1,0,1]","door_history":"[1,0,0,1,1,0,1]","location_rts":"[330,476,418,682,1180,399,2040]","trial_type":"two-door-navigation","trial_index":33,"time_elapsed":475311,"internal_node_id":"0.0-2.0-31.0"},{"group":"hexagon_tri","room_assignment":["yellow","red","purple","blue","grey","green"],"door_color_assignment":["white","black"],"door_generator_assignment":[0,1],"goal":0,"start":5,"action_noise":0,"location_history":"[5,0]","action_history":"[1]","door_history":"[1]","location_rts":"[530]","trial_type":"two-door-navigation","trial_index":34,"time_elapsed":480932,"internal_node_id":"0.0-2.0-32.0"},{"group":"hexagon_tri","room_assignment":["yellow","red","purple","blue","grey","green"],"door_color_assignment":["white","black"],"door_generator_assignment":[0,1],"goal":2,"start":0,"action_noise":0,"location_history":"[0,5,0,1,5,4,2]","action_history":"[0,1,1,1,0,1]","door_history":"[0,1,1,1,0,1]","location_rts":"[1060,473,848,1007,698,1637]","trial_type":"two-door-navigation","trial_index":35,"time_elapsed":497080,"internal_node_id":"0.0-2.0-33.0"},{"group":"hexagon_tri","room_assignment":["yellow","red","purple","blue","grey","green"],"door_color_assignment":["white","black"],"door_generator_assignment":[0,1],"goal":0,"start":2,"action_noise":0,"location_history":"[2,3,2,1,5,4,0]","action_history":"[1,0,0,1,0,0]","door_history":"[1,0,0,1,0,0]","location_rts":"[638,596,372,661,649,719]","trial_type":"two-door-navigation","trial_index":36,"time_elapsed":511526,"internal_node_id":"0.0-2.0-34.0"},{"group":"hexagon_tri","room_assignment":["yellow","red","purple","blue","grey","green"],"door_color_assignment":["white","black"],"door_generator_assignment":[0,1],"goal":5,"start":0,"action_noise":0,"location_history":"[0,1,5]","action_history":"[1,1]","door_history":"[1,1]","location_rts":"[1437,2697]","trial_type":"two-door-navigation","trial_index":37,"time_elapsed":521806,"internal_node_id":"0.0-2.0-35.0"},{"group":"hexagon_tri","room_assignment":["yellow","red","purple","blue","grey","green"],"door_color_assignment":["white","black"],"door_generator_assignment":[0,1],"goal":1,"start":5,"action_noise":0,"location_history":"[5,0,5,4,2,1]","action_history":"[1,0,0,1,0]","door_history":"[1,0,0,1,0]","location_rts":"[930,779,695,1249,116]","trial_type":"two-door-navigation","trial_index":38,"time_elapsed":535381,"internal_node_id":"0.0-2.0-36.0"},{"group":"hexagon_tri","room_assignment":["yellow","red","purple","blue","grey","green"],"door_color_assignment":["white","black"],"door_generator_assignment":[0,1],"goal":4,"start":1,"action_noise":0,"location_history":"[1,5,0,5,0,5,0,1,3,4]","action_history":"[1,1,0,1,0,1,1,0,1]","door_history":"[1,1,0,1,0,1,1,0,1]","location_rts":"[578,483,461,986,676,985,245,996,1402]","trial_type":"two-door-navigation","trial_index":39,"time_elapsed":556189,"internal_node_id":"0.0-2.0-37.0"},{"group":"hexagon_tri","room_assignment":["yellow","red","purple","blue","grey","green"],"door_color_assignment":["white","black"],"door_generator_assignment":[0,1],"goal":3,"start":4,"action_noise":0,"location_history":"[4,2,1,3]","action_history":"[1,0,0]","door_history":"[1,0,0]","location_rts":"[910,1359,524]","trial_type":"two-door-navigation","trial_index":40,"time_elapsed":566260,"internal_node_id":"0.0-2.0-38.0"},{"group":"hexagon_tri","room_assignment":["yellow","red","purple","blue","grey","green"],"door_color_assignment":["white","black"],"door_generator_assignment":[0,1],"goal":5,"start":3,"action_noise":0,"location_history":"[3,4,0,1,5]","action_history":"[1,0,1,1]","door_history":"[1,0,1,1]","location_rts":"[966,1040,817,1552]","trial_type":"two-door-navigation","trial_index":41,"time_elapsed":579210,"internal_node_id":"0.0-2.0-39.0"},{"group":"hexagon_tri","room_assignment":["yellow","red","purple","blue","grey","green"],"door_color_assignment":["white","black"],"door_generator_assignment":[0,1],"goal":1,"start":5,"action_noise":0,"location_history":"[5,0,1]","action_history":"[1,1]","door_history":"[1,1]","location_rts":"[3174,923]","trial_type":"two-door-navigation","trial_index":42,"time_elapsed":589464,"internal_node_id":"0.0-2.0-40.0"},{"group":"hexagon_tri","room_assignment":["yellow","red","purple","blue","grey","green"],"door_color_assignment":["white","black"],"door_generator_assignment":[0,1],"goal":2,"start":1,"action_noise":0,"location_history":"[1,5,4,0,1,5,0,5,0,5,4,2]","action_history":"[1,0,0,1,1,1,0,1,0,0,1]","door_history":"[1,0,0,1,1,1,0,1,0,0,1]","location_rts":"[779,595,568,524,1069,467,466,696,812,391,696]","trial_type":"two-door-navigation","trial_index":43,"time_elapsed":612530,"internal_node_id":"0.0-2.0-41.0"},{"group":"hexagon_tri","room_assignment":["yellow","red","purple","blue","grey","green"],"door_color_assignment":["white","black"],"door_generator_assignment":[0,1],"goal":4,"start":2,"action_noise":0,"location_history":"[2,3,2,3,4]","action_history":"[1,0,1,1]","door_history":"[1,0,1,1]","location_rts":"[1825,663,705,510]","trial_type":"two-door-navigation","trial_index":44,"time_elapsed":624975,"internal_node_id":"0.0-2.0-42.0"},{"group":"hexagon_tri","room_assignment":["yellow","red","purple","blue","grey","green"],"door_color_assignment":["white","black"],"door_generator_assignment":[0,1],"goal":0,"start":4,"action_noise":0,"location_history":"[4,0]","action_history":"[0]","door_history":"[0]","location_rts":"[2187]","trial_type":"two-door-navigation","trial_index":45,"time_elapsed":632201,"internal_node_id":"0.0-2.0-43.0"},{"group":"hexagon_tri","room_assignment":["yellow","red","purple","blue","grey","green"],"door_color_assignment":["white","black"],"door_generator_assignment":[0,1],"goal":3,"start":0,"action_noise":0,"location_history":"[0,1,5,4,0,5,0,5,0,1,3]","action_history":"[1,1,0,0,0,1,0,1,1,0]","door_history":"[1,1,0,0,0,1,0,1,1,0]","location_rts":"[2389,2598,708,695,643,865,1378,43,496,1998]","trial_type":"two-door-navigation","trial_index":46,"time_elapsed":658685,"internal_node_id":"0.0-2.0-44.0"},{"group":"hexagon_tri","room_assignment":["yellow","red","purple","blue","grey","green"],"door_color_assignment":["white","black"],"door_generator_assignment":[0,1],"goal":0,"start":3,"action_noise":0,"location_history":"[3,2,3,2,3,4,0]","action_history":"[0,1,0,1,1,0]","door_history":"[0,1,0,1,1,0]","location_rts":"[6812,764,997,461,420,920]","trial_type":"two-door-navigation","trial_index":47,"time_elapsed":679542,"internal_node_id":"0.0-2.0-45.0"},{"group":"hexagon_tri","room_assignment":["yellow","red","purple","blue","grey","green"],"door_color_assignment":["white","black"],"door_generator_assignment":[0,1],"goal":4,"start":0,"action_noise":0,"location_history":"[0,5,0,1,3,2,1,3,4]","action_history":"[0,1,1,0,0,0,0,1]","door_history":"[0,1,1,0,0,0,0,1]","location_rts":"[2575,1106,636,610,431,493,733,822]","trial_type":"two-door-navigation","trial_index":48,"time_elapsed":699709,"internal_node_id":"0.0-2.0-46.0"},{"group":"hexagon_tri","room_assignment":["yellow","red","purple","blue","grey","green"],"door_color_assignment":["white","black"],"door_generator_assignment":[0,1],"goal":5,"start":4,"action_noise":0,"location_history":"[4,0,1,5]","action_history":"[0,1,1]","door_history":"[0,1,1]","location_rts":"[497,495,2058]","trial_type":"two-door-navigation","trial_index":49,"time_elapsed":710238,"internal_node_id":"0.0-2.0-47.0"},{"group":"hexagon_tri","room_assignment":["yellow","red","purple","blue","grey","green"],"door_color_assignment":["white","black"],"door_generator_assignment":[0,1],"goal":2,"start":5,"action_noise":0,"location_history":"[5,0,1,3,4,2]","action_history":"[1,1,0,1,1]","door_history":"[1,1,0,1,1]","location_rts":"[1718,922,1032,516,675]","trial_type":"two-door-navigation","trial_index":50,"time_elapsed":724891,"internal_node_id":"0.0-2.0-48.0"},{"group":"hexagon_tri","room_assignment":["yellow","red","purple","blue","grey","green"],"door_color_assignment":["white","black"],"door_generator_assignment":[0,1],"goal":1,"start":2,"action_noise":0,"location_history":"[2,1]","action_history":"[0]","door_history":"[0]","location_rts":"[1317]","trial_type":"two-door-navigation","trial_index":51,"time_elapsed":731283,"internal_node_id":"0.0-2.0-49.0"},{"view_history":"[{\"page_index\":0,\"viewing_time\":1379}]","rt":1380,"trial_type":"instructions","trial_index":52,"time_elapsed":733667,"internal_node_id":"0.0-3.0"},{"view_history":"[{\"page_index\":0,\"viewing_time\":1290},{\"page_index\":1,\"viewing_time\":934}]","rt":2224,"trial_type":"instructions","trial_index":53,"time_elapsed":736896,"internal_node_id":"0.0-4.0"},{"group":"hexagon_bi","fractal_assignment":["../images/pnk_blu.png","../images/org_blu.png","../images/blu_wht.png","../images/cyn_red.png","../images/gry_blk.png","../images/ylw_slt.png"],"mutagen_generator_assignment":[0,1],"goal":2,"start":1,"action_noise":0,"location_history":"[1,2]","action_history":"[0]","mutagen_history":"[0]","location_rts":"[5333]","trial_type":"fractal-mutation","trial_index":54,"time_elapsed":747605,"internal_node_id":"0.0-5.0-0.0"},{"group":"hexagon_bi","fractal_assignment":["../images/pnk_blu.png","../images/org_blu.png","../images/blu_wht.png","../images/cyn_red.png","../images/gry_blk.png","../images/ylw_slt.png"],"mutagen_generator_assignment":[0,1],"goal":0,"start":2,"action_noise":0,"location_history":"[2,1,0]","action_history":"[0,1]","mutagen_history":"[0,1]","location_rts":"[317,279]","trial_type":"fractal-mutation","trial_index":55,"time_elapsed":754396,"internal_node_id":"0.0-5.0-1.0"},{"group":"hexagon_bi","fractal_assignment":["../images/pnk_blu.png","../images/org_blu.png","../images/blu_wht.png","../images/cyn_red.png","../images/gry_blk.png","../images/ylw_slt.png"],"mutagen_generator_assignment":[0,1],"goal":5,"start":0,"action_noise":0,"location_history":"[0,1,2,3,2,1,0,1,2,1,2,3,4,5]","action_history":"[1,0,1,1,0,1,1,0,0,0,1,0,1]","mutagen_history":"[1,0,1,1,0,1,1,0,0,0,1,0,1]","location_rts":"[8778,1014,639,613,1074,269,571,495,622,709,443,671,1215]","trial_type":"fractal-mutation","trial_index":56,"time_elapsed":790174,"internal_node_id":"0.0-5.0-2.0"},{"group":"hexagon_bi","fractal_assignment":["../images/pnk_blu.png","../images/org_blu.png","../images/blu_wht.png","../images/cyn_red.png","../images/gry_blk.png","../images/ylw_slt.png"],"mutagen_generator_assignment":[0,1],"goal":1,"start":5,"action_noise":0,"location_history":"[5,4,3,2,1]","action_history":"[1,0,1,0]","mutagen_history":"[1,0,1,0]","location_rts":"[1353,1185,996,503]","trial_type":"fractal-mutation","trial_index":57,"time_elapsed":802767,"internal_node_id":"0.0-5.0-3.0"},{"group":"hexagon_bi","fractal_assignment":["../images/pnk_blu.png","../images/org_blu.png","../images/blu_wht.png","../images/cyn_red.png","../images/gry_blk.png","../images/ylw_slt.png"],"mutagen_generator_assignment":[0,1],"goal":3,"start":1,"action_noise":0,"location_history":"[1,2,3]","action_history":"[0,1]","mutagen_history":"[0,1]","location_rts":"[1414,496]","trial_type":"fractal-mutation","trial_index":58,"time_elapsed":810852,"internal_node_id":"0.0-5.0-4.0"},{"group":"hexagon_bi","fractal_assignment":["../images/pnk_blu.png","../images/org_blu.png","../images/blu_wht.png","../images/cyn_red.png","../images/gry_blk.png","../images/ylw_slt.png"],"mutagen_generator_assignment":[0,1],"goal":5,"start":3,"action_noise":0,"location_history":"[3,4,5]","action_history":"[0,1]","mutagen_history":"[0,1]","location_rts":"[1401,1151]","trial_type":"fractal-mutation","trial_index":59,"time_elapsed":819889,"internal_node_id":"0.0-5.0-5.0"},{"group":"hexagon_bi","fractal_assignment":["../images/pnk_blu.png","../images/org_blu.png","../images/blu_wht.png","../images/cyn_red.png","../images/gry_blk.png","../images/ylw_slt.png"],"mutagen_generator_assignment":[0,1],"goal":4,"start":5,"action_noise":0,"location_history":"[5,4]","action_history":"[1]","mutagen_history":"[1]","location_rts":"[1439]","trial_type":"fractal-mutation","trial_index":60,"time_elapsed":826419,"internal_node_id":"0.0-5.0-6.0"},{"group":"hexagon_bi","fractal_assignment":["../images/pnk_blu.png","../images/org_blu.png","../images/blu_wht.png","../images/cyn_red.png","../images/gry_blk.png","../images/ylw_slt.png"],"mutagen_generator_assignment":[0,1],"goal":0,"start":4,"action_noise":0,"location_history":"[4,3,2,1,0]","action_history":"[0,1,0,1]","mutagen_history":"[0,1,0,1]","location_rts":"[1156,599,4972,1016]","trial_type":"fractal-mutation","trial_index":61,"time_elapsed":842468,"internal_node_id":"0.0-5.0-7.0"},{"group":"hexagon_bi","fractal_assignment":["../images/pnk_blu.png","../images/org_blu.png","../images/blu_wht.png","../images/cyn_red.png","../images/gry_blk.png","../images/ylw_slt.png"],"mutagen_generator_assignment":[0,1],"goal":2,"start":0,"action_noise":0,"location_history":"[0,1,2]","action_history":"[1,0]","mutagen_history":"[1,0]","location_rts":"[315,311]","trial_type":"fractal-mutation","trial_index":62,"time_elapsed":849282,"internal_node_id":"0.0-5.0-8.0"},{"group":"hexagon_bi","fractal_assignment":["../images/pnk_blu.png","../images/org_blu.png","../images/blu_wht.png","../images/cyn_red.png","../images/gry_blk.png","../images/ylw_slt.png"],"mutagen_generator_assignment":[0,1],"goal":4,"start":2,"action_noise":0,"location_history":"[2,3,4]","action_history":"[1,0]","mutagen_history":"[1,0]","location_rts":"[1284,740]","trial_type":"fractal-mutation","trial_index":63,"time_elapsed":857456,"internal_node_id":"0.0-5.0-9.0"},{"group":"hexagon_bi","fractal_assignment":["../images/pnk_blu.png","../images/org_blu.png","../images/blu_wht.png","../images/cyn_red.png","../images/gry_blk.png","../images/ylw_slt.png"],"mutagen_generator_assignment":[0,1],"goal":2,"start":4,"action_noise":0,"location_history":"[4,5,0,1,0,5,0,1,2]","action_history":"[1,0,1,1,0,0,1,0]","mutagen_history":"[1,0,1,1,0,0,1,0]","location_rts":"[456,777,638,424,395,268,874,887]","trial_type":"fractal-mutation","trial_index":64,"time_elapsed":875206,"internal_node_id":"0.0-5.0-10.0"},{"group":"hexagon_bi","fractal_assignment":["../images/pnk_blu.png","../images/org_blu.png","../images/blu_wht.png","../images/cyn_red.png","../images/gry_blk.png","../images/ylw_slt.png"],"mutagen_generator_assignment":[0,1],"goal":3,"start":2,"action_noise":0,"location_history":"[2,1,0,1,2,3]","action_history":"[0,1,1,0,1]","mutagen_history":"[0,1,1,0,1]","location_rts":"[625,527,582,269,238]","trial_type":"fractal-mutation","trial_index":65,"time_elapsed":887200,"internal_node_id":"0.0-5.0-11.0"},{"group":"hexagon_bi","fractal_assignment":["../images/pnk_blu.png","../images/org_blu.png","../images/blu_wht.png","../images/cyn_red.png","../images/gry_blk.png","../images/ylw_slt.png"],"mutagen_generator_assignment":[0,1],"goal":0,"start":3,"action_noise":0,"location_history":"[3,4,5,0]","action_history":"[0,1,0]","mutagen_history":"[0,1,0]","location_rts":"[1183,573,809]","trial_type":"fractal-mutation","trial_index":66,"time_elapsed":897290,"internal_node_id":"0.0-5.0-12.0"},{"group":"hexagon_bi","fractal_assignment":["../images/pnk_blu.png","../images/org_blu.png","../images/blu_wht.png","../images/cyn_red.png","../images/gry_blk.png","../images/ylw_slt.png"],"mutagen_generator_assignment":[0,1],"goal":5,"start":0,"action_noise":0,"location_history":"[0,1,2,3,4,3,2,3,4,5]","action_history":"[1,0,1,0,0,1,1,0,1]","mutagen_history":"[1,0,1,0,0,1,1,0,1]","location_rts":"[1121,386,594,889,514,653,617,860,1063]","trial_type":"fractal-mutation","trial_index":67,"time_elapsed":917998,"internal_node_id":"0.0-5.0-13.0"},{"group":"hexagon_bi","fractal_assignment":["../images/pnk_blu.png","../images/org_blu.png","../images/blu_wht.png","../images/cyn_red.png","../images/gry_blk.png","../images/ylw_slt.png"],"mutagen_generator_assignment":[0,1],"goal":1,"start":5,"action_noise":0,"location_history":"[5,4,3,2,3,4,5,4,5,0,5,0,5,0,1]","action_history":"[1,0,1,1,0,1,1,1,0,0,0,0,0,1]","mutagen_history":"[1,0,1,1,0,1,1,1,0,0,0,0,0,1]","location_rts":"[858,1102,553,546,246,547,177,882,174,836,745,716,682,436]","trial_type":"fractal-mutation","trial_index":68,"time_elapsed":946635,"internal_node_id":"0.0-5.0-14.0"},{"group":"hexagon_bi","fractal_assignment":["../images/pnk_blu.png","../images/org_blu.png","../images/blu_wht.png","../images/cyn_red.png","../images/gry_blk.png","../images/ylw_slt.png"],"mutagen_generator_assignment":[0,1],"goal":5,"start":1,"action_noise":0,"location_history":"[1,0,5]","action_history":"[1,0]","mutagen_history":"[1,0]","location_rts":"[286,479]","trial_type":"fractal-mutation","trial_index":69,"time_elapsed":953572,"internal_node_id":"0.0-5.0-15.0"},{"group":"hexagon_bi","fractal_assignment":["../images/pnk_blu.png","../images/org_blu.png","../images/blu_wht.png","../images/cyn_red.png","../images/gry_blk.png","../images/ylw_slt.png"],"mutagen_generator_assignment":[0,1],"goal":3,"start":5,"action_noise":0,"location_history":"[5,0,1,2,3]","action_history":"[0,1,0,1]","mutagen_history":"[0,1,0,1]","location_rts":"[446,392,529,911]","trial_type":"fractal-mutation","trial_index":70,"time_elapsed":964180,"internal_node_id":"0.0-5.0-16.0"},{"group":"hexagon_bi","fractal_assignment":["../images/pnk_blu.png","../images/org_blu.png","../images/blu_wht.png","../images/cyn_red.png","../images/gry_blk.png","../images/ylw_slt.png"],"mutagen_generator_assignment":[0,1],"goal":2,"start":3,"action_noise":0,"location_history":"[3,2]","action_history":"[1]","mutagen_history":"[1]","location_rts":"[2892]","trial_type":"fractal-mutation","trial_index":71,"time_elapsed":972166,"internal_node_id":"0.0-5.0-17.0"},{"group":"hexagon_bi","fractal_assignment":["../images/pnk_blu.png","../images/org_blu.png","../images/blu_wht.png","../images/cyn_red.png","../images/gry_blk.png","../images/ylw_slt.png"],"mutagen_generator_assignment":[0,1],"goal":1,"start":2,"action_noise":0,"location_history":"[2,3,4,5,0,5,4,3,2,1]","action_history":"[1,0,1,0,0,1,0,1,0]","mutagen_history":"[1,0,1,0,0,1,0,1,0]","location_rts":"[1693,196,588,174,906,613,343,1497,227]","trial_type":"fractal-mutation","trial_index":72,"time_elapsed":992980,"internal_node_id":"0.0-5.0-18.0"},{"group":"hexagon_bi","fractal_assignment":["../images/pnk_blu.png","../images/org_blu.png","../images/blu_wht.png","../images/cyn_red.png","../images/gry_blk.png","../images/ylw_slt.png"],"mutagen_generator_assignment":[0,1],"goal":4,"start":1,"action_noise":0,"location_history":"[1,2,3,4]","action_history":"[0,1,0]","mutagen_history":"[0,1,0]","location_rts":"[1110,549,348]","trial_type":"fractal-mutation","trial_index":73,"time_elapsed":1002522,"internal_node_id":"0.0-5.0-19.0"},{"group":"hexagon_bi","fractal_assignment":["../images/pnk_blu.png","../images/org_blu.png","../images/blu_wht.png","../images/cyn_red.png","../images/gry_blk.png","../images/ylw_slt.png"],"mutagen_generator_assignment":[0,1],"goal":0,"start":4,"action_noise":0,"location_history":"[4,5,0]","action_history":"[1,0]","mutagen_history":"[1,0]","location_rts":"[911,897]","trial_type":"fractal-mutation","trial_index":74,"time_elapsed":1010503,"internal_node_id":"0.0-5.0-20.0"},{"group":"hexagon_bi","fractal_assignment":["../images/pnk_blu.png","../images/org_blu.png","../images/blu_wht.png","../images/cyn_red.png","../images/gry_blk.png","../images/ylw_slt.png"],"mutagen_generator_assignment":[0,1],"goal":3,"start":0,"action_noise":0,"location_history":"[0,1,2,3]","action_history":"[1,0,1]","mutagen_history":"[1,0,1]","location_rts":"[909,452,568]","trial_type":"fractal-mutation","trial_index":75,"time_elapsed":1019999,"internal_node_id":"0.0-5.0-21.0"},{"group":"hexagon_bi","fractal_assignment":["../images/pnk_blu.png","../images/org_blu.png","../images/blu_wht.png","../images/cyn_red.png","../images/gry_blk.png","../images/ylw_slt.png"],"mutagen_generator_assignment":[0,1],"goal":1,"start":3,"action_noise":0,"location_history":"[3,2,1]","action_history":"[1,0]","mutagen_history":"[1,0]","location_rts":"[1004,463]","trial_type":"fractal-mutation","trial_index":76,"time_elapsed":1027649,"internal_node_id":"0.0-5.0-22.0"},{"group":"hexagon_bi","fractal_assignment":["../images/pnk_blu.png","../images/org_blu.png","../images/blu_wht.png","../images/cyn_red.png","../images/gry_blk.png","../images/ylw_slt.png"],"mutagen_generator_assignment":[0,1],"goal":0,"start":1,"action_noise":0,"location_history":"[1,2,3,4,3,2,3,4,5,0]","action_history":"[0,1,0,0,1,1,0,1,0]","mutagen_history":"[0,1,0,0,1,1,0,1,0]","location_rts":"[311,410,781,1012,646,640,751,695,935]","trial_type":"fractal-mutation","trial_index":77,"time_elapsed":1048190,"internal_node_id":"0.0-5.0-23.0"},{"group":"hexagon_bi","fractal_assignment":["../images/pnk_blu.png","../images/org_blu.png","../images/blu_wht.png","../images/cyn_red.png","../images/gry_blk.png","../images/ylw_slt.png"],"mutagen_generator_assignment":[0,1],"goal":2,"start":0,"action_noise":0,"location_history":"[0,1,2]","action_history":"[1,0]","mutagen_history":"[1,0]","location_rts":"[1207,408]","trial_type":"fractal-mutation","trial_index":78,"time_elapsed":1055975,"internal_node_id":"0.0-5.0-24.0"},{"group":"hexagon_bi","fractal_assignment":["../images/pnk_blu.png","../images/org_blu.png","../images/blu_wht.png","../images/cyn_red.png","../images/gry_blk.png","../images/ylw_slt.png"],"mutagen_generator_assignment":[0,1],"goal":4,"start":2,"action_noise":0,"location_history":"[2,1,0,1,2,1,2,3,2,1,0,1,0,5,4]","action_history":"[0,1,1,0,0,0,1,1,0,1,1,1,0,1]","mutagen_history":"[0,1,1,0,0,0,1,1,0,1,1,1,0,1]","location_rts":"[2223,705,1043,601,2144,546,293,1391,854,941,423,772,521,1760]","trial_type":"fractal-mutation","trial_index":79,"time_elapsed":1089887,"internal_node_id":"0.0-5.0-25.0"},{"group":"hexagon_bi","fractal_assignment":["../images/pnk_blu.png","../images/org_blu.png","../images/blu_wht.png","../images/cyn_red.png","../images/gry_blk.png","../images/ylw_slt.png"],"mutagen_generator_assignment":[0,1],"goal":5,"start":4,"action_noise":0,"location_history":"[4,5]","action_history":"[1]","mutagen_history":"[1]","location_rts":"[1942]","trial_type":"fractal-mutation","trial_index":80,"time_elapsed":1096921,"internal_node_id":"0.0-5.0-26.0"},{"group":"hexagon_bi","fractal_assignment":["../images/pnk_blu.png","../images/org_blu.png","../images/blu_wht.png","../images/cyn_red.png","../images/gry_blk.png","../images/ylw_slt.png"],"mutagen_generator_assignment":[0,1],"goal":2,"start":5,"action_noise":0,"location_history":"[5,0,1,0,5,4,3,2]","action_history":"[0,1,1,0,1,0,1]","mutagen_history":"[0,1,1,0,1,0,1]","location_rts":"[2196,845,541,1127,2552,608,686]","trial_type":"fractal-mutation","trial_index":81,"time_elapsed":1117665,"internal_node_id":"0.0-5.0-27.0"},{"group":"hexagon_bi","fractal_assignment":["../images/pnk_blu.png","../images/org_blu.png","../images/blu_wht.png","../images/cyn_red.png","../images/gry_blk.png","../images/ylw_slt.png"],"mutagen_generator_assignment":[0,1],"goal":3,"start":2,"action_noise":0,"location_history":"[2,3]","action_history":"[1]","mutagen_history":"[1]","location_rts":"[1380]","trial_type":"fractal-mutation","trial_index":82,"time_elapsed":1124143,"internal_node_id":"0.0-5.0-28.0"},{"group":"hexagon_bi","fractal_assignment":["../images/pnk_blu.png","../images/org_blu.png","../images/blu_wht.png","../images/cyn_red.png","../images/gry_blk.png","../images/ylw_slt.png"],"mutagen_generator_assignment":[0,1],"goal":1,"start":3,"action_noise":0,"location_history":"[3,4,3,2,1]","action_history":"[0,0,1,0]","mutagen_history":"[0,0,1,0]","location_rts":"[1463,1444,1989,163]","trial_type":"fractal-mutation","trial_index":83,"time_elapsed":1137597,"internal_node_id":"0.0-5.0-29.0"},{"group":"hexagon_bi","fractal_assignment":["../images/pnk_blu.png","../images/org_blu.png","../images/blu_wht.png","../images/cyn_red.png","../images/gry_blk.png","../images/ylw_slt.png"],"mutagen_generator_assignment":[0,1],"goal":4,"start":1,"action_noise":0,"location_history":"[1,0,5,0,1,0,5,0,1,2,3,4]","action_history":"[1,0,0,1,1,0,0,1,0,1,0]","mutagen_history":"[1,0,0,1,1,0,0,1,0,1,0]","location_rts":"[415,202,376,451,472,409,1011,492,676,838,1716]","trial_type":"fractal-mutation","trial_index":84,"time_elapsed":1161301,"internal_node_id":"0.0-5.0-30.0"},{"group":"hexagon_bi","fractal_assignment":["../images/pnk_blu.png","../images/org_blu.png","../images/blu_wht.png","../images/cyn_red.png","../images/gry_blk.png","../images/ylw_slt.png"],"mutagen_generator_assignment":[0,1],"goal":5,"start":4,"action_noise":0,"location_history":"[4,5]","action_history":"[1]","mutagen_history":"[1]","location_rts":"[1604]","trial_type":"fractal-mutation","trial_index":85,"time_elapsed":1168002,"internal_node_id":"0.0-5.0-31.0"},{"group":"hexagon_bi","fractal_assignment":["../images/pnk_blu.png","../images/org_blu.png","../images/blu_wht.png","../images/cyn_red.png","../images/gry_blk.png","../images/ylw_slt.png"],"mutagen_generator_assignment":[0,1],"goal":0,"start":5,"action_noise":0,"location_history":"[5,4,3,2,3,4,5,0]","action_history":"[1,0,1,1,0,1,0]","mutagen_history":"[1,0,1,1,0,1,0]","location_rts":"[886,990,115,910,155,1982,230]","trial_type":"fractal-mutation","trial_index":86,"time_elapsed":1185118,"internal_node_id":"0.0-5.0-32.0"},{"group":"hexagon_bi","fractal_assignment":["../images/pnk_blu.png","../images/org_blu.png","../images/blu_wht.png","../images/cyn_red.png","../images/gry_blk.png","../images/ylw_slt.png"],"mutagen_generator_assignment":[0,1],"goal":2,"start":0,"action_noise":0,"location_history":"[0,1,0,5,4,3,2]","action_history":"[1,1,0,1,0,1]","mutagen_history":"[1,1,0,1,0,1]","location_rts":"[2083,460,699,567,1845,846]","trial_type":"fractal-mutation","trial_index":87,"time_elapsed":1202226,"internal_node_id":"0.0-5.0-33.0"},{"group":"hexagon_bi","fractal_assignment":["../images/pnk_blu.png","../images/org_blu.png","../images/blu_wht.png","../images/cyn_red.png","../images/gry_blk.png","../images/ylw_slt.png"],"mutagen_generator_assignment":[0,1],"goal":0,"start":2,"action_noise":0,"location_history":"[2,3,2,1,0]","action_history":"[1,1,0,1]","mutagen_history":"[1,1,0,1]","location_rts":"[1070,864,841,480]","trial_type":"fractal-mutation","trial_index":88,"time_elapsed":1213840,"internal_node_id":"0.0-5.0-34.0"},{"group":"hexagon_bi","fractal_assignment":["../images/pnk_blu.png","../images/org_blu.png","../images/blu_wht.png","../images/cyn_red.png","../images/gry_blk.png","../images/ylw_slt.png"],"mutagen_generator_assignment":[0,1],"goal":5,"start":0,"action_noise":0,"location_history":"[0,1,2,3,4,5]","action_history":"[1,0,1,0,1]","mutagen_history":"[1,0,1,0,1]","location_rts":"[848,658,1319,1612,758]","trial_type":"fractal-mutation","trial_index":89,"time_elapsed":1228425,"internal_node_id":"0.0-5.0-35.0"},{"group":"hexagon_bi","fractal_assignment":["../images/pnk_blu.png","../images/org_blu.png","../images/blu_wht.png","../images/cyn_red.png","../images/gry_blk.png","../images/ylw_slt.png"],"mutagen_generator_assignment":[0,1],"goal":1,"start":5,"action_noise":0,"location_history":"[5,4,3,2,3,4,5,0,1]","action_history":"[1,0,1,1,0,1,0,1]","mutagen_history":"[1,0,1,1,0,1,0,1]","location_rts":"[1054,868,541,459,377,490,49,2551]","trial_type":"fractal-mutation","trial_index":90,"time_elapsed":1247753,"internal_node_id":"0.0-5.0-36.0"},{"group":"hexagon_bi","fractal_assignment":["../images/pnk_blu.png","../images/org_blu.png","../images/blu_wht.png","../images/cyn_red.png","../images/gry_blk.png","../images/ylw_slt.png"],"mutagen_generator_assignment":[0,1],"goal":4,"start":1,"action_noise":0,"location_history":"[1,0,5,4]","action_history":"[1,0,1]","mutagen_history":"[1,0,1]","location_rts":"[895,491,846]","trial_type":"fractal-mutation","trial_index":91,"time_elapsed":1257540,"internal_node_id":"0.0-5.0-37.0"},{"group":"hexagon_bi","fractal_assignment":["../images/pnk_blu.png","../images/org_blu.png","../images/blu_wht.png","../images/cyn_red.png","../images/gry_blk.png","../images/ylw_slt.png"],"mutagen_generator_assignment":[0,1],"goal":3,"start":4,"action_noise":0,"location_history":"[4,5,0,5,4,3]","action_history":"[1,0,0,1,0]","mutagen_history":"[1,0,0,1,0]","location_rts":"[1526,376,1373,1003,298]","trial_type":"fractal-mutation","trial_index":92,"time_elapsed":1271510,"internal_node_id":"0.0-5.0-38.0"},{"group":"hexagon_bi","fractal_assignment":["../images/pnk_blu.png","../images/org_blu.png","../images/blu_wht.png","../images/cyn_red.png","../images/gry_blk.png","../images/ylw_slt.png"],"mutagen_generator_assignment":[0,1],"goal":5,"start":3,"action_noise":0,"location_history":"[3,4,5]","action_history":"[0,1]","mutagen_history":"[0,1]","location_rts":"[452,319]","trial_type":"fractal-mutation","trial_index":93,"time_elapsed":1278725,"internal_node_id":"0.0-5.0-39.0"},{"group":"hexagon_bi","fractal_assignment":["../images/pnk_blu.png","../images/org_blu.png","../images/blu_wht.png","../images/cyn_red.png","../images/gry_blk.png","../images/ylw_slt.png"],"mutagen_generator_assignment":[0,1],"goal":1,"start":5,"action_noise":0,"location_history":"[5,4,3,2,3,4,5,0,5,0,1]","action_history":"[1,0,1,1,0,1,0,0,0,1]","mutagen_history":"[1,0,1,1,0,1,0,0,0,1]","location_rts":"[867,326,627,608,650,552,651,544,1469,41]","trial_type":"fractal-mutation","trial_index":94,"time_elapsed":1300420,"internal_node_id":"0.0-5.0-40.0"},{"group":"hexagon_bi","fractal_assignment":["../images/pnk_blu.png","../images/org_blu.png","../images/blu_wht.png","../images/cyn_red.png","../images/gry_blk.png","../images/ylw_slt.png"],"mutagen_generator_assignment":[0,1],"goal":2,"start":1,"action_noise":0,"location_history":"[1,0,5,4,5,0,1,0,5,4,3,4,5,0,5,0,1,2]","action_history":"[1,0,1,1,0,1,1,0,1,0,0,1,0,0,0,1,0]","mutagen_history":"[1,0,1,1,0,1,1,0,1,0,0,1,0,0,0,1,0]","location_rts":"[836,604,1020,1419,802,922,496,504,830,728,715,2070,1385,508,1511,741,548]","trial_type":"fractal-mutation","trial_index":95,"time_elapsed":1339058,"internal_node_id":"0.0-5.0-41.0"},{"group":"hexagon_bi","fractal_assignment":["../images/pnk_blu.png","../images/org_blu.png","../images/blu_wht.png","../images/cyn_red.png","../images/gry_blk.png","../images/ylw_slt.png"],"mutagen_generator_assignment":[0,1],"goal":4,"start":2,"action_noise":0,"location_history":"[2,1,0,5,4]","action_history":"[0,1,0,1]","mutagen_history":"[0,1,0,1]","location_rts":"[630,376,409,812]","trial_type":"fractal-mutation","trial_index":96,"time_elapsed":1350122,"internal_node_id":"0.0-5.0-42.0"},{"group":"hexagon_bi","fractal_assignment":["../images/pnk_blu.png","../images/org_blu.png","../images/blu_wht.png","../images/cyn_red.png","../images/gry_blk.png","../images/ylw_slt.png"],"mutagen_generator_assignment":[0,1],"goal":0,"start":4,"action_noise":0,"location_history":"[4,5,0]","action_history":"[1,0]","mutagen_history":"[1,0]","location_rts":"[873,982]","trial_type":"fractal-mutation","trial_index":97,"time_elapsed":1358366,"internal_node_id":"0.0-5.0-43.0"},{"group":"hexagon_bi","fractal_assignment":["../images/pnk_blu.png","../images/org_blu.png","../images/blu_wht.png","../images/cyn_red.png","../images/gry_blk.png","../images/ylw_slt.png"],"mutagen_generator_assignment":[0,1],"goal":3,"start":0,"action_noise":0,"location_history":"[0,1,2,3]","action_history":"[1,0,1]","mutagen_history":"[1,0,1]","location_rts":"[654,384,999]","trial_type":"fractal-mutation","trial_index":98,"time_elapsed":1367958,"internal_node_id":"0.0-5.0-44.0"},{"group":"hexagon_bi","fractal_assignment":["../images/pnk_blu.png","../images/org_blu.png","../images/blu_wht.png","../images/cyn_red.png","../images/gry_blk.png","../images/ylw_slt.png"],"mutagen_generator_assignment":[0,1],"goal":0,"start":3,"action_noise":0,"location_history":"[3,2,1,0]","action_history":"[1,0,1]","mutagen_history":"[1,0,1]","location_rts":"[1101,1229,653]","trial_type":"fractal-mutation","trial_index":99,"time_elapsed":1378465,"internal_node_id":"0.0-5.0-45.0"},{"group":"hexagon_bi","fractal_assignment":["../images/pnk_blu.png","../images/org_blu.png","../images/blu_wht.png","../images/cyn_red.png","../images/gry_blk.png","../images/ylw_slt.png"],"mutagen_generator_assignment":[0,1],"goal":4,"start":0,"action_noise":0,"location_history":"[0,5,4]","action_history":"[0,1]","mutagen_history":"[0,1]","location_rts":"[747,1147]","trial_type":"fractal-mutation","trial_index":100,"time_elapsed":1386532,"internal_node_id":"0.0-5.0-46.0"},{"group":"hexagon_bi","fractal_assignment":["../images/pnk_blu.png","../images/org_blu.png","../images/blu_wht.png","../images/cyn_red.png","../images/gry_blk.png","../images/ylw_slt.png"],"mutagen_generator_assignment":[0,1],"goal":5,"start":4,"action_noise":0,"location_history":"[4,5]","action_history":"[1]","mutagen_history":"[1]","location_rts":"[848]","trial_type":"fractal-mutation","trial_index":101,"time_elapsed":1392474,"internal_node_id":"0.0-5.0-47.0"},{"group":"hexagon_bi","fractal_assignment":["../images/pnk_blu.png","../images/org_blu.png","../images/blu_wht.png","../images/cyn_red.png","../images/gry_blk.png","../images/ylw_slt.png"],"mutagen_generator_assignment":[0,1],"goal":2,"start":5,"action_noise":0,"location_history":"[5,0,1,0,5,4,3,2]","action_history":"[0,1,1,0,1,0,1]","mutagen_history":"[0,1,1,0,1,0,1]","location_rts":"[1984,583,608,857,818,384,781]","trial_type":"fractal-mutation","trial_index":102,"time_elapsed":1410618,"internal_node_id":"0.0-5.0-48.0"},{"group":"hexagon_bi","fractal_assignment":["../images/pnk_blu.png","../images/org_blu.png","../images/blu_wht.png","../images/cyn_red.png","../images/gry_blk.png","../images/ylw_slt.png"],"mutagen_generator_assignment":[0,1],"goal":1,"start":2,"action_noise":0,"location_history":"[2,3,4,5,0,5,4,3,2,1]","action_history":"[1,0,1,0,0,1,0,1,0]","mutagen_history":"[1,0,1,0,0,1,0,1,0]","location_rts":"[658,407,718,106,1640,542,436,929,823]","trial_type":"fractal-mutation","trial_index":103,"time_elapsed":1431350,"internal_node_id":"0.0-5.0-49.0"},{"view_history":"[{\"page_index\":0,\"viewing_time\":1961}]","rt":1961,"trial_type":"instructions","trial_index":104,"time_elapsed":1434315,"internal_node_id":"0.0-6.0"},{"rt":14270,"responses":"{\"Q0\":\"Your ability to remember\"}","trial_type":"survey-text","trial_index":105,"time_elapsed":1449596,"internal_node_id":"0.0-7.0-0.0"},{"rt":13947,"responses":"{\"Q0\":\"The same as the first one\"}","trial_type":"survey-text","trial_index":106,"time_elapsed":1464551,"internal_node_id":"0.0-7.0-1.0"},{"rt":16751,"responses":"{\"Q0\":\"<img src='../images/diagrams/hexagon_bi.png'>\"}","trial_type":"survey-multi-choice","trial_index":107,"time_elapsed":1482314,"internal_node_id":"0.0-7.0-2.0"},{"rt":32070,"assignments":["../images/pnk_blu.png","../images/blu_wht.png","../images/cyn_red.png","../images/gry_blk.png","../images/ylw_slt.png","../images/org_blu.png"],"trial_type":"drag-drop-on-image","trial_index":108,"time_elapsed":1515389,"internal_node_id":"0.0-7.0-3.0"},{"rt":5717,"responses":"{\"Q0\":\"2\"}","trial_type":"survey-likert","trial_index":109,"time_elapsed":1522112,"internal_node_id":"0.0-7.0-4.0"},{"rt":13302,"responses":"{\"Q0\":\"They obeyed the same rules\"}","trial_type":"survey-text","trial_index":110,"time_elapsed":1536417,"internal_node_id":"0.0-7.0-5.0"},{"rt":5857,"responses":"{\"Q0\":\"No\"}","trial_type":"survey-multi-choice","trial_index":111,"time_elapsed":1543282,"internal_node_id":"0.0-7.0-6.0"},{"rt":6259,"responses":"{\"Q0\":\"Did not notice\"}","trial_type":"survey-multi-choice","trial_index":112,"time_elapsed":1550547,"internal_node_id":"0.0-7.0-7.0"},{"rt":3306,"responses":"{\"Q0\":\"\"}","trial_type":"survey-text","trial_index":113,"time_elapsed":1554858,"internal_node_id":"0.0-7.0-8.0"},{"rt":4921,"responses":"{\"Q0\":\"2\"}","trial_type":"survey-likert","trial_index":114,"time_elapsed":1560786,"internal_node_id":"0.0-7.0-9.0"},{"rt":7168,"responses":"{\"Q0\":\"Same structure\"}","trial_type":"survey-multi-choice","trial_index":115,"time_elapsed":1568958,"internal_node_id":"0.0-7.0-10.0"},{"rt":31060,"assignments":["../images/cyn_red.png","../images/ylw_slt.png","../images/gry_blk.png","../images/org_blu.png","../images/pnk_blu.png","../images/blu_wht.png"],"background_order":[1,0,2,4,5,3],"trial_type":"drag-drop-on-image","trial_index":116,"time_elapsed":1601025,"internal_node_id":"0.0-7.0-11.0"},{"rt":13201,"responses":"{\"Q0\":\"left (white) door = ray, right (black) door = acid\",\"Q1\":\"Moderately confident\"}","trial_type":"survey-multi-choice","trial_index":117,"time_elapsed":1615235,"internal_node_id":"0.0-7.0-12.0"},{"rt":7227,"responses":"{\"Q0\":\"25-35\",\"Q1\":\"Associates or other two-year degree\",\"Q2\":\"Male\",\"Q3\":\"White\"}","trial_type":"survey-multi-choice","trial_index":118,"time_elapsed":1623475,"internal_node_id":"0.0-8.0"},{"rt":10860,"responses":"{\"Q0\":\"Excellent HIT\"}","trial_type":"survey-text","trial_index":119,"time_elapsed":1635341,"internal_node_id":"0.0-9.0"}]