[{"view_history":"[{\"page_index\":0,\"viewing_time\":4709},{\"page_index\":1,\"viewing_time\":4396}]","rt":9106,"trial_type":"instructions","trial_index":0,"time_elapsed":9110,"internal_node_id":"0.0-0.0"},{"view_history":"[{\"page_index\":0,\"viewing_time\":34134},{\"page_index\":1,\"viewing_time\":4020}]","rt":38154,"trial_type":"instructions","trial_index":1,"time_elapsed":48267,"internal_node_id":"0.0-1.0"},{"group":"hexagon_tri","room_assignment":["purple","blue","yellow","grey","red","green"],"door_color_assignment":["white","black"],"door_generator_assignment":[1,0],"goal":2,"start":1,"action_noise":0,"location_history":"[1,3,2]","action_history":"[0,0]","door_history":"[1,1]","location_rts":"[14451,308]","trial_type":"two-door-navigation","trial_index":2,"time_elapsed":69138,"internal_node_id":"0.0-2.0-0.0"},{"group":"hexagon_tri","room_assignment":["purple","blue","yellow","grey","red","green"],"door_color_assignment":["white","black"],"door_generator_assignment":[1,0],"goal":0,"start":2,"action_noise":0,"location_history":"[2,1,5,0]","action_history":"[0,1,1]","door_history":"[1,0,0]","location_rts":"[19205,3708,994]","trial_type":"two-door-navigation","trial_index":3,"time_elapsed":100154,"internal_node_id":"0.0-2.0-1.0"},{"group":"hexagon_tri","room_assignment":["purple","blue","yellow","grey","red","green"],"door_color_assignment":["white","black"],"door_generator_assignment":[1,0],"goal":5,"start":0,"action_noise":0,"location_history":"[0,1,5]","action_history":"[1,1]","door_history":"[0,0]","location_rts":"[3608,235]","trial_type":"two-door-navigation","trial_index":4,"time_elapsed":110077,"internal_node_id":"0.0-2.0-2.0"},{"group":"hexagon_tri","room_assignment":["purple","blue","yellow","grey","red","green"],"door_color_assignment":["white","black"],"door_generator_assignment":[1,0],"goal":1,"start":5,"action_noise":0,"location_history":"[5,0,1]","action_history":"[1,1]","door_history":"[0,0]","location_rts":"[7096,298]","trial_type":"two-door-navigation","trial_index":5,"time_elapsed":123533,"internal_node_id":"0.0-2.0-3.0"},{"group":"hexagon_tri","room_assignment":["purple","blue","yellow","grey","red","green"],"door_color_assignment":["white","black"],"door_generator_assignment":[1,0],"goal":3,"start":1,"action_noise":0,"location_history":"[1,3]","action_history":"[0]","door_history":"[1]","location_rts":"[5361]","trial_type":"two-door-navigation","trial_index":6,"time_elapsed":133939,"internal_node_id":"0.0-2.0-4.0"},{"group":"hexagon_tri","room_assignment":["purple","blue","yellow","grey","red","green"],"door_color_assignment":["white","black"],"door_generator_assignment":[1,0],"goal":5,"start":3,"action_noise":0,"location_history":"[3,4,0,5]","action_history":"[1,0,0]","door_history":"[0,1,1]","location_rts":"[17499,7279,14]","trial_type":"two-door-navigation","trial_index":7,"time_elapsed":165834,"internal_node_id":"0.0-2.0-5.0"},{"group":"hexagon_tri","room_assignment":["purple","blue","yellow","grey","red","green"],"door_color_assignment":["white","black"],"door_generator_assignment":[1,0],"goal":4,"start":5,"action_noise":0,"location_history":"[5,4]","action_history":"[0]","door_history":"[1]","location_rts":"[3215]","trial_type":"two-door-navigation","trial_index":8,"time_elapsed":174094,"internal_node_id":"0.0-2.0-6.0"},{"group":"hexagon_tri","room_assignment":["purple","blue","yellow","grey","red","green"],"door_color_assignment":["white","black"],"door_generator_assignment":[1,0],"goal":0,"start":4,"action_noise":0,"location_history":"[4,0]","action_history":"[0]","door_history":"[1]","location_rts":"[2509]","trial_type":"two-door-navigation","trial_index":9,"time_elapsed":181639,"internal_node_id":"0.0-2.0-7.0"},{"group":"hexagon_tri","room_assignment":["purple","blue","yellow","grey","red","green"],"door_color_assignment":["white","black"],"door_generator_assignment":[1,0],"goal":2,"start":0,"action_noise":0,"location_history":"[0,1,3,2]","action_history":"[1,0,0]","door_history":"[0,1,1]","location_rts":"[8978,3251,733]","trial_type":"two-door-navigation","trial_index":10,"time_elapsed":201711,"internal_node_id":"0.0-2.0-8.0"},{"group":"hexagon_tri","room_assignment":["purple","blue","yellow","grey","red","green"],"door_color_assignment":["white","black"],"door_generator_assignment":[1,0],"goal":4,"start":2,"action_noise":0,"location_history":"[2,3,4]","action_history":"[1,1]","door_history":"[0,0]","location_rts":"[63190,5072]","trial_type":"two-door-navigation","trial_index":11,"time_elapsed":276047,"internal_node_id":"0.0-2.0-9.0"},{"group":"hexagon_tri","room_assignment":["purple","blue","yellow","grey","red","green"],"door_color_assignment":["white","black"],"door_generator_assignment":[1,0],"goal":2,"start":4,"action_noise":0,"location_history":"[4,2]","action_history":"[1]","door_history":"[0]","location_rts":"[5440]","trial_type":"two-door-navigation","trial_index":12,"time_elapsed":286521,"internal_node_id":"0.0-2.0-10.0"},{"group":"hexagon_tri","room_assignment":["purple","blue","yellow","grey","red","green"],"door_color_assignment":["white","black"],"door_generator_assignment":[1,0],"goal":3,"start":2,"action_noise":0,"location_history":"[2,3]","action_history":"[1]","door_history":"[0]","location_rts":"[4546]","trial_type":"two-door-navigation","trial_index":13,"time_elapsed":296105,"internal_node_id":"0.0-2.0-11.0"},{"group":"hexagon_tri","room_assignment":["purple","blue","yellow","grey","red","green"],"door_color_assignment":["white","black"],"door_generator_assignment":[1,0],"goal":0,"start":3,"action_noise":0,"location_history":"[3,4,0]","action_history":"[1,0]","door_history":"[0,1]","location_rts":"[13163,271]","trial_type":"two-door-navigation","trial_index":14,"time_elapsed":315597,"internal_node_id":"0.0-2.0-12.0"},{"group":"hexagon_tri","room_assignment":["purple","blue","yellow","grey","red","green"],"door_color_assignment":["white","black"],"door_generator_assignment":[1,0],"goal":5,"start":0,"action_noise":0,"location_history":"[0,5]","action_history":"[0]","door_history":"[1]","location_rts":"[5063]","trial_type":"two-door-navigation","trial_index":15,"time_elapsed":325701,"internal_node_id":"0.0-2.0-13.0"},{"group":"hexagon_tri","room_assignment":["purple","blue","yellow","grey","red","green"],"door_color_assignment":["white","black"],"door_generator_assignment":[1,0],"goal":1,"start":5,"action_noise":0,"location_history":"[5,0,1]","action_history":"[1,1]","door_history":"[0,0]","location_rts":"[8497,255]","trial_type":"two-door-navigation","trial_index":16,"time_elapsed":340514,"internal_node_id":"0.0-2.0-14.0"},{"group":"hexagon_tri","room_assignment":["purple","blue","yellow","grey","red","green"],"door_color_assignment":["white","black"],"door_generator_assignment":[1,0],"goal":5,"start":1,"action_noise":0,"location_history":"[1,5]","action_history":"[1]","door_history":"[0]","location_rts":"[3988]","trial_type":"two-door-navigation","trial_index":17,"time_elapsed":349540,"internal_node_id":"0.0-2.0-15.0"},{"group":"hexagon_tri","room_assignment":["purple","blue","yellow","grey","red","green"],"door_color_assignment":["white","black"],"door_generator_assignment":[1,0],"goal":3,"start":5,"action_noise":0,"location_history":"[5,4,2,3]","action_history":"[0,1,1]","door_history":"[1,0,0]","location_rts":"[5999,2317,127]","trial_type":"two-door-navigation","trial_index":18,"time_elapsed":365061,"internal_node_id":"0.0-2.0-16.0"},{"group":"hexagon_tri","room_assignment":["purple","blue","yellow","grey","red","green"],"door_color_assignment":["white","black"],"door_generator_assignment":[1,0],"goal":2,"start":3,"action_noise":0,"location_history":"[3,2]","action_history":"[0]","door_history":"[1]","location_rts":"[8145]","trial_type":"two-door-navigation","trial_index":19,"time_elapsed":378240,"internal_node_id":"0.0-2.0-17.0"},{"group":"hexagon_tri","room_assignment":["purple","blue","yellow","grey","red","green"],"door_color_assignment":["white","black"],"door_generator_assignment":[1,0],"goal":1,"start":2,"action_noise":0,"location_history":"[2,1]","action_history":"[0]","door_history":"[1]","location_rts":"[3417]","trial_type":"two-door-navigation","trial_index":20,"time_elapsed":386703,"internal_node_id":"0.0-2.0-18.0"},{"group":"hexagon_tri","room_assignment":["purple","blue","yellow","grey","red","green"],"door_color_assignment":["white","black"],"door_generator_assignment":[1,0],"goal":4,"start":1,"action_noise":0,"location_history":"[1,5,0,1,5,4]","action_history":"[1,1,1,1,0]","door_history":"[0,0,0,0,1]","location_rts":"[9044,5419,246,5098,5981]","trial_type":"two-door-navigation","trial_index":21,"time_elapsed":421625,"internal_node_id":"0.0-2.0-19.0"},{"group":"hexagon_tri","room_assignment":["purple","blue","yellow","grey","red","green"],"door_color_assignment":["white","black"],"door_generator_assignment":[1,0],"goal":0,"start":4,"action_noise":0,"location_history":"[4,0]","action_history":"[0]","door_history":"[1]","location_rts":"[4616]","trial_type":"two-door-navigation","trial_index":22,"time_elapsed":431279,"internal_node_id":"0.0-2.0-20.0"},{"group":"hexagon_tri","room_assignment":["purple","blue","yellow","grey","red","green"],"door_color_assignment":["white","black"],"door_generator_assignment":[1,0],"goal":3,"start":0,"action_noise":0,"location_history":"[0,5,0,5,4,2,3]","action_history":"[0,1,0,0,1,1]","door_history":"[1,0,1,1,0,0]","location_rts":"[34007,6188,12703,1895,3519,533]","trial_type":"two-door-navigation","trial_index":23,"time_elapsed":500302,"internal_node_id":"0.0-2.0-21.0"},{"group":"hexagon_tri","room_assignment":["purple","blue","yellow","grey","red","green"],"door_color_assignment":["white","black"],"door_generator_assignment":[1,0],"goal":1,"start":3,"action_noise":0,"location_history":"[3,2,1]","action_history":"[0,0]","door_history":"[1,1]","location_rts":"[6030,282]","trial_type":"two-door-navigation","trial_index":24,"time_elapsed":512681,"internal_node_id":"0.0-2.0-22.0"},{"group":"hexagon_tri","room_assignment":["purple","blue","yellow","grey","red","green"],"door_color_assignment":["white","black"],"door_generator_assignment":[1,0],"goal":0,"start":1,"action_noise":0,"location_history":"[1,5,0]","action_history":"[1,1]","door_history":"[0,0]","location_rts":"[9948,278]","trial_type":"two-door-navigation","trial_index":25,"time_elapsed":528966,"internal_node_id":"0.0-2.0-23.0"},{"group":"hexagon_tri","room_assignment":["purple","blue","yellow","grey","red","green"],"door_color_assignment":["white","black"],"door_generator_assignment":[1,0],"goal":2,"start":0,"action_noise":0,"location_history":"[0,1,3,2]","action_history":"[1,0,0]","door_history":"[0,1,1]","location_rts":"[14217,1527,7]","trial_type":"two-door-navigation","trial_index":26,"time_elapsed":551799,"internal_node_id":"0.0-2.0-24.0"},{"group":"hexagon_tri","room_assignment":["purple","blue","yellow","grey","red","green"],"door_color_assignment":["white","black"],"door_generator_assignment":[1,0],"goal":4,"start":2,"action_noise":0,"location_history":"[2,3,2,3,4]","action_history":"[1,0,1,1]","door_history":"[0,1,0,0]","location_rts":"[14048,8574,2325,408]","trial_type":"two-door-navigation","trial_index":27,"time_elapsed":585256,"internal_node_id":"0.0-2.0-25.0"},{"group":"hexagon_tri","room_assignment":["purple","blue","yellow","grey","red","green"],"door_color_assignment":["white","black"],"door_generator_assignment":[1,0],"goal":5,"start":4,"action_noise":0,"location_history":"[4,0,5]","action_history":"[0,0]","door_history":"[1,1]","location_rts":"[5240,241]","trial_type":"two-door-navigation","trial_index":28,"time_elapsed":596801,"internal_node_id":"0.0-2.0-26.0"},{"group":"hexagon_tri","room_assignment":["purple","blue","yellow","grey","red","green"],"door_color_assignment":["white","black"],"door_generator_assignment":[1,0],"goal":2,"start":5,"action_noise":0,"location_history":"[5,4,2]","action_history":"[0,1]","door_history":"[1,0]","location_rts":"[15632,1859]","trial_type":"two-door-navigation","trial_index":29,"time_elapsed":620346,"internal_node_id":"0.0-2.0-27.0"},{"group":"hexagon_tri","room_assignment":["purple","blue","yellow","grey","red","green"],"door_color_assignment":["white","black"],"door_generator_assignment":[1,0],"goal":3,"start":2,"action_noise":0,"location_history":"[2,3]","action_history":"[1]","door_history":"[0]","location_rts":"[3243]","trial_type":"two-door-navigation","trial_index":30,"time_elapsed":628620,"internal_node_id":"0.0-2.0-28.0"},{"group":"hexagon_tri","room_assignment":["purple","blue","yellow","grey","red","green"],"door_color_assignment":["white","black"],"door_generator_assignment":[1,0],"goal":1,"start":3,"action_noise":0,"location_history":"[3,2,1]","action_history":"[0,0]","door_history":"[1,1]","location_rts":"[5112,551]","trial_type":"two-door-navigation","trial_index":31,"time_elapsed":640347,"internal_node_id":"0.0-2.0-29.0"},{"group":"hexagon_tri","room_assignment":["purple","blue","yellow","grey","red","green"],"door_color_assignment":["white","black"],"door_generator_assignment":[1,0],"goal":4,"start":1,"action_noise":0,"location_history":"[1,3,4]","action_history":"[0,1]","door_history":"[1,0]","location_rts":"[22710,278]","trial_type":"two-door-navigation","trial_index":32,"time_elapsed":669395,"internal_node_id":"0.0-2.0-30.0"},{"group":"hexagon_tri","room_assignment":["purple","blue","yellow","grey","red","green"],"door_color_assignment":["white","black"],"door_generator_assignment":[1,0],"goal":5,"start":4,"action_noise":0,"location_history":"[4,0,1,5]","action_history":"[0,1,1]","door_history":"[1,0,0]","location_rts":"[16056,15329,5592]","trial_type":"two-door-navigation","trial_index":33,"time_elapsed":713465,"internal_node_id":"0.0-2.0-31.0"},{"group":"hexagon_tri","room_assignment":["purple","blue","yellow","grey","red","green"],"door_color_assignment":["white","black"],"door_generator_assignment":[1,0],"goal":0,"start":5,"action_noise":0,"location_history":"[5,0]","action_history":"[1]","door_history":"[0]","location_rts":"[20249]","trial_type":"two-door-navigation","trial_index":34,"time_elapsed":738745,"internal_node_id":"0.0-2.0-32.0"},{"group":"hexagon_tri","room_assignment":["purple","blue","yellow","grey","red","green"],"door_color_assignment":["white","black"],"door_generator_assignment":[1,0],"goal":2,"start":0,"action_noise":0,"location_history":"[0,1,3,2]","action_history":"[1,0,0]","door_history":"[0,1,1]","location_rts":"[10008,4846,267]","trial_type":"two-door-navigation","trial_index":35,"time_elapsed":760950,"internal_node_id":"0.0-2.0-33.0"},{"group":"hexagon_tri","room_assignment":["purple","blue","yellow","grey","red","green"],"door_color_assignment":["white","black"],"door_generator_assignment":[1,0],"goal":0,"start":2,"action_noise":0,"location_history":"[2,1,5,0]","action_history":"[0,1,1]","door_history":"[1,0,0]","location_rts":"[10824,3211,628]","trial_type":"two-door-navigation","trial_index":36,"time_elapsed":782711,"internal_node_id":"0.0-2.0-34.0"},{"group":"hexagon_tri","room_assignment":["purple","blue","yellow","grey","red","green"],"door_color_assignment":["white","black"],"door_generator_assignment":[1,0],"goal":5,"start":0,"action_noise":0,"location_history":"[0,5]","action_history":"[0]","door_history":"[1]","location_rts":"[13123]","trial_type":"two-door-navigation","trial_index":37,"time_elapsed":800866,"internal_node_id":"0.0-2.0-35.0"},{"group":"hexagon_tri","room_assignment":["purple","blue","yellow","grey","red","green"],"door_color_assignment":["white","black"],"door_generator_assignment":[1,0],"goal":1,"start":5,"action_noise":0,"location_history":"[5,0,1]","action_history":"[1,1]","door_history":"[0,0]","location_rts":"[4056,22]","trial_type":"two-door-navigation","trial_index":38,"time_elapsed":811011,"internal_node_id":"0.0-2.0-36.0"},{"group":"hexagon_tri","room_assignment":["purple","blue","yellow","grey","red","green"],"door_color_assignment":["white","black"],"door_generator_assignment":[1,0],"goal":4,"start":1,"action_noise":0,"location_history":"[1,3,4]","action_history":"[0,1]","door_history":"[1,0]","location_rts":"[13983,4351]","trial_type":"two-door-navigation","trial_index":39,"time_elapsed":835415,"internal_node_id":"0.0-2.0-37.0"},{"group":"hexagon_tri","room_assignment":["purple","blue","yellow","grey","red","green"],"door_color_assignment":["white","black"],"door_generator_assignment":[1,0],"goal":3,"start":4,"action_noise":0,"location_history":"[4,2,3]","action_history":"[1,1]","door_history":"[0,0]","location_rts":"[4569,389]","trial_type":"two-door-navigation","trial_index":40,"time_elapsed":846433,"internal_node_id":"0.0-2.0-38.0"},{"group":"hexagon_tri","room_assignment":["purple","blue","yellow","grey","red","green"],"door_color_assignment":["white","black"],"door_generator_assignment":[1,0],"goal":5,"start":3,"action_noise":0,"location_history":"[3,4,0,5]","action_history":"[1,0,0]","door_history":"[0,1,1]","location_rts":"[7976,4577,109]","trial_type":"two-door-navigation","trial_index":41,"time_elapsed":866178,"internal_node_id":"0.0-2.0-39.0"},{"group":"hexagon_tri","room_assignment":["purple","blue","yellow","grey","red","green"],"door_color_assignment":["white","black"],"door_generator_assignment":[1,0],"goal":1,"start":5,"action_noise":0,"location_history":"[5,4,0,1]","action_history":"[0,0,1]","door_history":"[1,1,0]","location_rts":"[11719,10278,1643]","trial_type":"two-door-navigation","trial_index":42,"time_elapsed":896903,"internal_node_id":"0.0-2.0-40.0"},{"group":"hexagon_tri","room_assignment":["purple","blue","yellow","grey","red","green"],"door_color_assignment":["white","black"],"door_generator_assignment":[1,0],"goal":2,"start":1,"action_noise":0,"location_history":"[1,3,4,2]","action_history":"[0,1,1]","door_history":"[1,0,0]","location_rts":"[654,901,869]","trial_type":"two-door-navigation","trial_index":43,"time_elapsed":906411,"internal_node_id":"0.0-2.0-41.0"},{"group":"hexagon_tri","room_assignment":["purple","blue","yellow","grey","red","green"],"door_color_assignment":["white","black"],"door_generator_assignment":[1,0],"goal":4,"start":2,"action_noise":0,"location_history":"[2,3,2,1,5,0,5,4]","action_history":"[1,0,0,1,1,0,0]","door_history":"[0,1,1,0,0,1,1]","location_rts":"[544,1551,537,366,344,355,366]","trial_type":"two-door-navigation","trial_index":44,"time_elapsed":921657,"internal_node_id":"0.0-2.0-42.0"},{"group":"hexagon_tri","room_assignment":["purple","blue","yellow","grey","red","green"],"door_color_assignment":["white","black"],"door_generator_assignment":[1,0],"goal":0,"start":4,"action_noise":0,"location_history":"[4,0]","action_history":"[0]","door_history":"[1]","location_rts":"[3937]","trial_type":"two-door-navigation","trial_index":45,"time_elapsed":930627,"internal_node_id":"0.0-2.0-43.0"},{"group":"hexagon_tri","room_assignment":["purple","blue","yellow","grey","red","green"],"door_color_assignment":["white","black"],"door_generator_assignment":[1,0],"goal":3,"start":0,"action_noise":0,"location_history":"[0,1,3]","action_history":"[1,0]","door_history":"[0,1]","location_rts":"[11968,3420]","trial_type":"two-door-navigation","trial_index":46,"time_elapsed":952067,"internal_node_id":"0.0-2.0-44.0"},{"group":"hexagon_tri","room_assignment":["purple","blue","yellow","grey","red","green"],"door_color_assignment":["white","black"],"door_generator_assignment":[1,0],"goal":0,"start":3,"action_noise":0,"location_history":"[3,4,0]","action_history":"[1,0]","door_history":"[0,1]","location_rts":"[5881,3202]","trial_type":"two-door-navigation","trial_index":47,"time_elapsed":967203,"internal_node_id":"0.0-2.0-45.0"},{"group":"hexagon_tri","room_assignment":["purple","blue","yellow","grey","red","green"],"door_color_assignment":["white","black"],"door_generator_assignment":[1,0],"goal":4,"start":0,"action_noise":0,"location_history":"[0,5,4]","action_history":"[0,0]","door_history":"[1,1]","location_rts":"[4094,359]","trial_type":"two-door-navigation","trial_index":48,"time_elapsed":977709,"internal_node_id":"0.0-2.0-46.0"},{"group":"hexagon_tri","room_assignment":["purple","blue","yellow","grey","red","green"],"door_color_assignment":["white","black"],"door_generator_assignment":[1,0],"goal":5,"start":4,"action_noise":0,"location_history":"[4,0,5]","action_history":"[0,0]","door_history":"[1,1]","location_rts":"[5238,1105]","trial_type":"two-door-navigation","trial_index":49,"time_elapsed":990119,"internal_node_id":"0.0-2.0-47.0"},{"group":"hexagon_tri","room_assignment":["purple","blue","yellow","grey","red","green"],"door_color_assignment":["white","black"],"door_generator_assignment":[1,0],"goal":2,"start":5,"action_noise":0,"location_history":"[5,4,2]","action_history":"[0,1]","door_history":"[1,0]","location_rts":"[2763,4720]","trial_type":"two-door-navigation","trial_index":50,"time_elapsed":1003659,"internal_node_id":"0.0-2.0-48.0"},{"group":"hexagon_tri","room_assignment":["purple","blue","yellow","grey","red","green"],"door_color_assignment":["white","black"],"door_generator_assignment":[1,0],"goal":1,"start":2,"action_noise":0,"location_history":"[2,1]","action_history":"[0]","door_history":"[1]","location_rts":"[4061]","trial_type":"two-door-navigation","trial_index":51,"time_elapsed":1012754,"internal_node_id":"0.0-2.0-49.0"},{"view_history":"[{\"page_index\":0,\"viewing_time\":17094}]","rt":17096,"trial_type":"instructions","trial_index":52,"time_elapsed":1030851,"internal_node_id":"0.0-3.0"},{"view_history":"[{\"page_index\":0,\"viewing_time\":1492},{\"page_index\":1,\"viewing_time\":1840}]","rt":3333,"trial_type":"instructions","trial_index":53,"time_elapsed":1035186,"internal_node_id":"0.0-4.0"},{"group":"hexagon_tri","fractal_assignment":["../images/gry_blk.png","../images/blu_wht.png","../images/org_blu.png","../images/pnk_blu.png","../images/cyn_red.png","../images/ylw_slt.png"],"mutagen_generator_assignment":[0,1],"goal":2,"start":1,"action_noise":0,"location_history":"[1,5,0,5,4,2]","action_history":"[1,1,0,0,1]","mutagen_history":"[1,1,0,0,1]","location_rts":"[78703,3883,22552,28110,3150]","trial_type":"fractal-mutation","trial_index":54,"time_elapsed":1180984,"internal_node_id":"0.0-5.0-0.0"},{"group":"hexagon_tri","fractal_assignment":["../images/gry_blk.png","../images/blu_wht.png","../images/org_blu.png","../images/pnk_blu.png","../images/cyn_red.png","../images/ylw_slt.png"],"mutagen_generator_assignment":[0,1],"goal":0,"start":2,"action_noise":0,"location_history":"[2,3,2,3,4,0]","action_history":"[1,0,1,1,0]","mutagen_history":"[1,0,1,1,0]","location_rts":"[15142,8997,205622,4651,2507]","trial_type":"fractal-mutation","trial_index":55,"time_elapsed":1427261,"internal_node_id":"0.0-5.0-1.0"},{"group":"hexagon_tri","fractal_assignment":["../images/gry_blk.png","../images/blu_wht.png","../images/org_blu.png","../images/pnk_blu.png","../images/cyn_red.png","../images/ylw_slt.png"],"mutagen_generator_assignment":[0,1],"goal":5,"start":0,"action_noise":0,"location_history":"[0,5]","action_history":"[0]","mutagen_history":"[0]","location_rts":"[4021]","trial_type":"fractal-mutation","trial_index":56,"time_elapsed":1436344,"internal_node_id":"0.0-5.0-2.0"},{"group":"hexagon_tri","fractal_assignment":["../images/gry_blk.png","../images/blu_wht.png","../images/org_blu.png","../images/pnk_blu.png","../images/cyn_red.png","../images/ylw_slt.png"],"mutagen_generator_assignment":[0,1],"goal":1,"start":5,"action_noise":0,"location_history":"[5,0,1]","action_history":"[1,1]","mutagen_history":"[1,1]","location_rts":"[67349,2264]","trial_type":"fractal-mutation","trial_index":57,"time_elapsed":1512149,"internal_node_id":"0.0-5.0-3.0"},{"group":"hexagon_tri","fractal_assignment":["../images/gry_blk.png","../images/blu_wht.png","../images/org_blu.png","../images/pnk_blu.png","../images/cyn_red.png","../images/ylw_slt.png"],"mutagen_generator_assignment":[0,1],"goal":3,"start":1,"action_noise":0,"location_history":"[1,3]","action_history":"[0]","mutagen_history":"[0]","location_rts":"[4670]","trial_type":"fractal-mutation","trial_index":58,"time_elapsed":1521872,"internal_node_id":"0.0-5.0-4.0"},{"group":"hexagon_tri","fractal_assignment":["../images/gry_blk.png","../images/blu_wht.png","../images/org_blu.png","../images/pnk_blu.png","../images/cyn_red.png","../images/ylw_slt.png"],"mutagen_generator_assignment":[0,1],"goal":5,"start":3,"action_noise":0,"location_history":"[3,2,1,5]","action_history":"[0,0,1]","mutagen_history":"[0,0,1]","location_rts":"[24191,22073,5577]","trial_type":"fractal-mutation","trial_index":59,"time_elapsed":1580897,"internal_node_id":"0.0-5.0-5.0"},{"group":"hexagon_tri","fractal_assignment":["../images/gry_blk.png","../images/blu_wht.png","../images/org_blu.png","../images/pnk_blu.png","../images/cyn_red.png","../images/ylw_slt.png"],"mutagen_generator_assignment":[0,1],"goal":4,"start":5,"action_noise":0,"location_history":"[5,4]","action_history":"[0]","mutagen_history":"[0]","location_rts":"[3443]","trial_type":"fractal-mutation","trial_index":60,"time_elapsed":1589399,"internal_node_id":"0.0-5.0-6.0"},{"group":"hexagon_tri","fractal_assignment":["../images/gry_blk.png","../images/blu_wht.png","../images/org_blu.png","../images/pnk_blu.png","../images/cyn_red.png","../images/ylw_slt.png"],"mutagen_generator_assignment":[0,1],"goal":0,"start":4,"action_noise":0,"location_history":"[4,0]","action_history":"[0]","mutagen_history":"[0]","location_rts":"[1330]","trial_type":"fractal-mutation","trial_index":61,"time_elapsed":1595783,"internal_node_id":"0.0-5.0-7.0"},{"group":"hexagon_tri","fractal_assignment":["../images/gry_blk.png","../images/blu_wht.png","../images/org_blu.png","../images/pnk_blu.png","../images/cyn_red.png","../images/ylw_slt.png"],"mutagen_generator_assignment":[0,1],"goal":2,"start":0,"action_noise":0,"location_history":"[0,1,3,2]","action_history":"[1,0,0]","mutagen_history":"[1,0,0]","location_rts":"[8076,2842,4102]","trial_type":"fractal-mutation","trial_index":62,"time_elapsed":1617968,"internal_node_id":"0.0-5.0-8.0"},{"group":"hexagon_tri","fractal_assignment":["../images/gry_blk.png","../images/blu_wht.png","../images/org_blu.png","../images/pnk_blu.png","../images/cyn_red.png","../images/ylw_slt.png"],"mutagen_generator_assignment":[0,1],"goal":4,"start":2,"action_noise":0,"location_history":"[2,1,3,4]","action_history":"[0,0,1]","mutagen_history":"[0,0,1]","location_rts":"[4000,5084,1815]","trial_type":"fractal-mutation","trial_index":63,"time_elapsed":1636035,"internal_node_id":"0.0-5.0-9.0"},{"group":"hexagon_tri","fractal_assignment":["../images/gry_blk.png","../images/blu_wht.png","../images/org_blu.png","../images/pnk_blu.png","../images/cyn_red.png","../images/ylw_slt.png"],"mutagen_generator_assignment":[0,1],"goal":2,"start":4,"action_noise":0,"location_history":"[4,2]","action_history":"[1]","mutagen_history":"[1]","location_rts":"[2996]","trial_type":"fractal-mutation","trial_index":64,"time_elapsed":1644109,"internal_node_id":"0.0-5.0-10.0"},{"group":"hexagon_tri","fractal_assignment":["../images/gry_blk.png","../images/blu_wht.png","../images/org_blu.png","../images/pnk_blu.png","../images/cyn_red.png","../images/ylw_slt.png"],"mutagen_generator_assignment":[0,1],"goal":3,"start":2,"action_noise":0,"location_history":"[2,1,3]","action_history":"[0,0]","mutagen_history":"[0,0]","location_rts":"[2202,6903]","trial_type":"fractal-mutation","trial_index":65,"time_elapsed":1659335,"internal_node_id":"0.0-5.0-11.0"},{"group":"hexagon_tri","fractal_assignment":["../images/gry_blk.png","../images/blu_wht.png","../images/org_blu.png","../images/pnk_blu.png","../images/cyn_red.png","../images/ylw_slt.png"],"mutagen_generator_assignment":[0,1],"goal":0,"start":3,"action_noise":0,"location_history":"[3,2,3,4,0]","action_history":"[0,1,1,0]","mutagen_history":"[0,1,1,0]","location_rts":"[5172,3933,10699,1579]","trial_type":"fractal-mutation","trial_index":66,"time_elapsed":1688985,"internal_node_id":"0.0-5.0-12.0"},{"group":"hexagon_tri","fractal_assignment":["../images/gry_blk.png","../images/blu_wht.png","../images/org_blu.png","../images/pnk_blu.png","../images/cyn_red.png","../images/ylw_slt.png"],"mutagen_generator_assignment":[0,1],"goal":5,"start":0,"action_noise":0,"location_history":"[0,5]","action_history":"[0]","mutagen_history":"[0]","location_rts":"[3247]","trial_type":"fractal-mutation","trial_index":67,"time_elapsed":1697291,"internal_node_id":"0.0-5.0-13.0"},{"group":"hexagon_tri","fractal_assignment":["../images/gry_blk.png","../images/blu_wht.png","../images/org_blu.png","../images/pnk_blu.png","../images/cyn_red.png","../images/ylw_slt.png"],"mutagen_generator_assignment":[0,1],"goal":1,"start":5,"action_noise":0,"location_history":"[5,4,2,1]","action_history":"[0,1,0]","mutagen_history":"[0,1,0]","location_rts":"[31026,5115,1141]","trial_type":"fractal-mutation","trial_index":68,"time_elapsed":1741742,"internal_node_id":"0.0-5.0-14.0"},{"group":"hexagon_tri","fractal_assignment":["../images/gry_blk.png","../images/blu_wht.png","../images/org_blu.png","../images/pnk_blu.png","../images/cyn_red.png","../images/ylw_slt.png"],"mutagen_generator_assignment":[0,1],"goal":5,"start":1,"action_noise":0,"location_history":"[1,5]","action_history":"[1]","mutagen_history":"[1]","location_rts":"[2932]","trial_type":"fractal-mutation","trial_index":69,"time_elapsed":1749746,"internal_node_id":"0.0-5.0-15.0"},{"group":"hexagon_tri","fractal_assignment":["../images/gry_blk.png","../images/blu_wht.png","../images/org_blu.png","../images/pnk_blu.png","../images/cyn_red.png","../images/ylw_slt.png"],"mutagen_generator_assignment":[0,1],"goal":3,"start":5,"action_noise":0,"location_history":"[5,4,2,3]","action_history":"[0,1,1]","mutagen_history":"[0,1,1]","location_rts":"[7321,2422,2659]","trial_type":"fractal-mutation","trial_index":70,"time_elapsed":1769335,"internal_node_id":"0.0-5.0-16.0"},{"group":"hexagon_tri","fractal_assignment":["../images/gry_blk.png","../images/blu_wht.png","../images/org_blu.png","../images/pnk_blu.png","../images/cyn_red.png","../images/ylw_slt.png"],"mutagen_generator_assignment":[0,1],"goal":2,"start":3,"action_noise":0,"location_history":"[3,2]","action_history":"[0]","mutagen_history":"[0]","location_rts":"[2486]","trial_type":"fractal-mutation","trial_index":71,"time_elapsed":1776875,"internal_node_id":"0.0-5.0-17.0"},{"group":"hexagon_tri","fractal_assignment":["../images/gry_blk.png","../images/blu_wht.png","../images/org_blu.png","../images/pnk_blu.png","../images/cyn_red.png","../images/ylw_slt.png"],"mutagen_generator_assignment":[0,1],"goal":1,"start":2,"action_noise":0,"location_history":"[2,1]","action_history":"[0]","mutagen_history":"[0]","location_rts":"[1428]","trial_type":"fractal-mutation","trial_index":72,"time_elapsed":1783359,"internal_node_id":"0.0-5.0-18.0"},{"group":"hexagon_tri","fractal_assignment":["../images/gry_blk.png","../images/blu_wht.png","../images/org_blu.png","../images/pnk_blu.png","../images/cyn_red.png","../images/ylw_slt.png"],"mutagen_generator_assignment":[0,1],"goal":4,"start":1,"action_noise":0,"location_history":"[1,3,4]","action_history":"[0,1]","mutagen_history":"[0,1]","location_rts":"[3117,1442]","trial_type":"fractal-mutation","trial_index":73,"time_elapsed":1794048,"internal_node_id":"0.0-5.0-19.0"},{"group":"hexagon_tri","fractal_assignment":["../images/gry_blk.png","../images/blu_wht.png","../images/org_blu.png","../images/pnk_blu.png","../images/cyn_red.png","../images/ylw_slt.png"],"mutagen_generator_assignment":[0,1],"goal":0,"start":4,"action_noise":0,"location_history":"[4,0]","action_history":"[0]","mutagen_history":"[0]","location_rts":"[1492]","trial_type":"fractal-mutation","trial_index":74,"time_elapsed":1800589,"internal_node_id":"0.0-5.0-20.0"},{"group":"hexagon_tri","fractal_assignment":["../images/gry_blk.png","../images/blu_wht.png","../images/org_blu.png","../images/pnk_blu.png","../images/cyn_red.png","../images/ylw_slt.png"],"mutagen_generator_assignment":[0,1],"goal":3,"start":0,"action_noise":0,"location_history":"[0,1,3]","action_history":"[1,0]","mutagen_history":"[1,0]","location_rts":"[3944,1958]","trial_type":"fractal-mutation","trial_index":75,"time_elapsed":1812613,"internal_node_id":"0.0-5.0-21.0"},{"group":"hexagon_tri","fractal_assignment":["../images/gry_blk.png","../images/blu_wht.png","../images/org_blu.png","../images/pnk_blu.png","../images/cyn_red.png","../images/ylw_slt.png"],"mutagen_generator_assignment":[0,1],"goal":1,"start":3,"action_noise":0,"location_history":"[3,2,1]","action_history":"[0,0]","mutagen_history":"[0,0]","location_rts":"[3639,5468]","trial_type":"fractal-mutation","trial_index":76,"time_elapsed":1827839,"internal_node_id":"0.0-5.0-22.0"},{"group":"hexagon_tri","fractal_assignment":["../images/gry_blk.png","../images/blu_wht.png","../images/org_blu.png","../images/pnk_blu.png","../images/cyn_red.png","../images/ylw_slt.png"],"mutagen_generator_assignment":[0,1],"goal":0,"start":1,"action_noise":0,"location_history":"[1,5,0]","action_history":"[1,1]","mutagen_history":"[1,1]","location_rts":"[10515,1274]","trial_type":"fractal-mutation","trial_index":77,"time_elapsed":1845776,"internal_node_id":"0.0-5.0-23.0"},{"group":"hexagon_tri","fractal_assignment":["../images/gry_blk.png","../images/blu_wht.png","../images/org_blu.png","../images/pnk_blu.png","../images/cyn_red.png","../images/ylw_slt.png"],"mutagen_generator_assignment":[0,1],"goal":2,"start":0,"action_noise":0,"location_history":"[0,1,3,2]","action_history":"[1,0,0]","mutagen_history":"[1,0,0]","location_rts":"[8751,7589,692]","trial_type":"fractal-mutation","trial_index":78,"time_elapsed":1869990,"internal_node_id":"0.0-5.0-24.0"},{"group":"hexagon_tri","fractal_assignment":["../images/gry_blk.png","../images/blu_wht.png","../images/org_blu.png","../images/pnk_blu.png","../images/cyn_red.png","../images/ylw_slt.png"],"mutagen_generator_assignment":[0,1],"goal":4,"start":2,"action_noise":0,"location_history":"[2,1,3,4]","action_history":"[0,0,1]","mutagen_history":"[0,0,1]","location_rts":"[7373,4736,2818]","trial_type":"fractal-mutation","trial_index":79,"time_elapsed":1892098,"internal_node_id":"0.0-5.0-25.0"},{"group":"hexagon_tri","fractal_assignment":["../images/gry_blk.png","../images/blu_wht.png","../images/org_blu.png","../images/pnk_blu.png","../images/cyn_red.png","../images/ylw_slt.png"],"mutagen_generator_assignment":[0,1],"goal":5,"start":4,"action_noise":0,"location_history":"[4,0,5]","action_history":"[0,0]","mutagen_history":"[0,0]","location_rts":"[4350,1043]","trial_type":"fractal-mutation","trial_index":80,"time_elapsed":1903626,"internal_node_id":"0.0-5.0-26.0"},{"group":"hexagon_tri","fractal_assignment":["../images/gry_blk.png","../images/blu_wht.png","../images/org_blu.png","../images/pnk_blu.png","../images/cyn_red.png","../images/ylw_slt.png"],"mutagen_generator_assignment":[0,1],"goal":2,"start":5,"action_noise":0,"location_history":"[5,4,2]","action_history":"[0,1]","mutagen_history":"[0,1]","location_rts":"[8958,2437]","trial_type":"fractal-mutation","trial_index":81,"time_elapsed":1921152,"internal_node_id":"0.0-5.0-27.0"},{"group":"hexagon_tri","fractal_assignment":["../images/gry_blk.png","../images/blu_wht.png","../images/org_blu.png","../images/pnk_blu.png","../images/cyn_red.png","../images/ylw_slt.png"],"mutagen_generator_assignment":[0,1],"goal":3,"start":2,"action_noise":0,"location_history":"[2,3]","action_history":"[1]","mutagen_history":"[1]","location_rts":"[3738]","trial_type":"fractal-mutation","trial_index":82,"time_elapsed":1929971,"internal_node_id":"0.0-5.0-28.0"},{"group":"hexagon_tri","fractal_assignment":["../images/gry_blk.png","../images/blu_wht.png","../images/org_blu.png","../images/pnk_blu.png","../images/cyn_red.png","../images/ylw_slt.png"],"mutagen_generator_assignment":[0,1],"goal":1,"start":3,"action_noise":0,"location_history":"[3,2,1]","action_history":"[0,0]","mutagen_history":"[0,0]","location_rts":"[4025,8705]","trial_type":"fractal-mutation","trial_index":83,"time_elapsed":1948834,"internal_node_id":"0.0-5.0-29.0"},{"group":"hexagon_tri","fractal_assignment":["../images/gry_blk.png","../images/blu_wht.png","../images/org_blu.png","../images/pnk_blu.png","../images/cyn_red.png","../images/ylw_slt.png"],"mutagen_generator_assignment":[0,1],"goal":4,"start":1,"action_noise":0,"location_history":"[1,5,0,1,3,4]","action_history":"[1,1,1,0,1]","mutagen_history":"[1,1,1,0,1]","location_rts":"[4693,852,8739,4254,1734]","trial_type":"fractal-mutation","trial_index":84,"time_elapsed":1978442,"internal_node_id":"0.0-5.0-30.0"},{"group":"hexagon_tri","fractal_assignment":["../images/gry_blk.png","../images/blu_wht.png","../images/org_blu.png","../images/pnk_blu.png","../images/cyn_red.png","../images/ylw_slt.png"],"mutagen_generator_assignment":[0,1],"goal":5,"start":4,"action_noise":0,"location_history":"[4,0,5]","action_history":"[0,0]","mutagen_history":"[0,0]","location_rts":"[6313,1891]","trial_type":"fractal-mutation","trial_index":85,"time_elapsed":1992754,"internal_node_id":"0.0-5.0-31.0"},{"group":"hexagon_tri","fractal_assignment":["../images/gry_blk.png","../images/blu_wht.png","../images/org_blu.png","../images/pnk_blu.png","../images/cyn_red.png","../images/ylw_slt.png"],"mutagen_generator_assignment":[0,1],"goal":0,"start":5,"action_noise":0,"location_history":"[5,0]","action_history":"[1]","mutagen_history":"[1]","location_rts":"[2828]","trial_type":"fractal-mutation","trial_index":86,"time_elapsed":2000666,"internal_node_id":"0.0-5.0-32.0"},{"group":"hexagon_tri","fractal_assignment":["../images/gry_blk.png","../images/blu_wht.png","../images/org_blu.png","../images/pnk_blu.png","../images/cyn_red.png","../images/ylw_slt.png"],"mutagen_generator_assignment":[0,1],"goal":2,"start":0,"action_noise":0,"location_history":"[0,5,0,1,3,2]","action_history":"[0,1,1,0,0]","mutagen_history":"[0,1,1,0,0]","location_rts":"[26388,752,7160,3587,1284]","trial_type":"fractal-mutation","trial_index":87,"time_elapsed":2049170,"internal_node_id":"0.0-5.0-33.0"},{"group":"hexagon_tri","fractal_assignment":["../images/gry_blk.png","../images/blu_wht.png","../images/org_blu.png","../images/pnk_blu.png","../images/cyn_red.png","../images/ylw_slt.png"],"mutagen_generator_assignment":[0,1],"goal":0,"start":2,"action_noise":0,"location_history":"[2,3,4,0]","action_history":"[1,1,0]","mutagen_history":"[1,1,0]","location_rts":"[15738,577,2669]","trial_type":"fractal-mutation","trial_index":88,"time_elapsed":2075395,"internal_node_id":"0.0-5.0-34.0"},{"group":"hexagon_tri","fractal_assignment":["../images/gry_blk.png","../images/blu_wht.png","../images/org_blu.png","../images/pnk_blu.png","../images/cyn_red.png","../images/ylw_slt.png"],"mutagen_generator_assignment":[0,1],"goal":5,"start":0,"action_noise":0,"location_history":"[0,5]","action_history":"[0]","mutagen_history":"[0]","location_rts":"[4729]","trial_type":"fractal-mutation","trial_index":89,"time_elapsed":2085184,"internal_node_id":"0.0-5.0-35.0"},{"group":"hexagon_tri","fractal_assignment":["../images/gry_blk.png","../images/blu_wht.png","../images/org_blu.png","../images/pnk_blu.png","../images/cyn_red.png","../images/ylw_slt.png"],"mutagen_generator_assignment":[0,1],"goal":1,"start":5,"action_noise":0,"location_history":"[5,4,2,1]","action_history":"[0,1,0]","mutagen_history":"[0,1,0]","location_rts":"[10384,3128,503]","trial_type":"fractal-mutation","trial_index":90,"time_elapsed":2106388,"internal_node_id":"0.0-5.0-36.0"},{"group":"hexagon_tri","fractal_assignment":["../images/gry_blk.png","../images/blu_wht.png","../images/org_blu.png","../images/pnk_blu.png","../images/cyn_red.png","../images/ylw_slt.png"],"mutagen_generator_assignment":[0,1],"goal":4,"start":1,"action_noise":0,"location_history":"[1,3,4]","action_history":"[0,1]","mutagen_history":"[0,1]","location_rts":"[7666,588]","trial_type":"fractal-mutation","trial_index":91,"time_elapsed":2120812,"internal_node_id":"0.0-5.0-37.0"},{"group":"hexagon_tri","fractal_assignment":["../images/gry_blk.png","../images/blu_wht.png","../images/org_blu.png","../images/pnk_blu.png","../images/cyn_red.png","../images/ylw_slt.png"],"mutagen_generator_assignment":[0,1],"goal":3,"start":4,"action_noise":0,"location_history":"[4,2,3]","action_history":"[1,1]","mutagen_history":"[1,1]","location_rts":"[3847,1704]","trial_type":"fractal-mutation","trial_index":92,"time_elapsed":2132538,"internal_node_id":"0.0-5.0-38.0"},{"group":"hexagon_tri","fractal_assignment":["../images/gry_blk.png","../images/blu_wht.png","../images/org_blu.png","../images/pnk_blu.png","../images/cyn_red.png","../images/ylw_slt.png"],"mutagen_generator_assignment":[0,1],"goal":5,"start":3,"action_noise":0,"location_history":"[3,4,0,5]","action_history":"[1,0,0]","mutagen_history":"[1,0,0]","location_rts":"[10535,630,298]","trial_type":"fractal-mutation","trial_index":93,"time_elapsed":2151210,"internal_node_id":"0.0-5.0-39.0"},{"group":"hexagon_tri","fractal_assignment":["../images/gry_blk.png","../images/blu_wht.png","../images/org_blu.png","../images/pnk_blu.png","../images/cyn_red.png","../images/ylw_slt.png"],"mutagen_generator_assignment":[0,1],"goal":1,"start":5,"action_noise":0,"location_history":"[5,4,2,1]","action_history":"[0,1,0]","mutagen_history":"[0,1,0]","location_rts":"[18380,397,7217]","trial_type":"fractal-mutation","trial_index":94,"time_elapsed":2184394,"internal_node_id":"0.0-5.0-40.0"},{"group":"hexagon_tri","fractal_assignment":["../images/gry_blk.png","../images/blu_wht.png","../images/org_blu.png","../images/pnk_blu.png","../images/cyn_red.png","../images/ylw_slt.png"],"mutagen_generator_assignment":[0,1],"goal":2,"start":1,"action_noise":0,"location_history":"[1,3,2]","action_history":"[0,0]","mutagen_history":"[0,0]","location_rts":"[9855,3683]","trial_type":"fractal-mutation","trial_index":95,"time_elapsed":2204032,"internal_node_id":"0.0-5.0-41.0"},{"group":"hexagon_tri","fractal_assignment":["../images/gry_blk.png","../images/blu_wht.png","../images/org_blu.png","../images/pnk_blu.png","../images/cyn_red.png","../images/ylw_slt.png"],"mutagen_generator_assignment":[0,1],"goal":4,"start":2,"action_noise":0,"location_history":"[2,3,4]","action_history":"[1,1]","mutagen_history":"[1,1]","location_rts":"[10532,354]","trial_type":"fractal-mutation","trial_index":96,"time_elapsed":2221065,"internal_node_id":"0.0-5.0-42.0"},{"group":"hexagon_tri","fractal_assignment":["../images/gry_blk.png","../images/blu_wht.png","../images/org_blu.png","../images/pnk_blu.png","../images/cyn_red.png","../images/ylw_slt.png"],"mutagen_generator_assignment":[0,1],"goal":0,"start":4,"action_noise":0,"location_history":"[4,0]","action_history":"[0]","mutagen_history":"[0]","location_rts":"[2729]","trial_type":"fractal-mutation","trial_index":97,"time_elapsed":2228851,"internal_node_id":"0.0-5.0-43.0"},{"group":"hexagon_tri","fractal_assignment":["../images/gry_blk.png","../images/blu_wht.png","../images/org_blu.png","../images/pnk_blu.png","../images/cyn_red.png","../images/ylw_slt.png"],"mutagen_generator_assignment":[0,1],"goal":3,"start":0,"action_noise":0,"location_history":"[0,1,3]","action_history":"[1,0]","mutagen_history":"[1,0]","location_rts":"[8838,1093]","trial_type":"fractal-mutation","trial_index":98,"time_elapsed":2244900,"internal_node_id":"0.0-5.0-44.0"},{"group":"hexagon_tri","fractal_assignment":["../images/gry_blk.png","../images/blu_wht.png","../images/org_blu.png","../images/pnk_blu.png","../images/cyn_red.png","../images/ylw_slt.png"],"mutagen_generator_assignment":[0,1],"goal":0,"start":3,"action_noise":0,"location_history":"[3,4,0]","action_history":"[1,0]","mutagen_history":"[1,0]","location_rts":"[9033,561]","trial_type":"fractal-mutation","trial_index":99,"time_elapsed":2260656,"internal_node_id":"0.0-5.0-45.0"},{"group":"hexagon_tri","fractal_assignment":["../images/gry_blk.png","../images/blu_wht.png","../images/org_blu.png","../images/pnk_blu.png","../images/cyn_red.png","../images/ylw_slt.png"],"mutagen_generator_assignment":[0,1],"goal":4,"start":0,"action_noise":0,"location_history":"[0,5,4]","action_history":"[0,0]","mutagen_history":"[0,0]","location_rts":"[13247,241]","trial_type":"fractal-mutation","trial_index":100,"time_elapsed":2280244,"internal_node_id":"0.0-5.0-46.0"},{"group":"hexagon_tri","fractal_assignment":["../images/gry_blk.png","../images/blu_wht.png","../images/org_blu.png","../images/pnk_blu.png","../images/cyn_red.png","../images/ylw_slt.png"],"mutagen_generator_assignment":[0,1],"goal":5,"start":4,"action_noise":0,"location_history":"[4,0,5]","action_history":"[0,0]","mutagen_history":"[0,0]","location_rts":"[19925,464]","trial_type":"fractal-mutation","trial_index":101,"time_elapsed":2306754,"internal_node_id":"0.0-5.0-47.0"},{"group":"hexagon_tri","fractal_assignment":["../images/gry_blk.png","../images/blu_wht.png","../images/org_blu.png","../images/pnk_blu.png","../images/cyn_red.png","../images/ylw_slt.png"],"mutagen_generator_assignment":[0,1],"goal":2,"start":5,"action_noise":0,"location_history":"[5,4,2]","action_history":"[0,1]","mutagen_history":"[0,1]","location_rts":"[45773,7819]","trial_type":"fractal-mutation","trial_index":102,"time_elapsed":2366474,"internal_node_id":"0.0-5.0-48.0"},{"group":"hexagon_tri","fractal_assignment":["../images/gry_blk.png","../images/blu_wht.png","../images/org_blu.png","../images/pnk_blu.png","../images/cyn_red.png","../images/ylw_slt.png"],"mutagen_generator_assignment":[0,1],"goal":1,"start":2,"action_noise":0,"location_history":"[2,1]","action_history":"[0]","mutagen_history":"[0]","location_rts":"[25658]","trial_type":"fractal-mutation","trial_index":103,"time_elapsed":2397202,"internal_node_id":"0.0-5.0-49.0"},{"view_history":"[{\"page_index\":0,\"viewing_time\":2557}]","rt":2557,"trial_type":"instructions","trial_index":104,"time_elapsed":2400760,"internal_node_id":"0.0-6.0"},{"rt":26735,"responses":"{\"Q0\":\"I think this was trying to test memory, and how we adjust our learning.\"}","trial_type":"survey-text","trial_index":105,"time_elapsed":2428513,"internal_node_id":"0.0-7.0-0.0"},{"rt":46953,"responses":"{\"Q0\":\"Also I think this tested memory and how we group items in our memory.\"}","trial_type":"survey-text","trial_index":106,"time_elapsed":2476472,"internal_node_id":"0.0-7.0-1.0"},{"rt":64681,"responses":"{\"Q0\":\"<img src='../images/diagrams/hexagon_bi.png'>\"}","trial_type":"survey-multi-choice","trial_index":107,"time_elapsed":2542173,"internal_node_id":"0.0-7.0-2.0"},{"rt":106102,"assignments":["../images/gry_blk.png","../images/blu_wht.png","../images/org_blu.png","../images/pnk_blu.png","../images/cyn_red.png","../images/ylw_slt.png"],"trial_type":"drag-drop-on-image","trial_index":108,"time_elapsed":2649290,"internal_node_id":"0.0-7.0-3.0"},{"rt":7132,"responses":"{\"Q0\":\"4\"}","trial_type":"survey-likert","trial_index":109,"time_elapsed":2657432,"internal_node_id":"0.0-7.0-4.0"},{"rt":39422,"responses":"{\"Q0\":\"They seem to follow a pattern where one thing always followed another in relation to the choices.\"}","trial_type":"survey-text","trial_index":110,"time_elapsed":2697863,"internal_node_id":"0.0-7.0-5.0"},{"rt":6723,"responses":"{\"Q0\":\"Yes\"}","trial_type":"survey-multi-choice","trial_index":111,"time_elapsed":2705599,"internal_node_id":"0.0-7.0-6.0"},{"rt":11382,"responses":"{\"Q0\":\"During session 1\"}","trial_type":"survey-multi-choice","trial_index":112,"time_elapsed":2718011,"internal_node_id":"0.0-7.0-7.0"},{"rt":96140,"responses":"{\"Q0\":\"They corresponded in the sense that they were very much alike, they matched. The two experiments were almost exactly the same, just the way they were presented was a little different.\"}","trial_type":"survey-text","trial_index":113,"time_elapsed":2815158,"internal_node_id":"0.0-7.0-8.0"},{"rt":5562,"responses":"{\"Q0\":\"2\"}","trial_type":"survey-likert","trial_index":114,"time_elapsed":2821729,"internal_node_id":"0.0-7.0-9.0"},{"rt":13146,"responses":"{\"Q0\":\"Same structure\"}","trial_type":"survey-multi-choice","trial_index":115,"time_elapsed":2835885,"internal_node_id":"0.0-7.0-10.0"},{"rt":185862,"assignments":["../images/cyn_red.png","../images/org_blu.png","../images/blu_wht.png","../images/pnk_blu.png","../images/gry_blk.png","../images/ylw_slt.png"],"background_order":[5,3,4,1,0,2],"trial_type":"drag-drop-on-image","trial_index":116,"time_elapsed":3022755,"internal_node_id":"0.0-7.0-11.0"},{"rt":25487,"responses":"{\"Q0\":\"left (white) door = ray, right (black) door = acid\",\"Q1\":\"Slightly confident\"}","trial_type":"survey-multi-choice","trial_index":117,"time_elapsed":3049270,"internal_node_id":"0.0-7.0-12.0"},{"rt":8721,"responses":"{\"Q0\":\"35-45\",\"Q1\":\"Associates or other two-year degree\",\"Q2\":\"Female\",\"Q3\":\"Hispanic\"}","trial_type":"survey-multi-choice","trial_index":118,"time_elapsed":3059046,"internal_node_id":"0.0-8.0"},{"rt":137905,"responses":"{\"Q0\":\"Thanks! It was challenging and fun, but the last question about which corresponded to acid or gamma was a little confusing for me. \\nThe games had the same structure: two choices and one result for each choice. That is what I meant when I said the 2 experiments were the same, I did not really mean they were exactly the same task, just the same structure.\\n\"}","trial_type":"survey-text","trial_index":119,"time_elapsed":3197957,"internal_node_id":"0.0-9.0"}]