[{"view_history":"[{\"page_index\":0,\"viewing_time\":19920},{\"page_index\":1,\"viewing_time\":2519}]","rt":22439,"trial_type":"instructions","trial_index":0,"time_elapsed":22442,"internal_node_id":"0.0-0.0"},{"view_history":"[{\"page_index\":0,\"viewing_time\":1261},{\"page_index\":1,\"viewing_time\":3248}]","rt":4510,"trial_type":"instructions","trial_index":1,"time_elapsed":27953,"internal_node_id":"0.0-1.0"},{"group":"hexagon_tri","room_assignment":["grey","red","green","blue","yellow","purple"],"door_color_assignment":["white","black"],"door_generator_assignment":[0,1],"goal":2,"start":1,"action_noise":0,"location_history":"[1,5,0,1,3,2]","action_history":"[1,1,1,0,0]","door_history":"[1,1,1,0,0]","location_rts":"[8086,4156,5232,6127,5994]","trial_type":"two-door-navigation","trial_index":2,"time_elapsed":66650,"internal_node_id":"0.0-2.0-0.0"},{"group":"hexagon_tri","room_assignment":["grey","red","green","blue","yellow","purple"],"door_color_assignment":["white","black"],"door_generator_assignment":[0,1],"goal":0,"start":2,"action_noise":0,"location_history":"[2,1,5,0]","action_history":"[0,1,1]","door_history":"[0,1,1]","location_rts":"[3565,5198,2607]","trial_type":"two-door-navigation","trial_index":3,"time_elapsed":85080,"internal_node_id":"0.0-2.0-1.0"},{"group":"hexagon_tri","room_assignment":["grey","red","green","blue","yellow","purple"],"door_color_assignment":["white","black"],"door_generator_assignment":[0,1],"goal":5,"start":0,"action_noise":0,"location_history":"[0,1,5]","action_history":"[1,1]","door_history":"[1,1]","location_rts":"[3309,421]","trial_type":"two-door-navigation","trial_index":4,"time_elapsed":94855,"internal_node_id":"0.0-2.0-2.0"},{"group":"hexagon_tri","room_assignment":["grey","red","green","blue","yellow","purple"],"door_color_assignment":["white","black"],"door_generator_assignment":[0,1],"goal":1,"start":5,"action_noise":0,"location_history":"[5,0,1]","action_history":"[1,1]","door_history":"[1,1]","location_rts":"[2519,4260]","trial_type":"two-door-navigation","trial_index":5,"time_elapsed":107677,"internal_node_id":"0.0-2.0-3.0"},{"group":"hexagon_tri","room_assignment":["grey","red","green","blue","yellow","purple"],"door_color_assignment":["white","black"],"door_generator_assignment":[0,1],"goal":3,"start":1,"action_noise":0,"location_history":"[1,3]","action_history":"[0]","door_history":"[0]","location_rts":"[2483]","trial_type":"two-door-navigation","trial_index":6,"time_elapsed":115179,"internal_node_id":"0.0-2.0-4.0"},{"group":"hexagon_tri","room_assignment":["grey","red","green","blue","yellow","purple"],"door_color_assignment":["white","black"],"door_generator_assignment":[0,1],"goal":5,"start":3,"action_noise":0,"location_history":"[3,4,2,1,5]","action_history":"[1,1,0,1]","door_history":"[1,1,0,1]","location_rts":"[3755,9400,7126,456]","trial_type":"two-door-navigation","trial_index":7,"time_elapsed":143988,"internal_node_id":"0.0-2.0-5.0"},{"group":"hexagon_tri","room_assignment":["grey","red","green","blue","yellow","purple"],"door_color_assignment":["white","black"],"door_generator_assignment":[0,1],"goal":4,"start":5,"action_noise":0,"location_history":"[5,0,1,3,4]","action_history":"[1,1,0,1]","door_history":"[1,1,0,1]","location_rts":"[6402,276,1808,544]","trial_type":"two-door-navigation","trial_index":8,"time_elapsed":161092,"internal_node_id":"0.0-2.0-6.0"},{"group":"hexagon_tri","room_assignment":["grey","red","green","blue","yellow","purple"],"door_color_assignment":["white","black"],"door_generator_assignment":[0,1],"goal":0,"start":4,"action_noise":0,"location_history":"[4,0]","action_history":"[0]","door_history":"[0]","location_rts":"[3498]","trial_type":"two-door-navigation","trial_index":9,"time_elapsed":169613,"internal_node_id":"0.0-2.0-7.0"},{"group":"hexagon_tri","room_assignment":["grey","red","green","blue","yellow","purple"],"door_color_assignment":["white","black"],"door_generator_assignment":[0,1],"goal":2,"start":0,"action_noise":0,"location_history":"[0,5,4,2]","action_history":"[0,0,1]","door_history":"[0,0,1]","location_rts":"[7834,9992,9209]","trial_type":"two-door-navigation","trial_index":10,"time_elapsed":203701,"internal_node_id":"0.0-2.0-8.0"},{"group":"hexagon_tri","room_assignment":["grey","red","green","blue","yellow","purple"],"door_color_assignment":["white","black"],"door_generator_assignment":[0,1],"goal":4,"start":2,"action_noise":0,"location_history":"[2,3,4]","action_history":"[1,1]","door_history":"[1,1]","location_rts":"[6202,8026]","trial_type":"two-door-navigation","trial_index":11,"time_elapsed":223972,"internal_node_id":"0.0-2.0-9.0"},{"group":"hexagon_tri","room_assignment":["grey","red","green","blue","yellow","purple"],"door_color_assignment":["white","black"],"door_generator_assignment":[0,1],"goal":2,"start":4,"action_noise":0,"location_history":"[4,2]","action_history":"[1]","door_history":"[1]","location_rts":"[4531]","trial_type":"two-door-navigation","trial_index":12,"time_elapsed":233527,"internal_node_id":"0.0-2.0-10.0"},{"group":"hexagon_tri","room_assignment":["grey","red","green","blue","yellow","purple"],"door_color_assignment":["white","black"],"door_generator_assignment":[0,1],"goal":3,"start":2,"action_noise":0,"location_history":"[2,3]","action_history":"[1]","door_history":"[1]","location_rts":"[5582]","trial_type":"two-door-navigation","trial_index":13,"time_elapsed":244129,"internal_node_id":"0.0-2.0-11.0"},{"group":"hexagon_tri","room_assignment":["grey","red","green","blue","yellow","purple"],"door_color_assignment":["white","black"],"door_generator_assignment":[0,1],"goal":0,"start":3,"action_noise":0,"location_history":"[3,4,0]","action_history":"[1,0]","door_history":"[1,0]","location_rts":"[15252,302]","trial_type":"two-door-navigation","trial_index":14,"time_elapsed":265725,"internal_node_id":"0.0-2.0-12.0"},{"group":"hexagon_tri","room_assignment":["grey","red","green","blue","yellow","purple"],"door_color_assignment":["white","black"],"door_generator_assignment":[0,1],"goal":5,"start":0,"action_noise":0,"location_history":"[0,5]","action_history":"[0]","door_history":"[0]","location_rts":"[3577]","trial_type":"two-door-navigation","trial_index":15,"time_elapsed":274322,"internal_node_id":"0.0-2.0-13.0"},{"group":"hexagon_tri","room_assignment":["grey","red","green","blue","yellow","purple"],"door_color_assignment":["white","black"],"door_generator_assignment":[0,1],"goal":1,"start":5,"action_noise":0,"location_history":"[5,0,1]","action_history":"[1,1]","door_history":"[1,1]","location_rts":"[5083,285]","trial_type":"two-door-navigation","trial_index":16,"time_elapsed":285731,"internal_node_id":"0.0-2.0-14.0"},{"group":"hexagon_tri","room_assignment":["grey","red","green","blue","yellow","purple"],"door_color_assignment":["white","black"],"door_generator_assignment":[0,1],"goal":5,"start":1,"action_noise":0,"location_history":"[1,5]","action_history":"[1]","door_history":"[1]","location_rts":"[4179]","trial_type":"two-door-navigation","trial_index":17,"time_elapsed":294928,"internal_node_id":"0.0-2.0-15.0"},{"group":"hexagon_tri","room_assignment":["grey","red","green","blue","yellow","purple"],"door_color_assignment":["white","black"],"door_generator_assignment":[0,1],"goal":3,"start":5,"action_noise":0,"location_history":"[5,4,2,3]","action_history":"[0,1,1]","door_history":"[0,1,1]","location_rts":"[6781,264,247]","trial_type":"two-door-navigation","trial_index":18,"time_elapsed":309277,"internal_node_id":"0.0-2.0-16.0"},{"group":"hexagon_tri","room_assignment":["grey","red","green","blue","yellow","purple"],"door_color_assignment":["white","black"],"door_generator_assignment":[0,1],"goal":2,"start":3,"action_noise":0,"location_history":"[3,2]","action_history":"[0]","door_history":"[0]","location_rts":"[2791]","trial_type":"two-door-navigation","trial_index":19,"time_elapsed":317092,"internal_node_id":"0.0-2.0-17.0"},{"group":"hexagon_tri","room_assignment":["grey","red","green","blue","yellow","purple"],"door_color_assignment":["white","black"],"door_generator_assignment":[0,1],"goal":1,"start":2,"action_noise":0,"location_history":"[2,1]","action_history":"[0]","door_history":"[0]","location_rts":"[7642]","trial_type":"two-door-navigation","trial_index":20,"time_elapsed":329757,"internal_node_id":"0.0-2.0-18.0"},{"group":"hexagon_tri","room_assignment":["grey","red","green","blue","yellow","purple"],"door_color_assignment":["white","black"],"door_generator_assignment":[0,1],"goal":4,"start":1,"action_noise":0,"location_history":"[1,5,4]","action_history":"[1,0]","door_history":"[1,0]","location_rts":"[3753,395]","trial_type":"two-door-navigation","trial_index":21,"time_elapsed":339938,"internal_node_id":"0.0-2.0-19.0"},{"group":"hexagon_tri","room_assignment":["grey","red","green","blue","yellow","purple"],"door_color_assignment":["white","black"],"door_generator_assignment":[0,1],"goal":0,"start":4,"action_noise":0,"location_history":"[4,0]","action_history":"[0]","door_history":"[0]","location_rts":"[11940]","trial_type":"two-door-navigation","trial_index":22,"time_elapsed":356900,"internal_node_id":"0.0-2.0-20.0"},{"group":"hexagon_tri","room_assignment":["grey","red","green","blue","yellow","purple"],"door_color_assignment":["white","black"],"door_generator_assignment":[0,1],"goal":3,"start":0,"action_noise":0,"location_history":"[0,1,3]","action_history":"[1,0]","door_history":"[1,0]","location_rts":"[18649,357]","trial_type":"two-door-navigation","trial_index":23,"time_elapsed":381946,"internal_node_id":"0.0-2.0-21.0"},{"group":"hexagon_tri","room_assignment":["grey","red","green","blue","yellow","purple"],"door_color_assignment":["white","black"],"door_generator_assignment":[0,1],"goal":1,"start":3,"action_noise":0,"location_history":"[3,2,1]","action_history":"[0,0]","door_history":"[0,0]","location_rts":"[5236,265]","trial_type":"two-door-navigation","trial_index":24,"time_elapsed":393481,"internal_node_id":"0.0-2.0-22.0"},{"group":"hexagon_tri","room_assignment":["grey","red","green","blue","yellow","purple"],"door_color_assignment":["white","black"],"door_generator_assignment":[0,1],"goal":0,"start":1,"action_noise":0,"location_history":"[1,5,0]","action_history":"[1,1]","door_history":"[1,1]","location_rts":"[4884,668]","trial_type":"two-door-navigation","trial_index":25,"time_elapsed":405071,"internal_node_id":"0.0-2.0-23.0"},{"group":"hexagon_tri","room_assignment":["grey","red","green","blue","yellow","purple"],"door_color_assignment":["white","black"],"door_generator_assignment":[0,1],"goal":2,"start":0,"action_noise":0,"location_history":"[0,5,4,0,1,3,2]","action_history":"[0,0,0,1,0,0]","door_history":"[0,0,0,1,0,0]","location_rts":"[7125,248,1192,456,5417,127]","trial_type":"two-door-navigation","trial_index":26,"time_elapsed":429735,"internal_node_id":"0.0-2.0-24.0"},{"group":"hexagon_tri","room_assignment":["grey","red","green","blue","yellow","purple"],"door_color_assignment":["white","black"],"door_generator_assignment":[0,1],"goal":4,"start":2,"action_noise":0,"location_history":"[2,3,4]","action_history":"[1,1]","door_history":"[1,1]","location_rts":"[3668,324]","trial_type":"two-door-navigation","trial_index":27,"time_elapsed":439771,"internal_node_id":"0.0-2.0-25.0"},{"group":"hexagon_tri","room_assignment":["grey","red","green","blue","yellow","purple"],"door_color_assignment":["white","black"],"door_generator_assignment":[0,1],"goal":5,"start":4,"action_noise":0,"location_history":"[4,0,5]","action_history":"[0,0]","door_history":"[0,0]","location_rts":"[3979,246]","trial_type":"two-door-navigation","trial_index":28,"time_elapsed":450030,"internal_node_id":"0.0-2.0-26.0"},{"group":"hexagon_tri","room_assignment":["grey","red","green","blue","yellow","purple"],"door_color_assignment":["white","black"],"door_generator_assignment":[0,1],"goal":2,"start":5,"action_noise":0,"location_history":"[5,4,2]","action_history":"[0,1]","door_history":"[0,1]","location_rts":"[14647,246]","trial_type":"two-door-navigation","trial_index":29,"time_elapsed":470962,"internal_node_id":"0.0-2.0-27.0"},{"group":"hexagon_tri","room_assignment":["grey","red","green","blue","yellow","purple"],"door_color_assignment":["white","black"],"door_generator_assignment":[0,1],"goal":3,"start":2,"action_noise":0,"location_history":"[2,3]","action_history":"[1]","door_history":"[1]","location_rts":"[5657]","trial_type":"two-door-navigation","trial_index":30,"time_elapsed":481640,"internal_node_id":"0.0-2.0-28.0"},{"group":"hexagon_tri","room_assignment":["grey","red","green","blue","yellow","purple"],"door_color_assignment":["white","black"],"door_generator_assignment":[0,1],"goal":1,"start":3,"action_noise":0,"location_history":"[3,2,1]","action_history":"[0,0]","door_history":"[0,0]","location_rts":"[9821,287]","trial_type":"two-door-navigation","trial_index":31,"time_elapsed":497782,"internal_node_id":"0.0-2.0-29.0"},{"group":"hexagon_tri","room_assignment":["grey","red","green","blue","yellow","purple"],"door_color_assignment":["white","black"],"door_generator_assignment":[0,1],"goal":4,"start":1,"action_noise":0,"location_history":"[1,3,4]","action_history":"[0,1]","door_history":"[0,1]","location_rts":"[3869,302]","trial_type":"two-door-navigation","trial_index":32,"time_elapsed":507992,"internal_node_id":"0.0-2.0-30.0"},{"group":"hexagon_tri","room_assignment":["grey","red","green","blue","yellow","purple"],"door_color_assignment":["white","black"],"door_generator_assignment":[0,1],"goal":5,"start":4,"action_noise":0,"location_history":"[4,0,5]","action_history":"[0,0]","door_history":"[0,0]","location_rts":"[4923,249]","trial_type":"two-door-navigation","trial_index":33,"time_elapsed":519200,"internal_node_id":"0.0-2.0-31.0"},{"group":"hexagon_tri","room_assignment":["grey","red","green","blue","yellow","purple"],"door_color_assignment":["white","black"],"door_generator_assignment":[0,1],"goal":0,"start":5,"action_noise":0,"location_history":"[5,4,0]","action_history":"[0,0]","door_history":"[0,0]","location_rts":"[4788,7141]","trial_type":"two-door-navigation","trial_index":34,"time_elapsed":537171,"internal_node_id":"0.0-2.0-32.0"},{"group":"hexagon_tri","room_assignment":["grey","red","green","blue","yellow","purple"],"door_color_assignment":["white","black"],"door_generator_assignment":[0,1],"goal":2,"start":0,"action_noise":0,"location_history":"[0,5,4,2]","action_history":"[0,0,1]","door_history":"[0,0,1]","location_rts":"[7361,1077,423]","trial_type":"two-door-navigation","trial_index":35,"time_elapsed":553084,"internal_node_id":"0.0-2.0-33.0"},{"group":"hexagon_tri","room_assignment":["grey","red","green","blue","yellow","purple"],"door_color_assignment":["white","black"],"door_generator_assignment":[0,1],"goal":0,"start":2,"action_noise":0,"location_history":"[2,1,5,0]","action_history":"[0,1,1]","door_history":"[0,1,1]","location_rts":"[12062,289,350]","trial_type":"two-door-navigation","trial_index":36,"time_elapsed":572842,"internal_node_id":"0.0-2.0-34.0"},{"group":"hexagon_tri","room_assignment":["grey","red","green","blue","yellow","purple"],"door_color_assignment":["white","black"],"door_generator_assignment":[0,1],"goal":5,"start":0,"action_noise":0,"location_history":"[0,5]","action_history":"[0]","door_history":"[0]","location_rts":"[3227]","trial_type":"two-door-navigation","trial_index":37,"time_elapsed":581091,"internal_node_id":"0.0-2.0-35.0"},{"group":"hexagon_tri","room_assignment":["grey","red","green","blue","yellow","purple"],"door_color_assignment":["white","black"],"door_generator_assignment":[0,1],"goal":1,"start":5,"action_noise":0,"location_history":"[5,0,1]","action_history":"[1,1]","door_history":"[1,1]","location_rts":"[10137,276]","trial_type":"two-door-navigation","trial_index":38,"time_elapsed":597546,"internal_node_id":"0.0-2.0-36.0"},{"group":"hexagon_tri","room_assignment":["grey","red","green","blue","yellow","purple"],"door_color_assignment":["white","black"],"door_generator_assignment":[0,1],"goal":4,"start":1,"action_noise":0,"location_history":"[1,3,4]","action_history":"[0,1]","door_history":"[0,1]","location_rts":"[14058,324]","trial_type":"two-door-navigation","trial_index":39,"time_elapsed":617967,"internal_node_id":"0.0-2.0-37.0"},{"group":"hexagon_tri","room_assignment":["grey","red","green","blue","yellow","purple"],"door_color_assignment":["white","black"],"door_generator_assignment":[0,1],"goal":3,"start":4,"action_noise":0,"location_history":"[4,2,3]","action_history":"[1,1]","door_history":"[1,1]","location_rts":"[5492,4278]","trial_type":"two-door-navigation","trial_index":40,"time_elapsed":633777,"internal_node_id":"0.0-2.0-38.0"},{"group":"hexagon_tri","room_assignment":["grey","red","green","blue","yellow","purple"],"door_color_assignment":["white","black"],"door_generator_assignment":[0,1],"goal":5,"start":3,"action_noise":0,"location_history":"[3,4,0,5]","action_history":"[1,0,0]","door_history":"[1,0,0]","location_rts":"[11379,303,286]","trial_type":"two-door-navigation","trial_index":41,"time_elapsed":652799,"internal_node_id":"0.0-2.0-39.0"},{"group":"hexagon_tri","room_assignment":["grey","red","green","blue","yellow","purple"],"door_color_assignment":["white","black"],"door_generator_assignment":[0,1],"goal":1,"start":5,"action_noise":0,"location_history":"[5,0,1]","action_history":"[1,1]","door_history":"[1,1]","location_rts":"[3789,199]","trial_type":"two-door-navigation","trial_index":42,"time_elapsed":662824,"internal_node_id":"0.0-2.0-40.0"},{"group":"hexagon_tri","room_assignment":["grey","red","green","blue","yellow","purple"],"door_color_assignment":["white","black"],"door_generator_assignment":[0,1],"goal":2,"start":1,"action_noise":0,"location_history":"[1,3,2]","action_history":"[0,0]","door_history":"[0,0]","location_rts":"[9602,342]","trial_type":"two-door-navigation","trial_index":43,"time_elapsed":678808,"internal_node_id":"0.0-2.0-41.0"},{"group":"hexagon_tri","room_assignment":["grey","red","green","blue","yellow","purple"],"door_color_assignment":["white","black"],"door_generator_assignment":[0,1],"goal":4,"start":2,"action_noise":0,"location_history":"[2,3,4]","action_history":"[1,1]","door_history":"[1,1]","location_rts":"[4164,7128]","trial_type":"two-door-navigation","trial_index":44,"time_elapsed":696140,"internal_node_id":"0.0-2.0-42.0"},{"group":"hexagon_tri","room_assignment":["grey","red","green","blue","yellow","purple"],"door_color_assignment":["white","black"],"door_generator_assignment":[0,1],"goal":0,"start":4,"action_noise":0,"location_history":"[4,0]","action_history":"[0]","door_history":"[0]","location_rts":"[18400]","trial_type":"two-door-navigation","trial_index":45,"time_elapsed":719565,"internal_node_id":"0.0-2.0-43.0"},{"group":"hexagon_tri","room_assignment":["grey","red","green","blue","yellow","purple"],"door_color_assignment":["white","black"],"door_generator_assignment":[0,1],"goal":3,"start":0,"action_noise":0,"location_history":"[0,1,3]","action_history":"[1,0]","door_history":"[1,0]","location_rts":"[15886,630]","trial_type":"two-door-navigation","trial_index":46,"time_elapsed":742119,"internal_node_id":"0.0-2.0-44.0"},{"group":"hexagon_tri","room_assignment":["grey","red","green","blue","yellow","purple"],"door_color_assignment":["white","black"],"door_generator_assignment":[0,1],"goal":0,"start":3,"action_noise":0,"location_history":"[3,4,0]","action_history":"[1,0]","door_history":"[1,0]","location_rts":"[21850,110]","trial_type":"two-door-navigation","trial_index":47,"time_elapsed":770122,"internal_node_id":"0.0-2.0-45.0"},{"group":"hexagon_tri","room_assignment":["grey","red","green","blue","yellow","purple"],"door_color_assignment":["white","black"],"door_generator_assignment":[0,1],"goal":4,"start":0,"action_noise":0,"location_history":"[0,5,4]","action_history":"[0,0]","door_history":"[0,0]","location_rts":"[4130,5623]","trial_type":"two-door-navigation","trial_index":48,"time_elapsed":785909,"internal_node_id":"0.0-2.0-46.0"},{"group":"hexagon_tri","room_assignment":["grey","red","green","blue","yellow","purple"],"door_color_assignment":["white","black"],"door_generator_assignment":[0,1],"goal":5,"start":4,"action_noise":0,"location_history":"[4,0,5]","action_history":"[0,0]","door_history":"[0,0]","location_rts":"[8974,6066]","trial_type":"two-door-navigation","trial_index":49,"time_elapsed":806987,"internal_node_id":"0.0-2.0-47.0"},{"group":"hexagon_tri","room_assignment":["grey","red","green","blue","yellow","purple"],"door_color_assignment":["white","black"],"door_generator_assignment":[0,1],"goal":2,"start":5,"action_noise":0,"location_history":"[5,4,2]","action_history":"[0,1]","door_history":"[0,1]","location_rts":"[8070,376]","trial_type":"two-door-navigation","trial_index":50,"time_elapsed":821472,"internal_node_id":"0.0-2.0-48.0"},{"group":"hexagon_tri","room_assignment":["grey","red","green","blue","yellow","purple"],"door_color_assignment":["white","black"],"door_generator_assignment":[0,1],"goal":1,"start":2,"action_noise":0,"location_history":"[2,1]","action_history":"[0]","door_history":"[0]","location_rts":"[9643]","trial_type":"two-door-navigation","trial_index":51,"time_elapsed":836134,"internal_node_id":"0.0-2.0-49.0"},{"view_history":"[{\"page_index\":0,\"viewing_time\":5516}]","rt":5516,"trial_type":"instructions","trial_index":52,"time_elapsed":842652,"internal_node_id":"0.0-3.0"},{"view_history":"[{\"page_index\":0,\"viewing_time\":56166},{\"page_index\":1,\"viewing_time\":3240}]","rt":59406,"trial_type":"instructions","trial_index":53,"time_elapsed":903059,"internal_node_id":"0.0-4.0"},{"group":"hexagon_bi","fractal_assignment":["../images/pnk_blu.png","../images/cyn_red.png","../images/ylw_slt.png","../images/org_blu.png","../images/gry_blk.png","../images/blu_wht.png"],"mutagen_generator_assignment":[0,1],"goal":2,"start":1,"action_noise":0,"location_history":"[1,0,1,2]","action_history":"[1,1,0]","mutagen_history":"[1,1,0]","location_rts":"[7189,5998,5368]","trial_type":"fractal-mutation","trial_index":54,"time_elapsed":928726,"internal_node_id":"0.0-5.0-0.0"},{"group":"hexagon_bi","fractal_assignment":["../images/pnk_blu.png","../images/cyn_red.png","../images/ylw_slt.png","../images/org_blu.png","../images/gry_blk.png","../images/blu_wht.png"],"mutagen_generator_assignment":[0,1],"goal":0,"start":2,"action_noise":0,"location_history":"[2,1,0]","action_history":"[0,1]","mutagen_history":"[0,1]","location_rts":"[3041,6137]","trial_type":"fractal-mutation","trial_index":55,"time_elapsed":943971,"internal_node_id":"0.0-5.0-1.0"},{"group":"hexagon_bi","fractal_assignment":["../images/pnk_blu.png","../images/cyn_red.png","../images/ylw_slt.png","../images/org_blu.png","../images/gry_blk.png","../images/blu_wht.png"],"mutagen_generator_assignment":[0,1],"goal":5,"start":0,"action_noise":0,"location_history":"[0,5]","action_history":"[0]","mutagen_history":"[0]","location_rts":"[3407]","trial_type":"fractal-mutation","trial_index":56,"time_elapsed":952407,"internal_node_id":"0.0-5.0-2.0"},{"group":"hexagon_bi","fractal_assignment":["../images/pnk_blu.png","../images/cyn_red.png","../images/ylw_slt.png","../images/org_blu.png","../images/gry_blk.png","../images/blu_wht.png"],"mutagen_generator_assignment":[0,1],"goal":1,"start":5,"action_noise":0,"location_history":"[5,0,1]","action_history":"[0,1]","mutagen_history":"[0,1]","location_rts":"[4735,5915]","trial_type":"fractal-mutation","trial_index":57,"time_elapsed":969127,"internal_node_id":"0.0-5.0-3.0"},{"group":"hexagon_bi","fractal_assignment":["../images/pnk_blu.png","../images/cyn_red.png","../images/ylw_slt.png","../images/org_blu.png","../images/gry_blk.png","../images/blu_wht.png"],"mutagen_generator_assignment":[0,1],"goal":3,"start":1,"action_noise":0,"location_history":"[1,2,3]","action_history":"[0,1]","mutagen_history":"[0,1]","location_rts":"[2281,1048]","trial_type":"fractal-mutation","trial_index":58,"time_elapsed":978514,"internal_node_id":"0.0-5.0-4.0"},{"group":"hexagon_bi","fractal_assignment":["../images/pnk_blu.png","../images/cyn_red.png","../images/ylw_slt.png","../images/org_blu.png","../images/gry_blk.png","../images/blu_wht.png"],"mutagen_generator_assignment":[0,1],"goal":5,"start":3,"action_noise":0,"location_history":"[3,4,5]","action_history":"[0,1]","mutagen_history":"[0,1]","location_rts":"[2573,5443]","trial_type":"fractal-mutation","trial_index":59,"time_elapsed":992586,"internal_node_id":"0.0-5.0-5.0"},{"group":"hexagon_bi","fractal_assignment":["../images/pnk_blu.png","../images/cyn_red.png","../images/ylw_slt.png","../images/org_blu.png","../images/gry_blk.png","../images/blu_wht.png"],"mutagen_generator_assignment":[0,1],"goal":4,"start":5,"action_noise":0,"location_history":"[5,0,5,4]","action_history":"[0,0,1]","mutagen_history":"[0,0,1]","location_rts":"[3084,3431,4130]","trial_type":"fractal-mutation","trial_index":60,"time_elapsed":1010319,"internal_node_id":"0.0-5.0-6.0"},{"group":"hexagon_bi","fractal_assignment":["../images/pnk_blu.png","../images/cyn_red.png","../images/ylw_slt.png","../images/org_blu.png","../images/gry_blk.png","../images/blu_wht.png"],"mutagen_generator_assignment":[0,1],"goal":0,"start":4,"action_noise":0,"location_history":"[4,3,2,1,0]","action_history":"[0,1,0,1]","mutagen_history":"[0,1,0,1]","location_rts":"[2766,6081,5528,877]","trial_type":"fractal-mutation","trial_index":61,"time_elapsed":1033690,"internal_node_id":"0.0-5.0-7.0"},{"group":"hexagon_bi","fractal_assignment":["../images/pnk_blu.png","../images/cyn_red.png","../images/ylw_slt.png","../images/org_blu.png","../images/gry_blk.png","../images/blu_wht.png"],"mutagen_generator_assignment":[0,1],"goal":2,"start":0,"action_noise":0,"location_history":"[0,5,4,3,2]","action_history":"[0,1,0,1]","mutagen_history":"[0,1,0,1]","location_rts":"[4043,7374,6040,2511]","trial_type":"fractal-mutation","trial_index":62,"time_elapsed":1061793,"internal_node_id":"0.0-5.0-8.0"},{"group":"hexagon_bi","fractal_assignment":["../images/pnk_blu.png","../images/cyn_red.png","../images/ylw_slt.png","../images/org_blu.png","../images/gry_blk.png","../images/blu_wht.png"],"mutagen_generator_assignment":[0,1],"goal":4,"start":2,"action_noise":0,"location_history":"[2,3,4]","action_history":"[1,0]","mutagen_history":"[1,0]","location_rts":"[3252,404]","trial_type":"fractal-mutation","trial_index":63,"time_elapsed":1071511,"internal_node_id":"0.0-5.0-9.0"},{"group":"hexagon_bi","fractal_assignment":["../images/pnk_blu.png","../images/cyn_red.png","../images/ylw_slt.png","../images/org_blu.png","../images/gry_blk.png","../images/blu_wht.png"],"mutagen_generator_assignment":[0,1],"goal":2,"start":4,"action_noise":0,"location_history":"[4,3,2]","action_history":"[0,1]","mutagen_history":"[0,1]","location_rts":"[5606,411]","trial_type":"fractal-mutation","trial_index":64,"time_elapsed":1083591,"internal_node_id":"0.0-5.0-10.0"},{"group":"hexagon_bi","fractal_assignment":["../images/pnk_blu.png","../images/cyn_red.png","../images/ylw_slt.png","../images/org_blu.png","../images/gry_blk.png","../images/blu_wht.png"],"mutagen_generator_assignment":[0,1],"goal":3,"start":2,"action_noise":0,"location_history":"[2,3]","action_history":"[1]","mutagen_history":"[1]","location_rts":"[3144]","trial_type":"fractal-mutation","trial_index":65,"time_elapsed":1091769,"internal_node_id":"0.0-5.0-11.0"},{"group":"hexagon_bi","fractal_assignment":["../images/pnk_blu.png","../images/cyn_red.png","../images/ylw_slt.png","../images/org_blu.png","../images/gry_blk.png","../images/blu_wht.png"],"mutagen_generator_assignment":[0,1],"goal":0,"start":3,"action_noise":0,"location_history":"[3,2,1,0]","action_history":"[1,0,1]","mutagen_history":"[1,0,1]","location_rts":"[9484,341,343]","trial_type":"fractal-mutation","trial_index":66,"time_elapsed":1109026,"internal_node_id":"0.0-5.0-12.0"},{"group":"hexagon_bi","fractal_assignment":["../images/pnk_blu.png","../images/cyn_red.png","../images/ylw_slt.png","../images/org_blu.png","../images/gry_blk.png","../images/blu_wht.png"],"mutagen_generator_assignment":[0,1],"goal":5,"start":0,"action_noise":0,"location_history":"[0,5]","action_history":"[0]","mutagen_history":"[0]","location_rts":"[3529]","trial_type":"fractal-mutation","trial_index":67,"time_elapsed":1117587,"internal_node_id":"0.0-5.0-13.0"},{"group":"hexagon_bi","fractal_assignment":["../images/pnk_blu.png","../images/cyn_red.png","../images/ylw_slt.png","../images/org_blu.png","../images/gry_blk.png","../images/blu_wht.png"],"mutagen_generator_assignment":[0,1],"goal":1,"start":5,"action_noise":0,"location_history":"[5,0,1]","action_history":"[0,1]","mutagen_history":"[0,1]","location_rts":"[4426,788]","trial_type":"fractal-mutation","trial_index":68,"time_elapsed":1128868,"internal_node_id":"0.0-5.0-14.0"},{"group":"hexagon_bi","fractal_assignment":["../images/pnk_blu.png","../images/cyn_red.png","../images/ylw_slt.png","../images/org_blu.png","../images/gry_blk.png","../images/blu_wht.png"],"mutagen_generator_assignment":[0,1],"goal":5,"start":1,"action_noise":0,"location_history":"[1,0,5]","action_history":"[1,0]","mutagen_history":"[1,0]","location_rts":"[4066,336]","trial_type":"fractal-mutation","trial_index":69,"time_elapsed":1139327,"internal_node_id":"0.0-5.0-15.0"},{"group":"hexagon_bi","fractal_assignment":["../images/pnk_blu.png","../images/cyn_red.png","../images/ylw_slt.png","../images/org_blu.png","../images/gry_blk.png","../images/blu_wht.png"],"mutagen_generator_assignment":[0,1],"goal":3,"start":5,"action_noise":0,"location_history":"[5,0,1,2,3]","action_history":"[0,1,0,1]","mutagen_history":"[0,1,0,1]","location_rts":"[6409,1078,1644,377]","trial_type":"fractal-mutation","trial_index":70,"time_elapsed":1156944,"internal_node_id":"0.0-5.0-16.0"},{"group":"hexagon_bi","fractal_assignment":["../images/pnk_blu.png","../images/cyn_red.png","../images/ylw_slt.png","../images/org_blu.png","../images/gry_blk.png","../images/blu_wht.png"],"mutagen_generator_assignment":[0,1],"goal":2,"start":3,"action_noise":0,"location_history":"[3,2]","action_history":"[1]","mutagen_history":"[1]","location_rts":"[2228]","trial_type":"fractal-mutation","trial_index":71,"time_elapsed":1164206,"internal_node_id":"0.0-5.0-17.0"},{"group":"hexagon_bi","fractal_assignment":["../images/pnk_blu.png","../images/cyn_red.png","../images/ylw_slt.png","../images/org_blu.png","../images/gry_blk.png","../images/blu_wht.png"],"mutagen_generator_assignment":[0,1],"goal":1,"start":2,"action_noise":0,"location_history":"[2,1]","action_history":"[0]","mutagen_history":"[0]","location_rts":"[3849]","trial_type":"fractal-mutation","trial_index":72,"time_elapsed":1173084,"internal_node_id":"0.0-5.0-18.0"},{"group":"hexagon_bi","fractal_assignment":["../images/pnk_blu.png","../images/cyn_red.png","../images/ylw_slt.png","../images/org_blu.png","../images/gry_blk.png","../images/blu_wht.png"],"mutagen_generator_assignment":[0,1],"goal":4,"start":1,"action_noise":0,"location_history":"[1,2,1,2,3,4]","action_history":"[0,0,0,1,0]","mutagen_history":"[0,0,0,1,0]","location_rts":"[7393,1198,3687,437,497]","trial_type":"fractal-mutation","trial_index":73,"time_elapsed":1195437,"internal_node_id":"0.0-5.0-19.0"},{"group":"hexagon_bi","fractal_assignment":["../images/pnk_blu.png","../images/cyn_red.png","../images/ylw_slt.png","../images/org_blu.png","../images/gry_blk.png","../images/blu_wht.png"],"mutagen_generator_assignment":[0,1],"goal":0,"start":4,"action_noise":0,"location_history":"[4,5,0]","action_history":"[1,0]","mutagen_history":"[1,0]","location_rts":"[16464,435]","trial_type":"fractal-mutation","trial_index":74,"time_elapsed":1218393,"internal_node_id":"0.0-5.0-20.0"},{"group":"hexagon_bi","fractal_assignment":["../images/pnk_blu.png","../images/cyn_red.png","../images/ylw_slt.png","../images/org_blu.png","../images/gry_blk.png","../images/blu_wht.png"],"mutagen_generator_assignment":[0,1],"goal":3,"start":0,"action_noise":0,"location_history":"[0,5,4,3]","action_history":"[0,1,0]","mutagen_history":"[0,1,0]","location_rts":"[4174,8910,338]","trial_type":"fractal-mutation","trial_index":75,"time_elapsed":1238897,"internal_node_id":"0.0-5.0-21.0"},{"group":"hexagon_bi","fractal_assignment":["../images/pnk_blu.png","../images/cyn_red.png","../images/ylw_slt.png","../images/org_blu.png","../images/gry_blk.png","../images/blu_wht.png"],"mutagen_generator_assignment":[0,1],"goal":1,"start":3,"action_noise":0,"location_history":"[3,2,1]","action_history":"[1,0]","mutagen_history":"[1,0]","location_rts":"[22006,564]","trial_type":"fractal-mutation","trial_index":76,"time_elapsed":1267526,"internal_node_id":"0.0-5.0-22.0"},{"group":"hexagon_bi","fractal_assignment":["../images/pnk_blu.png","../images/cyn_red.png","../images/ylw_slt.png","../images/org_blu.png","../images/gry_blk.png","../images/blu_wht.png"],"mutagen_generator_assignment":[0,1],"goal":0,"start":1,"action_noise":0,"location_history":"[1,0]","action_history":"[1]","mutagen_history":"[1]","location_rts":"[5575]","trial_type":"fractal-mutation","trial_index":77,"time_elapsed":1278141,"internal_node_id":"0.0-5.0-23.0"},{"group":"hexagon_bi","fractal_assignment":["../images/pnk_blu.png","../images/cyn_red.png","../images/ylw_slt.png","../images/org_blu.png","../images/gry_blk.png","../images/blu_wht.png"],"mutagen_generator_assignment":[0,1],"goal":2,"start":0,"action_noise":0,"location_history":"[0,1,2]","action_history":"[1,0]","mutagen_history":"[1,0]","location_rts":"[6296,871]","trial_type":"fractal-mutation","trial_index":78,"time_elapsed":1291368,"internal_node_id":"0.0-5.0-24.0"},{"group":"hexagon_bi","fractal_assignment":["../images/pnk_blu.png","../images/cyn_red.png","../images/ylw_slt.png","../images/org_blu.png","../images/gry_blk.png","../images/blu_wht.png"],"mutagen_generator_assignment":[0,1],"goal":4,"start":2,"action_noise":0,"location_history":"[2,3,4]","action_history":"[1,0]","mutagen_history":"[1,0]","location_rts":"[10198,362]","trial_type":"fractal-mutation","trial_index":79,"time_elapsed":1307993,"internal_node_id":"0.0-5.0-25.0"},{"group":"hexagon_bi","fractal_assignment":["../images/pnk_blu.png","../images/cyn_red.png","../images/ylw_slt.png","../images/org_blu.png","../images/gry_blk.png","../images/blu_wht.png"],"mutagen_generator_assignment":[0,1],"goal":5,"start":4,"action_noise":0,"location_history":"[4,5]","action_history":"[1]","mutagen_history":"[1]","location_rts":"[3922]","trial_type":"fractal-mutation","trial_index":80,"time_elapsed":1316953,"internal_node_id":"0.0-5.0-26.0"},{"group":"hexagon_bi","fractal_assignment":["../images/pnk_blu.png","../images/cyn_red.png","../images/ylw_slt.png","../images/org_blu.png","../images/gry_blk.png","../images/blu_wht.png"],"mutagen_generator_assignment":[0,1],"goal":2,"start":5,"action_noise":0,"location_history":"[5,4,3,2]","action_history":"[1,0,1]","mutagen_history":"[1,0,1]","location_rts":"[13300,403,341]","trial_type":"fractal-mutation","trial_index":81,"time_elapsed":1338087,"internal_node_id":"0.0-5.0-27.0"},{"group":"hexagon_bi","fractal_assignment":["../images/pnk_blu.png","../images/cyn_red.png","../images/ylw_slt.png","../images/org_blu.png","../images/gry_blk.png","../images/blu_wht.png"],"mutagen_generator_assignment":[0,1],"goal":3,"start":2,"action_noise":0,"location_history":"[2,3]","action_history":"[1]","mutagen_history":"[1]","location_rts":"[3212]","trial_type":"fractal-mutation","trial_index":82,"time_elapsed":1346339,"internal_node_id":"0.0-5.0-28.0"},{"group":"hexagon_bi","fractal_assignment":["../images/pnk_blu.png","../images/cyn_red.png","../images/ylw_slt.png","../images/org_blu.png","../images/gry_blk.png","../images/blu_wht.png"],"mutagen_generator_assignment":[0,1],"goal":1,"start":3,"action_noise":0,"location_history":"[3,2,1]","action_history":"[1,0]","mutagen_history":"[1,0]","location_rts":"[17538,211]","trial_type":"fractal-mutation","trial_index":83,"time_elapsed":1370145,"internal_node_id":"0.0-5.0-29.0"},{"group":"hexagon_bi","fractal_assignment":["../images/pnk_blu.png","../images/cyn_red.png","../images/ylw_slt.png","../images/org_blu.png","../images/gry_blk.png","../images/blu_wht.png"],"mutagen_generator_assignment":[0,1],"goal":4,"start":1,"action_noise":0,"location_history":"[1,2,3,4]","action_history":"[0,1,0]","mutagen_history":"[0,1,0]","location_rts":"[21340,471,272]","trial_type":"fractal-mutation","trial_index":84,"time_elapsed":1399313,"internal_node_id":"0.0-5.0-30.0"},{"group":"hexagon_bi","fractal_assignment":["../images/pnk_blu.png","../images/cyn_red.png","../images/ylw_slt.png","../images/org_blu.png","../images/gry_blk.png","../images/blu_wht.png"],"mutagen_generator_assignment":[0,1],"goal":5,"start":4,"action_noise":0,"location_history":"[4,5]","action_history":"[1]","mutagen_history":"[1]","location_rts":"[7676]","trial_type":"fractal-mutation","trial_index":85,"time_elapsed":1412025,"internal_node_id":"0.0-5.0-31.0"},{"group":"hexagon_bi","fractal_assignment":["../images/pnk_blu.png","../images/cyn_red.png","../images/ylw_slt.png","../images/org_blu.png","../images/gry_blk.png","../images/blu_wht.png"],"mutagen_generator_assignment":[0,1],"goal":0,"start":5,"action_noise":0,"location_history":"[5,0]","action_history":"[0]","mutagen_history":"[0]","location_rts":"[5467]","trial_type":"fractal-mutation","trial_index":86,"time_elapsed":1422519,"internal_node_id":"0.0-5.0-32.0"},{"group":"hexagon_bi","fractal_assignment":["../images/pnk_blu.png","../images/cyn_red.png","../images/ylw_slt.png","../images/org_blu.png","../images/gry_blk.png","../images/blu_wht.png"],"mutagen_generator_assignment":[0,1],"goal":2,"start":0,"action_noise":0,"location_history":"[0,5,4,3,2]","action_history":"[0,1,0,1]","mutagen_history":"[0,1,0,1]","location_rts":"[14238,881,3715,121]","trial_type":"fractal-mutation","trial_index":87,"time_elapsed":1449591,"internal_node_id":"0.0-5.0-33.0"},{"group":"hexagon_bi","fractal_assignment":["../images/pnk_blu.png","../images/cyn_red.png","../images/ylw_slt.png","../images/org_blu.png","../images/gry_blk.png","../images/blu_wht.png"],"mutagen_generator_assignment":[0,1],"goal":0,"start":2,"action_noise":0,"location_history":"[2,1,0]","action_history":"[0,1]","mutagen_history":"[0,1]","location_rts":"[21014,851]","trial_type":"fractal-mutation","trial_index":88,"time_elapsed":1477512,"internal_node_id":"0.0-5.0-34.0"},{"group":"hexagon_bi","fractal_assignment":["../images/pnk_blu.png","../images/cyn_red.png","../images/ylw_slt.png","../images/org_blu.png","../images/gry_blk.png","../images/blu_wht.png"],"mutagen_generator_assignment":[0,1],"goal":5,"start":0,"action_noise":0,"location_history":"[0,5]","action_history":"[0]","mutagen_history":"[0]","location_rts":"[6749]","trial_type":"fractal-mutation","trial_index":89,"time_elapsed":1489286,"internal_node_id":"0.0-5.0-35.0"},{"group":"hexagon_bi","fractal_assignment":["../images/pnk_blu.png","../images/cyn_red.png","../images/ylw_slt.png","../images/org_blu.png","../images/gry_blk.png","../images/blu_wht.png"],"mutagen_generator_assignment":[0,1],"goal":1,"start":5,"action_noise":0,"location_history":"[5,0,5,0,1]","action_history":"[0,0,0,1]","mutagen_history":"[0,0,0,1]","location_rts":"[22485,7860,382,2391]","trial_type":"fractal-mutation","trial_index":90,"time_elapsed":1530492,"internal_node_id":"0.0-5.0-36.0"},{"group":"hexagon_bi","fractal_assignment":["../images/pnk_blu.png","../images/cyn_red.png","../images/ylw_slt.png","../images/org_blu.png","../images/gry_blk.png","../images/blu_wht.png"],"mutagen_generator_assignment":[0,1],"goal":4,"start":1,"action_noise":0,"location_history":"[1,2,3,4]","action_history":"[0,1,0]","mutagen_history":"[0,1,0]","location_rts":"[4432,318,338]","trial_type":"fractal-mutation","trial_index":91,"time_elapsed":1542650,"internal_node_id":"0.0-5.0-37.0"},{"group":"hexagon_bi","fractal_assignment":["../images/pnk_blu.png","../images/cyn_red.png","../images/ylw_slt.png","../images/org_blu.png","../images/gry_blk.png","../images/blu_wht.png"],"mutagen_generator_assignment":[0,1],"goal":3,"start":4,"action_noise":0,"location_history":"[4,3]","action_history":"[0]","mutagen_history":"[0]","location_rts":"[2841]","trial_type":"fractal-mutation","trial_index":92,"time_elapsed":1550513,"internal_node_id":"0.0-5.0-38.0"},{"group":"hexagon_bi","fractal_assignment":["../images/pnk_blu.png","../images/cyn_red.png","../images/ylw_slt.png","../images/org_blu.png","../images/gry_blk.png","../images/blu_wht.png"],"mutagen_generator_assignment":[0,1],"goal":5,"start":3,"action_noise":0,"location_history":"[3,4,5]","action_history":"[0,1]","mutagen_history":"[0,1]","location_rts":"[4593,282]","trial_type":"fractal-mutation","trial_index":93,"time_elapsed":1561444,"internal_node_id":"0.0-5.0-39.0"},{"group":"hexagon_bi","fractal_assignment":["../images/pnk_blu.png","../images/cyn_red.png","../images/ylw_slt.png","../images/org_blu.png","../images/gry_blk.png","../images/blu_wht.png"],"mutagen_generator_assignment":[0,1],"goal":1,"start":5,"action_noise":0,"location_history":"[5,0,1]","action_history":"[0,1]","mutagen_history":"[0,1]","location_rts":"[6753,216]","trial_type":"fractal-mutation","trial_index":94,"time_elapsed":1574469,"internal_node_id":"0.0-5.0-40.0"},{"group":"hexagon_bi","fractal_assignment":["../images/pnk_blu.png","../images/cyn_red.png","../images/ylw_slt.png","../images/org_blu.png","../images/gry_blk.png","../images/blu_wht.png"],"mutagen_generator_assignment":[0,1],"goal":2,"start":1,"action_noise":0,"location_history":"[1,2]","action_history":"[0]","mutagen_history":"[0]","location_rts":"[8118]","trial_type":"fractal-mutation","trial_index":95,"time_elapsed":1587610,"internal_node_id":"0.0-5.0-41.0"},{"group":"hexagon_bi","fractal_assignment":["../images/pnk_blu.png","../images/cyn_red.png","../images/ylw_slt.png","../images/org_blu.png","../images/gry_blk.png","../images/blu_wht.png"],"mutagen_generator_assignment":[0,1],"goal":4,"start":2,"action_noise":0,"location_history":"[2,3,4]","action_history":"[1,0]","mutagen_history":"[1,0]","location_rts":"[6218,521]","trial_type":"fractal-mutation","trial_index":96,"time_elapsed":1600414,"internal_node_id":"0.0-5.0-42.0"},{"group":"hexagon_bi","fractal_assignment":["../images/pnk_blu.png","../images/cyn_red.png","../images/ylw_slt.png","../images/org_blu.png","../images/gry_blk.png","../images/blu_wht.png"],"mutagen_generator_assignment":[0,1],"goal":0,"start":4,"action_noise":0,"location_history":"[4,5,0]","action_history":"[1,0]","mutagen_history":"[1,0]","location_rts":"[16022,275]","trial_type":"fractal-mutation","trial_index":97,"time_elapsed":1622771,"internal_node_id":"0.0-5.0-43.0"},{"group":"hexagon_bi","fractal_assignment":["../images/pnk_blu.png","../images/cyn_red.png","../images/ylw_slt.png","../images/org_blu.png","../images/gry_blk.png","../images/blu_wht.png"],"mutagen_generator_assignment":[0,1],"goal":3,"start":0,"action_noise":0,"location_history":"[0,1,2,3]","action_history":"[1,0,1]","mutagen_history":"[1,0,1]","location_rts":"[13464,626,564]","trial_type":"fractal-mutation","trial_index":98,"time_elapsed":1644512,"internal_node_id":"0.0-5.0-44.0"},{"group":"hexagon_bi","fractal_assignment":["../images/pnk_blu.png","../images/cyn_red.png","../images/ylw_slt.png","../images/org_blu.png","../images/gry_blk.png","../images/blu_wht.png"],"mutagen_generator_assignment":[0,1],"goal":0,"start":3,"action_noise":0,"location_history":"[3,2,1,0]","action_history":"[1,0,1]","mutagen_history":"[1,0,1]","location_rts":"[14204,374,566]","trial_type":"fractal-mutation","trial_index":99,"time_elapsed":1666759,"internal_node_id":"0.0-5.0-45.0"},{"group":"hexagon_bi","fractal_assignment":["../images/pnk_blu.png","../images/cyn_red.png","../images/ylw_slt.png","../images/org_blu.png","../images/gry_blk.png","../images/blu_wht.png"],"mutagen_generator_assignment":[0,1],"goal":4,"start":0,"action_noise":0,"location_history":"[0,5,4]","action_history":"[0,1]","mutagen_history":"[0,1]","location_rts":"[3995,186]","trial_type":"fractal-mutation","trial_index":100,"time_elapsed":1676997,"internal_node_id":"0.0-5.0-46.0"},{"group":"hexagon_bi","fractal_assignment":["../images/pnk_blu.png","../images/cyn_red.png","../images/ylw_slt.png","../images/org_blu.png","../images/gry_blk.png","../images/blu_wht.png"],"mutagen_generator_assignment":[0,1],"goal":5,"start":4,"action_noise":0,"location_history":"[4,5]","action_history":"[1]","mutagen_history":"[1]","location_rts":"[8147]","trial_type":"fractal-mutation","trial_index":101,"time_elapsed":1690181,"internal_node_id":"0.0-5.0-47.0"},{"group":"hexagon_bi","fractal_assignment":["../images/pnk_blu.png","../images/cyn_red.png","../images/ylw_slt.png","../images/org_blu.png","../images/gry_blk.png","../images/blu_wht.png"],"mutagen_generator_assignment":[0,1],"goal":2,"start":5,"action_noise":0,"location_history":"[5,0,1,2]","action_history":"[0,1,0]","mutagen_history":"[0,1,0]","location_rts":"[20182,1146,303]","trial_type":"fractal-mutation","trial_index":102,"time_elapsed":1718897,"internal_node_id":"0.0-5.0-48.0"},{"group":"hexagon_bi","fractal_assignment":["../images/pnk_blu.png","../images/cyn_red.png","../images/ylw_slt.png","../images/org_blu.png","../images/gry_blk.png","../images/blu_wht.png"],"mutagen_generator_assignment":[0,1],"goal":1,"start":2,"action_noise":0,"location_history":"[2,1]","action_history":"[0]","mutagen_history":"[0]","location_rts":"[3880]","trial_type":"fractal-mutation","trial_index":103,"time_elapsed":1727810,"internal_node_id":"0.0-5.0-49.0"},{"view_history":"[{\"page_index\":0,\"viewing_time\":2939}]","rt":2939,"trial_type":"instructions","trial_index":104,"time_elapsed":1731750,"internal_node_id":"0.0-6.0"},{"rt":13854,"responses":"{\"Q0\":\"Memory\"}","trial_type":"survey-text","trial_index":105,"time_elapsed":1746608,"internal_node_id":"0.0-7.0-0.0"},{"rt":29363,"responses":"{\"Q0\":\"Remembering patterns\"}","trial_type":"survey-text","trial_index":106,"time_elapsed":1776974,"internal_node_id":"0.0-7.0-1.0"},{"rt":20708,"responses":"{\"Q0\":\"<img src='../images/diagrams/hexagon_tri.png'>\"}","trial_type":"survey-multi-choice","trial_index":107,"time_elapsed":1798687,"internal_node_id":"0.0-7.0-2.0"},{"rt":39243,"assignments":["../images/pnk_blu.png","../images/cyn_red.png","../images/ylw_slt.png","../images/org_blu.png","../images/gry_blk.png","../images/blu_wht.png"],"trial_type":"drag-drop-on-image","trial_index":108,"time_elapsed":1838934,"internal_node_id":"0.0-7.0-3.0"},{"rt":6629,"responses":"{\"Q0\":\"2\"}","trial_type":"survey-likert","trial_index":109,"time_elapsed":1846566,"internal_node_id":"0.0-7.0-4.0"},{"rt":120813,"responses":"{\"Q0\":\"How circular it was\"}","trial_type":"survey-text","trial_index":110,"time_elapsed":1968382,"internal_node_id":"0.0-7.0-5.0"},{"rt":8533,"responses":"{\"Q0\":\"No\"}","trial_type":"survey-multi-choice","trial_index":111,"time_elapsed":1977918,"internal_node_id":"0.0-7.0-6.0"},{"rt":5267,"responses":"{\"Q0\":\"During these questions/I wasn't aware until you pointed it out\"}","trial_type":"survey-multi-choice","trial_index":112,"time_elapsed":1984190,"internal_node_id":"0.0-7.0-7.0"},{"rt":6837,"responses":"{\"Q0\":\"\"}","trial_type":"survey-text","trial_index":113,"time_elapsed":1992030,"internal_node_id":"0.0-7.0-8.0"},{"rt":12932,"responses":"{\"Q0\":\"2\"}","trial_type":"survey-likert","trial_index":114,"time_elapsed":2005965,"internal_node_id":"0.0-7.0-9.0"},{"rt":9652,"responses":"{\"Q0\":\"Different structure\"}","trial_type":"survey-multi-choice","trial_index":115,"time_elapsed":2016622,"internal_node_id":"0.0-7.0-10.0"},{"rt":81565,"assignments":["../images/blu_wht.png","../images/org_blu.png","../images/gry_blk.png","../images/cyn_red.png","../images/pnk_blu.png","../images/ylw_slt.png"],"background_order":[3,1,0,2,5,4],"trial_type":"drag-drop-on-image","trial_index":116,"time_elapsed":2099188,"internal_node_id":"0.0-7.0-11.0"},{"rt":20411,"responses":"{\"Q0\":\"left (white) door = acid, right (black) door = ray\",\"Q1\":\"Not at all confident\"}","trial_type":"survey-multi-choice","trial_index":117,"time_elapsed":2120605,"internal_node_id":"0.0-7.0-12.0"},{"rt":6691,"responses":"{\"Q0\":\"25-35\",\"Q1\":\"Bachelor's degree\",\"Q2\":\"Female\",\"Q3\":\"White\"}","trial_type":"survey-multi-choice","trial_index":118,"time_elapsed":2128310,"internal_node_id":"0.0-8.0"},{"rt":7597,"responses":"{\"Q0\":\"None\"}","trial_type":"survey-text","trial_index":119,"time_elapsed":2136909,"internal_node_id":"0.0-9.0"}]