[{"view_history":"[{\"page_index\":0,\"viewing_time\":11445},{\"page_index\":1,\"viewing_time\":7231}]","rt":18676,"trial_type":"instructions","trial_index":0,"time_elapsed":18677,"internal_node_id":"0.0-0.0"},{"view_history":"[{\"page_index\":0,\"viewing_time\":1703},{\"page_index\":1,\"viewing_time\":3432}]","rt":5135,"trial_type":"instructions","trial_index":1,"time_elapsed":24813,"internal_node_id":"0.0-1.0"},{"group":"hexagon_bi","room_assignment":["blue","purple","red","grey","green","yellow"],"door_color_assignment":["white","black"],"door_generator_assignment":[0,1],"goal":2,"start":1,"action_noise":0,"location_history":"[1,0,1,2]","action_history":"[1,1,0]","door_history":"[1,1,0]","location_rts":"[6522,1735,12]","trial_type":"two-door-navigation","trial_index":2,"time_elapsed":40158,"internal_node_id":"0.0-2.0-0.0"},{"group":"hexagon_bi","room_assignment":["blue","purple","red","grey","green","yellow"],"door_color_assignment":["white","black"],"door_generator_assignment":[0,1],"goal":0,"start":2,"action_noise":0,"location_history":"[2,3,4,5,0]","action_history":"[1,0,1,0]","door_history":"[1,0,1,0]","location_rts":"[3934,429,739,1186]","trial_type":"two-door-navigation","trial_index":3,"time_elapsed":54500,"internal_node_id":"0.0-2.0-1.0"},{"group":"hexagon_bi","room_assignment":["blue","purple","red","grey","green","yellow"],"door_color_assignment":["white","black"],"door_generator_assignment":[0,1],"goal":5,"start":0,"action_noise":0,"location_history":"[0,5]","action_history":"[0]","door_history":"[0]","location_rts":"[2096]","trial_type":"two-door-navigation","trial_index":4,"time_elapsed":61618,"internal_node_id":"0.0-2.0-2.0"},{"group":"hexagon_bi","room_assignment":["blue","purple","red","grey","green","yellow"],"door_color_assignment":["white","black"],"door_generator_assignment":[0,1],"goal":1,"start":5,"action_noise":0,"location_history":"[5,0,1]","action_history":"[0,1]","door_history":"[0,1]","location_rts":"[2466,255]","trial_type":"two-door-navigation","trial_index":5,"time_elapsed":70361,"internal_node_id":"0.0-2.0-3.0"},{"group":"hexagon_bi","room_assignment":["blue","purple","red","grey","green","yellow"],"door_color_assignment":["white","black"],"door_generator_assignment":[0,1],"goal":3,"start":1,"action_noise":0,"location_history":"[1,2,3]","action_history":"[0,1]","door_history":"[0,1]","location_rts":"[2178,851]","trial_type":"two-door-navigation","trial_index":6,"time_elapsed":79422,"internal_node_id":"0.0-2.0-4.0"},{"group":"hexagon_bi","room_assignment":["blue","purple","red","grey","green","yellow"],"door_color_assignment":["white","black"],"door_generator_assignment":[0,1],"goal":5,"start":3,"action_noise":0,"location_history":"[3,4,5]","action_history":"[0,1]","door_history":"[0,1]","location_rts":"[2958,363]","trial_type":"two-door-navigation","trial_index":7,"time_elapsed":88784,"internal_node_id":"0.0-2.0-5.0"},{"group":"hexagon_bi","room_assignment":["blue","purple","red","grey","green","yellow"],"door_color_assignment":["white","black"],"door_generator_assignment":[0,1],"goal":4,"start":5,"action_noise":0,"location_history":"[5,0,1,0,5,4]","action_history":"[0,1,1,0,1]","door_history":"[0,1,1,0,1]","location_rts":"[13237,856,1059,700,377]","trial_type":"two-door-navigation","trial_index":8,"time_elapsed":114083,"internal_node_id":"0.0-2.0-6.0"},{"group":"hexagon_bi","room_assignment":["blue","purple","red","grey","green","yellow"],"door_color_assignment":["white","black"],"door_generator_assignment":[0,1],"goal":0,"start":4,"action_noise":0,"location_history":"[4,5,0]","action_history":"[1,0]","door_history":"[1,0]","location_rts":"[3393,399]","trial_type":"two-door-navigation","trial_index":9,"time_elapsed":123908,"internal_node_id":"0.0-2.0-7.0"},{"group":"hexagon_bi","room_assignment":["blue","purple","red","grey","green","yellow"],"door_color_assignment":["white","black"],"door_generator_assignment":[0,1],"goal":2,"start":0,"action_noise":0,"location_history":"[0,1,2]","action_history":"[1,0]","door_history":"[1,0]","location_rts":"[2240,252]","trial_type":"two-door-navigation","trial_index":10,"time_elapsed":132426,"internal_node_id":"0.0-2.0-8.0"},{"group":"hexagon_bi","room_assignment":["blue","purple","red","grey","green","yellow"],"door_color_assignment":["white","black"],"door_generator_assignment":[0,1],"goal":4,"start":2,"action_noise":0,"location_history":"[2,1,0,5,4]","action_history":"[0,1,0,1]","door_history":"[0,1,0,1]","location_rts":"[9811,237,247,265]","trial_type":"two-door-navigation","trial_index":11,"time_elapsed":151046,"internal_node_id":"0.0-2.0-9.0"},{"group":"hexagon_bi","room_assignment":["blue","purple","red","grey","green","yellow"],"door_color_assignment":["white","black"],"door_generator_assignment":[0,1],"goal":2,"start":4,"action_noise":0,"location_history":"[4,5,0,1,2]","action_history":"[1,0,1,0]","door_history":"[1,0,1,0]","location_rts":"[5654,303,198,82]","trial_type":"two-door-navigation","trial_index":12,"time_elapsed":165339,"internal_node_id":"0.0-2.0-10.0"},{"group":"hexagon_bi","room_assignment":["blue","purple","red","grey","green","yellow"],"door_color_assignment":["white","black"],"door_generator_assignment":[0,1],"goal":3,"start":2,"action_noise":0,"location_history":"[2,3]","action_history":"[1]","door_history":"[1]","location_rts":"[3322]","trial_type":"two-door-navigation","trial_index":13,"time_elapsed":173679,"internal_node_id":"0.0-2.0-11.0"},{"group":"hexagon_bi","room_assignment":["blue","purple","red","grey","green","yellow"],"door_color_assignment":["white","black"],"door_generator_assignment":[0,1],"goal":0,"start":3,"action_noise":0,"location_history":"[3,4,5,0]","action_history":"[0,1,0]","door_history":"[0,1,0]","location_rts":"[5997,275,254]","trial_type":"two-door-navigation","trial_index":14,"time_elapsed":187251,"internal_node_id":"0.0-2.0-12.0"},{"group":"hexagon_bi","room_assignment":["blue","purple","red","grey","green","yellow"],"door_color_assignment":["white","black"],"door_generator_assignment":[0,1],"goal":5,"start":0,"action_noise":0,"location_history":"[0,5]","action_history":"[0]","door_history":"[0]","location_rts":"[1681]","trial_type":"two-door-navigation","trial_index":15,"time_elapsed":193950,"internal_node_id":"0.0-2.0-13.0"},{"group":"hexagon_bi","room_assignment":["blue","purple","red","grey","green","yellow"],"door_color_assignment":["white","black"],"door_generator_assignment":[0,1],"goal":1,"start":5,"action_noise":0,"location_history":"[5,4,3,2,3,4,5,0,1]","action_history":"[1,0,1,1,0,1,0,1]","door_history":"[1,0,1,1,0,1,0,1]","location_rts":"[10728,339,314,924,969,145,20,412]","trial_type":"two-door-navigation","trial_index":16,"time_elapsed":219909,"internal_node_id":"0.0-2.0-14.0"},{"group":"hexagon_bi","room_assignment":["blue","purple","red","grey","green","yellow"],"door_color_assignment":["white","black"],"door_generator_assignment":[0,1],"goal":5,"start":1,"action_noise":0,"location_history":"[1,0,5]","action_history":"[1,0]","door_history":"[1,0]","location_rts":"[5902,364]","trial_type":"two-door-navigation","trial_index":17,"time_elapsed":232198,"internal_node_id":"0.0-2.0-15.0"},{"group":"hexagon_bi","room_assignment":["blue","purple","red","grey","green","yellow"],"door_color_assignment":["white","black"],"door_generator_assignment":[0,1],"goal":3,"start":5,"action_noise":0,"location_history":"[5,4,5,0,1,2,3]","action_history":"[1,1,0,1,0,1]","door_history":"[1,1,0,1,0,1]","location_rts":"[3629,1498,264,825,371,283]","trial_type":"two-door-navigation","trial_index":18,"time_elapsed":249147,"internal_node_id":"0.0-2.0-16.0"},{"group":"hexagon_bi","room_assignment":["blue","purple","red","grey","green","yellow"],"door_color_assignment":["white","black"],"door_generator_assignment":[0,1],"goal":2,"start":3,"action_noise":0,"location_history":"[3,4,3,2]","action_history":"[0,0,1]","door_history":"[0,0,1]","location_rts":"[2848,1162,269]","trial_type":"two-door-navigation","trial_index":19,"time_elapsed":260479,"internal_node_id":"0.0-2.0-17.0"},{"group":"hexagon_bi","room_assignment":["blue","purple","red","grey","green","yellow"],"door_color_assignment":["white","black"],"door_generator_assignment":[0,1],"goal":1,"start":2,"action_noise":0,"location_history":"[2,3,4,5,0,1]","action_history":"[1,0,1,0,1]","door_history":"[1,0,1,0,1]","location_rts":"[5172,1088,1129,31,172]","trial_type":"two-door-navigation","trial_index":20,"time_elapsed":277144,"internal_node_id":"0.0-2.0-18.0"},{"group":"hexagon_bi","room_assignment":["blue","purple","red","grey","green","yellow"],"door_color_assignment":["white","black"],"door_generator_assignment":[0,1],"goal":4,"start":1,"action_noise":0,"location_history":"[1,2,3,4]","action_history":"[0,1,0]","door_history":"[0,1,0]","location_rts":"[3123,413,229]","trial_type":"two-door-navigation","trial_index":21,"time_elapsed":287967,"internal_node_id":"0.0-2.0-19.0"},{"group":"hexagon_bi","room_assignment":["blue","purple","red","grey","green","yellow"],"door_color_assignment":["white","black"],"door_generator_assignment":[0,1],"goal":0,"start":4,"action_noise":0,"location_history":"[4,5,0]","action_history":"[1,0]","door_history":"[1,0]","location_rts":"[2366,414]","trial_type":"two-door-navigation","trial_index":22,"time_elapsed":296783,"internal_node_id":"0.0-2.0-20.0"},{"group":"hexagon_bi","room_assignment":["blue","purple","red","grey","green","yellow"],"door_color_assignment":["white","black"],"door_generator_assignment":[0,1],"goal":3,"start":0,"action_noise":0,"location_history":"[0,1,2,3]","action_history":"[1,0,1]","door_history":"[1,0,1]","location_rts":"[2558,190,89]","trial_type":"two-door-navigation","trial_index":23,"time_elapsed":306662,"internal_node_id":"0.0-2.0-21.0"},{"group":"hexagon_bi","room_assignment":["blue","purple","red","grey","green","yellow"],"door_color_assignment":["white","black"],"door_generator_assignment":[0,1],"goal":1,"start":3,"action_noise":0,"location_history":"[3,2,1]","action_history":"[1,0]","door_history":"[1,0]","location_rts":"[3446,324]","trial_type":"two-door-navigation","trial_index":24,"time_elapsed":316460,"internal_node_id":"0.0-2.0-22.0"},{"group":"hexagon_bi","room_assignment":["blue","purple","red","grey","green","yellow"],"door_color_assignment":["white","black"],"door_generator_assignment":[0,1],"goal":0,"start":1,"action_noise":0,"location_history":"[1,0]","action_history":"[1]","door_history":"[1]","location_rts":"[215178]","trial_type":"two-door-navigation","trial_index":25,"time_elapsed":536653,"internal_node_id":"0.0-2.0-23.0"},{"group":"hexagon_bi","room_assignment":["blue","purple","red","grey","green","yellow"],"door_color_assignment":["white","black"],"door_generator_assignment":[0,1],"goal":2,"start":0,"action_noise":0,"location_history":"[0,1,2]","action_history":"[1,0]","door_history":"[1,0]","location_rts":"[1568,269]","trial_type":"two-door-navigation","trial_index":26,"time_elapsed":544518,"internal_node_id":"0.0-2.0-24.0"},{"group":"hexagon_bi","room_assignment":["blue","purple","red","grey","green","yellow"],"door_color_assignment":["white","black"],"door_generator_assignment":[0,1],"goal":4,"start":2,"action_noise":0,"location_history":"[2,3,4]","action_history":"[1,0]","door_history":"[1,0]","location_rts":"[4200,265]","trial_type":"two-door-navigation","trial_index":27,"time_elapsed":555013,"internal_node_id":"0.0-2.0-25.0"},{"group":"hexagon_bi","room_assignment":["blue","purple","red","grey","green","yellow"],"door_color_assignment":["white","black"],"door_generator_assignment":[0,1],"goal":5,"start":4,"action_noise":0,"location_history":"[4,5]","action_history":"[1]","door_history":"[1]","location_rts":"[3191]","trial_type":"two-door-navigation","trial_index":28,"time_elapsed":563216,"internal_node_id":"0.0-2.0-26.0"},{"group":"hexagon_bi","room_assignment":["blue","purple","red","grey","green","yellow"],"door_color_assignment":["white","black"],"door_generator_assignment":[0,1],"goal":2,"start":5,"action_noise":0,"location_history":"[5,0,1,2]","action_history":"[0,1,0]","door_history":"[0,1,0]","location_rts":"[5469,625,256]","trial_type":"two-door-navigation","trial_index":29,"time_elapsed":576614,"internal_node_id":"0.0-2.0-27.0"},{"group":"hexagon_bi","room_assignment":["blue","purple","red","grey","green","yellow"],"door_color_assignment":["white","black"],"door_generator_assignment":[0,1],"goal":3,"start":2,"action_noise":0,"location_history":"[2,3]","action_history":"[1]","door_history":"[1]","location_rts":"[2503]","trial_type":"two-door-navigation","trial_index":30,"time_elapsed":584133,"internal_node_id":"0.0-2.0-28.0"},{"group":"hexagon_bi","room_assignment":["blue","purple","red","grey","green","yellow"],"door_color_assignment":["white","black"],"door_generator_assignment":[0,1],"goal":1,"start":3,"action_noise":0,"location_history":"[3,2,1]","action_history":"[1,0]","door_history":"[1,0]","location_rts":"[3936,404]","trial_type":"two-door-navigation","trial_index":31,"time_elapsed":594500,"internal_node_id":"0.0-2.0-29.0"},{"group":"hexagon_bi","room_assignment":["blue","purple","red","grey","green","yellow"],"door_color_assignment":["white","black"],"door_generator_assignment":[0,1],"goal":4,"start":1,"action_noise":0,"location_history":"[1,2,3,4]","action_history":"[0,1,0]","door_history":"[0,1,0]","location_rts":"[59225,239,171]","trial_type":"two-door-navigation","trial_index":32,"time_elapsed":661179,"internal_node_id":"0.0-2.0-30.0"},{"group":"hexagon_bi","room_assignment":["blue","purple","red","grey","green","yellow"],"door_color_assignment":["white","black"],"door_generator_assignment":[0,1],"goal":5,"start":4,"action_noise":0,"location_history":"[4,5]","action_history":"[1]","door_history":"[1]","location_rts":"[3305]","trial_type":"two-door-navigation","trial_index":33,"time_elapsed":669508,"internal_node_id":"0.0-2.0-31.0"},{"group":"hexagon_bi","room_assignment":["blue","purple","red","grey","green","yellow"],"door_color_assignment":["white","black"],"door_generator_assignment":[0,1],"goal":0,"start":5,"action_noise":0,"location_history":"[5,0]","action_history":"[0]","door_history":"[0]","location_rts":"[1809]","trial_type":"two-door-navigation","trial_index":34,"time_elapsed":676329,"internal_node_id":"0.0-2.0-32.0"},{"group":"hexagon_bi","room_assignment":["blue","purple","red","grey","green","yellow"],"door_color_assignment":["white","black"],"door_generator_assignment":[0,1],"goal":2,"start":0,"action_noise":0,"location_history":"[0,1,2]","action_history":"[1,0]","door_history":"[1,0]","location_rts":"[2012,34]","trial_type":"two-door-navigation","trial_index":35,"time_elapsed":684405,"internal_node_id":"0.0-2.0-33.0"},{"group":"hexagon_bi","room_assignment":["blue","purple","red","grey","green","yellow"],"door_color_assignment":["white","black"],"door_generator_assignment":[0,1],"goal":0,"start":2,"action_noise":0,"location_history":"[2,1,0]","action_history":"[0,1]","door_history":"[0,1]","location_rts":"[2487,259]","trial_type":"two-door-navigation","trial_index":36,"time_elapsed":693180,"internal_node_id":"0.0-2.0-34.0"},{"group":"hexagon_bi","room_assignment":["blue","purple","red","grey","green","yellow"],"door_color_assignment":["white","black"],"door_generator_assignment":[0,1],"goal":5,"start":0,"action_noise":0,"location_history":"[0,5]","action_history":"[0]","door_history":"[0]","location_rts":"[1587]","trial_type":"two-door-navigation","trial_index":37,"time_elapsed":699784,"internal_node_id":"0.0-2.0-35.0"},{"group":"hexagon_bi","room_assignment":["blue","purple","red","grey","green","yellow"],"door_color_assignment":["white","black"],"door_generator_assignment":[0,1],"goal":1,"start":5,"action_noise":0,"location_history":"[5,0,1]","action_history":"[0,1]","door_history":"[0,1]","location_rts":"[4381,61]","trial_type":"two-door-navigation","trial_index":38,"time_elapsed":710255,"internal_node_id":"0.0-2.0-36.0"},{"group":"hexagon_bi","room_assignment":["blue","purple","red","grey","green","yellow"],"door_color_assignment":["white","black"],"door_generator_assignment":[0,1],"goal":4,"start":1,"action_noise":0,"location_history":"[1,0,5,4]","action_history":"[1,0,1]","door_history":"[1,0,1]","location_rts":"[2069,108,474]","trial_type":"two-door-navigation","trial_index":39,"time_elapsed":719950,"internal_node_id":"0.0-2.0-37.0"},{"group":"hexagon_bi","room_assignment":["blue","purple","red","grey","green","yellow"],"door_color_assignment":["white","black"],"door_generator_assignment":[0,1],"goal":3,"start":4,"action_noise":0,"location_history":"[4,3]","action_history":"[0]","door_history":"[0]","location_rts":"[2335]","trial_type":"two-door-navigation","trial_index":40,"time_elapsed":727299,"internal_node_id":"0.0-2.0-38.0"},{"group":"hexagon_bi","room_assignment":["blue","purple","red","grey","green","yellow"],"door_color_assignment":["white","black"],"door_generator_assignment":[0,1],"goal":5,"start":3,"action_noise":0,"location_history":"[3,4,5]","action_history":"[0,1]","door_history":"[0,1]","location_rts":"[2505,865]","trial_type":"two-door-navigation","trial_index":41,"time_elapsed":736702,"internal_node_id":"0.0-2.0-39.0"},{"group":"hexagon_bi","room_assignment":["blue","purple","red","grey","green","yellow"],"door_color_assignment":["white","black"],"door_generator_assignment":[0,1],"goal":1,"start":5,"action_noise":0,"location_history":"[5,0,1]","action_history":"[0,1]","door_history":"[0,1]","location_rts":"[3447,82]","trial_type":"two-door-navigation","trial_index":42,"time_elapsed":746263,"internal_node_id":"0.0-2.0-40.0"},{"group":"hexagon_bi","room_assignment":["blue","purple","red","grey","green","yellow"],"door_color_assignment":["white","black"],"door_generator_assignment":[0,1],"goal":2,"start":1,"action_noise":0,"location_history":"[1,2]","action_history":"[0]","door_history":"[0]","location_rts":"[1589]","trial_type":"two-door-navigation","trial_index":43,"time_elapsed":752866,"internal_node_id":"0.0-2.0-41.0"},{"group":"hexagon_bi","room_assignment":["blue","purple","red","grey","green","yellow"],"door_color_assignment":["white","black"],"door_generator_assignment":[0,1],"goal":4,"start":2,"action_noise":0,"location_history":"[2,1,0,5,4]","action_history":"[0,1,0,1]","door_history":"[0,1,0,1]","location_rts":"[3211,133,310,350]","trial_type":"two-door-navigation","trial_index":44,"time_elapsed":764936,"internal_node_id":"0.0-2.0-42.0"},{"group":"hexagon_bi","room_assignment":["blue","purple","red","grey","green","yellow"],"door_color_assignment":["white","black"],"door_generator_assignment":[0,1],"goal":0,"start":4,"action_noise":0,"location_history":"[4,5,0]","action_history":"[1,0]","door_history":"[1,0]","location_rts":"[2084,529]","trial_type":"two-door-navigation","trial_index":45,"time_elapsed":773581,"internal_node_id":"0.0-2.0-43.0"},{"group":"hexagon_bi","room_assignment":["blue","purple","red","grey","green","yellow"],"door_color_assignment":["white","black"],"door_generator_assignment":[0,1],"goal":3,"start":0,"action_noise":0,"location_history":"[0,5,4,3]","action_history":"[0,1,0]","door_history":"[0,1,0]","location_rts":"[8337,241,556]","trial_type":"two-door-navigation","trial_index":46,"time_elapsed":789775,"internal_node_id":"0.0-2.0-44.0"},{"group":"hexagon_bi","room_assignment":["blue","purple","red","grey","green","yellow"],"door_color_assignment":["white","black"],"door_generator_assignment":[0,1],"goal":0,"start":3,"action_noise":0,"location_history":"[3,4,5,0]","action_history":"[0,1,0]","door_history":"[0,1,0]","location_rts":"[2384,347,572]","trial_type":"two-door-navigation","trial_index":47,"time_elapsed":800120,"internal_node_id":"0.0-2.0-45.0"},{"group":"hexagon_bi","room_assignment":["blue","purple","red","grey","green","yellow"],"door_color_assignment":["white","black"],"door_generator_assignment":[0,1],"goal":4,"start":0,"action_noise":0,"location_history":"[0,5,4]","action_history":"[0,1]","door_history":"[0,1]","location_rts":"[5839,264]","trial_type":"two-door-navigation","trial_index":48,"time_elapsed":812252,"internal_node_id":"0.0-2.0-46.0"},{"group":"hexagon_bi","room_assignment":["blue","purple","red","grey","green","yellow"],"door_color_assignment":["white","black"],"door_generator_assignment":[0,1],"goal":5,"start":4,"action_noise":0,"location_history":"[4,5]","action_history":"[1]","door_history":"[1]","location_rts":"[3457]","trial_type":"two-door-navigation","trial_index":49,"time_elapsed":820723,"internal_node_id":"0.0-2.0-47.0"},{"group":"hexagon_bi","room_assignment":["blue","purple","red","grey","green","yellow"],"door_color_assignment":["white","black"],"door_generator_assignment":[0,1],"goal":2,"start":5,"action_noise":0,"location_history":"[5,4,3,2]","action_history":"[1,0,1]","door_history":"[1,0,1]","location_rts":"[4545,318,289]","trial_type":"two-door-navigation","trial_index":50,"time_elapsed":832921,"internal_node_id":"0.0-2.0-48.0"},{"group":"hexagon_bi","room_assignment":["blue","purple","red","grey","green","yellow"],"door_color_assignment":["white","black"],"door_generator_assignment":[0,1],"goal":1,"start":2,"action_noise":0,"location_history":"[2,1]","action_history":"[0]","door_history":"[0]","location_rts":"[4299]","trial_type":"two-door-navigation","trial_index":51,"time_elapsed":842237,"internal_node_id":"0.0-2.0-49.0"},{"view_history":"[{\"page_index\":0,\"viewing_time\":2633}]","rt":2634,"trial_type":"instructions","trial_index":52,"time_elapsed":845871,"internal_node_id":"0.0-3.0"},{"view_history":"[{\"page_index\":0,\"viewing_time\":2461},{\"page_index\":1,\"viewing_time\":5448}]","rt":7909,"trial_type":"instructions","trial_index":53,"time_elapsed":854781,"internal_node_id":"0.0-4.0"},{"group":"hexagon_bi","fractal_assignment":["../images/blu_wht.png","../images/pnk_blu.png","../images/cyn_red.png","../images/gry_blk.png","../images/ylw_slt.png","../images/org_blu.png"],"mutagen_generator_assignment":[1,0],"goal":2,"start":1,"action_noise":0,"location_history":"[1,2]","action_history":"[0]","mutagen_history":"[1]","location_rts":"[213887]","trial_type":"fractal-mutation","trial_index":54,"time_elapsed":1073718,"internal_node_id":"0.0-5.0-0.0"},{"group":"hexagon_bi","fractal_assignment":["../images/blu_wht.png","../images/pnk_blu.png","../images/cyn_red.png","../images/gry_blk.png","../images/ylw_slt.png","../images/org_blu.png"],"mutagen_generator_assignment":[1,0],"goal":0,"start":2,"action_noise":0,"location_history":"[2,3,4,5,0]","action_history":"[1,0,1,0]","mutagen_history":"[0,1,0,1]","location_rts":"[3412,435,129,460]","trial_type":"fractal-mutation","trial_index":55,"time_elapsed":1086287,"internal_node_id":"0.0-5.0-1.0"},{"group":"hexagon_bi","fractal_assignment":["../images/blu_wht.png","../images/pnk_blu.png","../images/cyn_red.png","../images/gry_blk.png","../images/ylw_slt.png","../images/org_blu.png"],"mutagen_generator_assignment":[1,0],"goal":5,"start":0,"action_noise":0,"location_history":"[0,5]","action_history":"[0]","mutagen_history":"[1]","location_rts":"[2972]","trial_type":"fractal-mutation","trial_index":56,"time_elapsed":1094302,"internal_node_id":"0.0-5.0-2.0"},{"group":"hexagon_bi","fractal_assignment":["../images/blu_wht.png","../images/pnk_blu.png","../images/cyn_red.png","../images/gry_blk.png","../images/ylw_slt.png","../images/org_blu.png"],"mutagen_generator_assignment":[1,0],"goal":1,"start":5,"action_noise":0,"location_history":"[5,0,1]","action_history":"[0,1]","mutagen_history":"[1,0]","location_rts":"[2030,193]","trial_type":"fractal-mutation","trial_index":57,"time_elapsed":1102585,"internal_node_id":"0.0-5.0-3.0"},{"group":"hexagon_bi","fractal_assignment":["../images/blu_wht.png","../images/pnk_blu.png","../images/cyn_red.png","../images/gry_blk.png","../images/ylw_slt.png","../images/org_blu.png"],"mutagen_generator_assignment":[1,0],"goal":3,"start":1,"action_noise":0,"location_history":"[1,2,3]","action_history":"[0,1]","mutagen_history":"[1,0]","location_rts":"[2195,305]","trial_type":"fractal-mutation","trial_index":58,"time_elapsed":1111148,"internal_node_id":"0.0-5.0-4.0"},{"group":"hexagon_bi","fractal_assignment":["../images/blu_wht.png","../images/pnk_blu.png","../images/cyn_red.png","../images/gry_blk.png","../images/ylw_slt.png","../images/org_blu.png"],"mutagen_generator_assignment":[1,0],"goal":5,"start":3,"action_noise":0,"location_history":"[3,4,5]","action_history":"[0,1]","mutagen_history":"[1,0]","location_rts":"[129262,193]","trial_type":"fractal-mutation","trial_index":59,"time_elapsed":1246667,"internal_node_id":"0.0-5.0-5.0"},{"group":"hexagon_bi","fractal_assignment":["../images/blu_wht.png","../images/pnk_blu.png","../images/cyn_red.png","../images/gry_blk.png","../images/ylw_slt.png","../images/org_blu.png"],"mutagen_generator_assignment":[1,0],"goal":4,"start":5,"action_noise":0,"location_history":"[5,0,1,2,3,4]","action_history":"[0,1,0,1,0]","mutagen_history":"[1,0,1,0,1]","location_rts":"[13121,148,343,421,627]","trial_type":"fractal-mutation","trial_index":60,"time_elapsed":1270508,"internal_node_id":"0.0-5.0-6.0"},{"group":"hexagon_bi","fractal_assignment":["../images/blu_wht.png","../images/pnk_blu.png","../images/cyn_red.png","../images/gry_blk.png","../images/ylw_slt.png","../images/org_blu.png"],"mutagen_generator_assignment":[1,0],"goal":0,"start":4,"action_noise":0,"location_history":"[4,5,0]","action_history":"[1,0]","mutagen_history":"[0,1]","location_rts":"[1568,408]","trial_type":"fractal-mutation","trial_index":61,"time_elapsed":1278540,"internal_node_id":"0.0-5.0-7.0"},{"group":"hexagon_bi","fractal_assignment":["../images/blu_wht.png","../images/pnk_blu.png","../images/cyn_red.png","../images/gry_blk.png","../images/ylw_slt.png","../images/org_blu.png"],"mutagen_generator_assignment":[1,0],"goal":2,"start":0,"action_noise":0,"location_history":"[0,1,2]","action_history":"[1,0]","mutagen_history":"[0,1]","location_rts":"[3488,455]","trial_type":"fractal-mutation","trial_index":62,"time_elapsed":1288540,"internal_node_id":"0.0-5.0-8.0"},{"group":"hexagon_bi","fractal_assignment":["../images/blu_wht.png","../images/pnk_blu.png","../images/cyn_red.png","../images/gry_blk.png","../images/ylw_slt.png","../images/org_blu.png"],"mutagen_generator_assignment":[1,0],"goal":4,"start":2,"action_noise":0,"location_history":"[2,3,4]","action_history":"[1,0]","mutagen_history":"[0,1]","location_rts":"[60290,344]","trial_type":"fractal-mutation","trial_index":63,"time_elapsed":1355231,"internal_node_id":"0.0-5.0-9.0"},{"group":"hexagon_bi","fractal_assignment":["../images/blu_wht.png","../images/pnk_blu.png","../images/cyn_red.png","../images/gry_blk.png","../images/ylw_slt.png","../images/org_blu.png"],"mutagen_generator_assignment":[1,0],"goal":2,"start":4,"action_noise":0,"location_history":"[4,5,0,1,2]","action_history":"[1,0,1,0]","mutagen_history":"[0,1,0,1]","location_rts":"[2300,150,100,579]","trial_type":"fractal-mutation","trial_index":64,"time_elapsed":1366476,"internal_node_id":"0.0-5.0-10.0"},{"group":"hexagon_bi","fractal_assignment":["../images/blu_wht.png","../images/pnk_blu.png","../images/cyn_red.png","../images/gry_blk.png","../images/ylw_slt.png","../images/org_blu.png"],"mutagen_generator_assignment":[1,0],"goal":3,"start":2,"action_noise":0,"location_history":"[2,3]","action_history":"[1]","mutagen_history":"[0]","location_rts":"[1582]","trial_type":"fractal-mutation","trial_index":65,"time_elapsed":1373078,"internal_node_id":"0.0-5.0-11.0"},{"group":"hexagon_bi","fractal_assignment":["../images/blu_wht.png","../images/pnk_blu.png","../images/cyn_red.png","../images/gry_blk.png","../images/ylw_slt.png","../images/org_blu.png"],"mutagen_generator_assignment":[1,0],"goal":0,"start":3,"action_noise":0,"location_history":"[3,4,5,0]","action_history":"[0,1,0]","mutagen_history":"[1,0,1]","location_rts":"[1911,355,293]","trial_type":"fractal-mutation","trial_index":66,"time_elapsed":1382726,"internal_node_id":"0.0-5.0-12.0"},{"group":"hexagon_bi","fractal_assignment":["../images/blu_wht.png","../images/pnk_blu.png","../images/cyn_red.png","../images/gry_blk.png","../images/ylw_slt.png","../images/org_blu.png"],"mutagen_generator_assignment":[1,0],"goal":5,"start":0,"action_noise":0,"location_history":"[0,5]","action_history":"[0]","mutagen_history":"[1]","location_rts":"[2134]","trial_type":"fractal-mutation","trial_index":67,"time_elapsed":1389898,"internal_node_id":"0.0-5.0-13.0"},{"group":"hexagon_bi","fractal_assignment":["../images/blu_wht.png","../images/pnk_blu.png","../images/cyn_red.png","../images/gry_blk.png","../images/ylw_slt.png","../images/org_blu.png"],"mutagen_generator_assignment":[1,0],"goal":1,"start":5,"action_noise":0,"location_history":"[5,0,1]","action_history":"[0,1]","mutagen_history":"[1,0]","location_rts":"[2914,179]","trial_type":"fractal-mutation","trial_index":68,"time_elapsed":1399068,"internal_node_id":"0.0-5.0-14.0"},{"group":"hexagon_bi","fractal_assignment":["../images/blu_wht.png","../images/pnk_blu.png","../images/cyn_red.png","../images/gry_blk.png","../images/ylw_slt.png","../images/org_blu.png"],"mutagen_generator_assignment":[1,0],"goal":5,"start":1,"action_noise":0,"location_history":"[1,2,3,4,5]","action_history":"[0,1,0,1]","mutagen_history":"[1,0,1,0]","location_rts":"[1648,129,469,355]","trial_type":"fractal-mutation","trial_index":69,"time_elapsed":1409783,"internal_node_id":"0.0-5.0-15.0"},{"group":"hexagon_bi","fractal_assignment":["../images/blu_wht.png","../images/pnk_blu.png","../images/cyn_red.png","../images/gry_blk.png","../images/ylw_slt.png","../images/org_blu.png"],"mutagen_generator_assignment":[1,0],"goal":3,"start":5,"action_noise":0,"location_history":"[5,0,1,2,3]","action_history":"[0,1,0,1]","mutagen_history":"[1,0,1,0]","location_rts":"[1622,145,182,161]","trial_type":"fractal-mutation","trial_index":70,"time_elapsed":1420010,"internal_node_id":"0.0-5.0-16.0"},{"group":"hexagon_bi","fractal_assignment":["../images/blu_wht.png","../images/pnk_blu.png","../images/cyn_red.png","../images/gry_blk.png","../images/ylw_slt.png","../images/org_blu.png"],"mutagen_generator_assignment":[1,0],"goal":2,"start":3,"action_noise":0,"location_history":"[3,2]","action_history":"[1]","mutagen_history":"[0]","location_rts":"[1299]","trial_type":"fractal-mutation","trial_index":71,"time_elapsed":1426327,"internal_node_id":"0.0-5.0-17.0"},{"group":"hexagon_bi","fractal_assignment":["../images/blu_wht.png","../images/pnk_blu.png","../images/cyn_red.png","../images/gry_blk.png","../images/ylw_slt.png","../images/org_blu.png"],"mutagen_generator_assignment":[1,0],"goal":1,"start":2,"action_noise":0,"location_history":"[2,3,4,5,0,1]","action_history":"[1,0,1,0,1]","mutagen_history":"[0,1,0,1,0]","location_rts":"[1925,229,99,259,130]","trial_type":"fractal-mutation","trial_index":72,"time_elapsed":1438104,"internal_node_id":"0.0-5.0-18.0"},{"group":"hexagon_bi","fractal_assignment":["../images/blu_wht.png","../images/pnk_blu.png","../images/cyn_red.png","../images/gry_blk.png","../images/ylw_slt.png","../images/org_blu.png"],"mutagen_generator_assignment":[1,0],"goal":4,"start":1,"action_noise":0,"location_history":"[1,2,3,4]","action_history":"[0,1,0]","mutagen_history":"[1,0,1]","location_rts":"[1397,147,597]","trial_type":"fractal-mutation","trial_index":73,"time_elapsed":1447336,"internal_node_id":"0.0-5.0-19.0"},{"group":"hexagon_bi","fractal_assignment":["../images/blu_wht.png","../images/pnk_blu.png","../images/cyn_red.png","../images/gry_blk.png","../images/ylw_slt.png","../images/org_blu.png"],"mutagen_generator_assignment":[1,0],"goal":0,"start":4,"action_noise":0,"location_history":"[4,5,0]","action_history":"[1,0]","mutagen_history":"[0,1]","location_rts":"[1571,196]","trial_type":"fractal-mutation","trial_index":74,"time_elapsed":1455162,"internal_node_id":"0.0-5.0-20.0"},{"group":"hexagon_bi","fractal_assignment":["../images/blu_wht.png","../images/pnk_blu.png","../images/cyn_red.png","../images/gry_blk.png","../images/ylw_slt.png","../images/org_blu.png"],"mutagen_generator_assignment":[1,0],"goal":3,"start":0,"action_noise":0,"location_history":"[0,5,4,3]","action_history":"[0,1,0]","mutagen_history":"[1,0,1]","location_rts":"[2243,145,196]","trial_type":"fractal-mutation","trial_index":75,"time_elapsed":1464842,"internal_node_id":"0.0-5.0-21.0"},{"group":"hexagon_bi","fractal_assignment":["../images/blu_wht.png","../images/pnk_blu.png","../images/cyn_red.png","../images/gry_blk.png","../images/ylw_slt.png","../images/org_blu.png"],"mutagen_generator_assignment":[1,0],"goal":1,"start":3,"action_noise":0,"location_history":"[3,2,1]","action_history":"[1,0]","mutagen_history":"[0,1]","location_rts":"[2593,246]","trial_type":"fractal-mutation","trial_index":76,"time_elapsed":1473734,"internal_node_id":"0.0-5.0-22.0"},{"group":"hexagon_bi","fractal_assignment":["../images/blu_wht.png","../images/pnk_blu.png","../images/cyn_red.png","../images/gry_blk.png","../images/ylw_slt.png","../images/org_blu.png"],"mutagen_generator_assignment":[1,0],"goal":0,"start":1,"action_noise":0,"location_history":"[1,0]","action_history":"[1]","mutagen_history":"[0]","location_rts":"[11846]","trial_type":"fractal-mutation","trial_index":77,"time_elapsed":1490602,"internal_node_id":"0.0-5.0-23.0"},{"group":"hexagon_bi","fractal_assignment":["../images/blu_wht.png","../images/pnk_blu.png","../images/cyn_red.png","../images/gry_blk.png","../images/ylw_slt.png","../images/org_blu.png"],"mutagen_generator_assignment":[1,0],"goal":2,"start":0,"action_noise":0,"location_history":"[0,5,4,3,2]","action_history":"[0,1,0,1]","mutagen_history":"[1,0,1,0]","location_rts":"[657,244,132,102]","trial_type":"fractal-mutation","trial_index":78,"time_elapsed":1499849,"internal_node_id":"0.0-5.0-24.0"},{"group":"hexagon_bi","fractal_assignment":["../images/blu_wht.png","../images/pnk_blu.png","../images/cyn_red.png","../images/gry_blk.png","../images/ylw_slt.png","../images/org_blu.png"],"mutagen_generator_assignment":[1,0],"goal":4,"start":2,"action_noise":0,"location_history":"[2,1,0,5,4]","action_history":"[0,1,0,1]","mutagen_history":"[1,0,1,0]","location_rts":"[1186,143,298,147]","trial_type":"fractal-mutation","trial_index":79,"time_elapsed":1509718,"internal_node_id":"0.0-5.0-25.0"},{"group":"hexagon_bi","fractal_assignment":["../images/blu_wht.png","../images/pnk_blu.png","../images/cyn_red.png","../images/gry_blk.png","../images/ylw_slt.png","../images/org_blu.png"],"mutagen_generator_assignment":[1,0],"goal":5,"start":4,"action_noise":0,"location_history":"[4,3,2,1,0,5]","action_history":"[0,1,0,1,0]","mutagen_history":"[1,0,1,0,1]","location_rts":"[1845,305,453,502,408]","trial_type":"fractal-mutation","trial_index":80,"time_elapsed":1522379,"internal_node_id":"0.0-5.0-26.0"},{"group":"hexagon_bi","fractal_assignment":["../images/blu_wht.png","../images/pnk_blu.png","../images/cyn_red.png","../images/gry_blk.png","../images/ylw_slt.png","../images/org_blu.png"],"mutagen_generator_assignment":[1,0],"goal":2,"start":5,"action_noise":0,"location_history":"[5,0,1,2]","action_history":"[0,1,0]","mutagen_history":"[1,0,1]","location_rts":"[2275,196,631]","trial_type":"fractal-mutation","trial_index":81,"time_elapsed":1532561,"internal_node_id":"0.0-5.0-27.0"},{"group":"hexagon_bi","fractal_assignment":["../images/blu_wht.png","../images/pnk_blu.png","../images/cyn_red.png","../images/gry_blk.png","../images/ylw_slt.png","../images/org_blu.png"],"mutagen_generator_assignment":[1,0],"goal":3,"start":2,"action_noise":0,"location_history":"[2,3]","action_history":"[1]","mutagen_history":"[0]","location_rts":"[1835]","trial_type":"fractal-mutation","trial_index":82,"time_elapsed":1539413,"internal_node_id":"0.0-5.0-28.0"},{"group":"hexagon_bi","fractal_assignment":["../images/blu_wht.png","../images/pnk_blu.png","../images/cyn_red.png","../images/gry_blk.png","../images/ylw_slt.png","../images/org_blu.png"],"mutagen_generator_assignment":[1,0],"goal":1,"start":3,"action_noise":0,"location_history":"[3,4,5,0,1]","action_history":"[0,1,0,1]","mutagen_history":"[1,0,1,0]","location_rts":"[1753,224,467,755]","trial_type":"fractal-mutation","trial_index":83,"time_elapsed":1550732,"internal_node_id":"0.0-5.0-29.0"},{"group":"hexagon_bi","fractal_assignment":["../images/blu_wht.png","../images/pnk_blu.png","../images/cyn_red.png","../images/gry_blk.png","../images/ylw_slt.png","../images/org_blu.png"],"mutagen_generator_assignment":[1,0],"goal":4,"start":1,"action_noise":0,"location_history":"[1,0,5,4]","action_history":"[1,0,1]","mutagen_history":"[0,1,0]","location_rts":"[1409,181,211]","trial_type":"fractal-mutation","trial_index":84,"time_elapsed":1559604,"internal_node_id":"0.0-5.0-30.0"},{"group":"hexagon_bi","fractal_assignment":["../images/blu_wht.png","../images/pnk_blu.png","../images/cyn_red.png","../images/gry_blk.png","../images/ylw_slt.png","../images/org_blu.png"],"mutagen_generator_assignment":[1,0],"goal":5,"start":4,"action_noise":0,"location_history":"[4,3,2,1,0,5]","action_history":"[0,1,0,1,0]","mutagen_history":"[1,0,1,0,1]","location_rts":"[2056,415,713,450,324]","trial_type":"fractal-mutation","trial_index":85,"time_elapsed":1572715,"internal_node_id":"0.0-5.0-31.0"},{"group":"hexagon_bi","fractal_assignment":["../images/blu_wht.png","../images/pnk_blu.png","../images/cyn_red.png","../images/gry_blk.png","../images/ylw_slt.png","../images/org_blu.png"],"mutagen_generator_assignment":[1,0],"goal":0,"start":5,"action_noise":0,"location_history":"[5,0]","action_history":"[0]","mutagen_history":"[1]","location_rts":"[449]","trial_type":"fractal-mutation","trial_index":86,"time_elapsed":1578200,"internal_node_id":"0.0-5.0-32.0"},{"group":"hexagon_bi","fractal_assignment":["../images/blu_wht.png","../images/pnk_blu.png","../images/cyn_red.png","../images/gry_blk.png","../images/ylw_slt.png","../images/org_blu.png"],"mutagen_generator_assignment":[1,0],"goal":2,"start":0,"action_noise":0,"location_history":"[0,1,0,5,4,3,2]","action_history":"[1,1,0,1,0,1]","mutagen_history":"[0,0,1,0,1,0]","location_rts":"[3795,964,168,901,419,296]","trial_type":"fractal-mutation","trial_index":87,"time_elapsed":1594884,"internal_node_id":"0.0-5.0-33.0"},{"group":"hexagon_bi","fractal_assignment":["../images/blu_wht.png","../images/pnk_blu.png","../images/cyn_red.png","../images/gry_blk.png","../images/ylw_slt.png","../images/org_blu.png"],"mutagen_generator_assignment":[1,0],"goal":0,"start":2,"action_noise":0,"location_history":"[2,1,0]","action_history":"[0,1]","mutagen_history":"[1,0]","location_rts":"[2905,1800]","trial_type":"fractal-mutation","trial_index":88,"time_elapsed":1605639,"internal_node_id":"0.0-5.0-34.0"},{"group":"hexagon_bi","fractal_assignment":["../images/blu_wht.png","../images/pnk_blu.png","../images/cyn_red.png","../images/gry_blk.png","../images/ylw_slt.png","../images/org_blu.png"],"mutagen_generator_assignment":[1,0],"goal":5,"start":0,"action_noise":0,"location_history":"[0,5]","action_history":"[0]","mutagen_history":"[1]","location_rts":"[12693]","trial_type":"fractal-mutation","trial_index":89,"time_elapsed":1623372,"internal_node_id":"0.0-5.0-35.0"},{"group":"hexagon_bi","fractal_assignment":["../images/blu_wht.png","../images/pnk_blu.png","../images/cyn_red.png","../images/gry_blk.png","../images/ylw_slt.png","../images/org_blu.png"],"mutagen_generator_assignment":[1,0],"goal":1,"start":5,"action_noise":0,"location_history":"[5,0,1]","action_history":"[0,1]","mutagen_history":"[1,0]","location_rts":"[2256,163]","trial_type":"fractal-mutation","trial_index":90,"time_elapsed":1631849,"internal_node_id":"0.0-5.0-36.0"},{"group":"hexagon_bi","fractal_assignment":["../images/blu_wht.png","../images/pnk_blu.png","../images/cyn_red.png","../images/gry_blk.png","../images/ylw_slt.png","../images/org_blu.png"],"mutagen_generator_assignment":[1,0],"goal":4,"start":1,"action_noise":0,"location_history":"[1,2,3,4]","action_history":"[0,1,0]","mutagen_history":"[1,0,1]","location_rts":"[30437,338,291]","trial_type":"fractal-mutation","trial_index":91,"time_elapsed":1670016,"internal_node_id":"0.0-5.0-37.0"},{"group":"hexagon_bi","fractal_assignment":["../images/blu_wht.png","../images/pnk_blu.png","../images/cyn_red.png","../images/gry_blk.png","../images/ylw_slt.png","../images/org_blu.png"],"mutagen_generator_assignment":[1,0],"goal":3,"start":4,"action_noise":0,"location_history":"[4,3]","action_history":"[0]","mutagen_history":"[1]","location_rts":"[21852]","trial_type":"fractal-mutation","trial_index":92,"time_elapsed":1696905,"internal_node_id":"0.0-5.0-38.0"},{"group":"hexagon_bi","fractal_assignment":["../images/blu_wht.png","../images/pnk_blu.png","../images/cyn_red.png","../images/gry_blk.png","../images/ylw_slt.png","../images/org_blu.png"],"mutagen_generator_assignment":[1,0],"goal":5,"start":3,"action_noise":0,"location_history":"[3,2,1,0,5]","action_history":"[1,0,1,0]","mutagen_history":"[0,1,0,1]","location_rts":"[356,376,150,358]","trial_type":"fractal-mutation","trial_index":93,"time_elapsed":1706250,"internal_node_id":"0.0-5.0-39.0"},{"group":"hexagon_bi","fractal_assignment":["../images/blu_wht.png","../images/pnk_blu.png","../images/cyn_red.png","../images/gry_blk.png","../images/ylw_slt.png","../images/org_blu.png"],"mutagen_generator_assignment":[1,0],"goal":1,"start":5,"action_noise":0,"location_history":"[5,4,3,2,1]","action_history":"[1,0,1,0]","mutagen_history":"[0,1,0,1]","location_rts":"[1602,150,375,467]","trial_type":"fractal-mutation","trial_index":94,"time_elapsed":1716953,"internal_node_id":"0.0-5.0-40.0"},{"group":"hexagon_bi","fractal_assignment":["../images/blu_wht.png","../images/pnk_blu.png","../images/cyn_red.png","../images/gry_blk.png","../images/ylw_slt.png","../images/org_blu.png"],"mutagen_generator_assignment":[1,0],"goal":2,"start":1,"action_noise":0,"location_history":"[1,2]","action_history":"[0]","mutagen_history":"[1]","location_rts":"[1075]","trial_type":"fractal-mutation","trial_index":95,"time_elapsed":1723067,"internal_node_id":"0.0-5.0-41.0"},{"group":"hexagon_bi","fractal_assignment":["../images/blu_wht.png","../images/pnk_blu.png","../images/cyn_red.png","../images/gry_blk.png","../images/ylw_slt.png","../images/org_blu.png"],"mutagen_generator_assignment":[1,0],"goal":4,"start":2,"action_noise":0,"location_history":"[2,3,4]","action_history":"[1,0]","mutagen_history":"[0,1]","location_rts":"[3328,193]","trial_type":"fractal-mutation","trial_index":96,"time_elapsed":1732647,"internal_node_id":"0.0-5.0-42.0"},{"group":"hexagon_bi","fractal_assignment":["../images/blu_wht.png","../images/pnk_blu.png","../images/cyn_red.png","../images/gry_blk.png","../images/ylw_slt.png","../images/org_blu.png"],"mutagen_generator_assignment":[1,0],"goal":0,"start":4,"action_noise":0,"location_history":"[4,5,0]","action_history":"[1,0]","mutagen_history":"[0,1]","location_rts":"[1462,357]","trial_type":"fractal-mutation","trial_index":97,"time_elapsed":1740523,"internal_node_id":"0.0-5.0-43.0"},{"group":"hexagon_bi","fractal_assignment":["../images/blu_wht.png","../images/pnk_blu.png","../images/cyn_red.png","../images/gry_blk.png","../images/ylw_slt.png","../images/org_blu.png"],"mutagen_generator_assignment":[1,0],"goal":3,"start":0,"action_noise":0,"location_history":"[0,5,4,3]","action_history":"[0,1,0]","mutagen_history":"[1,0,1]","location_rts":"[1649,323,696]","trial_type":"fractal-mutation","trial_index":98,"time_elapsed":1750281,"internal_node_id":"0.0-5.0-44.0"},{"group":"hexagon_bi","fractal_assignment":["../images/blu_wht.png","../images/pnk_blu.png","../images/cyn_red.png","../images/gry_blk.png","../images/ylw_slt.png","../images/org_blu.png"],"mutagen_generator_assignment":[1,0],"goal":0,"start":3,"action_noise":0,"location_history":"[3,4,5,0]","action_history":"[0,1,0]","mutagen_history":"[1,0,1]","location_rts":"[2741,100,54]","trial_type":"fractal-mutation","trial_index":99,"time_elapsed":1760263,"internal_node_id":"0.0-5.0-45.0"},{"group":"hexagon_bi","fractal_assignment":["../images/blu_wht.png","../images/pnk_blu.png","../images/cyn_red.png","../images/gry_blk.png","../images/ylw_slt.png","../images/org_blu.png"],"mutagen_generator_assignment":[1,0],"goal":4,"start":0,"action_noise":0,"location_history":"[0,5,4]","action_history":"[0,1]","mutagen_history":"[1,0]","location_rts":"[4374,91]","trial_type":"fractal-mutation","trial_index":100,"time_elapsed":1770794,"internal_node_id":"0.0-5.0-46.0"},{"group":"hexagon_bi","fractal_assignment":["../images/blu_wht.png","../images/pnk_blu.png","../images/cyn_red.png","../images/gry_blk.png","../images/ylw_slt.png","../images/org_blu.png"],"mutagen_generator_assignment":[1,0],"goal":5,"start":4,"action_noise":0,"location_history":"[4,3,2,1,0,5]","action_history":"[0,1,0,1,0]","mutagen_history":"[1,0,1,0,1]","location_rts":"[1796,371,392,275,339]","trial_type":"fractal-mutation","trial_index":101,"time_elapsed":1783113,"internal_node_id":"0.0-5.0-47.0"},{"group":"hexagon_bi","fractal_assignment":["../images/blu_wht.png","../images/pnk_blu.png","../images/cyn_red.png","../images/gry_blk.png","../images/ylw_slt.png","../images/org_blu.png"],"mutagen_generator_assignment":[1,0],"goal":2,"start":5,"action_noise":0,"location_history":"[5,0,1,2]","action_history":"[0,1,0]","mutagen_history":"[1,0,1]","location_rts":"[2691,243,613]","trial_type":"fractal-mutation","trial_index":102,"time_elapsed":1793756,"internal_node_id":"0.0-5.0-48.0"},{"group":"hexagon_bi","fractal_assignment":["../images/blu_wht.png","../images/pnk_blu.png","../images/cyn_red.png","../images/gry_blk.png","../images/ylw_slt.png","../images/org_blu.png"],"mutagen_generator_assignment":[1,0],"goal":1,"start":2,"action_noise":0,"location_history":"[2,1]","action_history":"[0]","mutagen_history":"[1]","location_rts":"[1504]","trial_type":"fractal-mutation","trial_index":103,"time_elapsed":1800299,"internal_node_id":"0.0-5.0-49.0"},{"view_history":"[{\"page_index\":0,\"viewing_time\":3228}]","rt":3228,"trial_type":"instructions","trial_index":104,"time_elapsed":1804528,"internal_node_id":"0.0-6.0"},{"rt":20964,"responses":"{\"Q0\":\"memory of colors.\"}","trial_type":"survey-text","trial_index":105,"time_elapsed":1826498,"internal_node_id":"0.0-7.0-0.0"},{"rt":37683,"responses":"{\"Q0\":\"memory of patterns relative to how far apart they are from one another.\"}","trial_type":"survey-text","trial_index":106,"time_elapsed":1865184,"internal_node_id":"0.0-7.0-1.0"},{"rt":37525,"responses":"{\"Q0\":\"<img src='../images/diagrams/hexagon_bi.png'>\"}","trial_type":"survey-multi-choice","trial_index":107,"time_elapsed":1903715,"internal_node_id":"0.0-7.0-2.0"},{"rt":38443,"assignments":["../images/blu_wht.png","../images/pnk_blu.png","../images/cyn_red.png","../images/gry_blk.png","../images/ylw_slt.png","../images/org_blu.png"],"trial_type":"drag-drop-on-image","trial_index":108,"time_elapsed":1943160,"internal_node_id":"0.0-7.0-3.0"},{"rt":11741,"responses":"{\"Q0\":\"4\"}","trial_type":"survey-likert","trial_index":109,"time_elapsed":1955905,"internal_node_id":"0.0-7.0-4.0"},{"rt":33565,"responses":"{\"Q0\":\"choosing the same option twice would move you to the last place you were before.\"}","trial_type":"survey-text","trial_index":110,"time_elapsed":1990472,"internal_node_id":"0.0-7.0-5.0"},{"rt":8126,"responses":"{\"Q0\":\"Yes\"}","trial_type":"survey-multi-choice","trial_index":111,"time_elapsed":1999600,"internal_node_id":"0.0-7.0-6.0"},{"rt":9699,"responses":"{\"Q0\":\"During session 1\"}","trial_type":"survey-multi-choice","trial_index":112,"time_elapsed":2010305,"internal_node_id":"0.0-7.0-7.0"},{"rt":61134,"responses":"{\"Q0\":\"i saw it as either going up or down on the loop, in both situations, the colors were easyer to regagnise the loop , i had a harder time with the patterns.\"}","trial_type":"survey-text","trial_index":113,"time_elapsed":2072440,"internal_node_id":"0.0-7.0-8.0"},{"rt":6934,"responses":"{\"Q0\":\"4\"}","trial_type":"survey-likert","trial_index":114,"time_elapsed":2080377,"internal_node_id":"0.0-7.0-9.0"},{"rt":13187,"responses":"{\"Q0\":\"Same structure\"}","trial_type":"survey-multi-choice","trial_index":115,"time_elapsed":2094569,"internal_node_id":"0.0-7.0-10.0"},{"rt":38582,"assignments":["../images/blu_wht.png","../images/pnk_blu.png","../images/cyn_red.png","../images/gry_blk.png","../images/ylw_slt.png","../images/org_blu.png"],"background_order":[0,5,1,4,2,3],"trial_type":"drag-drop-on-image","trial_index":116,"time_elapsed":2134153,"internal_node_id":"0.0-7.0-11.0"},{"rt":43810,"responses":"{\"Q0\":\"left (white) door = acid, right (black) door = ray\",\"Q1\":\"Moderately confident\"}","trial_type":"survey-multi-choice","trial_index":117,"time_elapsed":2178969,"internal_node_id":"0.0-7.0-12.0"},{"rt":10127,"responses":"{\"Q0\":\"35-45\",\"Q1\":\"Some college\",\"Q2\":\"Male\",\"Q3\":\"Hispanic\"}","trial_type":"survey-multi-choice","trial_index":118,"time_elapsed":2190113,"internal_node_id":"0.0-8.0"},{"rt":18517,"responses":"{\"Q0\":\"thank you very much for letting me participate.\"}","trial_type":"survey-text","trial_index":119,"time_elapsed":2209633,"internal_node_id":"0.0-9.0"}]