[{"view_history":"[{\"page_index\":0,\"viewing_time\":4093},{\"page_index\":1,\"viewing_time\":9513}]","rt":13611,"trial_type":"instructions","trial_index":0,"time_elapsed":13615,"internal_node_id":"0.0-0.0"},{"view_history":"[{\"page_index\":0,\"viewing_time\":2855},{\"page_index\":1,\"viewing_time\":18121}]","rt":20979,"trial_type":"instructions","trial_index":1,"time_elapsed":35600,"internal_node_id":"0.0-1.0"},{"group":"hexagon_bi","room_assignment":["grey","blue","purple","yellow","green","red"],"door_color_assignment":["black","white"],"door_generator_assignment":[0,1],"goal":2,"start":1,"action_noise":0,"location_history":"[1,2]","action_history":"[0]","door_history":"[0]","location_rts":"[2366]","trial_type":"two-door-navigation","trial_index":2,"time_elapsed":43171,"internal_node_id":"0.0-2.0-0.0"},{"group":"hexagon_bi","room_assignment":["grey","blue","purple","yellow","green","red"],"door_color_assignment":["black","white"],"door_generator_assignment":[0,1],"goal":0,"start":2,"action_noise":0,"location_history":"[2,1,0]","action_history":"[0,1]","door_history":"[0,1]","location_rts":"[2664,573]","trial_type":"two-door-navigation","trial_index":3,"time_elapsed":52631,"internal_node_id":"0.0-2.0-1.0"},{"group":"hexagon_bi","room_assignment":["grey","blue","purple","yellow","green","red"],"door_color_assignment":["black","white"],"door_generator_assignment":[0,1],"goal":5,"start":0,"action_noise":0,"location_history":"[0,5]","action_history":"[0]","door_history":"[0]","location_rts":"[2462]","trial_type":"two-door-navigation","trial_index":4,"time_elapsed":60213,"internal_node_id":"0.0-2.0-2.0"},{"group":"hexagon_bi","room_assignment":["grey","blue","purple","yellow","green","red"],"door_color_assignment":["black","white"],"door_generator_assignment":[0,1],"goal":1,"start":5,"action_noise":0,"location_history":"[5,0,1]","action_history":"[0,1]","door_history":"[0,1]","location_rts":"[3155,714]","trial_type":"two-door-navigation","trial_index":5,"time_elapsed":70342,"internal_node_id":"0.0-2.0-3.0"},{"group":"hexagon_bi","room_assignment":["grey","blue","purple","yellow","green","red"],"door_color_assignment":["black","white"],"door_generator_assignment":[0,1],"goal":3,"start":1,"action_noise":0,"location_history":"[1,2,3]","action_history":"[0,1]","door_history":"[0,1]","location_rts":"[6777,526]","trial_type":"two-door-navigation","trial_index":6,"time_elapsed":83886,"internal_node_id":"0.0-2.0-4.0"},{"group":"hexagon_bi","room_assignment":["grey","blue","purple","yellow","green","red"],"door_color_assignment":["black","white"],"door_generator_assignment":[0,1],"goal":5,"start":3,"action_noise":0,"location_history":"[3,4,5]","action_history":"[0,1]","door_history":"[0,1]","location_rts":"[3878,538]","trial_type":"two-door-navigation","trial_index":7,"time_elapsed":94535,"internal_node_id":"0.0-2.0-5.0"},{"group":"hexagon_bi","room_assignment":["grey","blue","purple","yellow","green","red"],"door_color_assignment":["black","white"],"door_generator_assignment":[0,1],"goal":4,"start":5,"action_noise":0,"location_history":"[5,4]","action_history":"[1]","door_history":"[1]","location_rts":"[1524]","trial_type":"two-door-navigation","trial_index":8,"time_elapsed":101189,"internal_node_id":"0.0-2.0-6.0"},{"group":"hexagon_bi","room_assignment":["grey","blue","purple","yellow","green","red"],"door_color_assignment":["black","white"],"door_generator_assignment":[0,1],"goal":0,"start":4,"action_noise":0,"location_history":"[4,5,0]","action_history":"[1,0]","door_history":"[1,0]","location_rts":"[2794,475]","trial_type":"two-door-navigation","trial_index":9,"time_elapsed":110676,"internal_node_id":"0.0-2.0-7.0"},{"group":"hexagon_bi","room_assignment":["grey","blue","purple","yellow","green","red"],"door_color_assignment":["black","white"],"door_generator_assignment":[0,1],"goal":2,"start":0,"action_noise":0,"location_history":"[0,1,2]","action_history":"[1,0]","door_history":"[1,0]","location_rts":"[3095,512]","trial_type":"two-door-navigation","trial_index":10,"time_elapsed":120504,"internal_node_id":"0.0-2.0-8.0"},{"group":"hexagon_bi","room_assignment":["grey","blue","purple","yellow","green","red"],"door_color_assignment":["black","white"],"door_generator_assignment":[0,1],"goal":4,"start":2,"action_noise":0,"location_history":"[2,3,4]","action_history":"[1,0]","door_history":"[1,0]","location_rts":"[4791,486]","trial_type":"two-door-navigation","trial_index":11,"time_elapsed":132086,"internal_node_id":"0.0-2.0-9.0"},{"group":"hexagon_bi","room_assignment":["grey","blue","purple","yellow","green","red"],"door_color_assignment":["black","white"],"door_generator_assignment":[0,1],"goal":2,"start":4,"action_noise":0,"location_history":"[4,3,2]","action_history":"[0,1]","door_history":"[0,1]","location_rts":"[2929,484]","trial_type":"two-door-navigation","trial_index":12,"time_elapsed":141742,"internal_node_id":"0.0-2.0-10.0"},{"group":"hexagon_bi","room_assignment":["grey","blue","purple","yellow","green","red"],"door_color_assignment":["black","white"],"door_generator_assignment":[0,1],"goal":3,"start":2,"action_noise":0,"location_history":"[2,3]","action_history":"[1]","door_history":"[1]","location_rts":"[2455]","trial_type":"two-door-navigation","trial_index":13,"time_elapsed":149328,"internal_node_id":"0.0-2.0-11.0"},{"group":"hexagon_bi","room_assignment":["grey","blue","purple","yellow","green","red"],"door_color_assignment":["black","white"],"door_generator_assignment":[0,1],"goal":0,"start":3,"action_noise":0,"location_history":"[3,2,1,0]","action_history":"[1,0,1]","door_history":"[1,0,1]","location_rts":"[4630,558,459]","trial_type":"two-door-navigation","trial_index":14,"time_elapsed":162285,"internal_node_id":"0.0-2.0-12.0"},{"group":"hexagon_bi","room_assignment":["grey","blue","purple","yellow","green","red"],"door_color_assignment":["black","white"],"door_generator_assignment":[0,1],"goal":5,"start":0,"action_noise":0,"location_history":"[0,5]","action_history":"[0]","door_history":"[0]","location_rts":"[1780]","trial_type":"two-door-navigation","trial_index":15,"time_elapsed":169182,"internal_node_id":"0.0-2.0-13.0"},{"group":"hexagon_bi","room_assignment":["grey","blue","purple","yellow","green","red"],"door_color_assignment":["black","white"],"door_generator_assignment":[0,1],"goal":1,"start":5,"action_noise":0,"location_history":"[5,0,1]","action_history":"[0,1]","door_history":"[0,1]","location_rts":"[2678,404]","trial_type":"two-door-navigation","trial_index":16,"time_elapsed":178494,"internal_node_id":"0.0-2.0-14.0"},{"group":"hexagon_bi","room_assignment":["grey","blue","purple","yellow","green","red"],"door_color_assignment":["black","white"],"door_generator_assignment":[0,1],"goal":5,"start":1,"action_noise":0,"location_history":"[1,0,5]","action_history":"[1,0]","door_history":"[1,0]","location_rts":"[3459,381]","trial_type":"two-door-navigation","trial_index":17,"time_elapsed":188537,"internal_node_id":"0.0-2.0-15.0"},{"group":"hexagon_bi","room_assignment":["grey","blue","purple","yellow","green","red"],"door_color_assignment":["black","white"],"door_generator_assignment":[0,1],"goal":3,"start":5,"action_noise":0,"location_history":"[5,4,3]","action_history":"[1,0]","door_history":"[1,0]","location_rts":"[2924,473]","trial_type":"two-door-navigation","trial_index":18,"time_elapsed":198189,"internal_node_id":"0.0-2.0-16.0"},{"group":"hexagon_bi","room_assignment":["grey","blue","purple","yellow","green","red"],"door_color_assignment":["black","white"],"door_generator_assignment":[0,1],"goal":2,"start":3,"action_noise":0,"location_history":"[3,2]","action_history":"[1]","door_history":"[1]","location_rts":"[2172]","trial_type":"two-door-navigation","trial_index":19,"time_elapsed":205508,"internal_node_id":"0.0-2.0-17.0"},{"group":"hexagon_bi","room_assignment":["grey","blue","purple","yellow","green","red"],"door_color_assignment":["black","white"],"door_generator_assignment":[0,1],"goal":1,"start":2,"action_noise":0,"location_history":"[2,1]","action_history":"[0]","door_history":"[0]","location_rts":"[1749]","trial_type":"two-door-navigation","trial_index":20,"time_elapsed":212370,"internal_node_id":"0.0-2.0-18.0"},{"group":"hexagon_bi","room_assignment":["grey","blue","purple","yellow","green","red"],"door_color_assignment":["black","white"],"door_generator_assignment":[0,1],"goal":4,"start":1,"action_noise":0,"location_history":"[1,2,3,4]","action_history":"[0,1,0]","door_history":"[0,1,0]","location_rts":"[4766,1176,597]","trial_type":"two-door-navigation","trial_index":21,"time_elapsed":226229,"internal_node_id":"0.0-2.0-19.0"},{"group":"hexagon_bi","room_assignment":["grey","blue","purple","yellow","green","red"],"door_color_assignment":["black","white"],"door_generator_assignment":[0,1],"goal":0,"start":4,"action_noise":0,"location_history":"[4,5,0]","action_history":"[1,0]","door_history":"[1,0]","location_rts":"[2871,525]","trial_type":"two-door-navigation","trial_index":22,"time_elapsed":235882,"internal_node_id":"0.0-2.0-20.0"},{"group":"hexagon_bi","room_assignment":["grey","blue","purple","yellow","green","red"],"door_color_assignment":["black","white"],"door_generator_assignment":[0,1],"goal":3,"start":0,"action_noise":0,"location_history":"[0,1,2,3]","action_history":"[1,0,1]","door_history":"[1,0,1]","location_rts":"[8706,524,427]","trial_type":"two-door-navigation","trial_index":23,"time_elapsed":252868,"internal_node_id":"0.0-2.0-21.0"},{"group":"hexagon_bi","room_assignment":["grey","blue","purple","yellow","green","red"],"door_color_assignment":["black","white"],"door_generator_assignment":[0,1],"goal":1,"start":3,"action_noise":0,"location_history":"[3,2,1]","action_history":"[1,0]","door_history":"[1,0]","location_rts":"[3584,409]","trial_type":"two-door-navigation","trial_index":24,"time_elapsed":263131,"internal_node_id":"0.0-2.0-22.0"},{"group":"hexagon_bi","room_assignment":["grey","blue","purple","yellow","green","red"],"door_color_assignment":["black","white"],"door_generator_assignment":[0,1],"goal":0,"start":1,"action_noise":0,"location_history":"[1,0]","action_history":"[1]","door_history":"[1]","location_rts":"[1873]","trial_type":"two-door-navigation","trial_index":25,"time_elapsed":270120,"internal_node_id":"0.0-2.0-23.0"},{"group":"hexagon_bi","room_assignment":["grey","blue","purple","yellow","green","red"],"door_color_assignment":["black","white"],"door_generator_assignment":[0,1],"goal":2,"start":0,"action_noise":0,"location_history":"[0,1,2]","action_history":"[1,0]","door_history":"[1,0]","location_rts":"[2490,503]","trial_type":"two-door-navigation","trial_index":26,"time_elapsed":279335,"internal_node_id":"0.0-2.0-24.0"},{"group":"hexagon_bi","room_assignment":["grey","blue","purple","yellow","green","red"],"door_color_assignment":["black","white"],"door_generator_assignment":[0,1],"goal":4,"start":2,"action_noise":0,"location_history":"[2,3,4]","action_history":"[1,0]","door_history":"[1,0]","location_rts":"[2598,530]","trial_type":"two-door-navigation","trial_index":27,"time_elapsed":288684,"internal_node_id":"0.0-2.0-25.0"},{"group":"hexagon_bi","room_assignment":["grey","blue","purple","yellow","green","red"],"door_color_assignment":["black","white"],"door_generator_assignment":[0,1],"goal":5,"start":4,"action_noise":0,"location_history":"[4,5]","action_history":"[1]","door_history":"[1]","location_rts":"[1671]","trial_type":"two-door-navigation","trial_index":28,"time_elapsed":295495,"internal_node_id":"0.0-2.0-26.0"},{"group":"hexagon_bi","room_assignment":["grey","blue","purple","yellow","green","red"],"door_color_assignment":["black","white"],"door_generator_assignment":[0,1],"goal":2,"start":5,"action_noise":0,"location_history":"[5,0,1,2]","action_history":"[0,1,0]","door_history":"[0,1,0]","location_rts":"[3328,1135,418]","trial_type":"two-door-navigation","trial_index":29,"time_elapsed":307691,"internal_node_id":"0.0-2.0-27.0"},{"group":"hexagon_bi","room_assignment":["grey","blue","purple","yellow","green","red"],"door_color_assignment":["black","white"],"door_generator_assignment":[0,1],"goal":3,"start":2,"action_noise":0,"location_history":"[2,3]","action_history":"[1]","door_history":"[1]","location_rts":"[1941]","trial_type":"two-door-navigation","trial_index":30,"time_elapsed":314761,"internal_node_id":"0.0-2.0-28.0"},{"group":"hexagon_bi","room_assignment":["grey","blue","purple","yellow","green","red"],"door_color_assignment":["black","white"],"door_generator_assignment":[0,1],"goal":1,"start":3,"action_noise":0,"location_history":"[3,2,1]","action_history":"[1,0]","door_history":"[1,0]","location_rts":"[2927,508]","trial_type":"two-door-navigation","trial_index":31,"time_elapsed":324411,"internal_node_id":"0.0-2.0-29.0"},{"group":"hexagon_bi","room_assignment":["grey","blue","purple","yellow","green","red"],"door_color_assignment":["black","white"],"door_generator_assignment":[0,1],"goal":4,"start":1,"action_noise":0,"location_history":"[1,2,3,4]","action_history":"[0,1,0]","door_history":"[0,1,0]","location_rts":"[7262,754,513]","trial_type":"two-door-navigation","trial_index":32,"time_elapsed":340315,"internal_node_id":"0.0-2.0-30.0"},{"group":"hexagon_bi","room_assignment":["grey","blue","purple","yellow","green","red"],"door_color_assignment":["black","white"],"door_generator_assignment":[0,1],"goal":5,"start":4,"action_noise":0,"location_history":"[4,5]","action_history":"[1]","door_history":"[1]","location_rts":"[1710]","trial_type":"two-door-navigation","trial_index":33,"time_elapsed":347155,"internal_node_id":"0.0-2.0-31.0"},{"group":"hexagon_bi","room_assignment":["grey","blue","purple","yellow","green","red"],"door_color_assignment":["black","white"],"door_generator_assignment":[0,1],"goal":0,"start":5,"action_noise":0,"location_history":"[5,0]","action_history":"[0]","door_history":"[0]","location_rts":"[2109]","trial_type":"two-door-navigation","trial_index":34,"time_elapsed":354405,"internal_node_id":"0.0-2.0-32.0"},{"group":"hexagon_bi","room_assignment":["grey","blue","purple","yellow","green","red"],"door_color_assignment":["black","white"],"door_generator_assignment":[0,1],"goal":2,"start":0,"action_noise":0,"location_history":"[0,1,2]","action_history":"[1,0]","door_history":"[1,0]","location_rts":"[3103,400]","trial_type":"two-door-navigation","trial_index":35,"time_elapsed":364148,"internal_node_id":"0.0-2.0-33.0"},{"group":"hexagon_bi","room_assignment":["grey","blue","purple","yellow","green","red"],"door_color_assignment":["black","white"],"door_generator_assignment":[0,1],"goal":0,"start":2,"action_noise":0,"location_history":"[2,1,0]","action_history":"[0,1]","door_history":"[0,1]","location_rts":"[3920,513]","trial_type":"two-door-navigation","trial_index":36,"time_elapsed":374821,"internal_node_id":"0.0-2.0-34.0"},{"group":"hexagon_bi","room_assignment":["grey","blue","purple","yellow","green","red"],"door_color_assignment":["black","white"],"door_generator_assignment":[0,1],"goal":5,"start":0,"action_noise":0,"location_history":"[0,5]","action_history":"[0]","door_history":"[0]","location_rts":"[1915]","trial_type":"two-door-navigation","trial_index":37,"time_elapsed":381873,"internal_node_id":"0.0-2.0-35.0"},{"group":"hexagon_bi","room_assignment":["grey","blue","purple","yellow","green","red"],"door_color_assignment":["black","white"],"door_generator_assignment":[0,1],"goal":1,"start":5,"action_noise":0,"location_history":"[5,0,1]","action_history":"[0,1]","door_history":"[0,1]","location_rts":"[3445,734]","trial_type":"two-door-navigation","trial_index":38,"time_elapsed":392281,"internal_node_id":"0.0-2.0-36.0"},{"group":"hexagon_bi","room_assignment":["grey","blue","purple","yellow","green","red"],"door_color_assignment":["black","white"],"door_generator_assignment":[0,1],"goal":4,"start":1,"action_noise":0,"location_history":"[1,2,3,4]","action_history":"[0,1,0]","door_history":"[0,1,0]","location_rts":"[4854,468,476]","trial_type":"two-door-navigation","trial_index":39,"time_elapsed":405395,"internal_node_id":"0.0-2.0-37.0"},{"group":"hexagon_bi","room_assignment":["grey","blue","purple","yellow","green","red"],"door_color_assignment":["black","white"],"door_generator_assignment":[0,1],"goal":3,"start":4,"action_noise":0,"location_history":"[4,3]","action_history":"[0]","door_history":"[0]","location_rts":"[3014]","trial_type":"two-door-navigation","trial_index":40,"time_elapsed":413560,"internal_node_id":"0.0-2.0-38.0"},{"group":"hexagon_bi","room_assignment":["grey","blue","purple","yellow","green","red"],"door_color_assignment":["black","white"],"door_generator_assignment":[0,1],"goal":5,"start":3,"action_noise":0,"location_history":"[3,4,5]","action_history":"[0,1]","door_history":"[0,1]","location_rts":"[3458,443]","trial_type":"two-door-navigation","trial_index":41,"time_elapsed":423691,"internal_node_id":"0.0-2.0-39.0"},{"group":"hexagon_bi","room_assignment":["grey","blue","purple","yellow","green","red"],"door_color_assignment":["black","white"],"door_generator_assignment":[0,1],"goal":1,"start":5,"action_noise":0,"location_history":"[5,0,1]","action_history":"[0,1]","door_history":"[0,1]","location_rts":"[3422,606]","trial_type":"two-door-navigation","trial_index":42,"time_elapsed":433943,"internal_node_id":"0.0-2.0-40.0"},{"group":"hexagon_bi","room_assignment":["grey","blue","purple","yellow","green","red"],"door_color_assignment":["black","white"],"door_generator_assignment":[0,1],"goal":2,"start":1,"action_noise":0,"location_history":"[1,2]","action_history":"[0]","door_history":"[0]","location_rts":"[2552]","trial_type":"two-door-navigation","trial_index":43,"time_elapsed":441627,"internal_node_id":"0.0-2.0-41.0"},{"group":"hexagon_bi","room_assignment":["grey","blue","purple","yellow","green","red"],"door_color_assignment":["black","white"],"door_generator_assignment":[0,1],"goal":4,"start":2,"action_noise":0,"location_history":"[2,3,4]","action_history":"[1,0]","door_history":"[1,0]","location_rts":"[3500,393]","trial_type":"two-door-navigation","trial_index":44,"time_elapsed":451751,"internal_node_id":"0.0-2.0-42.0"},{"group":"hexagon_bi","room_assignment":["grey","blue","purple","yellow","green","red"],"door_color_assignment":["black","white"],"door_generator_assignment":[0,1],"goal":0,"start":4,"action_noise":0,"location_history":"[4,5,0]","action_history":"[1,0]","door_history":"[1,0]","location_rts":"[3123,486]","trial_type":"two-door-navigation","trial_index":45,"time_elapsed":461667,"internal_node_id":"0.0-2.0-43.0"},{"group":"hexagon_bi","room_assignment":["grey","blue","purple","yellow","green","red"],"door_color_assignment":["black","white"],"door_generator_assignment":[0,1],"goal":3,"start":0,"action_noise":0,"location_history":"[0,1,2,3]","action_history":"[1,0,1]","door_history":"[1,0,1]","location_rts":"[5791,522,438]","trial_type":"two-door-navigation","trial_index":46,"time_elapsed":475761,"internal_node_id":"0.0-2.0-44.0"},{"group":"hexagon_bi","room_assignment":["grey","blue","purple","yellow","green","red"],"door_color_assignment":["black","white"],"door_generator_assignment":[0,1],"goal":0,"start":3,"action_noise":0,"location_history":"[3,2,1,0]","action_history":"[1,0,1]","door_history":"[1,0,1]","location_rts":"[7980,464,516]","trial_type":"two-door-navigation","trial_index":47,"time_elapsed":492085,"internal_node_id":"0.0-2.0-45.0"},{"group":"hexagon_bi","room_assignment":["grey","blue","purple","yellow","green","red"],"door_color_assignment":["black","white"],"door_generator_assignment":[0,1],"goal":4,"start":0,"action_noise":0,"location_history":"[0,5,4]","action_history":"[0,1]","door_history":"[0,1]","location_rts":"[2739,451]","trial_type":"two-door-navigation","trial_index":48,"time_elapsed":501509,"internal_node_id":"0.0-2.0-46.0"},{"group":"hexagon_bi","room_assignment":["grey","blue","purple","yellow","green","red"],"door_color_assignment":["black","white"],"door_generator_assignment":[0,1],"goal":5,"start":4,"action_noise":0,"location_history":"[4,5]","action_history":"[1]","door_history":"[1]","location_rts":"[2282]","trial_type":"two-door-navigation","trial_index":49,"time_elapsed":508909,"internal_node_id":"0.0-2.0-47.0"},{"group":"hexagon_bi","room_assignment":["grey","blue","purple","yellow","green","red"],"door_color_assignment":["black","white"],"door_generator_assignment":[0,1],"goal":2,"start":5,"action_noise":0,"location_history":"[5,0,1,2]","action_history":"[0,1,0]","door_history":"[0,1,0]","location_rts":"[6360,610,433]","trial_type":"two-door-navigation","trial_index":50,"time_elapsed":523659,"internal_node_id":"0.0-2.0-48.0"},{"group":"hexagon_bi","room_assignment":["grey","blue","purple","yellow","green","red"],"door_color_assignment":["black","white"],"door_generator_assignment":[0,1],"goal":1,"start":2,"action_noise":0,"location_history":"[2,1]","action_history":"[0]","door_history":"[0]","location_rts":"[3794]","trial_type":"two-door-navigation","trial_index":51,"time_elapsed":532593,"internal_node_id":"0.0-2.0-49.0"},{"view_history":"[{\"page_index\":0,\"viewing_time\":3190}]","rt":3191,"trial_type":"instructions","trial_index":52,"time_elapsed":536795,"internal_node_id":"0.0-3.0"},{"view_history":"[{\"page_index\":0,\"viewing_time\":5507},{\"page_index\":1,\"viewing_time\":26082}]","rt":31591,"trial_type":"instructions","trial_index":53,"time_elapsed":569394,"internal_node_id":"0.0-4.0"},{"group":"hexagon_tri","fractal_assignment":["../images/cyn_red.png","../images/blu_wht.png","../images/gry_blk.png","../images/pnk_blu.png","../images/org_blu.png","../images/ylw_slt.png"],"mutagen_generator_assignment":[1,0],"goal":2,"start":1,"action_noise":0,"location_history":"[1,3,2]","action_history":"[0,0]","mutagen_history":"[1,1]","location_rts":"[8008,529]","trial_type":"fractal-mutation","trial_index":54,"time_elapsed":584889,"internal_node_id":"0.0-5.0-0.0"},{"group":"hexagon_tri","fractal_assignment":["../images/cyn_red.png","../images/blu_wht.png","../images/gry_blk.png","../images/pnk_blu.png","../images/org_blu.png","../images/ylw_slt.png"],"mutagen_generator_assignment":[1,0],"goal":0,"start":2,"action_noise":0,"location_history":"[2,3,4,0]","action_history":"[1,1,0]","mutagen_history":"[0,0,1]","location_rts":"[19772,1992,3010]","trial_type":"fractal-mutation","trial_index":55,"time_elapsed":617583,"internal_node_id":"0.0-5.0-1.0"},{"group":"hexagon_tri","fractal_assignment":["../images/cyn_red.png","../images/blu_wht.png","../images/gry_blk.png","../images/pnk_blu.png","../images/org_blu.png","../images/ylw_slt.png"],"mutagen_generator_assignment":[1,0],"goal":5,"start":0,"action_noise":0,"location_history":"[0,5]","action_history":"[0]","mutagen_history":"[1]","location_rts":"[3261]","trial_type":"fractal-mutation","trial_index":56,"time_elapsed":626288,"internal_node_id":"0.0-5.0-2.0"},{"group":"hexagon_tri","fractal_assignment":["../images/cyn_red.png","../images/blu_wht.png","../images/gry_blk.png","../images/pnk_blu.png","../images/org_blu.png","../images/ylw_slt.png"],"mutagen_generator_assignment":[1,0],"goal":1,"start":5,"action_noise":0,"location_history":"[5,0,1]","action_history":"[1,1]","mutagen_history":"[0,0]","location_rts":"[7478,467]","trial_type":"fractal-mutation","trial_index":57,"time_elapsed":640692,"internal_node_id":"0.0-5.0-3.0"},{"group":"hexagon_tri","fractal_assignment":["../images/cyn_red.png","../images/blu_wht.png","../images/gry_blk.png","../images/pnk_blu.png","../images/org_blu.png","../images/ylw_slt.png"],"mutagen_generator_assignment":[1,0],"goal":3,"start":1,"action_noise":0,"location_history":"[1,3]","action_history":"[0]","mutagen_history":"[1]","location_rts":"[4060]","trial_type":"fractal-mutation","trial_index":58,"time_elapsed":650214,"internal_node_id":"0.0-5.0-4.0"},{"group":"hexagon_tri","fractal_assignment":["../images/cyn_red.png","../images/blu_wht.png","../images/gry_blk.png","../images/pnk_blu.png","../images/org_blu.png","../images/ylw_slt.png"],"mutagen_generator_assignment":[1,0],"goal":5,"start":3,"action_noise":0,"location_history":"[3,4,0,5]","action_history":"[1,0,0]","mutagen_history":"[0,1,1]","location_rts":"[11712,836,2795]","trial_type":"fractal-mutation","trial_index":59,"time_elapsed":673670,"internal_node_id":"0.0-5.0-5.0"},{"group":"hexagon_tri","fractal_assignment":["../images/cyn_red.png","../images/blu_wht.png","../images/gry_blk.png","../images/pnk_blu.png","../images/org_blu.png","../images/ylw_slt.png"],"mutagen_generator_assignment":[1,0],"goal":4,"start":5,"action_noise":0,"location_history":"[5,4]","action_history":"[0]","mutagen_history":"[1]","location_rts":"[4370]","trial_type":"fractal-mutation","trial_index":60,"time_elapsed":683520,"internal_node_id":"0.0-5.0-6.0"},{"group":"hexagon_tri","fractal_assignment":["../images/cyn_red.png","../images/blu_wht.png","../images/gry_blk.png","../images/pnk_blu.png","../images/org_blu.png","../images/ylw_slt.png"],"mutagen_generator_assignment":[1,0],"goal":0,"start":4,"action_noise":0,"location_history":"[4,0]","action_history":"[0]","mutagen_history":"[1]","location_rts":"[4049]","trial_type":"fractal-mutation","trial_index":61,"time_elapsed":693074,"internal_node_id":"0.0-5.0-7.0"},{"group":"hexagon_tri","fractal_assignment":["../images/cyn_red.png","../images/blu_wht.png","../images/gry_blk.png","../images/pnk_blu.png","../images/org_blu.png","../images/ylw_slt.png"],"mutagen_generator_assignment":[1,0],"goal":2,"start":0,"action_noise":0,"location_history":"[0,5,4,2]","action_history":"[0,0,1]","mutagen_history":"[1,1,0]","location_rts":"[15905,1020,2382]","trial_type":"fractal-mutation","trial_index":62,"time_elapsed":720515,"internal_node_id":"0.0-5.0-8.0"},{"group":"hexagon_tri","fractal_assignment":["../images/cyn_red.png","../images/blu_wht.png","../images/gry_blk.png","../images/pnk_blu.png","../images/org_blu.png","../images/ylw_slt.png"],"mutagen_generator_assignment":[1,0],"goal":4,"start":2,"action_noise":0,"location_history":"[2,3,4]","action_history":"[1,1]","mutagen_history":"[0,0]","location_rts":"[7277,711]","trial_type":"fractal-mutation","trial_index":63,"time_elapsed":734986,"internal_node_id":"0.0-5.0-9.0"},{"group":"hexagon_tri","fractal_assignment":["../images/cyn_red.png","../images/blu_wht.png","../images/gry_blk.png","../images/pnk_blu.png","../images/org_blu.png","../images/ylw_slt.png"],"mutagen_generator_assignment":[1,0],"goal":2,"start":4,"action_noise":0,"location_history":"[4,2]","action_history":"[1]","mutagen_history":"[0]","location_rts":"[3951]","trial_type":"fractal-mutation","trial_index":64,"time_elapsed":744176,"internal_node_id":"0.0-5.0-10.0"},{"group":"hexagon_tri","fractal_assignment":["../images/cyn_red.png","../images/blu_wht.png","../images/gry_blk.png","../images/pnk_blu.png","../images/org_blu.png","../images/ylw_slt.png"],"mutagen_generator_assignment":[1,0],"goal":3,"start":2,"action_noise":0,"location_history":"[2,3]","action_history":"[1]","mutagen_history":"[0]","location_rts":"[3730]","trial_type":"fractal-mutation","trial_index":65,"time_elapsed":753166,"internal_node_id":"0.0-5.0-11.0"},{"group":"hexagon_tri","fractal_assignment":["../images/cyn_red.png","../images/blu_wht.png","../images/gry_blk.png","../images/pnk_blu.png","../images/org_blu.png","../images/ylw_slt.png"],"mutagen_generator_assignment":[1,0],"goal":0,"start":3,"action_noise":0,"location_history":"[3,4,0]","action_history":"[1,0]","mutagen_history":"[0,1]","location_rts":"[8823,457]","trial_type":"fractal-mutation","trial_index":66,"time_elapsed":769100,"internal_node_id":"0.0-5.0-12.0"},{"group":"hexagon_tri","fractal_assignment":["../images/cyn_red.png","../images/blu_wht.png","../images/gry_blk.png","../images/pnk_blu.png","../images/org_blu.png","../images/ylw_slt.png"],"mutagen_generator_assignment":[1,0],"goal":5,"start":0,"action_noise":0,"location_history":"[0,5]","action_history":"[0]","mutagen_history":"[1]","location_rts":"[2805]","trial_type":"fractal-mutation","trial_index":67,"time_elapsed":777342,"internal_node_id":"0.0-5.0-13.0"},{"group":"hexagon_tri","fractal_assignment":["../images/cyn_red.png","../images/blu_wht.png","../images/gry_blk.png","../images/pnk_blu.png","../images/org_blu.png","../images/ylw_slt.png"],"mutagen_generator_assignment":[1,0],"goal":1,"start":5,"action_noise":0,"location_history":"[5,0,1]","action_history":"[1,1]","mutagen_history":"[0,0]","location_rts":"[7401,508]","trial_type":"fractal-mutation","trial_index":68,"time_elapsed":791736,"internal_node_id":"0.0-5.0-14.0"},{"group":"hexagon_tri","fractal_assignment":["../images/cyn_red.png","../images/blu_wht.png","../images/gry_blk.png","../images/pnk_blu.png","../images/org_blu.png","../images/ylw_slt.png"],"mutagen_generator_assignment":[1,0],"goal":5,"start":1,"action_noise":0,"location_history":"[1,5]","action_history":"[1]","mutagen_history":"[0]","location_rts":"[5310]","trial_type":"fractal-mutation","trial_index":69,"time_elapsed":802328,"internal_node_id":"0.0-5.0-15.0"},{"group":"hexagon_tri","fractal_assignment":["../images/cyn_red.png","../images/blu_wht.png","../images/gry_blk.png","../images/pnk_blu.png","../images/org_blu.png","../images/ylw_slt.png"],"mutagen_generator_assignment":[1,0],"goal":3,"start":5,"action_noise":0,"location_history":"[5,0,1,3]","action_history":"[1,1,0]","mutagen_history":"[0,0,1]","location_rts":"[16380,1019,1371]","trial_type":"fractal-mutation","trial_index":70,"time_elapsed":828996,"internal_node_id":"0.0-5.0-16.0"},{"group":"hexagon_tri","fractal_assignment":["../images/cyn_red.png","../images/blu_wht.png","../images/gry_blk.png","../images/pnk_blu.png","../images/org_blu.png","../images/ylw_slt.png"],"mutagen_generator_assignment":[1,0],"goal":2,"start":3,"action_noise":0,"location_history":"[3,2]","action_history":"[0]","mutagen_history":"[1]","location_rts":"[4016]","trial_type":"fractal-mutation","trial_index":71,"time_elapsed":838402,"internal_node_id":"0.0-5.0-17.0"},{"group":"hexagon_tri","fractal_assignment":["../images/cyn_red.png","../images/blu_wht.png","../images/gry_blk.png","../images/pnk_blu.png","../images/org_blu.png","../images/ylw_slt.png"],"mutagen_generator_assignment":[1,0],"goal":1,"start":2,"action_noise":0,"location_history":"[2,1]","action_history":"[0]","mutagen_history":"[1]","location_rts":"[3438]","trial_type":"fractal-mutation","trial_index":72,"time_elapsed":847314,"internal_node_id":"0.0-5.0-18.0"},{"group":"hexagon_tri","fractal_assignment":["../images/cyn_red.png","../images/blu_wht.png","../images/gry_blk.png","../images/pnk_blu.png","../images/org_blu.png","../images/ylw_slt.png"],"mutagen_generator_assignment":[1,0],"goal":4,"start":1,"action_noise":0,"location_history":"[1,3,4]","action_history":"[0,1]","mutagen_history":"[1,0]","location_rts":"[12228,138]","trial_type":"fractal-mutation","trial_index":73,"time_elapsed":866324,"internal_node_id":"0.0-5.0-19.0"},{"group":"hexagon_tri","fractal_assignment":["../images/cyn_red.png","../images/blu_wht.png","../images/gry_blk.png","../images/pnk_blu.png","../images/org_blu.png","../images/ylw_slt.png"],"mutagen_generator_assignment":[1,0],"goal":0,"start":4,"action_noise":0,"location_history":"[4,0]","action_history":"[0]","mutagen_history":"[1]","location_rts":"[5859]","trial_type":"fractal-mutation","trial_index":74,"time_elapsed":877622,"internal_node_id":"0.0-5.0-20.0"},{"group":"hexagon_tri","fractal_assignment":["../images/cyn_red.png","../images/blu_wht.png","../images/gry_blk.png","../images/pnk_blu.png","../images/org_blu.png","../images/ylw_slt.png"],"mutagen_generator_assignment":[1,0],"goal":3,"start":0,"action_noise":0,"location_history":"[0,1,3]","action_history":"[1,0]","mutagen_history":"[0,1]","location_rts":"[4769,520]","trial_type":"fractal-mutation","trial_index":75,"time_elapsed":889588,"internal_node_id":"0.0-5.0-21.0"},{"group":"hexagon_tri","fractal_assignment":["../images/cyn_red.png","../images/blu_wht.png","../images/gry_blk.png","../images/pnk_blu.png","../images/org_blu.png","../images/ylw_slt.png"],"mutagen_generator_assignment":[1,0],"goal":1,"start":3,"action_noise":0,"location_history":"[3,2,1]","action_history":"[0,0]","mutagen_history":"[1,1]","location_rts":"[9091,430]","trial_type":"fractal-mutation","trial_index":76,"time_elapsed":906024,"internal_node_id":"0.0-5.0-22.0"},{"group":"hexagon_tri","fractal_assignment":["../images/cyn_red.png","../images/blu_wht.png","../images/gry_blk.png","../images/pnk_blu.png","../images/org_blu.png","../images/ylw_slt.png"],"mutagen_generator_assignment":[1,0],"goal":0,"start":1,"action_noise":0,"location_history":"[1,5,0]","action_history":"[1,1]","mutagen_history":"[0,0]","location_rts":"[7358,1481]","trial_type":"fractal-mutation","trial_index":77,"time_elapsed":921322,"internal_node_id":"0.0-5.0-23.0"},{"group":"hexagon_tri","fractal_assignment":["../images/cyn_red.png","../images/blu_wht.png","../images/gry_blk.png","../images/pnk_blu.png","../images/org_blu.png","../images/ylw_slt.png"],"mutagen_generator_assignment":[1,0],"goal":2,"start":0,"action_noise":0,"location_history":"[0,1,3,2]","action_history":"[1,0,0]","mutagen_history":"[0,1,1]","location_rts":"[7490,1669,476]","trial_type":"fractal-mutation","trial_index":78,"time_elapsed":939006,"internal_node_id":"0.0-5.0-24.0"},{"group":"hexagon_tri","fractal_assignment":["../images/cyn_red.png","../images/blu_wht.png","../images/gry_blk.png","../images/pnk_blu.png","../images/org_blu.png","../images/ylw_slt.png"],"mutagen_generator_assignment":[1,0],"goal":4,"start":2,"action_noise":0,"location_history":"[2,3,4]","action_history":"[1,1]","mutagen_history":"[0,0]","location_rts":"[5746,446]","trial_type":"fractal-mutation","trial_index":79,"time_elapsed":951662,"internal_node_id":"0.0-5.0-25.0"},{"group":"hexagon_tri","fractal_assignment":["../images/cyn_red.png","../images/blu_wht.png","../images/gry_blk.png","../images/pnk_blu.png","../images/org_blu.png","../images/ylw_slt.png"],"mutagen_generator_assignment":[1,0],"goal":5,"start":4,"action_noise":0,"location_history":"[4,0,5]","action_history":"[0,0]","mutagen_history":"[1,1]","location_rts":"[5803,546]","trial_type":"fractal-mutation","trial_index":80,"time_elapsed":964848,"internal_node_id":"0.0-5.0-26.0"},{"group":"hexagon_tri","fractal_assignment":["../images/cyn_red.png","../images/blu_wht.png","../images/gry_blk.png","../images/pnk_blu.png","../images/org_blu.png","../images/ylw_slt.png"],"mutagen_generator_assignment":[1,0],"goal":2,"start":5,"action_noise":0,"location_history":"[5,4,2]","action_history":"[0,1]","mutagen_history":"[1,0]","location_rts":"[10448,2907]","trial_type":"fractal-mutation","trial_index":81,"time_elapsed":984782,"internal_node_id":"0.0-5.0-27.0"},{"group":"hexagon_tri","fractal_assignment":["../images/cyn_red.png","../images/blu_wht.png","../images/gry_blk.png","../images/pnk_blu.png","../images/org_blu.png","../images/ylw_slt.png"],"mutagen_generator_assignment":[1,0],"goal":3,"start":2,"action_noise":0,"location_history":"[2,3]","action_history":"[1]","mutagen_history":"[0]","location_rts":"[3415]","trial_type":"fractal-mutation","trial_index":82,"time_elapsed":993426,"internal_node_id":"0.0-5.0-28.0"},{"group":"hexagon_tri","fractal_assignment":["../images/cyn_red.png","../images/blu_wht.png","../images/gry_blk.png","../images/pnk_blu.png","../images/org_blu.png","../images/ylw_slt.png"],"mutagen_generator_assignment":[1,0],"goal":1,"start":3,"action_noise":0,"location_history":"[3,2,1]","action_history":"[0,0]","mutagen_history":"[1,1]","location_rts":"[8150,423]","trial_type":"fractal-mutation","trial_index":83,"time_elapsed":1008871,"internal_node_id":"0.0-5.0-29.0"},{"group":"hexagon_tri","fractal_assignment":["../images/cyn_red.png","../images/blu_wht.png","../images/gry_blk.png","../images/pnk_blu.png","../images/org_blu.png","../images/ylw_slt.png"],"mutagen_generator_assignment":[1,0],"goal":4,"start":1,"action_noise":0,"location_history":"[1,3,4]","action_history":"[0,1]","mutagen_history":"[1,0]","location_rts":"[7517,573]","trial_type":"fractal-mutation","trial_index":84,"time_elapsed":1023597,"internal_node_id":"0.0-5.0-30.0"},{"group":"hexagon_tri","fractal_assignment":["../images/cyn_red.png","../images/blu_wht.png","../images/gry_blk.png","../images/pnk_blu.png","../images/org_blu.png","../images/ylw_slt.png"],"mutagen_generator_assignment":[1,0],"goal":5,"start":4,"action_noise":0,"location_history":"[4,0,5]","action_history":"[0,0]","mutagen_history":"[1,1]","location_rts":"[12014,412]","trial_type":"fractal-mutation","trial_index":85,"time_elapsed":1042748,"internal_node_id":"0.0-5.0-31.0"},{"group":"hexagon_tri","fractal_assignment":["../images/cyn_red.png","../images/blu_wht.png","../images/gry_blk.png","../images/pnk_blu.png","../images/org_blu.png","../images/ylw_slt.png"],"mutagen_generator_assignment":[1,0],"goal":0,"start":5,"action_noise":0,"location_history":"[5,0]","action_history":"[1]","mutagen_history":"[0]","location_rts":"[3534]","trial_type":"fractal-mutation","trial_index":86,"time_elapsed":1051535,"internal_node_id":"0.0-5.0-32.0"},{"group":"hexagon_tri","fractal_assignment":["../images/cyn_red.png","../images/blu_wht.png","../images/gry_blk.png","../images/pnk_blu.png","../images/org_blu.png","../images/ylw_slt.png"],"mutagen_generator_assignment":[1,0],"goal":2,"start":0,"action_noise":0,"location_history":"[0,1,3,2]","action_history":"[1,0,0]","mutagen_history":"[0,1,1]","location_rts":"[8199,565,2113]","trial_type":"fractal-mutation","trial_index":87,"time_elapsed":1070473,"internal_node_id":"0.0-5.0-33.0"},{"group":"hexagon_tri","fractal_assignment":["../images/cyn_red.png","../images/blu_wht.png","../images/gry_blk.png","../images/pnk_blu.png","../images/org_blu.png","../images/ylw_slt.png"],"mutagen_generator_assignment":[1,0],"goal":0,"start":2,"action_noise":0,"location_history":"[2,3,4,0]","action_history":"[1,1,0]","mutagen_history":"[0,0,1]","location_rts":"[10207,646,1359]","trial_type":"fractal-mutation","trial_index":88,"time_elapsed":1090612,"internal_node_id":"0.0-5.0-34.0"},{"group":"hexagon_tri","fractal_assignment":["../images/cyn_red.png","../images/blu_wht.png","../images/gry_blk.png","../images/pnk_blu.png","../images/org_blu.png","../images/ylw_slt.png"],"mutagen_generator_assignment":[1,0],"goal":5,"start":0,"action_noise":0,"location_history":"[0,5]","action_history":"[0]","mutagen_history":"[1]","location_rts":"[2569]","trial_type":"fractal-mutation","trial_index":89,"time_elapsed":1098647,"internal_node_id":"0.0-5.0-35.0"},{"group":"hexagon_tri","fractal_assignment":["../images/cyn_red.png","../images/blu_wht.png","../images/gry_blk.png","../images/pnk_blu.png","../images/org_blu.png","../images/ylw_slt.png"],"mutagen_generator_assignment":[1,0],"goal":1,"start":5,"action_noise":0,"location_history":"[5,0,1]","action_history":"[1,1]","mutagen_history":"[0,0]","location_rts":"[6674,559]","trial_type":"fractal-mutation","trial_index":90,"time_elapsed":1112354,"internal_node_id":"0.0-5.0-36.0"},{"group":"hexagon_tri","fractal_assignment":["../images/cyn_red.png","../images/blu_wht.png","../images/gry_blk.png","../images/pnk_blu.png","../images/org_blu.png","../images/ylw_slt.png"],"mutagen_generator_assignment":[1,0],"goal":4,"start":1,"action_noise":0,"location_history":"[1,3,4]","action_history":"[0,1]","mutagen_history":"[1,0]","location_rts":"[5646,474]","trial_type":"fractal-mutation","trial_index":91,"time_elapsed":1125210,"internal_node_id":"0.0-5.0-37.0"},{"group":"hexagon_tri","fractal_assignment":["../images/cyn_red.png","../images/blu_wht.png","../images/gry_blk.png","../images/pnk_blu.png","../images/org_blu.png","../images/ylw_slt.png"],"mutagen_generator_assignment":[1,0],"goal":3,"start":4,"action_noise":0,"location_history":"[4,2,3]","action_history":"[1,1]","mutagen_history":"[0,0]","location_rts":"[5842,443]","trial_type":"fractal-mutation","trial_index":92,"time_elapsed":1137996,"internal_node_id":"0.0-5.0-38.0"},{"group":"hexagon_tri","fractal_assignment":["../images/cyn_red.png","../images/blu_wht.png","../images/gry_blk.png","../images/pnk_blu.png","../images/org_blu.png","../images/ylw_slt.png"],"mutagen_generator_assignment":[1,0],"goal":5,"start":3,"action_noise":0,"location_history":"[3,4,0,5]","action_history":"[1,0,0]","mutagen_history":"[0,1,1]","location_rts":"[13515,961,3744]","trial_type":"fractal-mutation","trial_index":93,"time_elapsed":1164295,"internal_node_id":"0.0-5.0-39.0"},{"group":"hexagon_tri","fractal_assignment":["../images/cyn_red.png","../images/blu_wht.png","../images/gry_blk.png","../images/pnk_blu.png","../images/org_blu.png","../images/ylw_slt.png"],"mutagen_generator_assignment":[1,0],"goal":1,"start":5,"action_noise":0,"location_history":"[5,0,1]","action_history":"[1,1]","mutagen_history":"[0,0]","location_rts":"[4862,503]","trial_type":"fractal-mutation","trial_index":94,"time_elapsed":1176152,"internal_node_id":"0.0-5.0-40.0"},{"group":"hexagon_tri","fractal_assignment":["../images/cyn_red.png","../images/blu_wht.png","../images/gry_blk.png","../images/pnk_blu.png","../images/org_blu.png","../images/ylw_slt.png"],"mutagen_generator_assignment":[1,0],"goal":2,"start":1,"action_noise":0,"location_history":"[1,3,2]","action_history":"[0,0]","mutagen_history":"[1,1]","location_rts":"[7170,472]","trial_type":"fractal-mutation","trial_index":95,"time_elapsed":1190656,"internal_node_id":"0.0-5.0-41.0"},{"group":"hexagon_tri","fractal_assignment":["../images/cyn_red.png","../images/blu_wht.png","../images/gry_blk.png","../images/pnk_blu.png","../images/org_blu.png","../images/ylw_slt.png"],"mutagen_generator_assignment":[1,0],"goal":4,"start":2,"action_noise":0,"location_history":"[2,3,4]","action_history":"[1,1]","mutagen_history":"[0,0]","location_rts":"[5967,511]","trial_type":"fractal-mutation","trial_index":96,"time_elapsed":1203581,"internal_node_id":"0.0-5.0-42.0"},{"group":"hexagon_tri","fractal_assignment":["../images/cyn_red.png","../images/blu_wht.png","../images/gry_blk.png","../images/pnk_blu.png","../images/org_blu.png","../images/ylw_slt.png"],"mutagen_generator_assignment":[1,0],"goal":0,"start":4,"action_noise":0,"location_history":"[4,0]","action_history":"[0]","mutagen_history":"[1]","location_rts":"[3111]","trial_type":"fractal-mutation","trial_index":97,"time_elapsed":1212141,"internal_node_id":"0.0-5.0-43.0"},{"group":"hexagon_tri","fractal_assignment":["../images/cyn_red.png","../images/blu_wht.png","../images/gry_blk.png","../images/pnk_blu.png","../images/org_blu.png","../images/ylw_slt.png"],"mutagen_generator_assignment":[1,0],"goal":3,"start":0,"action_noise":0,"location_history":"[0,1,3]","action_history":"[1,0]","mutagen_history":"[0,1]","location_rts":"[7515,598]","trial_type":"fractal-mutation","trial_index":98,"time_elapsed":1226902,"internal_node_id":"0.0-5.0-44.0"},{"group":"hexagon_tri","fractal_assignment":["../images/cyn_red.png","../images/blu_wht.png","../images/gry_blk.png","../images/pnk_blu.png","../images/org_blu.png","../images/ylw_slt.png"],"mutagen_generator_assignment":[1,0],"goal":0,"start":3,"action_noise":0,"location_history":"[3,4,0]","action_history":"[1,0]","mutagen_history":"[0,1]","location_rts":"[8047,678]","trial_type":"fractal-mutation","trial_index":99,"time_elapsed":1242248,"internal_node_id":"0.0-5.0-45.0"},{"group":"hexagon_tri","fractal_assignment":["../images/cyn_red.png","../images/blu_wht.png","../images/gry_blk.png","../images/pnk_blu.png","../images/org_blu.png","../images/ylw_slt.png"],"mutagen_generator_assignment":[1,0],"goal":4,"start":0,"action_noise":0,"location_history":"[0,5,4]","action_history":"[0,0]","mutagen_history":"[1,1]","location_rts":"[7698,577]","trial_type":"fractal-mutation","trial_index":100,"time_elapsed":1257413,"internal_node_id":"0.0-5.0-46.0"},{"group":"hexagon_tri","fractal_assignment":["../images/cyn_red.png","../images/blu_wht.png","../images/gry_blk.png","../images/pnk_blu.png","../images/org_blu.png","../images/ylw_slt.png"],"mutagen_generator_assignment":[1,0],"goal":5,"start":4,"action_noise":0,"location_history":"[4,0,5]","action_history":"[0,0]","mutagen_history":"[1,1]","location_rts":"[7140,465]","trial_type":"fractal-mutation","trial_index":101,"time_elapsed":1271836,"internal_node_id":"0.0-5.0-47.0"},{"group":"hexagon_tri","fractal_assignment":["../images/cyn_red.png","../images/blu_wht.png","../images/gry_blk.png","../images/pnk_blu.png","../images/org_blu.png","../images/ylw_slt.png"],"mutagen_generator_assignment":[1,0],"goal":2,"start":5,"action_noise":0,"location_history":"[5,4,2]","action_history":"[0,1]","mutagen_history":"[1,0]","location_rts":"[4490,441]","trial_type":"fractal-mutation","trial_index":102,"time_elapsed":1283410,"internal_node_id":"0.0-5.0-48.0"},{"group":"hexagon_tri","fractal_assignment":["../images/cyn_red.png","../images/blu_wht.png","../images/gry_blk.png","../images/pnk_blu.png","../images/org_blu.png","../images/ylw_slt.png"],"mutagen_generator_assignment":[1,0],"goal":1,"start":2,"action_noise":0,"location_history":"[2,1]","action_history":"[0]","mutagen_history":"[1]","location_rts":"[3675]","trial_type":"fractal-mutation","trial_index":103,"time_elapsed":1292487,"internal_node_id":"0.0-5.0-49.0"},{"view_history":"[{\"page_index\":0,\"viewing_time\":3687}]","rt":3688,"trial_type":"instructions","trial_index":104,"time_elapsed":1297184,"internal_node_id":"0.0-6.0"},{"rt":25401,"responses":"{\"Q0\":\"unsure\"}","trial_type":"survey-text","trial_index":105,"time_elapsed":1323614,"internal_node_id":"0.0-7.0-0.0"},{"rt":8071,"responses":"{\"Q0\":\"unsure\"}","trial_type":"survey-text","trial_index":106,"time_elapsed":1332699,"internal_node_id":"0.0-7.0-1.0"},{"rt":42468,"responses":"{\"Q0\":\"<img src='../images/diagrams/hexagon_tri.png'>\"}","trial_type":"survey-multi-choice","trial_index":107,"time_elapsed":1376190,"internal_node_id":"0.0-7.0-2.0"},{"rt":357513,"assignments":["../images/ylw_slt.png","../images/org_blu.png","../images/pnk_blu.png","../images/gry_blk.png","../images/blu_wht.png","../images/cyn_red.png"],"trial_type":"drag-drop-on-image","trial_index":108,"time_elapsed":1734720,"internal_node_id":"0.0-7.0-3.0"},{"rt":12535,"responses":"{\"Q0\":\"2\"}","trial_type":"survey-likert","trial_index":109,"time_elapsed":1748266,"internal_node_id":"0.0-7.0-4.0"},{"rt":97390,"responses":"{\"Q0\":\"Both involved choosing between two actions to move to a new image. The relationships between each image were fixed.\"}","trial_type":"survey-text","trial_index":110,"time_elapsed":1846663,"internal_node_id":"0.0-7.0-5.0"},{"rt":12735,"responses":"{\"Q0\":\"No\"}","trial_type":"survey-multi-choice","trial_index":111,"time_elapsed":1860419,"internal_node_id":"0.0-7.0-6.0"},{"rt":23607,"responses":"{\"Q0\":\"During these questions/I wasn't aware until you pointed it out\"}","trial_type":"survey-multi-choice","trial_index":112,"time_elapsed":1885047,"internal_node_id":"0.0-7.0-7.0"},{"rt":4825,"responses":"{\"Q0\":\"\"}","trial_type":"survey-text","trial_index":113,"time_elapsed":1890878,"internal_node_id":"0.0-7.0-8.0"},{"rt":15433,"responses":"{\"Q0\":\"1\"}","trial_type":"survey-likert","trial_index":114,"time_elapsed":1907326,"internal_node_id":"0.0-7.0-9.0"},{"rt":9052,"responses":"{\"Q0\":\"Different structure\"}","trial_type":"survey-multi-choice","trial_index":115,"time_elapsed":1917395,"internal_node_id":"0.0-7.0-10.0"},{"rt":130660,"responses":"{\"Q0\":\"left (black) door = ray, right (white) door = acid\",\"Q1\":\"Completely confident\"}","trial_type":"survey-multi-choice","trial_index":116,"time_elapsed":2049092,"internal_node_id":"0.0-7.0-11.0"},{"rt":12313,"responses":"{\"Q0\":\"45-55\",\"Q1\":\"Bachelor's degree\",\"Q2\":\"Female\",\"Q3\":\"White\"}","trial_type":"survey-multi-choice","trial_index":117,"time_elapsed":2062455,"internal_node_id":"0.0-8.0"},{"rt":8211,"responses":"{\"Q0\":\"none\"}","trial_type":"survey-text","trial_index":118,"time_elapsed":2071676,"internal_node_id":"0.0-9.0"}]