[{"view_history":"[{\"page_index\":0,\"viewing_time\":834808},{\"page_index\":1,\"viewing_time\":17742}]","rt":852550,"trial_type":"instructions","trial_index":0,"time_elapsed":852550,"internal_node_id":"0.0-0.0"},{"view_history":"[{\"page_index\":0,\"viewing_time\":926},{\"page_index\":1,\"viewing_time\":888}]","rt":1814,"trial_type":"instructions","trial_index":1,"time_elapsed":855366,"internal_node_id":"0.0-1.0"},{"group":"hexagon_bi","room_assignment":["blue","green","grey","red","yellow","purple"],"door_color_assignment":["black","white"],"door_generator_assignment":[0,1],"goal":2,"start":1,"action_noise":0,"location_history":"[1,2]","action_history":"[0]","door_history":"[0]","location_rts":"[17810]","trial_type":"two-door-navigation","trial_index":2,"time_elapsed":878198,"internal_node_id":"0.0-2.0-0.0"},{"group":"hexagon_bi","room_assignment":["blue","green","grey","red","yellow","purple"],"door_color_assignment":["black","white"],"door_generator_assignment":[0,1],"goal":0,"start":2,"action_noise":0,"location_history":"[2,1,0]","action_history":"[0,1]","door_history":"[0,1]","location_rts":"[3480,660]","trial_type":"two-door-navigation","trial_index":3,"time_elapsed":888372,"internal_node_id":"0.0-2.0-1.0"},{"group":"hexagon_bi","room_assignment":["blue","green","grey","red","yellow","purple"],"door_color_assignment":["black","white"],"door_generator_assignment":[0,1],"goal":5,"start":0,"action_noise":0,"location_history":"[0,5]","action_history":"[0]","door_history":"[0]","location_rts":"[4662]","trial_type":"two-door-navigation","trial_index":4,"time_elapsed":898050,"internal_node_id":"0.0-2.0-2.0"},{"group":"hexagon_bi","room_assignment":["blue","green","grey","red","yellow","purple"],"door_color_assignment":["black","white"],"door_generator_assignment":[0,1],"goal":1,"start":5,"action_noise":0,"location_history":"[5,0,1]","action_history":"[0,1]","door_history":"[0,1]","location_rts":"[5378,868]","trial_type":"two-door-navigation","trial_index":5,"time_elapsed":910326,"internal_node_id":"0.0-2.0-3.0"},{"group":"hexagon_bi","room_assignment":["blue","green","grey","red","yellow","purple"],"door_color_assignment":["black","white"],"door_generator_assignment":[0,1],"goal":3,"start":1,"action_noise":0,"location_history":"[1,2,3]","action_history":"[0,1]","door_history":"[0,1]","location_rts":"[2964,322]","trial_type":"two-door-navigation","trial_index":6,"time_elapsed":919648,"internal_node_id":"0.0-2.0-4.0"},{"group":"hexagon_bi","room_assignment":["blue","green","grey","red","yellow","purple"],"door_color_assignment":["black","white"],"door_generator_assignment":[0,1],"goal":5,"start":3,"action_noise":0,"location_history":"[3,4,5]","action_history":"[0,1]","door_history":"[0,1]","location_rts":"[2010,260]","trial_type":"two-door-navigation","trial_index":7,"time_elapsed":927948,"internal_node_id":"0.0-2.0-5.0"},{"group":"hexagon_bi","room_assignment":["blue","green","grey","red","yellow","purple"],"door_color_assignment":["black","white"],"door_generator_assignment":[0,1],"goal":4,"start":5,"action_noise":0,"location_history":"[5,4]","action_history":"[1]","door_history":"[1]","location_rts":"[2182]","trial_type":"two-door-navigation","trial_index":8,"time_elapsed":935146,"internal_node_id":"0.0-2.0-6.0"},{"group":"hexagon_bi","room_assignment":["blue","green","grey","red","yellow","purple"],"door_color_assignment":["black","white"],"door_generator_assignment":[0,1],"goal":0,"start":4,"action_noise":0,"location_history":"[4,5,0]","action_history":"[1,0]","door_history":"[1,0]","location_rts":"[7650,2162]","trial_type":"two-door-navigation","trial_index":9,"time_elapsed":950988,"internal_node_id":"0.0-2.0-7.0"},{"group":"hexagon_bi","room_assignment":["blue","green","grey","red","yellow","purple"],"door_color_assignment":["black","white"],"door_generator_assignment":[0,1],"goal":2,"start":0,"action_noise":0,"location_history":"[0,1,2]","action_history":"[1,0]","door_history":"[1,0]","location_rts":"[5560,288]","trial_type":"two-door-navigation","trial_index":10,"time_elapsed":962864,"internal_node_id":"0.0-2.0-8.0"},{"group":"hexagon_bi","room_assignment":["blue","green","grey","red","yellow","purple"],"door_color_assignment":["black","white"],"door_generator_assignment":[0,1],"goal":4,"start":2,"action_noise":0,"location_history":"[2,3,4]","action_history":"[1,0]","door_history":"[1,0]","location_rts":"[17686,440]","trial_type":"two-door-navigation","trial_index":11,"time_elapsed":987018,"internal_node_id":"0.0-2.0-9.0"},{"group":"hexagon_bi","room_assignment":["blue","green","grey","red","yellow","purple"],"door_color_assignment":["black","white"],"door_generator_assignment":[0,1],"goal":2,"start":4,"action_noise":0,"location_history":"[4,3,2]","action_history":"[0,1]","door_history":"[0,1]","location_rts":"[2978,396]","trial_type":"two-door-navigation","trial_index":12,"time_elapsed":996420,"internal_node_id":"0.0-2.0-10.0"},{"group":"hexagon_bi","room_assignment":["blue","green","grey","red","yellow","purple"],"door_color_assignment":["black","white"],"door_generator_assignment":[0,1],"goal":3,"start":2,"action_noise":0,"location_history":"[2,3]","action_history":"[1]","door_history":"[1]","location_rts":"[107406]","trial_type":"two-door-navigation","trial_index":13,"time_elapsed":1108848,"internal_node_id":"0.0-2.0-11.0"},{"group":"hexagon_bi","room_assignment":["blue","green","grey","red","yellow","purple"],"door_color_assignment":["black","white"],"door_generator_assignment":[0,1],"goal":0,"start":3,"action_noise":0,"location_history":"[3,2,1,0]","action_history":"[1,0,1]","door_history":"[1,0,1]","location_rts":"[189490,328,976]","trial_type":"two-door-navigation","trial_index":14,"time_elapsed":1306682,"internal_node_id":"0.0-2.0-12.0"},{"group":"hexagon_bi","room_assignment":["blue","green","grey","red","yellow","purple"],"door_color_assignment":["black","white"],"door_generator_assignment":[0,1],"goal":5,"start":0,"action_noise":0,"location_history":"[0,5]","action_history":"[0]","door_history":"[0]","location_rts":"[15582]","trial_type":"two-door-navigation","trial_index":15,"time_elapsed":1327278,"internal_node_id":"0.0-2.0-13.0"},{"group":"hexagon_bi","room_assignment":["blue","green","grey","red","yellow","purple"],"door_color_assignment":["black","white"],"door_generator_assignment":[0,1],"goal":1,"start":5,"action_noise":0,"location_history":"[5,0,1]","action_history":"[0,1]","door_history":"[0,1]","location_rts":"[3838,242]","trial_type":"two-door-navigation","trial_index":16,"time_elapsed":1337388,"internal_node_id":"0.0-2.0-14.0"},{"group":"hexagon_bi","room_assignment":["blue","green","grey","red","yellow","purple"],"door_color_assignment":["black","white"],"door_generator_assignment":[0,1],"goal":5,"start":1,"action_noise":0,"location_history":"[1,0,5]","action_history":"[1,0]","door_history":"[1,0]","location_rts":"[9514,536]","trial_type":"two-door-navigation","trial_index":17,"time_elapsed":1353472,"internal_node_id":"0.0-2.0-15.0"},{"group":"hexagon_bi","room_assignment":["blue","green","grey","red","yellow","purple"],"door_color_assignment":["black","white"],"door_generator_assignment":[0,1],"goal":3,"start":5,"action_noise":0,"location_history":"[5,4,3]","action_history":"[1,0]","door_history":"[1,0]","location_rts":"[644626,324]","trial_type":"two-door-navigation","trial_index":18,"time_elapsed":2004450,"internal_node_id":"0.0-2.0-16.0"},{"group":"hexagon_bi","room_assignment":["blue","green","grey","red","yellow","purple"],"door_color_assignment":["black","white"],"door_generator_assignment":[0,1],"goal":2,"start":3,"action_noise":0,"location_history":"[3,2]","action_history":"[1]","door_history":"[1]","location_rts":"[4182]","trial_type":"two-door-navigation","trial_index":19,"time_elapsed":2013652,"internal_node_id":"0.0-2.0-17.0"},{"group":"hexagon_bi","room_assignment":["blue","green","grey","red","yellow","purple"],"door_color_assignment":["black","white"],"door_generator_assignment":[0,1],"goal":1,"start":2,"action_noise":0,"location_history":"[2,1]","action_history":"[0]","door_history":"[0]","location_rts":"[7268]","trial_type":"two-door-navigation","trial_index":20,"time_elapsed":2025936,"internal_node_id":"0.0-2.0-18.0"},{"group":"hexagon_bi","room_assignment":["blue","green","grey","red","yellow","purple"],"door_color_assignment":["black","white"],"door_generator_assignment":[0,1],"goal":4,"start":1,"action_noise":0,"location_history":"[1,2,3,4]","action_history":"[0,1,0]","door_history":"[0,1,0]","location_rts":"[6522,380,2046]","trial_type":"two-door-navigation","trial_index":21,"time_elapsed":2041922,"internal_node_id":"0.0-2.0-19.0"},{"group":"hexagon_bi","room_assignment":["blue","green","grey","red","yellow","purple"],"door_color_assignment":["black","white"],"door_generator_assignment":[0,1],"goal":0,"start":4,"action_noise":0,"location_history":"[4,5,0]","action_history":"[1,0]","door_history":"[1,0]","location_rts":"[7776,326]","trial_type":"two-door-navigation","trial_index":22,"time_elapsed":2056052,"internal_node_id":"0.0-2.0-20.0"},{"group":"hexagon_bi","room_assignment":["blue","green","grey","red","yellow","purple"],"door_color_assignment":["black","white"],"door_generator_assignment":[0,1],"goal":3,"start":0,"action_noise":0,"location_history":"[0,5,4,3]","action_history":"[0,1,0]","door_history":"[0,1,0]","location_rts":"[14544,216,1338]","trial_type":"two-door-navigation","trial_index":23,"time_elapsed":2079192,"internal_node_id":"0.0-2.0-21.0"},{"group":"hexagon_bi","room_assignment":["blue","green","grey","red","yellow","purple"],"door_color_assignment":["black","white"],"door_generator_assignment":[0,1],"goal":1,"start":3,"action_noise":0,"location_history":"[3,2,1]","action_history":"[1,0]","door_history":"[1,0]","location_rts":"[5700,226]","trial_type":"two-door-navigation","trial_index":24,"time_elapsed":2091144,"internal_node_id":"0.0-2.0-22.0"},{"group":"hexagon_bi","room_assignment":["blue","green","grey","red","yellow","purple"],"door_color_assignment":["black","white"],"door_generator_assignment":[0,1],"goal":0,"start":1,"action_noise":0,"location_history":"[1,0]","action_history":"[1]","door_history":"[1]","location_rts":"[2308]","trial_type":"two-door-navigation","trial_index":25,"time_elapsed":2098470,"internal_node_id":"0.0-2.0-23.0"},{"group":"hexagon_bi","room_assignment":["blue","green","grey","red","yellow","purple"],"door_color_assignment":["black","white"],"door_generator_assignment":[0,1],"goal":2,"start":0,"action_noise":0,"location_history":"[0,1,2]","action_history":"[1,0]","door_history":"[1,0]","location_rts":"[4484,526]","trial_type":"two-door-navigation","trial_index":26,"time_elapsed":2109506,"internal_node_id":"0.0-2.0-24.0"},{"group":"hexagon_bi","room_assignment":["blue","green","grey","red","yellow","purple"],"door_color_assignment":["black","white"],"door_generator_assignment":[0,1],"goal":4,"start":2,"action_noise":0,"location_history":"[2,3,4]","action_history":"[1,0]","door_history":"[1,0]","location_rts":"[6122,484]","trial_type":"two-door-navigation","trial_index":27,"time_elapsed":2122142,"internal_node_id":"0.0-2.0-25.0"},{"group":"hexagon_bi","room_assignment":["blue","green","grey","red","yellow","purple"],"door_color_assignment":["black","white"],"door_generator_assignment":[0,1],"goal":5,"start":4,"action_noise":0,"location_history":"[4,5]","action_history":"[1]","door_history":"[1]","location_rts":"[4254]","trial_type":"two-door-navigation","trial_index":28,"time_elapsed":2131412,"internal_node_id":"0.0-2.0-26.0"},{"group":"hexagon_bi","room_assignment":["blue","green","grey","red","yellow","purple"],"door_color_assignment":["black","white"],"door_generator_assignment":[0,1],"goal":2,"start":5,"action_noise":0,"location_history":"[5,4,3,2]","action_history":"[1,0,1]","door_history":"[1,0,1]","location_rts":"[26150,1424,740]","trial_type":"two-door-navigation","trial_index":29,"time_elapsed":2166764,"internal_node_id":"0.0-2.0-27.0"},{"group":"hexagon_bi","room_assignment":["blue","green","grey","red","yellow","purple"],"door_color_assignment":["black","white"],"door_generator_assignment":[0,1],"goal":3,"start":2,"action_noise":0,"location_history":"[2,3]","action_history":"[1]","door_history":"[1]","location_rts":"[6928]","trial_type":"two-door-navigation","trial_index":30,"time_elapsed":2178708,"internal_node_id":"0.0-2.0-28.0"},{"group":"hexagon_bi","room_assignment":["blue","green","grey","red","yellow","purple"],"door_color_assignment":["black","white"],"door_generator_assignment":[0,1],"goal":1,"start":3,"action_noise":0,"location_history":"[3,2,1]","action_history":"[1,0]","door_history":"[1,0]","location_rts":"[3432,258]","trial_type":"two-door-navigation","trial_index":31,"time_elapsed":2188426,"internal_node_id":"0.0-2.0-29.0"},{"group":"hexagon_bi","room_assignment":["blue","green","grey","red","yellow","purple"],"door_color_assignment":["black","white"],"door_generator_assignment":[0,1],"goal":4,"start":1,"action_noise":0,"location_history":"[1,2,3,4]","action_history":"[0,1,0]","door_history":"[0,1,0]","location_rts":"[5968,7772,156]","trial_type":"two-door-navigation","trial_index":32,"time_elapsed":2209360,"internal_node_id":"0.0-2.0-30.0"},{"group":"hexagon_bi","room_assignment":["blue","green","grey","red","yellow","purple"],"door_color_assignment":["black","white"],"door_generator_assignment":[0,1],"goal":5,"start":4,"action_noise":0,"location_history":"[4,5]","action_history":"[1]","door_history":"[1]","location_rts":"[9932]","trial_type":"two-door-navigation","trial_index":33,"time_elapsed":2224306,"internal_node_id":"0.0-2.0-31.0"},{"group":"hexagon_bi","room_assignment":["blue","green","grey","red","yellow","purple"],"door_color_assignment":["black","white"],"door_generator_assignment":[0,1],"goal":0,"start":5,"action_noise":0,"location_history":"[5,0]","action_history":"[0]","door_history":"[0]","location_rts":"[10160]","trial_type":"two-door-navigation","trial_index":34,"time_elapsed":2239482,"internal_node_id":"0.0-2.0-32.0"},{"group":"hexagon_bi","room_assignment":["blue","green","grey","red","yellow","purple"],"door_color_assignment":["black","white"],"door_generator_assignment":[0,1],"goal":2,"start":0,"action_noise":0,"location_history":"[0,1,2]","action_history":"[1,0]","door_history":"[1,0]","location_rts":"[8848,656]","trial_type":"two-door-navigation","trial_index":35,"time_elapsed":2255012,"internal_node_id":"0.0-2.0-33.0"},{"group":"hexagon_bi","room_assignment":["blue","green","grey","red","yellow","purple"],"door_color_assignment":["black","white"],"door_generator_assignment":[0,1],"goal":0,"start":2,"action_noise":0,"location_history":"[2,1,0]","action_history":"[0,1]","door_history":"[0,1]","location_rts":"[9840,316]","trial_type":"two-door-navigation","trial_index":36,"time_elapsed":2271190,"internal_node_id":"0.0-2.0-34.0"},{"group":"hexagon_bi","room_assignment":["blue","green","grey","red","yellow","purple"],"door_color_assignment":["black","white"],"door_generator_assignment":[0,1],"goal":5,"start":0,"action_noise":0,"location_history":"[0,5]","action_history":"[0]","door_history":"[0]","location_rts":"[13996]","trial_type":"two-door-navigation","trial_index":37,"time_elapsed":2290200,"internal_node_id":"0.0-2.0-35.0"},{"group":"hexagon_bi","room_assignment":["blue","green","grey","red","yellow","purple"],"door_color_assignment":["black","white"],"door_generator_assignment":[0,1],"goal":1,"start":5,"action_noise":0,"location_history":"[5,0,1]","action_history":"[0,1]","door_history":"[0,1]","location_rts":"[3468,164]","trial_type":"two-door-navigation","trial_index":38,"time_elapsed":2299860,"internal_node_id":"0.0-2.0-36.0"},{"group":"hexagon_bi","room_assignment":["blue","green","grey","red","yellow","purple"],"door_color_assignment":["black","white"],"door_generator_assignment":[0,1],"goal":4,"start":1,"action_noise":0,"location_history":"[1,0,5,4]","action_history":"[1,0,1]","door_history":"[1,0,1]","location_rts":"[10472,204,140]","trial_type":"two-door-navigation","trial_index":39,"time_elapsed":2317710,"internal_node_id":"0.0-2.0-37.0"},{"group":"hexagon_bi","room_assignment":["blue","green","grey","red","yellow","purple"],"door_color_assignment":["black","white"],"door_generator_assignment":[0,1],"goal":3,"start":4,"action_noise":0,"location_history":"[4,3]","action_history":"[0]","door_history":"[0]","location_rts":"[2348]","trial_type":"two-door-navigation","trial_index":40,"time_elapsed":2325072,"internal_node_id":"0.0-2.0-38.0"},{"group":"hexagon_bi","room_assignment":["blue","green","grey","red","yellow","purple"],"door_color_assignment":["black","white"],"door_generator_assignment":[0,1],"goal":5,"start":3,"action_noise":0,"location_history":"[3,4,5]","action_history":"[0,1]","door_history":"[0,1]","location_rts":"[4036,64]","trial_type":"two-door-navigation","trial_index":41,"time_elapsed":2335202,"internal_node_id":"0.0-2.0-39.0"},{"group":"hexagon_bi","room_assignment":["blue","green","grey","red","yellow","purple"],"door_color_assignment":["black","white"],"door_generator_assignment":[0,1],"goal":1,"start":5,"action_noise":0,"location_history":"[5,0,1]","action_history":"[0,1]","door_history":"[0,1]","location_rts":"[2778,274]","trial_type":"two-door-navigation","trial_index":42,"time_elapsed":2344284,"internal_node_id":"0.0-2.0-40.0"},{"group":"hexagon_bi","room_assignment":["blue","green","grey","red","yellow","purple"],"door_color_assignment":["black","white"],"door_generator_assignment":[0,1],"goal":2,"start":1,"action_noise":0,"location_history":"[1,2]","action_history":"[0]","door_history":"[0]","location_rts":"[2142]","trial_type":"two-door-navigation","trial_index":43,"time_elapsed":2351442,"internal_node_id":"0.0-2.0-41.0"},{"group":"hexagon_bi","room_assignment":["blue","green","grey","red","yellow","purple"],"door_color_assignment":["black","white"],"door_generator_assignment":[0,1],"goal":4,"start":2,"action_noise":0,"location_history":"[2,3,4]","action_history":"[1,0]","door_history":"[1,0]","location_rts":"[5436,314]","trial_type":"two-door-navigation","trial_index":44,"time_elapsed":2363216,"internal_node_id":"0.0-2.0-42.0"},{"group":"hexagon_bi","room_assignment":["blue","green","grey","red","yellow","purple"],"door_color_assignment":["black","white"],"door_generator_assignment":[0,1],"goal":0,"start":4,"action_noise":0,"location_history":"[4,5,0]","action_history":"[1,0]","door_history":"[1,0]","location_rts":"[4188,1546]","trial_type":"two-door-navigation","trial_index":45,"time_elapsed":2374974,"internal_node_id":"0.0-2.0-43.0"},{"group":"hexagon_bi","room_assignment":["blue","green","grey","red","yellow","purple"],"door_color_assignment":["black","white"],"door_generator_assignment":[0,1],"goal":3,"start":0,"action_noise":0,"location_history":"[0,5,4,3]","action_history":"[0,1,0]","door_history":"[0,1,0]","location_rts":"[26276,252,808]","trial_type":"two-door-navigation","trial_index":46,"time_elapsed":2409352,"internal_node_id":"0.0-2.0-44.0"},{"group":"hexagon_bi","room_assignment":["blue","green","grey","red","yellow","purple"],"door_color_assignment":["black","white"],"door_generator_assignment":[0,1],"goal":0,"start":3,"action_noise":0,"location_history":"[3,2,1,0]","action_history":"[1,0,1]","door_history":"[1,0,1]","location_rts":"[7324,232,300]","trial_type":"two-door-navigation","trial_index":47,"time_elapsed":2424244,"internal_node_id":"0.0-2.0-45.0"},{"group":"hexagon_bi","room_assignment":["blue","green","grey","red","yellow","purple"],"door_color_assignment":["black","white"],"door_generator_assignment":[0,1],"goal":4,"start":0,"action_noise":0,"location_history":"[0,5,4]","action_history":"[0,1]","door_history":"[0,1]","location_rts":"[6358,260]","trial_type":"two-door-navigation","trial_index":48,"time_elapsed":2436888,"internal_node_id":"0.0-2.0-46.0"},{"group":"hexagon_bi","room_assignment":["blue","green","grey","red","yellow","purple"],"door_color_assignment":["black","white"],"door_generator_assignment":[0,1],"goal":5,"start":4,"action_noise":0,"location_history":"[4,5]","action_history":"[1]","door_history":"[1]","location_rts":"[1938]","trial_type":"two-door-navigation","trial_index":49,"time_elapsed":2443840,"internal_node_id":"0.0-2.0-47.0"},{"group":"hexagon_bi","room_assignment":["blue","green","grey","red","yellow","purple"],"door_color_assignment":["black","white"],"door_generator_assignment":[0,1],"goal":2,"start":5,"action_noise":0,"location_history":"[5,4,3,2]","action_history":"[1,0,1]","door_history":"[1,0,1]","location_rts":"[15266,828,2030]","trial_type":"two-door-navigation","trial_index":50,"time_elapsed":2469004,"internal_node_id":"0.0-2.0-48.0"},{"group":"hexagon_bi","room_assignment":["blue","green","grey","red","yellow","purple"],"door_color_assignment":["black","white"],"door_generator_assignment":[0,1],"goal":1,"start":2,"action_noise":0,"location_history":"[2,1]","action_history":"[0]","door_history":"[0]","location_rts":"[7902]","trial_type":"two-door-navigation","trial_index":51,"time_elapsed":2481916,"internal_node_id":"0.0-2.0-49.0"},{"view_history":"[{\"page_index\":0,\"viewing_time\":798}]","rt":800,"trial_type":"instructions","trial_index":52,"time_elapsed":2483718,"internal_node_id":"0.0-3.0"},{"view_history":"[{\"page_index\":0,\"viewing_time\":4798},{\"page_index\":1,\"viewing_time\":7104}]","rt":11902,"trial_type":"instructions","trial_index":53,"time_elapsed":2496620,"internal_node_id":"0.0-4.0"},{"group":"hexagon_tri","fractal_assignment":["../images/cyn_red.png","../images/blu_wht.png","../images/gry_blk.png","../images/ylw_slt.png","../images/pnk_blu.png","../images/org_blu.png"],"mutagen_generator_assignment":[1,0],"goal":2,"start":1,"action_noise":0,"location_history":"[1,3,4,2]","action_history":"[0,1,1]","mutagen_history":"[1,0,0]","location_rts":"[2294,604,368]","trial_type":"fractal-mutation","trial_index":54,"time_elapsed":2506966,"internal_node_id":"0.0-5.0-0.0"},{"group":"hexagon_tri","fractal_assignment":["../images/cyn_red.png","../images/blu_wht.png","../images/gry_blk.png","../images/ylw_slt.png","../images/pnk_blu.png","../images/org_blu.png"],"mutagen_generator_assignment":[1,0],"goal":0,"start":2,"action_noise":0,"location_history":"[2,1,5,0]","action_history":"[0,1,1]","mutagen_history":"[1,0,0]","location_rts":"[2550,490,596]","trial_type":"fractal-mutation","trial_index":55,"time_elapsed":2517676,"internal_node_id":"0.0-5.0-1.0"},{"group":"hexagon_tri","fractal_assignment":["../images/cyn_red.png","../images/blu_wht.png","../images/gry_blk.png","../images/ylw_slt.png","../images/pnk_blu.png","../images/org_blu.png"],"mutagen_generator_assignment":[1,0],"goal":5,"start":0,"action_noise":0,"location_history":"[0,1,5]","action_history":"[1,1]","mutagen_history":"[0,0]","location_rts":"[1740,494]","trial_type":"fractal-mutation","trial_index":56,"time_elapsed":2525956,"internal_node_id":"0.0-5.0-2.0"},{"group":"hexagon_tri","fractal_assignment":["../images/cyn_red.png","../images/blu_wht.png","../images/gry_blk.png","../images/ylw_slt.png","../images/pnk_blu.png","../images/org_blu.png"],"mutagen_generator_assignment":[1,0],"goal":1,"start":5,"action_noise":0,"location_history":"[5,0,1]","action_history":"[1,1]","mutagen_history":"[0,0]","location_rts":"[1318,488]","trial_type":"fractal-mutation","trial_index":57,"time_elapsed":2533810,"internal_node_id":"0.0-5.0-3.0"},{"group":"hexagon_tri","fractal_assignment":["../images/cyn_red.png","../images/blu_wht.png","../images/gry_blk.png","../images/ylw_slt.png","../images/pnk_blu.png","../images/org_blu.png"],"mutagen_generator_assignment":[1,0],"goal":3,"start":1,"action_noise":0,"location_history":"[1,3]","action_history":"[0]","mutagen_history":"[1]","location_rts":"[1314]","trial_type":"fractal-mutation","trial_index":58,"time_elapsed":2540156,"internal_node_id":"0.0-5.0-4.0"},{"group":"hexagon_tri","fractal_assignment":["../images/cyn_red.png","../images/blu_wht.png","../images/gry_blk.png","../images/ylw_slt.png","../images/pnk_blu.png","../images/org_blu.png"],"mutagen_generator_assignment":[1,0],"goal":5,"start":3,"action_noise":0,"location_history":"[3,2,1,5]","action_history":"[0,0,1]","mutagen_history":"[1,1,0]","location_rts":"[2098,1954,520]","trial_type":"fractal-mutation","trial_index":59,"time_elapsed":2551808,"internal_node_id":"0.0-5.0-5.0"},{"group":"hexagon_tri","fractal_assignment":["../images/cyn_red.png","../images/blu_wht.png","../images/gry_blk.png","../images/ylw_slt.png","../images/pnk_blu.png","../images/org_blu.png"],"mutagen_generator_assignment":[1,0],"goal":4,"start":5,"action_noise":0,"location_history":"[5,4]","action_history":"[0]","mutagen_history":"[1]","location_rts":"[1766]","trial_type":"fractal-mutation","trial_index":60,"time_elapsed":2558602,"internal_node_id":"0.0-5.0-6.0"},{"group":"hexagon_tri","fractal_assignment":["../images/cyn_red.png","../images/blu_wht.png","../images/gry_blk.png","../images/ylw_slt.png","../images/pnk_blu.png","../images/org_blu.png"],"mutagen_generator_assignment":[1,0],"goal":0,"start":4,"action_noise":0,"location_history":"[4,0]","action_history":"[0]","mutagen_history":"[1]","location_rts":"[1156]","trial_type":"fractal-mutation","trial_index":61,"time_elapsed":2564788,"internal_node_id":"0.0-5.0-7.0"},{"group":"hexagon_tri","fractal_assignment":["../images/cyn_red.png","../images/blu_wht.png","../images/gry_blk.png","../images/ylw_slt.png","../images/pnk_blu.png","../images/org_blu.png"],"mutagen_generator_assignment":[1,0],"goal":2,"start":0,"action_noise":0,"location_history":"[0,5,4,2]","action_history":"[0,0,1]","mutagen_history":"[1,1,0]","location_rts":"[2460,722,648]","trial_type":"fractal-mutation","trial_index":62,"time_elapsed":2575698,"internal_node_id":"0.0-5.0-8.0"},{"group":"hexagon_tri","fractal_assignment":["../images/cyn_red.png","../images/blu_wht.png","../images/gry_blk.png","../images/ylw_slt.png","../images/pnk_blu.png","../images/org_blu.png"],"mutagen_generator_assignment":[1,0],"goal":4,"start":2,"action_noise":0,"location_history":"[2,3,4]","action_history":"[1,1]","mutagen_history":"[0,0]","location_rts":"[9264,1226]","trial_type":"fractal-mutation","trial_index":63,"time_elapsed":2592238,"internal_node_id":"0.0-5.0-9.0"},{"group":"hexagon_tri","fractal_assignment":["../images/cyn_red.png","../images/blu_wht.png","../images/gry_blk.png","../images/ylw_slt.png","../images/pnk_blu.png","../images/org_blu.png"],"mutagen_generator_assignment":[1,0],"goal":2,"start":4,"action_noise":0,"location_history":"[4,2]","action_history":"[1]","mutagen_history":"[0]","location_rts":"[5990]","trial_type":"fractal-mutation","trial_index":64,"time_elapsed":2603256,"internal_node_id":"0.0-5.0-10.0"},{"group":"hexagon_tri","fractal_assignment":["../images/cyn_red.png","../images/blu_wht.png","../images/gry_blk.png","../images/ylw_slt.png","../images/pnk_blu.png","../images/org_blu.png"],"mutagen_generator_assignment":[1,0],"goal":3,"start":2,"action_noise":0,"location_history":"[2,3]","action_history":"[1]","mutagen_history":"[0]","location_rts":"[1028]","trial_type":"fractal-mutation","trial_index":65,"time_elapsed":2609308,"internal_node_id":"0.0-5.0-11.0"},{"group":"hexagon_tri","fractal_assignment":["../images/cyn_red.png","../images/blu_wht.png","../images/gry_blk.png","../images/ylw_slt.png","../images/pnk_blu.png","../images/org_blu.png"],"mutagen_generator_assignment":[1,0],"goal":0,"start":3,"action_noise":0,"location_history":"[3,2,1,5,0]","action_history":"[0,0,1,1]","mutagen_history":"[1,1,0,0]","location_rts":"[2614,4366,2694,402]","trial_type":"fractal-mutation","trial_index":66,"time_elapsed":2627476,"internal_node_id":"0.0-5.0-12.0"},{"group":"hexagon_tri","fractal_assignment":["../images/cyn_red.png","../images/blu_wht.png","../images/gry_blk.png","../images/ylw_slt.png","../images/pnk_blu.png","../images/org_blu.png"],"mutagen_generator_assignment":[1,0],"goal":5,"start":0,"action_noise":0,"location_history":"[0,1,5]","action_history":"[1,1]","mutagen_history":"[0,0]","location_rts":"[1748,756]","trial_type":"fractal-mutation","trial_index":67,"time_elapsed":2636028,"internal_node_id":"0.0-5.0-13.0"},{"group":"hexagon_tri","fractal_assignment":["../images/cyn_red.png","../images/blu_wht.png","../images/gry_blk.png","../images/ylw_slt.png","../images/pnk_blu.png","../images/org_blu.png"],"mutagen_generator_assignment":[1,0],"goal":1,"start":5,"action_noise":0,"location_history":"[5,0,1]","action_history":"[1,1]","mutagen_history":"[0,0]","location_rts":"[1060,972]","trial_type":"fractal-mutation","trial_index":68,"time_elapsed":2644104,"internal_node_id":"0.0-5.0-14.0"},{"group":"hexagon_tri","fractal_assignment":["../images/cyn_red.png","../images/blu_wht.png","../images/gry_blk.png","../images/ylw_slt.png","../images/pnk_blu.png","../images/org_blu.png"],"mutagen_generator_assignment":[1,0],"goal":5,"start":1,"action_noise":0,"location_history":"[1,5]","action_history":"[1]","mutagen_history":"[0]","location_rts":"[5070]","trial_type":"fractal-mutation","trial_index":69,"time_elapsed":2654196,"internal_node_id":"0.0-5.0-15.0"},{"group":"hexagon_tri","fractal_assignment":["../images/cyn_red.png","../images/blu_wht.png","../images/gry_blk.png","../images/ylw_slt.png","../images/pnk_blu.png","../images/org_blu.png"],"mutagen_generator_assignment":[1,0],"goal":3,"start":5,"action_noise":0,"location_history":"[5,4,2,3]","action_history":"[0,1,1]","mutagen_history":"[1,0,0]","location_rts":"[1124,774,736]","trial_type":"fractal-mutation","trial_index":70,"time_elapsed":2663898,"internal_node_id":"0.0-5.0-16.0"},{"group":"hexagon_tri","fractal_assignment":["../images/cyn_red.png","../images/blu_wht.png","../images/gry_blk.png","../images/ylw_slt.png","../images/pnk_blu.png","../images/org_blu.png"],"mutagen_generator_assignment":[1,0],"goal":2,"start":3,"action_noise":0,"location_history":"[3,4,2]","action_history":"[1,1]","mutagen_history":"[0,0]","location_rts":"[1622,324]","trial_type":"fractal-mutation","trial_index":71,"time_elapsed":2671888,"internal_node_id":"0.0-5.0-17.0"},{"group":"hexagon_tri","fractal_assignment":["../images/cyn_red.png","../images/blu_wht.png","../images/gry_blk.png","../images/ylw_slt.png","../images/pnk_blu.png","../images/org_blu.png"],"mutagen_generator_assignment":[1,0],"goal":1,"start":2,"action_noise":0,"location_history":"[2,1]","action_history":"[0]","mutagen_history":"[1]","location_rts":"[1418]","trial_type":"fractal-mutation","trial_index":72,"time_elapsed":2678332,"internal_node_id":"0.0-5.0-18.0"},{"group":"hexagon_tri","fractal_assignment":["../images/cyn_red.png","../images/blu_wht.png","../images/gry_blk.png","../images/ylw_slt.png","../images/pnk_blu.png","../images/org_blu.png"],"mutagen_generator_assignment":[1,0],"goal":4,"start":1,"action_noise":0,"location_history":"[1,3,4]","action_history":"[0,1]","mutagen_history":"[1,0]","location_rts":"[6578,710]","trial_type":"fractal-mutation","trial_index":73,"time_elapsed":2691668,"internal_node_id":"0.0-5.0-19.0"},{"group":"hexagon_tri","fractal_assignment":["../images/cyn_red.png","../images/blu_wht.png","../images/gry_blk.png","../images/ylw_slt.png","../images/pnk_blu.png","../images/org_blu.png"],"mutagen_generator_assignment":[1,0],"goal":0,"start":4,"action_noise":0,"location_history":"[4,0]","action_history":"[0]","mutagen_history":"[1]","location_rts":"[1140]","trial_type":"fractal-mutation","trial_index":74,"time_elapsed":2697836,"internal_node_id":"0.0-5.0-20.0"},{"group":"hexagon_tri","fractal_assignment":["../images/cyn_red.png","../images/blu_wht.png","../images/gry_blk.png","../images/ylw_slt.png","../images/pnk_blu.png","../images/org_blu.png"],"mutagen_generator_assignment":[1,0],"goal":3,"start":0,"action_noise":0,"location_history":"[0,1,3]","action_history":"[1,0]","mutagen_history":"[0,1]","location_rts":"[5044,506]","trial_type":"fractal-mutation","trial_index":75,"time_elapsed":2709436,"internal_node_id":"0.0-5.0-21.0"},{"group":"hexagon_tri","fractal_assignment":["../images/cyn_red.png","../images/blu_wht.png","../images/gry_blk.png","../images/ylw_slt.png","../images/pnk_blu.png","../images/org_blu.png"],"mutagen_generator_assignment":[1,0],"goal":1,"start":3,"action_noise":0,"location_history":"[3,2,1]","action_history":"[0,0]","mutagen_history":"[1,1]","location_rts":"[4046,1070]","trial_type":"fractal-mutation","trial_index":76,"time_elapsed":2720606,"internal_node_id":"0.0-5.0-22.0"},{"group":"hexagon_tri","fractal_assignment":["../images/cyn_red.png","../images/blu_wht.png","../images/gry_blk.png","../images/ylw_slt.png","../images/pnk_blu.png","../images/org_blu.png"],"mutagen_generator_assignment":[1,0],"goal":0,"start":1,"action_noise":0,"location_history":"[1,5,0]","action_history":"[1,1]","mutagen_history":"[0,0]","location_rts":"[1384,558]","trial_type":"fractal-mutation","trial_index":77,"time_elapsed":2728588,"internal_node_id":"0.0-5.0-23.0"},{"group":"hexagon_tri","fractal_assignment":["../images/cyn_red.png","../images/blu_wht.png","../images/gry_blk.png","../images/ylw_slt.png","../images/pnk_blu.png","../images/org_blu.png"],"mutagen_generator_assignment":[1,0],"goal":2,"start":0,"action_noise":0,"location_history":"[0,5,4,2]","action_history":"[0,0,1]","mutagen_history":"[1,1,0]","location_rts":"[11338,12826,1562]","trial_type":"fractal-mutation","trial_index":78,"time_elapsed":2761386,"internal_node_id":"0.0-5.0-24.0"},{"group":"hexagon_tri","fractal_assignment":["../images/cyn_red.png","../images/blu_wht.png","../images/gry_blk.png","../images/ylw_slt.png","../images/pnk_blu.png","../images/org_blu.png"],"mutagen_generator_assignment":[1,0],"goal":4,"start":2,"action_noise":0,"location_history":"[2,3,4]","action_history":"[1,1]","mutagen_history":"[0,0]","location_rts":"[1344,420]","trial_type":"fractal-mutation","trial_index":79,"time_elapsed":2769196,"internal_node_id":"0.0-5.0-25.0"},{"group":"hexagon_tri","fractal_assignment":["../images/cyn_red.png","../images/blu_wht.png","../images/gry_blk.png","../images/ylw_slt.png","../images/pnk_blu.png","../images/org_blu.png"],"mutagen_generator_assignment":[1,0],"goal":5,"start":4,"action_noise":0,"location_history":"[4,0,1,5]","action_history":"[0,1,1]","mutagen_history":"[1,0,0]","location_rts":"[828,748,364]","trial_type":"fractal-mutation","trial_index":80,"time_elapsed":2778202,"internal_node_id":"0.0-5.0-26.0"},{"group":"hexagon_tri","fractal_assignment":["../images/cyn_red.png","../images/blu_wht.png","../images/gry_blk.png","../images/ylw_slt.png","../images/pnk_blu.png","../images/org_blu.png"],"mutagen_generator_assignment":[1,0],"goal":2,"start":5,"action_noise":0,"location_history":"[5,4,2]","action_history":"[0,1]","mutagen_history":"[1,0]","location_rts":"[3138,560]","trial_type":"fractal-mutation","trial_index":81,"time_elapsed":2787944,"internal_node_id":"0.0-5.0-27.0"},{"group":"hexagon_tri","fractal_assignment":["../images/cyn_red.png","../images/blu_wht.png","../images/gry_blk.png","../images/ylw_slt.png","../images/pnk_blu.png","../images/org_blu.png"],"mutagen_generator_assignment":[1,0],"goal":3,"start":2,"action_noise":0,"location_history":"[2,3]","action_history":"[1]","mutagen_history":"[0]","location_rts":"[896]","trial_type":"fractal-mutation","trial_index":82,"time_elapsed":2793864,"internal_node_id":"0.0-5.0-28.0"},{"group":"hexagon_tri","fractal_assignment":["../images/cyn_red.png","../images/blu_wht.png","../images/gry_blk.png","../images/ylw_slt.png","../images/pnk_blu.png","../images/org_blu.png"],"mutagen_generator_assignment":[1,0],"goal":1,"start":3,"action_noise":0,"location_history":"[3,2,1]","action_history":"[0,0]","mutagen_history":"[1,1]","location_rts":"[48842,760]","trial_type":"fractal-mutation","trial_index":83,"time_elapsed":2849518,"internal_node_id":"0.0-5.0-29.0"},{"group":"hexagon_tri","fractal_assignment":["../images/cyn_red.png","../images/blu_wht.png","../images/gry_blk.png","../images/ylw_slt.png","../images/pnk_blu.png","../images/org_blu.png"],"mutagen_generator_assignment":[1,0],"goal":4,"start":1,"action_noise":0,"location_history":"[1,3,4]","action_history":"[0,1]","mutagen_history":"[1,0]","location_rts":"[3834,2614]","trial_type":"fractal-mutation","trial_index":84,"time_elapsed":2862014,"internal_node_id":"0.0-5.0-30.0"},{"group":"hexagon_tri","fractal_assignment":["../images/cyn_red.png","../images/blu_wht.png","../images/gry_blk.png","../images/ylw_slt.png","../images/pnk_blu.png","../images/org_blu.png"],"mutagen_generator_assignment":[1,0],"goal":5,"start":4,"action_noise":0,"location_history":"[4,0,1,5]","action_history":"[0,1,1]","mutagen_history":"[1,0,0]","location_rts":"[1716,594,608]","trial_type":"fractal-mutation","trial_index":85,"time_elapsed":2871998,"internal_node_id":"0.0-5.0-31.0"},{"group":"hexagon_tri","fractal_assignment":["../images/cyn_red.png","../images/blu_wht.png","../images/gry_blk.png","../images/ylw_slt.png","../images/pnk_blu.png","../images/org_blu.png"],"mutagen_generator_assignment":[1,0],"goal":0,"start":5,"action_noise":0,"location_history":"[5,0]","action_history":"[1]","mutagen_history":"[0]","location_rts":"[1052]","trial_type":"fractal-mutation","trial_index":86,"time_elapsed":2878076,"internal_node_id":"0.0-5.0-32.0"},{"group":"hexagon_tri","fractal_assignment":["../images/cyn_red.png","../images/blu_wht.png","../images/gry_blk.png","../images/ylw_slt.png","../images/pnk_blu.png","../images/org_blu.png"],"mutagen_generator_assignment":[1,0],"goal":2,"start":0,"action_noise":0,"location_history":"[0,5,4,2]","action_history":"[0,0,1]","mutagen_history":"[1,1,0]","location_rts":"[13982,1352,452]","trial_type":"fractal-mutation","trial_index":87,"time_elapsed":2900936,"internal_node_id":"0.0-5.0-33.0"},{"group":"hexagon_tri","fractal_assignment":["../images/cyn_red.png","../images/blu_wht.png","../images/gry_blk.png","../images/ylw_slt.png","../images/pnk_blu.png","../images/org_blu.png"],"mutagen_generator_assignment":[1,0],"goal":0,"start":2,"action_noise":0,"location_history":"[2,1,5,0]","action_history":"[0,1,1]","mutagen_history":"[1,0,0]","location_rts":"[1500,4002,186]","trial_type":"fractal-mutation","trial_index":88,"time_elapsed":2913702,"internal_node_id":"0.0-5.0-34.0"},{"group":"hexagon_tri","fractal_assignment":["../images/cyn_red.png","../images/blu_wht.png","../images/gry_blk.png","../images/ylw_slt.png","../images/pnk_blu.png","../images/org_blu.png"],"mutagen_generator_assignment":[1,0],"goal":5,"start":0,"action_noise":0,"location_history":"[0,5]","action_history":"[0]","mutagen_history":"[1]","location_rts":"[3196]","trial_type":"fractal-mutation","trial_index":89,"time_elapsed":2921924,"internal_node_id":"0.0-5.0-35.0"},{"group":"hexagon_tri","fractal_assignment":["../images/cyn_red.png","../images/blu_wht.png","../images/gry_blk.png","../images/ylw_slt.png","../images/pnk_blu.png","../images/org_blu.png"],"mutagen_generator_assignment":[1,0],"goal":1,"start":5,"action_noise":0,"location_history":"[5,0,1]","action_history":"[1,1]","mutagen_history":"[0,0]","location_rts":"[2990,9864]","trial_type":"fractal-mutation","trial_index":90,"time_elapsed":2940824,"internal_node_id":"0.0-5.0-36.0"},{"group":"hexagon_tri","fractal_assignment":["../images/cyn_red.png","../images/blu_wht.png","../images/gry_blk.png","../images/ylw_slt.png","../images/pnk_blu.png","../images/org_blu.png"],"mutagen_generator_assignment":[1,0],"goal":4,"start":1,"action_noise":0,"location_history":"[1,3,4]","action_history":"[0,1]","mutagen_history":"[1,0]","location_rts":"[2848,2866]","trial_type":"fractal-mutation","trial_index":91,"time_elapsed":2952584,"internal_node_id":"0.0-5.0-37.0"},{"group":"hexagon_tri","fractal_assignment":["../images/cyn_red.png","../images/blu_wht.png","../images/gry_blk.png","../images/ylw_slt.png","../images/pnk_blu.png","../images/org_blu.png"],"mutagen_generator_assignment":[1,0],"goal":3,"start":4,"action_noise":0,"location_history":"[4,2,3]","action_history":"[1,1]","mutagen_history":"[0,0]","location_rts":"[6408,546]","trial_type":"fractal-mutation","trial_index":92,"time_elapsed":2965580,"internal_node_id":"0.0-5.0-38.0"},{"group":"hexagon_tri","fractal_assignment":["../images/cyn_red.png","../images/blu_wht.png","../images/gry_blk.png","../images/ylw_slt.png","../images/pnk_blu.png","../images/org_blu.png"],"mutagen_generator_assignment":[1,0],"goal":5,"start":3,"action_noise":0,"location_history":"[3,2,3,4,0,1,5]","action_history":"[0,1,1,0,1,1]","mutagen_history":"[1,0,0,1,0,0]","location_rts":"[2666,748,680,114,466,318]","trial_type":"fractal-mutation","trial_index":93,"time_elapsed":2980694,"internal_node_id":"0.0-5.0-39.0"},{"group":"hexagon_tri","fractal_assignment":["../images/cyn_red.png","../images/blu_wht.png","../images/gry_blk.png","../images/ylw_slt.png","../images/pnk_blu.png","../images/org_blu.png"],"mutagen_generator_assignment":[1,0],"goal":1,"start":5,"action_noise":0,"location_history":"[5,0,1]","action_history":"[1,1]","mutagen_history":"[0,0]","location_rts":"[3506,386]","trial_type":"fractal-mutation","trial_index":94,"time_elapsed":2990628,"internal_node_id":"0.0-5.0-40.0"},{"group":"hexagon_tri","fractal_assignment":["../images/cyn_red.png","../images/blu_wht.png","../images/gry_blk.png","../images/ylw_slt.png","../images/pnk_blu.png","../images/org_blu.png"],"mutagen_generator_assignment":[1,0],"goal":2,"start":1,"action_noise":0,"location_history":"[1,3,4,2]","action_history":"[0,1,1]","mutagen_history":"[1,0,0]","location_rts":"[2550,1306,354]","trial_type":"fractal-mutation","trial_index":95,"time_elapsed":3001908,"internal_node_id":"0.0-5.0-41.0"},{"group":"hexagon_tri","fractal_assignment":["../images/cyn_red.png","../images/blu_wht.png","../images/gry_blk.png","../images/ylw_slt.png","../images/pnk_blu.png","../images/org_blu.png"],"mutagen_generator_assignment":[1,0],"goal":4,"start":2,"action_noise":0,"location_history":"[2,3,4]","action_history":"[1,1]","mutagen_history":"[0,0]","location_rts":"[2512,340]","trial_type":"fractal-mutation","trial_index":96,"time_elapsed":3010800,"internal_node_id":"0.0-5.0-42.0"},{"group":"hexagon_tri","fractal_assignment":["../images/cyn_red.png","../images/blu_wht.png","../images/gry_blk.png","../images/ylw_slt.png","../images/pnk_blu.png","../images/org_blu.png"],"mutagen_generator_assignment":[1,0],"goal":0,"start":4,"action_noise":0,"location_history":"[4,0]","action_history":"[0]","mutagen_history":"[1]","location_rts":"[6462]","trial_type":"fractal-mutation","trial_index":97,"time_elapsed":3022288,"internal_node_id":"0.0-5.0-43.0"},{"group":"hexagon_tri","fractal_assignment":["../images/cyn_red.png","../images/blu_wht.png","../images/gry_blk.png","../images/ylw_slt.png","../images/pnk_blu.png","../images/org_blu.png"],"mutagen_generator_assignment":[1,0],"goal":3,"start":0,"action_noise":0,"location_history":"[0,5,4,2,3]","action_history":"[0,0,1,1]","mutagen_history":"[1,1,0,0]","location_rts":"[1600,996,1058,378]","trial_type":"fractal-mutation","trial_index":98,"time_elapsed":3034412,"internal_node_id":"0.0-5.0-44.0"},{"group":"hexagon_tri","fractal_assignment":["../images/cyn_red.png","../images/blu_wht.png","../images/gry_blk.png","../images/ylw_slt.png","../images/pnk_blu.png","../images/org_blu.png"],"mutagen_generator_assignment":[1,0],"goal":0,"start":3,"action_noise":0,"location_history":"[3,2,3,4,0]","action_history":"[0,1,1,0]","mutagen_history":"[1,0,0,1]","location_rts":"[2294,1386,632,134]","trial_type":"fractal-mutation","trial_index":99,"time_elapsed":3046946,"internal_node_id":"0.0-5.0-45.0"},{"group":"hexagon_tri","fractal_assignment":["../images/cyn_red.png","../images/blu_wht.png","../images/gry_blk.png","../images/ylw_slt.png","../images/pnk_blu.png","../images/org_blu.png"],"mutagen_generator_assignment":[1,0],"goal":4,"start":0,"action_noise":0,"location_history":"[0,5,4]","action_history":"[0,0]","mutagen_history":"[1,1]","location_rts":"[2096,732]","trial_type":"fractal-mutation","trial_index":100,"time_elapsed":3055828,"internal_node_id":"0.0-5.0-46.0"},{"group":"hexagon_tri","fractal_assignment":["../images/cyn_red.png","../images/blu_wht.png","../images/gry_blk.png","../images/ylw_slt.png","../images/pnk_blu.png","../images/org_blu.png"],"mutagen_generator_assignment":[1,0],"goal":5,"start":4,"action_noise":0,"location_history":"[4,0,1,5]","action_history":"[0,1,1]","mutagen_history":"[1,0,0]","location_rts":"[3836,2128,532]","trial_type":"fractal-mutation","trial_index":101,"time_elapsed":3069394,"internal_node_id":"0.0-5.0-47.0"},{"group":"hexagon_tri","fractal_assignment":["../images/cyn_red.png","../images/blu_wht.png","../images/gry_blk.png","../images/ylw_slt.png","../images/pnk_blu.png","../images/org_blu.png"],"mutagen_generator_assignment":[1,0],"goal":2,"start":5,"action_noise":0,"location_history":"[5,4,2]","action_history":"[0,1]","mutagen_history":"[1,0]","location_rts":"[2270,1208]","trial_type":"fractal-mutation","trial_index":102,"time_elapsed":3078914,"internal_node_id":"0.0-5.0-48.0"},{"group":"hexagon_tri","fractal_assignment":["../images/cyn_red.png","../images/blu_wht.png","../images/gry_blk.png","../images/ylw_slt.png","../images/pnk_blu.png","../images/org_blu.png"],"mutagen_generator_assignment":[1,0],"goal":1,"start":2,"action_noise":0,"location_history":"[2,1]","action_history":"[0]","mutagen_history":"[1]","location_rts":"[1288]","trial_type":"fractal-mutation","trial_index":103,"time_elapsed":3085234,"internal_node_id":"0.0-5.0-49.0"},{"view_history":"[{\"page_index\":0,\"viewing_time\":6940}]","rt":6940,"trial_type":"instructions","trial_index":104,"time_elapsed":3093174,"internal_node_id":"0.0-6.0"},{"rt":14656,"responses":"{\"Q0\":\"How people work with directions and memory\"}","trial_type":"survey-text","trial_index":105,"time_elapsed":3108840,"internal_node_id":"0.0-7.0-0.0"},{"rt":11044,"responses":"{\"Q0\":\"How people can understand relationships between things\"}","trial_type":"survey-text","trial_index":106,"time_elapsed":3120884,"internal_node_id":"0.0-7.0-1.0"},{"rt":28966,"responses":"{\"Q0\":\"<img src='../images/diagrams/hexagon_tri.png'>\"}","trial_type":"survey-multi-choice","trial_index":107,"time_elapsed":3150858,"internal_node_id":"0.0-7.0-2.0"},{"rt":58054,"assignments":["../images/cyn_red.png","../images/gry_blk.png","../images/pnk_blu.png","../images/ylw_slt.png","../images/org_blu.png","../images/blu_wht.png"],"trial_type":"drag-drop-on-image","trial_index":108,"time_elapsed":3209916,"internal_node_id":"0.0-7.0-3.0"},{"rt":3134,"responses":"{\"Q0\":\"2\"}","trial_type":"survey-likert","trial_index":109,"time_elapsed":3214054,"internal_node_id":"0.0-7.0-4.0"},{"rt":37582,"responses":"{\"Q0\":\"They both only had two options for each spot\"}","trial_type":"survey-text","trial_index":110,"time_elapsed":3252636,"internal_node_id":"0.0-7.0-5.0"},{"rt":32032,"responses":"{\"Q0\":\"No\"}","trial_type":"survey-multi-choice","trial_index":111,"time_elapsed":3285670,"internal_node_id":"0.0-7.0-6.0"},{"rt":5956,"responses":"{\"Q0\":\"Between sessions 2 and 3\"}","trial_type":"survey-multi-choice","trial_index":112,"time_elapsed":3292630,"internal_node_id":"0.0-7.0-7.0"},{"rt":2492,"responses":"{\"Q0\":\"\"}","trial_type":"survey-text","trial_index":113,"time_elapsed":3296124,"internal_node_id":"0.0-7.0-8.0"},{"rt":5956,"responses":"{\"Q0\":\"1\"}","trial_type":"survey-likert","trial_index":114,"time_elapsed":3303084,"internal_node_id":"0.0-7.0-9.0"},{"rt":5958,"responses":"{}","trial_type":"survey-multi-choice","trial_index":115,"time_elapsed":3310044,"internal_node_id":"0.0-7.0-10.0"},{"rt":18860,"assignments":["../images/org_blu.png","../images/cyn_red.png","../images/ylw_slt.png","../images/blu_wht.png","../images/pnk_blu.png","../images/gry_blk.png"],"background_order":[3,1,4,0,5,2],"trial_type":"drag-drop-on-image","trial_index":116,"time_elapsed":3329908,"internal_node_id":"0.0-7.0-11.0"},{"rt":20494,"responses":"{\"Q0\":\"left (black) door = acid, right (white) door = ray\",\"Q1\":\"Not at all confident\"}","trial_type":"survey-multi-choice","trial_index":117,"time_elapsed":3351404,"internal_node_id":"0.0-7.0-12.0"},{"rt":8508,"responses":"{\"Q0\":\"25-35\",\"Q1\":\"Bachelor's degree\",\"Q2\":\"Male\",\"Q3\":\"White\"}","trial_type":"survey-multi-choice","trial_index":118,"time_elapsed":3360926,"internal_node_id":"0.0-8.0"},{"rt":22812,"responses":"{\"Q0\":\"Really interesting HIT! If you have any more HITs you end up having to do on Mturk, I'd be happy to help!\"}","trial_type":"survey-text","trial_index":119,"time_elapsed":3384740,"internal_node_id":"0.0-9.0"}]