[{"view_history":"[{\"page_index\":0,\"viewing_time\":27268},{\"page_index\":1,\"viewing_time\":20908}]","rt":48176,"trial_type":"instructions","trial_index":0,"time_elapsed":48178,"internal_node_id":"0.0-0.0"},{"view_history":"[{\"page_index\":0,\"viewing_time\":4595},{\"page_index\":1,\"viewing_time\":31789}]","rt":36384,"trial_type":"instructions","trial_index":1,"time_elapsed":85578,"internal_node_id":"0.0-1.0"},{"group":"hexagon_tri","room_assignment":["green","yellow","red","purple","grey","blue"],"door_color_assignment":["white","black"],"door_generator_assignment":[0,1],"goal":2,"start":1,"action_noise":0,"location_history":"[1,3,2]","action_history":"[0,0]","door_history":"[0,0]","location_rts":"[14149,9783]","trial_type":"two-door-navigation","trial_index":2,"time_elapsed":115618,"internal_node_id":"0.0-2.0-0.0"},{"group":"hexagon_tri","room_assignment":["green","yellow","red","purple","grey","blue"],"door_color_assignment":["white","black"],"door_generator_assignment":[0,1],"goal":0,"start":2,"action_noise":0,"location_history":"[2,3,2,1,5,0]","action_history":"[1,0,0,1,1]","door_history":"[1,0,0,1,1]","location_rts":"[7870,5047,6654,5877,5816]","trial_type":"two-door-navigation","trial_index":3,"time_elapsed":156047,"internal_node_id":"0.0-2.0-1.0"},{"group":"hexagon_tri","room_assignment":["green","yellow","red","purple","grey","blue"],"door_color_assignment":["white","black"],"door_generator_assignment":[0,1],"goal":5,"start":0,"action_noise":0,"location_history":"[0,5]","action_history":"[0]","door_history":"[0]","location_rts":"[9958]","trial_type":"two-door-navigation","trial_index":4,"time_elapsed":171062,"internal_node_id":"0.0-2.0-2.0"},{"group":"hexagon_tri","room_assignment":["green","yellow","red","purple","grey","blue"],"door_color_assignment":["white","black"],"door_generator_assignment":[0,1],"goal":1,"start":5,"action_noise":0,"location_history":"[5,4,2,1]","action_history":"[0,1,0]","door_history":"[0,1,0]","location_rts":"[8356,9065,8843]","trial_type":"two-door-navigation","trial_index":5,"time_elapsed":204435,"internal_node_id":"0.0-2.0-3.0"},{"group":"hexagon_tri","room_assignment":["green","yellow","red","purple","grey","blue"],"door_color_assignment":["white","black"],"door_generator_assignment":[0,1],"goal":3,"start":1,"action_noise":0,"location_history":"[1,3]","action_history":"[0]","door_history":"[0]","location_rts":"[11222]","trial_type":"two-door-navigation","trial_index":6,"time_elapsed":220721,"internal_node_id":"0.0-2.0-4.0"},{"group":"hexagon_tri","room_assignment":["green","yellow","red","purple","grey","blue"],"door_color_assignment":["white","black"],"door_generator_assignment":[0,1],"goal":5,"start":3,"action_noise":0,"location_history":"[3,4,2,1,5]","action_history":"[1,1,0,1]","door_history":"[1,1,0,1]","location_rts":"[10584,14940,13868,7434]","trial_type":"two-door-navigation","trial_index":7,"time_elapsed":275690,"internal_node_id":"0.0-2.0-5.0"},{"group":"hexagon_tri","room_assignment":["green","yellow","red","purple","grey","blue"],"door_color_assignment":["white","black"],"door_generator_assignment":[0,1],"goal":4,"start":5,"action_noise":0,"location_history":"[5,0,1,3,4]","action_history":"[1,1,0,1]","door_history":"[1,1,0,1]","location_rts":"[7359,16266,7349,9885]","trial_type":"two-door-navigation","trial_index":8,"time_elapsed":324697,"internal_node_id":"0.0-2.0-6.0"},{"group":"hexagon_tri","room_assignment":["green","yellow","red","purple","grey","blue"],"door_color_assignment":["white","black"],"door_generator_assignment":[0,1],"goal":0,"start":4,"action_noise":0,"location_history":"[4,0]","action_history":"[0]","door_history":"[0]","location_rts":"[15861]","trial_type":"two-door-navigation","trial_index":9,"time_elapsed":345609,"internal_node_id":"0.0-2.0-7.0"},{"group":"hexagon_tri","room_assignment":["green","yellow","red","purple","grey","blue"],"door_color_assignment":["white","black"],"door_generator_assignment":[0,1],"goal":2,"start":0,"action_noise":0,"location_history":"[0,1,5,4,2]","action_history":"[1,1,0,1]","door_history":"[1,1,0,1]","location_rts":"[17066,8978,7803,4906]","trial_type":"two-door-navigation","trial_index":10,"time_elapsed":392514,"internal_node_id":"0.0-2.0-8.0"},{"group":"hexagon_tri","room_assignment":["green","yellow","red","purple","grey","blue"],"door_color_assignment":["white","black"],"door_generator_assignment":[0,1],"goal":4,"start":2,"action_noise":0,"location_history":"[2,3,4]","action_history":"[1,1]","door_history":"[1,1]","location_rts":"[16379,8302]","trial_type":"two-door-navigation","trial_index":11,"time_elapsed":423275,"internal_node_id":"0.0-2.0-9.0"},{"group":"hexagon_tri","room_assignment":["green","yellow","red","purple","grey","blue"],"door_color_assignment":["white","black"],"door_generator_assignment":[0,1],"goal":2,"start":4,"action_noise":0,"location_history":"[4,2]","action_history":"[1]","door_history":"[1]","location_rts":"[15057]","trial_type":"two-door-navigation","trial_index":12,"time_elapsed":443402,"internal_node_id":"0.0-2.0-10.0"},{"group":"hexagon_tri","room_assignment":["green","yellow","red","purple","grey","blue"],"door_color_assignment":["white","black"],"door_generator_assignment":[0,1],"goal":3,"start":2,"action_noise":0,"location_history":"[2,1,3]","action_history":"[0,0]","door_history":"[0,0]","location_rts":"[14684,9785]","trial_type":"two-door-navigation","trial_index":13,"time_elapsed":473948,"internal_node_id":"0.0-2.0-11.0"},{"group":"hexagon_tri","room_assignment":["green","yellow","red","purple","grey","blue"],"door_color_assignment":["white","black"],"door_generator_assignment":[0,1],"goal":0,"start":3,"action_noise":0,"location_history":"[3,4,0]","action_history":"[1,0]","door_history":"[1,0]","location_rts":"[11536,11772]","trial_type":"two-door-navigation","trial_index":14,"time_elapsed":503336,"internal_node_id":"0.0-2.0-12.0"},{"group":"hexagon_tri","room_assignment":["green","yellow","red","purple","grey","blue"],"door_color_assignment":["white","black"],"door_generator_assignment":[0,1],"goal":5,"start":0,"action_noise":0,"location_history":"[0,1,5]","action_history":"[1,1]","door_history":"[1,1]","location_rts":"[17726,12723]","trial_type":"two-door-navigation","trial_index":15,"time_elapsed":539854,"internal_node_id":"0.0-2.0-13.0"},{"group":"hexagon_tri","room_assignment":["green","yellow","red","purple","grey","blue"],"door_color_assignment":["white","black"],"door_generator_assignment":[0,1],"goal":1,"start":5,"action_noise":0,"location_history":"[5,0,1]","action_history":"[1,1]","door_history":"[1,1]","location_rts":"[16144,16785]","trial_type":"two-door-navigation","trial_index":16,"time_elapsed":578855,"internal_node_id":"0.0-2.0-14.0"},{"group":"hexagon_tri","room_assignment":["green","yellow","red","purple","grey","blue"],"door_color_assignment":["white","black"],"door_generator_assignment":[0,1],"goal":5,"start":1,"action_noise":0,"location_history":"[1,5]","action_history":"[1]","door_history":"[1]","location_rts":"[6682]","trial_type":"two-door-navigation","trial_index":17,"time_elapsed":590582,"internal_node_id":"0.0-2.0-15.0"},{"group":"hexagon_tri","room_assignment":["green","yellow","red","purple","grey","blue"],"door_color_assignment":["white","black"],"door_generator_assignment":[0,1],"goal":3,"start":5,"action_noise":0,"location_history":"[5,4,0,5,4,0,1,3]","action_history":"[0,0,0,0,0,1,0]","door_history":"[0,0,0,0,0,1,0]","location_rts":"[17025,9728,9659,6514,1084,823,1629]","trial_type":"two-door-navigation","trial_index":18,"time_elapsed":648263,"internal_node_id":"0.0-2.0-16.0"},{"group":"hexagon_tri","room_assignment":["green","yellow","red","purple","grey","blue"],"door_color_assignment":["white","black"],"door_generator_assignment":[0,1],"goal":2,"start":3,"action_noise":0,"location_history":"[3,2]","action_history":"[0]","door_history":"[0]","location_rts":"[5348]","trial_type":"two-door-navigation","trial_index":19,"time_elapsed":658680,"internal_node_id":"0.0-2.0-17.0"},{"group":"hexagon_tri","room_assignment":["green","yellow","red","purple","grey","blue"],"door_color_assignment":["white","black"],"door_generator_assignment":[0,1],"goal":1,"start":2,"action_noise":0,"location_history":"[2,1]","action_history":"[0]","door_history":"[0]","location_rts":"[8416]","trial_type":"two-door-navigation","trial_index":20,"time_elapsed":672145,"internal_node_id":"0.0-2.0-18.0"},{"group":"hexagon_tri","room_assignment":["green","yellow","red","purple","grey","blue"],"door_color_assignment":["white","black"],"door_generator_assignment":[0,1],"goal":4,"start":1,"action_noise":0,"location_history":"[1,5,4]","action_history":"[1,0]","door_history":"[1,0]","location_rts":"[18307,16951]","trial_type":"two-door-navigation","trial_index":21,"time_elapsed":713490,"internal_node_id":"0.0-2.0-19.0"},{"group":"hexagon_tri","room_assignment":["green","yellow","red","purple","grey","blue"],"door_color_assignment":["white","black"],"door_generator_assignment":[0,1],"goal":0,"start":4,"action_noise":0,"location_history":"[4,0]","action_history":"[0]","door_history":"[0]","location_rts":"[11234]","trial_type":"two-door-navigation","trial_index":22,"time_elapsed":729778,"internal_node_id":"0.0-2.0-20.0"},{"group":"hexagon_tri","room_assignment":["green","yellow","red","purple","grey","blue"],"door_color_assignment":["white","black"],"door_generator_assignment":[0,1],"goal":3,"start":0,"action_noise":0,"location_history":"[0,1,3]","action_history":"[1,0]","door_history":"[1,0]","location_rts":"[16631,5081]","trial_type":"two-door-navigation","trial_index":23,"time_elapsed":757569,"internal_node_id":"0.0-2.0-21.0"},{"group":"hexagon_tri","room_assignment":["green","yellow","red","purple","grey","blue"],"door_color_assignment":["white","black"],"door_generator_assignment":[0,1],"goal":1,"start":3,"action_noise":0,"location_history":"[3,2,1]","action_history":"[0,0]","door_history":"[0,0]","location_rts":"[17469,2757]","trial_type":"two-door-navigation","trial_index":24,"time_elapsed":783867,"internal_node_id":"0.0-2.0-22.0"},{"group":"hexagon_tri","room_assignment":["green","yellow","red","purple","grey","blue"],"door_color_assignment":["white","black"],"door_generator_assignment":[0,1],"goal":0,"start":1,"action_noise":0,"location_history":"[1,3,4,0]","action_history":"[0,1,0]","door_history":"[0,1,0]","location_rts":"[9333,2408,8168]","trial_type":"two-door-navigation","trial_index":25,"time_elapsed":810849,"internal_node_id":"0.0-2.0-23.0"},{"group":"hexagon_tri","room_assignment":["green","yellow","red","purple","grey","blue"],"door_color_assignment":["white","black"],"door_generator_assignment":[0,1],"goal":2,"start":0,"action_noise":0,"location_history":"[0,5,0,1,3,2]","action_history":"[0,1,1,0,0]","door_history":"[0,1,1,0,0]","location_rts":"[8539,21131,14599,9534,7711]","trial_type":"two-door-navigation","trial_index":26,"time_elapsed":881518,"internal_node_id":"0.0-2.0-24.0"},{"group":"hexagon_tri","room_assignment":["green","yellow","red","purple","grey","blue"],"door_color_assignment":["white","black"],"door_generator_assignment":[0,1],"goal":4,"start":2,"action_noise":0,"location_history":"[2,3,4]","action_history":"[1,1]","door_history":"[1,1]","location_rts":"[7725,5683]","trial_type":"two-door-navigation","trial_index":27,"time_elapsed":901005,"internal_node_id":"0.0-2.0-25.0"},{"group":"hexagon_tri","room_assignment":["green","yellow","red","purple","grey","blue"],"door_color_assignment":["white","black"],"door_generator_assignment":[0,1],"goal":5,"start":4,"action_noise":0,"location_history":"[4,0,1,3,4,0,1,5]","action_history":"[0,1,0,1,0,1,1]","door_history":"[0,1,0,1,0,1,1]","location_rts":"[8892,8455,6467,2403,8819,11828,5603]","trial_type":"two-door-navigation","trial_index":28,"time_elapsed":964719,"internal_node_id":"0.0-2.0-26.0"},{"group":"hexagon_tri","room_assignment":["green","yellow","red","purple","grey","blue"],"door_color_assignment":["white","black"],"door_generator_assignment":[0,1],"goal":2,"start":5,"action_noise":0,"location_history":"[5,4,2]","action_history":"[0,1]","door_history":"[0,1]","location_rts":"[8378,5215]","trial_type":"two-door-navigation","trial_index":29,"time_elapsed":984391,"internal_node_id":"0.0-2.0-27.0"},{"group":"hexagon_tri","room_assignment":["green","yellow","red","purple","grey","blue"],"door_color_assignment":["white","black"],"door_generator_assignment":[0,1],"goal":3,"start":2,"action_noise":0,"location_history":"[2,3]","action_history":"[1]","door_history":"[1]","location_rts":"[6058]","trial_type":"two-door-navigation","trial_index":30,"time_elapsed":995490,"internal_node_id":"0.0-2.0-28.0"},{"group":"hexagon_tri","room_assignment":["green","yellow","red","purple","grey","blue"],"door_color_assignment":["white","black"],"door_generator_assignment":[0,1],"goal":1,"start":3,"action_noise":0,"location_history":"[3,2,1]","action_history":"[0,0]","door_history":"[0,0]","location_rts":"[15466,2693]","trial_type":"two-door-navigation","trial_index":31,"time_elapsed":1019750,"internal_node_id":"0.0-2.0-29.0"},{"group":"hexagon_tri","room_assignment":["green","yellow","red","purple","grey","blue"],"door_color_assignment":["white","black"],"door_generator_assignment":[0,1],"goal":4,"start":1,"action_noise":0,"location_history":"[1,3,4]","action_history":"[0,1]","door_history":"[0,1]","location_rts":"[11666,2015]","trial_type":"two-door-navigation","trial_index":32,"time_elapsed":1039526,"internal_node_id":"0.0-2.0-30.0"},{"group":"hexagon_tri","room_assignment":["green","yellow","red","purple","grey","blue"],"door_color_assignment":["white","black"],"door_generator_assignment":[0,1],"goal":5,"start":4,"action_noise":0,"location_history":"[4,2,1,5]","action_history":"[1,0,1]","door_history":"[1,0,1]","location_rts":"[9986,11873,1644]","trial_type":"two-door-navigation","trial_index":33,"time_elapsed":1070142,"internal_node_id":"0.0-2.0-31.0"},{"group":"hexagon_tri","room_assignment":["green","yellow","red","purple","grey","blue"],"door_color_assignment":["white","black"],"door_generator_assignment":[0,1],"goal":0,"start":5,"action_noise":0,"location_history":"[5,0]","action_history":"[1]","door_history":"[1]","location_rts":"[6744]","trial_type":"two-door-navigation","trial_index":34,"time_elapsed":1081939,"internal_node_id":"0.0-2.0-32.0"},{"group":"hexagon_tri","room_assignment":["green","yellow","red","purple","grey","blue"],"door_color_assignment":["white","black"],"door_generator_assignment":[0,1],"goal":2,"start":0,"action_noise":0,"location_history":"[0,1,3,4,2]","action_history":"[1,0,1,1]","door_history":"[1,0,1,1]","location_rts":"[20369,6649,2991,4218]","trial_type":"two-door-navigation","trial_index":35,"time_elapsed":1124312,"internal_node_id":"0.0-2.0-33.0"},{"group":"hexagon_tri","room_assignment":["green","yellow","red","purple","grey","blue"],"door_color_assignment":["white","black"],"door_generator_assignment":[0,1],"goal":0,"start":2,"action_noise":0,"location_history":"[2,1,5,0]","action_history":"[0,1,1]","door_history":"[0,1,1]","location_rts":"[20987,6096,856]","trial_type":"two-door-navigation","trial_index":36,"time_elapsed":1159343,"internal_node_id":"0.0-2.0-34.0"},{"group":"hexagon_tri","room_assignment":["green","yellow","red","purple","grey","blue"],"door_color_assignment":["white","black"],"door_generator_assignment":[0,1],"goal":5,"start":0,"action_noise":0,"location_history":"[0,1,5]","action_history":"[1,1]","door_history":"[1,1]","location_rts":"[20162,4367]","trial_type":"two-door-navigation","trial_index":37,"time_elapsed":1189951,"internal_node_id":"0.0-2.0-35.0"},{"group":"hexagon_tri","room_assignment":["green","yellow","red","purple","grey","blue"],"door_color_assignment":["white","black"],"door_generator_assignment":[0,1],"goal":1,"start":5,"action_noise":0,"location_history":"[5,4,0,1]","action_history":"[0,0,1]","door_history":"[0,0,1]","location_rts":"[12607,4434,6082]","trial_type":"two-door-navigation","trial_index":38,"time_elapsed":1220176,"internal_node_id":"0.0-2.0-36.0"},{"group":"hexagon_tri","room_assignment":["green","yellow","red","purple","grey","blue"],"door_color_assignment":["white","black"],"door_generator_assignment":[0,1],"goal":4,"start":1,"action_noise":0,"location_history":"[1,3,4]","action_history":"[0,1]","door_history":"[0,1]","location_rts":"[4339,2744]","trial_type":"two-door-navigation","trial_index":39,"time_elapsed":1233333,"internal_node_id":"0.0-2.0-37.0"},{"group":"hexagon_tri","room_assignment":["green","yellow","red","purple","grey","blue"],"door_color_assignment":["white","black"],"door_generator_assignment":[0,1],"goal":3,"start":4,"action_noise":0,"location_history":"[4,0,5,4,2,1,3]","action_history":"[0,0,0,1,0,0]","door_history":"[0,0,0,1,0,0]","location_rts":"[4797,4027,5189,10198,7796,4785]","trial_type":"two-door-navigation","trial_index":40,"time_elapsed":1280330,"internal_node_id":"0.0-2.0-38.0"},{"group":"hexagon_tri","room_assignment":["green","yellow","red","purple","grey","blue"],"door_color_assignment":["white","black"],"door_generator_assignment":[0,1],"goal":5,"start":3,"action_noise":0,"location_history":"[3,2,3,2,1,5]","action_history":"[0,1,0,0,1]","door_history":"[0,1,0,0,1]","location_rts":"[3690,2622,11592,10583,5839]","trial_type":"two-door-navigation","trial_index":41,"time_elapsed":1323822,"internal_node_id":"0.0-2.0-39.0"},{"group":"hexagon_tri","room_assignment":["green","yellow","red","purple","grey","blue"],"door_color_assignment":["white","black"],"door_generator_assignment":[0,1],"goal":1,"start":5,"action_noise":0,"location_history":"[5,4,2,1]","action_history":"[0,1,0]","door_history":"[0,1,0]","location_rts":"[8963,8878,4738]","trial_type":"two-door-navigation","trial_index":42,"time_elapsed":1353526,"internal_node_id":"0.0-2.0-40.0"},{"group":"hexagon_tri","room_assignment":["green","yellow","red","purple","grey","blue"],"door_color_assignment":["white","black"],"door_generator_assignment":[0,1],"goal":2,"start":1,"action_noise":0,"location_history":"[1,3,2]","action_history":"[0,0]","door_history":"[0,0]","location_rts":"[13119,7179]","trial_type":"two-door-navigation","trial_index":43,"time_elapsed":1379874,"internal_node_id":"0.0-2.0-41.0"},{"group":"hexagon_tri","room_assignment":["green","yellow","red","purple","grey","blue"],"door_color_assignment":["white","black"],"door_generator_assignment":[0,1],"goal":4,"start":2,"action_noise":0,"location_history":"[2,1,5,0,1,5,4]","action_history":"[0,1,1,1,1,0]","door_history":"[0,1,1,1,1,0]","location_rts":"[13848,3905,676,13648,6114,3847]","trial_type":"two-door-navigation","trial_index":44,"time_elapsed":1432105,"internal_node_id":"0.0-2.0-42.0"},{"group":"hexagon_tri","room_assignment":["green","yellow","red","purple","grey","blue"],"door_color_assignment":["white","black"],"door_generator_assignment":[0,1],"goal":0,"start":4,"action_noise":0,"location_history":"[4,0]","action_history":"[0]","door_history":"[0]","location_rts":"[15641]","trial_type":"two-door-navigation","trial_index":45,"time_elapsed":1452799,"internal_node_id":"0.0-2.0-43.0"},{"group":"hexagon_tri","room_assignment":["green","yellow","red","purple","grey","blue"],"door_color_assignment":["white","black"],"door_generator_assignment":[0,1],"goal":3,"start":0,"action_noise":0,"location_history":"[0,1,3]","action_history":"[1,0]","door_history":"[1,0]","location_rts":"[11691,1619]","trial_type":"two-door-navigation","trial_index":46,"time_elapsed":1472189,"internal_node_id":"0.0-2.0-44.0"},{"group":"hexagon_tri","room_assignment":["green","yellow","red","purple","grey","blue"],"door_color_assignment":["white","black"],"door_generator_assignment":[0,1],"goal":0,"start":3,"action_noise":0,"location_history":"[3,4,0]","action_history":"[1,0]","door_history":"[1,0]","location_rts":"[15138,4316]","trial_type":"two-door-navigation","trial_index":47,"time_elapsed":1497711,"internal_node_id":"0.0-2.0-45.0"},{"group":"hexagon_tri","room_assignment":["green","yellow","red","purple","grey","blue"],"door_color_assignment":["white","black"],"door_generator_assignment":[0,1],"goal":4,"start":0,"action_noise":0,"location_history":"[0,5,4]","action_history":"[0,0]","door_history":"[0,0]","location_rts":"[8506,9304]","trial_type":"two-door-navigation","trial_index":48,"time_elapsed":1521587,"internal_node_id":"0.0-2.0-46.0"},{"group":"hexagon_tri","room_assignment":["green","yellow","red","purple","grey","blue"],"door_color_assignment":["white","black"],"door_generator_assignment":[0,1],"goal":5,"start":4,"action_noise":0,"location_history":"[4,2,1,5]","action_history":"[1,0,1]","door_history":"[1,0,1]","location_rts":"[4571,6367,2505]","trial_type":"two-door-navigation","trial_index":49,"time_elapsed":1542138,"internal_node_id":"0.0-2.0-47.0"},{"group":"hexagon_tri","room_assignment":["green","yellow","red","purple","grey","blue"],"door_color_assignment":["white","black"],"door_generator_assignment":[0,1],"goal":2,"start":5,"action_noise":0,"location_history":"[5,4,2]","action_history":"[0,1]","door_history":"[0,1]","location_rts":"[7668,2117]","trial_type":"two-door-navigation","trial_index":50,"time_elapsed":1558008,"internal_node_id":"0.0-2.0-48.0"},{"group":"hexagon_tri","room_assignment":["green","yellow","red","purple","grey","blue"],"door_color_assignment":["white","black"],"door_generator_assignment":[0,1],"goal":1,"start":2,"action_noise":0,"location_history":"[2,1]","action_history":"[0]","door_history":"[0]","location_rts":"[11185]","trial_type":"two-door-navigation","trial_index":51,"time_elapsed":1574248,"internal_node_id":"0.0-2.0-49.0"},{"view_history":"[{\"page_index\":0,\"viewing_time\":3240}]","rt":3241,"trial_type":"instructions","trial_index":52,"time_elapsed":1578490,"internal_node_id":"0.0-3.0"},{"view_history":"[{\"page_index\":0,\"viewing_time\":17360},{\"page_index\":1,\"viewing_time\":15982}]","rt":33343,"trial_type":"instructions","trial_index":53,"time_elapsed":1612845,"internal_node_id":"0.0-4.0"},{"group":"hexagon_bi","fractal_assignment":["../images/org_blu.png","../images/ylw_slt.png","../images/blu_wht.png","../images/gry_blk.png","../images/cyn_red.png","../images/pnk_blu.png"],"mutagen_generator_assignment":[0,1],"goal":2,"start":1,"action_noise":0,"location_history":"[1,2]","action_history":"[0]","mutagen_history":"[0]","location_rts":"[20835]","trial_type":"fractal-mutation","trial_index":54,"time_elapsed":1638768,"internal_node_id":"0.0-5.0-0.0"},{"group":"hexagon_bi","fractal_assignment":["../images/org_blu.png","../images/ylw_slt.png","../images/blu_wht.png","../images/gry_blk.png","../images/cyn_red.png","../images/pnk_blu.png"],"mutagen_generator_assignment":[0,1],"goal":0,"start":2,"action_noise":0,"location_history":"[2,3,4,5,0]","action_history":"[1,0,1,0]","mutagen_history":"[1,0,1,0]","location_rts":"[20787,11915,8945,13163]","trial_type":"fractal-mutation","trial_index":55,"time_elapsed":1701823,"internal_node_id":"0.0-5.0-1.0"},{"group":"hexagon_bi","fractal_assignment":["../images/org_blu.png","../images/ylw_slt.png","../images/blu_wht.png","../images/gry_blk.png","../images/cyn_red.png","../images/pnk_blu.png"],"mutagen_generator_assignment":[0,1],"goal":5,"start":0,"action_noise":0,"location_history":"[0,1,2,3,2,1,0,5]","action_history":"[1,0,1,1,0,1,0]","mutagen_history":"[1,0,1,1,0,1,0]","location_rts":"[22646,6452,10416,7538,9577,10952,11472]","trial_type":"fractal-mutation","trial_index":56,"time_elapsed":1792225,"internal_node_id":"0.0-5.0-2.0"},{"group":"hexagon_bi","fractal_assignment":["../images/org_blu.png","../images/ylw_slt.png","../images/blu_wht.png","../images/gry_blk.png","../images/cyn_red.png","../images/pnk_blu.png"],"mutagen_generator_assignment":[0,1],"goal":1,"start":5,"action_noise":0,"location_history":"[5,4,3,2,1]","action_history":"[1,0,1,0]","mutagen_history":"[1,0,1,0]","location_rts":"[22086,11718,12110,1251]","trial_type":"fractal-mutation","trial_index":57,"time_elapsed":1847597,"internal_node_id":"0.0-5.0-3.0"},{"group":"hexagon_bi","fractal_assignment":["../images/org_blu.png","../images/ylw_slt.png","../images/blu_wht.png","../images/gry_blk.png","../images/cyn_red.png","../images/pnk_blu.png"],"mutagen_generator_assignment":[0,1],"goal":3,"start":1,"action_noise":0,"location_history":"[1,2,3]","action_history":"[0,1]","mutagen_history":"[0,1]","location_rts":"[21517,10014]","trial_type":"fractal-mutation","trial_index":58,"time_elapsed":1885251,"internal_node_id":"0.0-5.0-4.0"},{"group":"hexagon_bi","fractal_assignment":["../images/org_blu.png","../images/ylw_slt.png","../images/blu_wht.png","../images/gry_blk.png","../images/cyn_red.png","../images/pnk_blu.png"],"mutagen_generator_assignment":[0,1],"goal":5,"start":3,"action_noise":0,"location_history":"[3,4,5]","action_history":"[0,1]","mutagen_history":"[0,1]","location_rts":"[10361,8680]","trial_type":"fractal-mutation","trial_index":59,"time_elapsed":1910406,"internal_node_id":"0.0-5.0-5.0"},{"group":"hexagon_bi","fractal_assignment":["../images/org_blu.png","../images/ylw_slt.png","../images/blu_wht.png","../images/gry_blk.png","../images/cyn_red.png","../images/pnk_blu.png"],"mutagen_generator_assignment":[0,1],"goal":4,"start":5,"action_noise":0,"location_history":"[5,4]","action_history":"[1]","mutagen_history":"[1]","location_rts":"[8548]","trial_type":"fractal-mutation","trial_index":60,"time_elapsed":1924038,"internal_node_id":"0.0-5.0-6.0"},{"group":"hexagon_bi","fractal_assignment":["../images/org_blu.png","../images/ylw_slt.png","../images/blu_wht.png","../images/gry_blk.png","../images/cyn_red.png","../images/pnk_blu.png"],"mutagen_generator_assignment":[0,1],"goal":0,"start":4,"action_noise":0,"location_history":"[4,5,0]","action_history":"[1,0]","mutagen_history":"[1,0]","location_rts":"[11752,5147]","trial_type":"fractal-mutation","trial_index":61,"time_elapsed":1947026,"internal_node_id":"0.0-5.0-7.0"},{"group":"hexagon_bi","fractal_assignment":["../images/org_blu.png","../images/ylw_slt.png","../images/blu_wht.png","../images/gry_blk.png","../images/cyn_red.png","../images/pnk_blu.png"],"mutagen_generator_assignment":[0,1],"goal":2,"start":0,"action_noise":0,"location_history":"[0,1,2]","action_history":"[1,0]","mutagen_history":"[1,0]","location_rts":"[7191,6263]","trial_type":"fractal-mutation","trial_index":62,"time_elapsed":1966587,"internal_node_id":"0.0-5.0-8.0"},{"group":"hexagon_bi","fractal_assignment":["../images/org_blu.png","../images/ylw_slt.png","../images/blu_wht.png","../images/gry_blk.png","../images/cyn_red.png","../images/pnk_blu.png"],"mutagen_generator_assignment":[0,1],"goal":4,"start":2,"action_noise":0,"location_history":"[2,1,2,1,2,1,2,3,4]","action_history":"[0,0,0,0,0,0,1,0]","mutagen_history":"[0,0,0,0,0,0,1,0]","location_rts":"[9732,5352,11823,9981,5310,4346,2133,1344]","trial_type":"fractal-mutation","trial_index":63,"time_elapsed":2029036,"internal_node_id":"0.0-5.0-9.0"},{"group":"hexagon_bi","fractal_assignment":["../images/org_blu.png","../images/ylw_slt.png","../images/blu_wht.png","../images/gry_blk.png","../images/cyn_red.png","../images/pnk_blu.png"],"mutagen_generator_assignment":[0,1],"goal":2,"start":4,"action_noise":0,"location_history":"[4,3,2]","action_history":"[0,1]","mutagen_history":"[0,1]","location_rts":"[13345,11006]","trial_type":"fractal-mutation","trial_index":64,"time_elapsed":2059519,"internal_node_id":"0.0-5.0-10.0"},{"group":"hexagon_bi","fractal_assignment":["../images/org_blu.png","../images/ylw_slt.png","../images/blu_wht.png","../images/gry_blk.png","../images/cyn_red.png","../images/pnk_blu.png"],"mutagen_generator_assignment":[0,1],"goal":3,"start":2,"action_noise":0,"location_history":"[2,3]","action_history":"[1]","mutagen_history":"[1]","location_rts":"[14313]","trial_type":"fractal-mutation","trial_index":65,"time_elapsed":2078892,"internal_node_id":"0.0-5.0-11.0"},{"group":"hexagon_bi","fractal_assignment":["../images/org_blu.png","../images/ylw_slt.png","../images/blu_wht.png","../images/gry_blk.png","../images/cyn_red.png","../images/pnk_blu.png"],"mutagen_generator_assignment":[0,1],"goal":0,"start":3,"action_noise":0,"location_history":"[3,2,1,2,3,2,3,2,1,0]","action_history":"[1,0,0,1,1,1,1,0,1]","mutagen_history":"[1,0,0,1,1,1,1,0,1]","location_rts":"[8468,13221,6198,6945,6219,1492,4631,5553,5210]","trial_type":"fractal-mutation","trial_index":66,"time_elapsed":2150247,"internal_node_id":"0.0-5.0-12.0"},{"group":"hexagon_bi","fractal_assignment":["../images/org_blu.png","../images/ylw_slt.png","../images/blu_wht.png","../images/gry_blk.png","../images/cyn_red.png","../images/pnk_blu.png"],"mutagen_generator_assignment":[0,1],"goal":5,"start":0,"action_noise":0,"location_history":"[0,5]","action_history":"[0]","mutagen_history":"[0]","location_rts":"[15295]","trial_type":"fractal-mutation","trial_index":67,"time_elapsed":2170595,"internal_node_id":"0.0-5.0-13.0"},{"group":"hexagon_bi","fractal_assignment":["../images/org_blu.png","../images/ylw_slt.png","../images/blu_wht.png","../images/gry_blk.png","../images/cyn_red.png","../images/pnk_blu.png"],"mutagen_generator_assignment":[0,1],"goal":1,"start":5,"action_noise":0,"location_history":"[5,4,5,4,3,2,3,4,3,2,1]","action_history":"[1,1,1,0,1,1,0,0,1,0]","mutagen_history":"[1,1,1,0,1,1,0,0,1,0]","location_rts":"[8484,4355,4672,9178,5131,7585,3363,6501,3402,5246]","trial_type":"fractal-mutation","trial_index":68,"time_elapsed":2242971,"internal_node_id":"0.0-5.0-14.0"},{"group":"hexagon_bi","fractal_assignment":["../images/org_blu.png","../images/ylw_slt.png","../images/blu_wht.png","../images/gry_blk.png","../images/cyn_red.png","../images/pnk_blu.png"],"mutagen_generator_assignment":[0,1],"goal":5,"start":1,"action_noise":0,"location_history":"[1,2,3,2,1,2,1,0,1,2,1,0,1,0,1,0,5]","action_history":"[0,1,1,0,0,0,1,1,0,0,1,1,1,1,1,0]","mutagen_history":"[0,1,1,0,0,0,1,1,0,0,1,1,1,1,1,0]","location_rts":"[13762,7468,9847,4088,5870,8468,3047,8145,1611,736,1274,906,549,959,935,631]","trial_type":"fractal-mutation","trial_index":69,"time_elapsed":2332071,"internal_node_id":"0.0-5.0-15.0"},{"group":"hexagon_bi","fractal_assignment":["../images/org_blu.png","../images/ylw_slt.png","../images/blu_wht.png","../images/gry_blk.png","../images/cyn_red.png","../images/pnk_blu.png"],"mutagen_generator_assignment":[0,1],"goal":3,"start":5,"action_noise":0,"location_history":"[5,4,3]","action_history":"[1,0]","mutagen_history":"[1,0]","location_rts":"[15832,18213]","trial_type":"fractal-mutation","trial_index":70,"time_elapsed":2372234,"internal_node_id":"0.0-5.0-16.0"},{"group":"hexagon_bi","fractal_assignment":["../images/org_blu.png","../images/ylw_slt.png","../images/blu_wht.png","../images/gry_blk.png","../images/cyn_red.png","../images/pnk_blu.png"],"mutagen_generator_assignment":[0,1],"goal":2,"start":3,"action_noise":0,"location_history":"[3,4,3,2]","action_history":"[0,0,1]","mutagen_history":"[0,0,1]","location_rts":"[15555,3146,2377]","trial_type":"fractal-mutation","trial_index":71,"time_elapsed":2400479,"internal_node_id":"0.0-5.0-17.0"},{"group":"hexagon_bi","fractal_assignment":["../images/org_blu.png","../images/ylw_slt.png","../images/blu_wht.png","../images/gry_blk.png","../images/cyn_red.png","../images/pnk_blu.png"],"mutagen_generator_assignment":[0,1],"goal":1,"start":2,"action_noise":0,"location_history":"[2,3,2,1]","action_history":"[1,1,0]","mutagen_history":"[1,1,0]","location_rts":"[10185,4026,3174]","trial_type":"fractal-mutation","trial_index":72,"time_elapsed":2425027,"internal_node_id":"0.0-5.0-18.0"},{"group":"hexagon_bi","fractal_assignment":["../images/org_blu.png","../images/ylw_slt.png","../images/blu_wht.png","../images/gry_blk.png","../images/cyn_red.png","../images/pnk_blu.png"],"mutagen_generator_assignment":[0,1],"goal":4,"start":1,"action_noise":0,"location_history":"[1,2,3,4]","action_history":"[0,1,0]","mutagen_history":"[0,1,0]","location_rts":"[6528,6807,4558]","trial_type":"fractal-mutation","trial_index":73,"time_elapsed":2450072,"internal_node_id":"0.0-5.0-19.0"},{"group":"hexagon_bi","fractal_assignment":["../images/org_blu.png","../images/ylw_slt.png","../images/blu_wht.png","../images/gry_blk.png","../images/cyn_red.png","../images/pnk_blu.png"],"mutagen_generator_assignment":[0,1],"goal":0,"start":4,"action_noise":0,"location_history":"[4,5,0]","action_history":"[1,0]","mutagen_history":"[1,0]","location_rts":"[8810,5422]","trial_type":"fractal-mutation","trial_index":74,"time_elapsed":2470435,"internal_node_id":"0.0-5.0-20.0"},{"group":"hexagon_bi","fractal_assignment":["../images/org_blu.png","../images/ylw_slt.png","../images/blu_wht.png","../images/gry_blk.png","../images/cyn_red.png","../images/pnk_blu.png"],"mutagen_generator_assignment":[0,1],"goal":3,"start":0,"action_noise":0,"location_history":"[0,1,2,3]","action_history":"[1,0,1]","mutagen_history":"[1,0,1]","location_rts":"[8798,6501,7378]","trial_type":"fractal-mutation","trial_index":75,"time_elapsed":2500278,"internal_node_id":"0.0-5.0-21.0"},{"group":"hexagon_bi","fractal_assignment":["../images/org_blu.png","../images/ylw_slt.png","../images/blu_wht.png","../images/gry_blk.png","../images/cyn_red.png","../images/pnk_blu.png"],"mutagen_generator_assignment":[0,1],"goal":1,"start":3,"action_noise":0,"location_history":"[3,2,3,2,1]","action_history":"[1,1,1,0]","mutagen_history":"[1,1,1,0]","location_rts":"[9397,4668,5006,725]","trial_type":"fractal-mutation","trial_index":76,"time_elapsed":2528276,"internal_node_id":"0.0-5.0-22.0"},{"group":"hexagon_bi","fractal_assignment":["../images/org_blu.png","../images/ylw_slt.png","../images/blu_wht.png","../images/gry_blk.png","../images/cyn_red.png","../images/pnk_blu.png"],"mutagen_generator_assignment":[0,1],"goal":0,"start":1,"action_noise":0,"location_history":"[1,0]","action_history":"[1]","mutagen_history":"[1]","location_rts":"[4744]","trial_type":"fractal-mutation","trial_index":77,"time_elapsed":2538086,"internal_node_id":"0.0-5.0-23.0"},{"group":"hexagon_bi","fractal_assignment":["../images/org_blu.png","../images/ylw_slt.png","../images/blu_wht.png","../images/gry_blk.png","../images/cyn_red.png","../images/pnk_blu.png"],"mutagen_generator_assignment":[0,1],"goal":2,"start":0,"action_noise":0,"location_history":"[0,1,0,5,4,5,4,3,2]","action_history":"[1,1,0,1,1,1,0,1]","mutagen_history":"[1,1,0,1,1,1,0,1]","location_rts":"[5181,7910,4288,4617,9481,6681,1796,9460]","trial_type":"fractal-mutation","trial_index":78,"time_elapsed":2599888,"internal_node_id":"0.0-5.0-24.0"},{"group":"hexagon_bi","fractal_assignment":["../images/org_blu.png","../images/ylw_slt.png","../images/blu_wht.png","../images/gry_blk.png","../images/cyn_red.png","../images/pnk_blu.png"],"mutagen_generator_assignment":[0,1],"goal":4,"start":2,"action_noise":0,"location_history":"[2,1,0,1,0,5,0,5,4]","action_history":"[0,1,1,1,0,0,0,1]","mutagen_history":"[0,1,1,1,0,0,0,1]","location_rts":"[19741,9822,5176,5353,1306,6405,1424,1561]","trial_type":"fractal-mutation","trial_index":79,"time_elapsed":2663038,"internal_node_id":"0.0-5.0-25.0"},{"group":"hexagon_bi","fractal_assignment":["../images/org_blu.png","../images/ylw_slt.png","../images/blu_wht.png","../images/gry_blk.png","../images/cyn_red.png","../images/pnk_blu.png"],"mutagen_generator_assignment":[0,1],"goal":5,"start":4,"action_noise":0,"location_history":"[4,5]","action_history":"[1]","mutagen_history":"[1]","location_rts":"[6837]","trial_type":"fractal-mutation","trial_index":80,"time_elapsed":2674939,"internal_node_id":"0.0-5.0-26.0"},{"group":"hexagon_bi","fractal_assignment":["../images/org_blu.png","../images/ylw_slt.png","../images/blu_wht.png","../images/gry_blk.png","../images/cyn_red.png","../images/pnk_blu.png"],"mutagen_generator_assignment":[0,1],"goal":2,"start":5,"action_noise":0,"location_history":"[5,4,5,4,3,2]","action_history":"[1,1,1,0,1]","mutagen_history":"[1,1,1,0,1]","location_rts":"[17856,7830,1638,1412,4548]","trial_type":"fractal-mutation","trial_index":81,"time_elapsed":2717458,"internal_node_id":"0.0-5.0-27.0"},{"group":"hexagon_bi","fractal_assignment":["../images/org_blu.png","../images/ylw_slt.png","../images/blu_wht.png","../images/gry_blk.png","../images/cyn_red.png","../images/pnk_blu.png"],"mutagen_generator_assignment":[0,1],"goal":3,"start":2,"action_noise":0,"location_history":"[2,3]","action_history":"[1]","mutagen_history":"[1]","location_rts":"[6367]","trial_type":"fractal-mutation","trial_index":82,"time_elapsed":2728882,"internal_node_id":"0.0-5.0-28.0"},{"group":"hexagon_bi","fractal_assignment":["../images/org_blu.png","../images/ylw_slt.png","../images/blu_wht.png","../images/gry_blk.png","../images/cyn_red.png","../images/pnk_blu.png"],"mutagen_generator_assignment":[0,1],"goal":1,"start":3,"action_noise":0,"location_history":"[3,4,3,2,1]","action_history":"[0,0,1,0]","mutagen_history":"[0,0,1,0]","location_rts":"[15924,4609,1458,3808]","trial_type":"fractal-mutation","trial_index":83,"time_elapsed":2762865,"internal_node_id":"0.0-5.0-29.0"},{"group":"hexagon_bi","fractal_assignment":["../images/org_blu.png","../images/ylw_slt.png","../images/blu_wht.png","../images/gry_blk.png","../images/cyn_red.png","../images/pnk_blu.png"],"mutagen_generator_assignment":[0,1],"goal":4,"start":1,"action_noise":0,"location_history":"[1,2,1,0,1,2,3,2,1,2,1,0,5,4]","action_history":"[0,0,1,1,0,1,1,0,0,0,1,0,1]","mutagen_history":"[0,0,1,1,0,1,1,0,0,0,1,0,1]","location_rts":"[7017,3567,5055,4580,1212,1319,1579,1099,820,645,1099,1255,1125]","trial_type":"fractal-mutation","trial_index":84,"time_elapsed":2810809,"internal_node_id":"0.0-5.0-30.0"},{"group":"hexagon_bi","fractal_assignment":["../images/org_blu.png","../images/ylw_slt.png","../images/blu_wht.png","../images/gry_blk.png","../images/cyn_red.png","../images/pnk_blu.png"],"mutagen_generator_assignment":[0,1],"goal":5,"start":4,"action_noise":0,"location_history":"[4,5]","action_history":"[1]","mutagen_history":"[1]","location_rts":"[14826]","trial_type":"fractal-mutation","trial_index":85,"time_elapsed":2830696,"internal_node_id":"0.0-5.0-31.0"},{"group":"hexagon_bi","fractal_assignment":["../images/org_blu.png","../images/ylw_slt.png","../images/blu_wht.png","../images/gry_blk.png","../images/cyn_red.png","../images/pnk_blu.png"],"mutagen_generator_assignment":[0,1],"goal":0,"start":5,"action_noise":0,"location_history":"[5,4,3,2,1,0]","action_history":"[1,0,1,0,1]","mutagen_history":"[1,0,1,0,1]","location_rts":"[7729,5849,4670,5616,4006]","trial_type":"fractal-mutation","trial_index":86,"time_elapsed":2867838,"internal_node_id":"0.0-5.0-32.0"},{"group":"hexagon_bi","fractal_assignment":["../images/org_blu.png","../images/ylw_slt.png","../images/blu_wht.png","../images/gry_blk.png","../images/cyn_red.png","../images/pnk_blu.png"],"mutagen_generator_assignment":[0,1],"goal":2,"start":0,"action_noise":0,"location_history":"[0,1,2]","action_history":"[1,0]","mutagen_history":"[1,0]","location_rts":"[7922,8336]","trial_type":"fractal-mutation","trial_index":87,"time_elapsed":2890205,"internal_node_id":"0.0-5.0-33.0"},{"group":"hexagon_bi","fractal_assignment":["../images/org_blu.png","../images/ylw_slt.png","../images/blu_wht.png","../images/gry_blk.png","../images/cyn_red.png","../images/pnk_blu.png"],"mutagen_generator_assignment":[0,1],"goal":0,"start":2,"action_noise":0,"location_history":"[2,1,0]","action_history":"[0,1]","mutagen_history":"[0,1]","location_rts":"[12059,2368]","trial_type":"fractal-mutation","trial_index":88,"time_elapsed":2910752,"internal_node_id":"0.0-5.0-34.0"},{"group":"hexagon_bi","fractal_assignment":["../images/org_blu.png","../images/ylw_slt.png","../images/blu_wht.png","../images/gry_blk.png","../images/cyn_red.png","../images/pnk_blu.png"],"mutagen_generator_assignment":[0,1],"goal":5,"start":0,"action_noise":0,"location_history":"[0,5]","action_history":"[0]","mutagen_history":"[0]","location_rts":"[5971]","trial_type":"fractal-mutation","trial_index":89,"time_elapsed":2921794,"internal_node_id":"0.0-5.0-35.0"},{"group":"hexagon_bi","fractal_assignment":["../images/org_blu.png","../images/ylw_slt.png","../images/blu_wht.png","../images/gry_blk.png","../images/cyn_red.png","../images/pnk_blu.png"],"mutagen_generator_assignment":[0,1],"goal":1,"start":5,"action_noise":0,"location_history":"[5,4,5,0,1]","action_history":"[1,1,0,1]","mutagen_history":"[1,1,0,1]","location_rts":"[9607,4765,1415,4269]","trial_type":"fractal-mutation","trial_index":90,"time_elapsed":2950052,"internal_node_id":"0.0-5.0-36.0"},{"group":"hexagon_bi","fractal_assignment":["../images/org_blu.png","../images/ylw_slt.png","../images/blu_wht.png","../images/gry_blk.png","../images/cyn_red.png","../images/pnk_blu.png"],"mutagen_generator_assignment":[0,1],"goal":4,"start":1,"action_noise":0,"location_history":"[1,2,1,0,5,4]","action_history":"[0,0,1,0,1]","mutagen_history":"[0,0,1,0,1]","location_rts":"[8391,5766,1577,5992,1479]","trial_type":"fractal-mutation","trial_index":91,"time_elapsed":2982519,"internal_node_id":"0.0-5.0-37.0"},{"group":"hexagon_bi","fractal_assignment":["../images/org_blu.png","../images/ylw_slt.png","../images/blu_wht.png","../images/gry_blk.png","../images/cyn_red.png","../images/pnk_blu.png"],"mutagen_generator_assignment":[0,1],"goal":3,"start":4,"action_noise":0,"location_history":"[4,3]","action_history":"[0]","mutagen_history":"[0]","location_rts":"[8723]","trial_type":"fractal-mutation","trial_index":92,"time_elapsed":2996319,"internal_node_id":"0.0-5.0-38.0"},{"group":"hexagon_bi","fractal_assignment":["../images/org_blu.png","../images/ylw_slt.png","../images/blu_wht.png","../images/gry_blk.png","../images/cyn_red.png","../images/pnk_blu.png"],"mutagen_generator_assignment":[0,1],"goal":5,"start":3,"action_noise":0,"location_history":"[3,2,1,2,3,2,1,0,5]","action_history":"[1,0,0,1,1,0,1,0]","mutagen_history":"[1,0,0,1,1,0,1,0]","location_rts":"[6313,8405,3522,1102,8369,1149,721,8634]","trial_type":"fractal-mutation","trial_index":93,"time_elapsed":3046890,"internal_node_id":"0.0-5.0-39.0"},{"group":"hexagon_bi","fractal_assignment":["../images/org_blu.png","../images/ylw_slt.png","../images/blu_wht.png","../images/gry_blk.png","../images/cyn_red.png","../images/pnk_blu.png"],"mutagen_generator_assignment":[0,1],"goal":1,"start":5,"action_noise":0,"location_history":"[5,4,3,2,1]","action_history":"[1,0,1,0]","mutagen_history":"[1,0,1,0]","location_rts":"[10359,2785,3427,5371]","trial_type":"fractal-mutation","trial_index":94,"time_elapsed":3077032,"internal_node_id":"0.0-5.0-40.0"},{"group":"hexagon_bi","fractal_assignment":["../images/org_blu.png","../images/ylw_slt.png","../images/blu_wht.png","../images/gry_blk.png","../images/cyn_red.png","../images/pnk_blu.png"],"mutagen_generator_assignment":[0,1],"goal":2,"start":1,"action_noise":0,"location_history":"[1,2]","action_history":"[0]","mutagen_history":"[0]","location_rts":"[10246]","trial_type":"fractal-mutation","trial_index":95,"time_elapsed":3092340,"internal_node_id":"0.0-5.0-41.0"},{"group":"hexagon_bi","fractal_assignment":["../images/org_blu.png","../images/ylw_slt.png","../images/blu_wht.png","../images/gry_blk.png","../images/cyn_red.png","../images/pnk_blu.png"],"mutagen_generator_assignment":[0,1],"goal":4,"start":2,"action_noise":0,"location_history":"[2,3,4]","action_history":"[1,0]","mutagen_history":"[1,0]","location_rts":"[25629,14716]","trial_type":"fractal-mutation","trial_index":96,"time_elapsed":3138785,"internal_node_id":"0.0-5.0-42.0"},{"group":"hexagon_bi","fractal_assignment":["../images/org_blu.png","../images/ylw_slt.png","../images/blu_wht.png","../images/gry_blk.png","../images/cyn_red.png","../images/pnk_blu.png"],"mutagen_generator_assignment":[0,1],"goal":0,"start":4,"action_noise":0,"location_history":"[4,3,2,1,0]","action_history":"[0,1,0,1]","mutagen_history":"[0,1,0,1]","location_rts":"[14117,10147,3900,1598]","trial_type":"fractal-mutation","trial_index":97,"time_elapsed":3176762,"internal_node_id":"0.0-5.0-43.0"},{"group":"hexagon_bi","fractal_assignment":["../images/org_blu.png","../images/ylw_slt.png","../images/blu_wht.png","../images/gry_blk.png","../images/cyn_red.png","../images/pnk_blu.png"],"mutagen_generator_assignment":[0,1],"goal":3,"start":0,"action_noise":0,"location_history":"[0,5,4,3]","action_history":"[0,1,0]","mutagen_history":"[0,1,0]","location_rts":"[13843,6313,3824]","trial_type":"fractal-mutation","trial_index":98,"time_elapsed":3207892,"internal_node_id":"0.0-5.0-44.0"},{"group":"hexagon_bi","fractal_assignment":["../images/org_blu.png","../images/ylw_slt.png","../images/blu_wht.png","../images/gry_blk.png","../images/cyn_red.png","../images/pnk_blu.png"],"mutagen_generator_assignment":[0,1],"goal":0,"start":3,"action_noise":0,"location_history":"[3,2,1,0]","action_history":"[1,0,1]","mutagen_history":"[1,0,1]","location_rts":"[9282,4035,1154]","trial_type":"fractal-mutation","trial_index":99,"time_elapsed":3229524,"internal_node_id":"0.0-5.0-45.0"},{"group":"hexagon_bi","fractal_assignment":["../images/org_blu.png","../images/ylw_slt.png","../images/blu_wht.png","../images/gry_blk.png","../images/cyn_red.png","../images/pnk_blu.png"],"mutagen_generator_assignment":[0,1],"goal":4,"start":0,"action_noise":0,"location_history":"[0,1,2,3,4]","action_history":"[1,0,1,0]","mutagen_history":"[1,0,1,0]","location_rts":"[11488,1559,1107,3881]","trial_type":"fractal-mutation","trial_index":100,"time_elapsed":3255736,"internal_node_id":"0.0-5.0-46.0"},{"group":"hexagon_bi","fractal_assignment":["../images/org_blu.png","../images/ylw_slt.png","../images/blu_wht.png","../images/gry_blk.png","../images/cyn_red.png","../images/pnk_blu.png"],"mutagen_generator_assignment":[0,1],"goal":5,"start":4,"action_noise":0,"location_history":"[4,5]","action_history":"[1]","mutagen_history":"[1]","location_rts":"[4565]","trial_type":"fractal-mutation","trial_index":101,"time_elapsed":3265351,"internal_node_id":"0.0-5.0-47.0"},{"group":"hexagon_bi","fractal_assignment":["../images/org_blu.png","../images/ylw_slt.png","../images/blu_wht.png","../images/gry_blk.png","../images/cyn_red.png","../images/pnk_blu.png"],"mutagen_generator_assignment":[0,1],"goal":2,"start":5,"action_noise":0,"location_history":"[5,4,3,2]","action_history":"[1,0,1]","mutagen_history":"[1,0,1]","location_rts":"[22720,6173,5105]","trial_type":"fractal-mutation","trial_index":102,"time_elapsed":3306497,"internal_node_id":"0.0-5.0-48.0"},{"group":"hexagon_bi","fractal_assignment":["../images/org_blu.png","../images/ylw_slt.png","../images/blu_wht.png","../images/gry_blk.png","../images/cyn_red.png","../images/pnk_blu.png"],"mutagen_generator_assignment":[0,1],"goal":1,"start":2,"action_noise":0,"location_history":"[2,3,2,1]","action_history":"[1,1,0]","mutagen_history":"[1,1,0]","location_rts":"[8343,5245,975]","trial_type":"fractal-mutation","trial_index":103,"time_elapsed":3328203,"internal_node_id":"0.0-5.0-49.0"},{"view_history":"[{\"page_index\":0,\"viewing_time\":5480}]","rt":5481,"trial_type":"instructions","trial_index":104,"time_elapsed":3334696,"internal_node_id":"0.0-6.0"},{"rt":15724,"responses":"{\"Q0\":\"Memory preception\"}","trial_type":"survey-text","trial_index":105,"time_elapsed":3351438,"internal_node_id":"0.0-7.0-0.0"},{"rt":18039,"responses":"{\"Q0\":\"image preception\"}","trial_type":"survey-text","trial_index":106,"time_elapsed":3370489,"internal_node_id":"0.0-7.0-1.0"},{"rt":27152,"responses":"{\"Q0\":\"<img src='../images/diagrams/hexagon_tri.png'>\"}","trial_type":"survey-multi-choice","trial_index":107,"time_elapsed":3398659,"internal_node_id":"0.0-7.0-2.0"},{"rt":149352,"assignments":["../images/org_blu.png","../images/ylw_slt.png","../images/blu_wht.png","../images/gry_blk.png","../images/cyn_red.png","../images/pnk_blu.png"],"trial_type":"drag-drop-on-image","trial_index":108,"time_elapsed":3549018,"internal_node_id":"0.0-7.0-3.0"},{"rt":11562,"responses":"{\"Q0\":\"2\"}","trial_type":"survey-likert","trial_index":109,"time_elapsed":3561597,"internal_node_id":"0.0-7.0-4.0"},{"rt":26606,"responses":"{\"Q0\":\"They both were like going forward and backwards.\"}","trial_type":"survey-text","trial_index":110,"time_elapsed":3589218,"internal_node_id":"0.0-7.0-5.0"},{"rt":21174,"responses":"{\"Q0\":\"Yes\"}","trial_type":"survey-multi-choice","trial_index":111,"time_elapsed":3611402,"internal_node_id":"0.0-7.0-6.0"},{"rt":13965,"responses":"{\"Q0\":\"Between sessions 2 and 3\"}","trial_type":"survey-multi-choice","trial_index":112,"time_elapsed":3626389,"internal_node_id":"0.0-7.0-7.0"},{"rt":72872,"responses":"{\"Q0\":\"several of each had either only one door or one fractal and some had 2 steps or 2 doors.\"}","trial_type":"survey-text","trial_index":113,"time_elapsed":3700270,"internal_node_id":"0.0-7.0-8.0"},{"rt":12598,"responses":"{\"Q0\":\"1\"}","trial_type":"survey-likert","trial_index":114,"time_elapsed":3713880,"internal_node_id":"0.0-7.0-9.0"},{"rt":18115,"responses":"{\"Q0\":\"Same structure\"}","trial_type":"survey-multi-choice","trial_index":115,"time_elapsed":3733002,"internal_node_id":"0.0-7.0-10.0"},{"rt":57231,"responses":"{\"Q0\":\"left (white) door = ray, right (black) door = acid\",\"Q1\":\"Not at all confident\"}","trial_type":"survey-multi-choice","trial_index":116,"time_elapsed":3791258,"internal_node_id":"0.0-7.0-11.0"},{"rt":25800,"responses":"{\"Q0\":\"45-55\",\"Q1\":\"Some college\",\"Q2\":\"Female\",\"Q3\":\"White\"}","trial_type":"survey-multi-choice","trial_index":117,"time_elapsed":3818087,"internal_node_id":"0.0-8.0"},{"rt":19261,"responses":"{\"Q0\":\"Love this experiment makes me think...\"}","trial_type":"survey-text","trial_index":118,"time_elapsed":3838363,"internal_node_id":"0.0-9.0"}]