[{"view_history":"[{\"page_index\":0,\"viewing_time\":2727375},{\"page_index\":1,\"viewing_time\":6008}]","rt":2733387,"trial_type":"instructions","trial_index":0,"time_elapsed":2733392,"internal_node_id":"0.0-0.0"},{"view_history":"[{\"page_index\":0,\"viewing_time\":2092},{\"page_index\":1,\"viewing_time\":5900}]","rt":7994,"trial_type":"instructions","trial_index":1,"time_elapsed":2742389,"internal_node_id":"0.0-1.0"},{"group":"hexagon_tri","room_assignment":["purple","yellow","red","blue","grey","green"],"door_color_assignment":["black","white"],"door_generator_assignment":[0,1],"goal":2,"start":1,"action_noise":0,"location_history":"[1,3,2]","action_history":"[0,0]","door_history":"[0,0]","location_rts":"[3146,1823]","trial_type":"two-door-navigation","trial_index":2,"time_elapsed":2753523,"internal_node_id":"0.0-2.0-0.0"},{"group":"hexagon_tri","room_assignment":["purple","yellow","red","blue","grey","green"],"door_color_assignment":["black","white"],"door_generator_assignment":[0,1],"goal":0,"start":2,"action_noise":0,"location_history":"[2,1,3,4,0]","action_history":"[0,0,1,0]","door_history":"[0,0,1,0]","location_rts":"[1469,2298,867,746]","trial_type":"two-door-navigation","trial_index":3,"time_elapsed":2767095,"internal_node_id":"0.0-2.0-1.0"},{"group":"hexagon_tri","room_assignment":["purple","yellow","red","blue","grey","green"],"door_color_assignment":["black","white"],"door_generator_assignment":[0,1],"goal":5,"start":0,"action_noise":0,"location_history":"[0,5]","action_history":"[0]","door_history":"[0]","location_rts":"[2557]","trial_type":"two-door-navigation","trial_index":4,"time_elapsed":2774705,"internal_node_id":"0.0-2.0-2.0"},{"group":"hexagon_tri","room_assignment":["purple","yellow","red","blue","grey","green"],"door_color_assignment":["black","white"],"door_generator_assignment":[0,1],"goal":1,"start":5,"action_noise":0,"location_history":"[5,0,1]","action_history":"[1,1]","door_history":"[1,1]","location_rts":"[2070,1758]","trial_type":"two-door-navigation","trial_index":5,"time_elapsed":2784644,"internal_node_id":"0.0-2.0-3.0"},{"group":"hexagon_tri","room_assignment":["purple","yellow","red","blue","grey","green"],"door_color_assignment":["black","white"],"door_generator_assignment":[0,1],"goal":3,"start":1,"action_noise":0,"location_history":"[1,3]","action_history":"[0]","door_history":"[0]","location_rts":"[1754]","trial_type":"two-door-navigation","trial_index":6,"time_elapsed":2791449,"internal_node_id":"0.0-2.0-4.0"},{"group":"hexagon_tri","room_assignment":["purple","yellow","red","blue","grey","green"],"door_color_assignment":["black","white"],"door_generator_assignment":[0,1],"goal":5,"start":3,"action_noise":0,"location_history":"[3,4,2,1,3,4,2,3,2,1,3,2,3,4,2,1,5]","action_history":"[1,1,0,0,1,1,1,0,0,0,0,1,1,1,0,1]","door_history":"[1,1,0,0,1,1,1,0,0,0,0,1,1,1,0,1]","location_rts":"[2750,1591,768,1897,667,343,386,1021,551,545,410,1018,416,305,869,1104]","trial_type":"two-door-navigation","trial_index":7,"time_elapsed":2826758,"internal_node_id":"0.0-2.0-5.0"},{"group":"hexagon_tri","room_assignment":["purple","yellow","red","blue","grey","green"],"door_color_assignment":["black","white"],"door_generator_assignment":[0,1],"goal":4,"start":5,"action_noise":0,"location_history":"[5,0,5,4]","action_history":"[1,0,0]","door_history":"[1,0,0]","location_rts":"[3770,552,722]","trial_type":"two-door-navigation","trial_index":8,"time_elapsed":2838981,"internal_node_id":"0.0-2.0-6.0"},{"group":"hexagon_tri","room_assignment":["purple","yellow","red","blue","grey","green"],"door_color_assignment":["black","white"],"door_generator_assignment":[0,1],"goal":0,"start":4,"action_noise":0,"location_history":"[4,0]","action_history":"[0]","door_history":"[0]","location_rts":"[2110]","trial_type":"two-door-navigation","trial_index":9,"time_elapsed":2846148,"internal_node_id":"0.0-2.0-7.0"},{"group":"hexagon_tri","room_assignment":["purple","yellow","red","blue","grey","green"],"door_color_assignment":["black","white"],"door_generator_assignment":[0,1],"goal":2,"start":0,"action_noise":0,"location_history":"[0,5,0,1,5,0,5,4,0,5,0,1,5,0,1,3,2]","action_history":"[0,1,1,1,1,0,0,0,0,1,1,1,1,1,0,0]","door_history":"[0,1,1,1,1,0,0,0,0,1,1,1,1,1,0,0]","location_rts":"[4263,742,803,1024,923,398,539,571,456,682,450,429,372,314,297,643]","trial_type":"two-door-navigation","trial_index":10,"time_elapsed":2879738,"internal_node_id":"0.0-2.0-8.0"},{"group":"hexagon_tri","room_assignment":["purple","yellow","red","blue","grey","green"],"door_color_assignment":["black","white"],"door_generator_assignment":[0,1],"goal":4,"start":2,"action_noise":0,"location_history":"[2,3,2,1,3,2,3,4]","action_history":"[1,0,0,0,0,1,1]","door_history":"[1,0,0,0,0,1,1]","location_rts":"[1681,554,815,426,591,643,375]","trial_type":"two-door-navigation","trial_index":11,"time_elapsed":2896037,"internal_node_id":"0.0-2.0-9.0"},{"group":"hexagon_tri","room_assignment":["purple","yellow","red","blue","grey","green"],"door_color_assignment":["black","white"],"door_generator_assignment":[0,1],"goal":2,"start":4,"action_noise":0,"location_history":"[4,0,5,0,1,3,4,2]","action_history":"[0,0,1,1,0,1,1]","door_history":"[0,0,1,1,0,1,1]","location_rts":"[4081,1327,916,553,908,609,324]","trial_type":"two-door-navigation","trial_index":12,"time_elapsed":2916069,"internal_node_id":"0.0-2.0-10.0"},{"group":"hexagon_tri","room_assignment":["purple","yellow","red","blue","grey","green"],"door_color_assignment":["black","white"],"door_generator_assignment":[0,1],"goal":3,"start":2,"action_noise":0,"location_history":"[2,3]","action_history":"[1]","door_history":"[1]","location_rts":"[1833]","trial_type":"two-door-navigation","trial_index":13,"time_elapsed":2922950,"internal_node_id":"0.0-2.0-11.0"},{"group":"hexagon_tri","room_assignment":["purple","yellow","red","blue","grey","green"],"door_color_assignment":["black","white"],"door_generator_assignment":[0,1],"goal":0,"start":3,"action_noise":0,"location_history":"[3,4,0]","action_history":"[1,0]","door_history":"[1,0]","location_rts":"[3748,1225]","trial_type":"two-door-navigation","trial_index":14,"time_elapsed":2933980,"internal_node_id":"0.0-2.0-12.0"},{"group":"hexagon_tri","room_assignment":["purple","yellow","red","blue","grey","green"],"door_color_assignment":["black","white"],"door_generator_assignment":[0,1],"goal":5,"start":0,"action_noise":0,"location_history":"[0,5]","action_history":"[0]","door_history":"[0]","location_rts":"[3870]","trial_type":"two-door-navigation","trial_index":15,"time_elapsed":2942890,"internal_node_id":"0.0-2.0-13.0"},{"group":"hexagon_tri","room_assignment":["purple","yellow","red","blue","grey","green"],"door_color_assignment":["black","white"],"door_generator_assignment":[0,1],"goal":1,"start":5,"action_noise":0,"location_history":"[5,4,2,3,2,3,4,2,1]","action_history":"[0,1,1,0,1,1,1,0]","door_history":"[0,1,1,0,1,1,1,0]","location_rts":"[1983,964,767,1553,742,244,1063,633]","trial_type":"two-door-navigation","trial_index":16,"time_elapsed":2963185,"internal_node_id":"0.0-2.0-14.0"},{"group":"hexagon_tri","room_assignment":["purple","yellow","red","blue","grey","green"],"door_color_assignment":["black","white"],"door_generator_assignment":[0,1],"goal":5,"start":1,"action_noise":0,"location_history":"[1,5]","action_history":"[1]","door_history":"[1]","location_rts":"[1973]","trial_type":"two-door-navigation","trial_index":17,"time_elapsed":2970205,"internal_node_id":"0.0-2.0-15.0"},{"group":"hexagon_tri","room_assignment":["purple","yellow","red","blue","grey","green"],"door_color_assignment":["black","white"],"door_generator_assignment":[0,1],"goal":3,"start":5,"action_noise":0,"location_history":"[5,4,2,1,5,0,5,4,0,1,3]","action_history":"[0,1,0,1,1,0,0,0,1,0]","door_history":"[0,1,0,1,1,0,0,0,1,0]","location_rts":"[1595,879,2568,665,427,1141,414,1041,990,322]","trial_type":"two-door-navigation","trial_index":18,"time_elapsed":2994935,"internal_node_id":"0.0-2.0-16.0"},{"group":"hexagon_tri","room_assignment":["purple","yellow","red","blue","grey","green"],"door_color_assignment":["black","white"],"door_generator_assignment":[0,1],"goal":2,"start":3,"action_noise":0,"location_history":"[3,2]","action_history":"[0]","door_history":"[0]","location_rts":"[8974]","trial_type":"two-door-navigation","trial_index":19,"time_elapsed":3009041,"internal_node_id":"0.0-2.0-17.0"},{"group":"hexagon_tri","room_assignment":["purple","yellow","red","blue","grey","green"],"door_color_assignment":["black","white"],"door_generator_assignment":[0,1],"goal":1,"start":2,"action_noise":0,"location_history":"[2,3,2,3,4,2,3,2,1]","action_history":"[1,0,1,1,1,1,0,0]","door_history":"[1,0,1,1,1,1,0,0]","location_rts":"[1403,740,730,391,1008,659,1043,354]","trial_type":"two-door-navigation","trial_index":20,"time_elapsed":3028159,"internal_node_id":"0.0-2.0-18.0"},{"group":"hexagon_tri","room_assignment":["purple","yellow","red","blue","grey","green"],"door_color_assignment":["black","white"],"door_generator_assignment":[0,1],"goal":4,"start":1,"action_noise":0,"location_history":"[1,5,4]","action_history":"[1,0]","door_history":"[1,0]","location_rts":"[2182,692]","trial_type":"two-door-navigation","trial_index":21,"time_elapsed":3037272,"internal_node_id":"0.0-2.0-19.0"},{"group":"hexagon_tri","room_assignment":["purple","yellow","red","blue","grey","green"],"door_color_assignment":["black","white"],"door_generator_assignment":[0,1],"goal":0,"start":4,"action_noise":0,"location_history":"[4,0]","action_history":"[0]","door_history":"[0]","location_rts":"[1683]","trial_type":"two-door-navigation","trial_index":22,"time_elapsed":3044057,"internal_node_id":"0.0-2.0-20.0"},{"group":"hexagon_tri","room_assignment":["purple","yellow","red","blue","grey","green"],"door_color_assignment":["black","white"],"door_generator_assignment":[0,1],"goal":3,"start":0,"action_noise":0,"location_history":"[0,1,3]","action_history":"[1,0]","door_history":"[1,0]","location_rts":"[1798,702]","trial_type":"two-door-navigation","trial_index":23,"time_elapsed":3052820,"internal_node_id":"0.0-2.0-21.0"},{"group":"hexagon_tri","room_assignment":["purple","yellow","red","blue","grey","green"],"door_color_assignment":["black","white"],"door_generator_assignment":[0,1],"goal":1,"start":3,"action_noise":0,"location_history":"[3,4,0,5,4,2,3,4,2,1]","action_history":"[1,0,0,0,1,1,1,1,0]","door_history":"[1,0,0,0,1,1,1,1,0]","location_rts":"[1068,615,290,606,654,302,382,818,965]","trial_type":"two-door-navigation","trial_index":24,"time_elapsed":3072439,"internal_node_id":"0.0-2.0-22.0"},{"group":"hexagon_tri","room_assignment":["purple","yellow","red","blue","grey","green"],"door_color_assignment":["black","white"],"door_generator_assignment":[0,1],"goal":0,"start":1,"action_noise":0,"location_history":"[1,3,4,0]","action_history":"[0,1,0]","door_history":"[0,1,0]","location_rts":"[1836,1976,606]","trial_type":"two-door-navigation","trial_index":25,"time_elapsed":3084091,"internal_node_id":"0.0-2.0-23.0"},{"group":"hexagon_tri","room_assignment":["purple","yellow","red","blue","grey","green"],"door_color_assignment":["black","white"],"door_generator_assignment":[0,1],"goal":2,"start":0,"action_noise":0,"location_history":"[0,5,4,2]","action_history":"[0,0,1]","door_history":"[0,0,1]","location_rts":"[2040,894,1448]","trial_type":"two-door-navigation","trial_index":26,"time_elapsed":3095731,"internal_node_id":"0.0-2.0-24.0"},{"group":"hexagon_tri","room_assignment":["purple","yellow","red","blue","grey","green"],"door_color_assignment":["black","white"],"door_generator_assignment":[0,1],"goal":4,"start":2,"action_noise":0,"location_history":"[2,3,2,1,3,4]","action_history":"[1,0,0,0,1]","door_history":"[1,0,0,0,1]","location_rts":"[2980,516,558,673,680]","trial_type":"two-door-navigation","trial_index":27,"time_elapsed":3110567,"internal_node_id":"0.0-2.0-25.0"},{"group":"hexagon_tri","room_assignment":["purple","yellow","red","blue","grey","green"],"door_color_assignment":["black","white"],"door_generator_assignment":[0,1],"goal":5,"start":4,"action_noise":0,"location_history":"[4,2,1,3,4,2,3,2,3,4,2,3,2,3,4,0,5]","action_history":"[1,0,0,1,1,1,0,1,1,1,1,0,1,1,0,0]","door_history":"[1,0,0,1,1,1,0,1,1,1,1,0,1,1,0,0]","location_rts":"[4132,820,998,704,625,405,511,416,453,663,433,351,503,572,632,326]","trial_type":"two-door-navigation","trial_index":28,"time_elapsed":3144938,"internal_node_id":"0.0-2.0-26.0"},{"group":"hexagon_tri","room_assignment":["purple","yellow","red","blue","grey","green"],"door_color_assignment":["black","white"],"door_generator_assignment":[0,1],"goal":2,"start":5,"action_noise":0,"location_history":"[5,4,2]","action_history":"[0,1]","door_history":"[0,1]","location_rts":"[1524,704]","trial_type":"two-door-navigation","trial_index":29,"time_elapsed":3153425,"internal_node_id":"0.0-2.0-27.0"},{"group":"hexagon_tri","room_assignment":["purple","yellow","red","blue","grey","green"],"door_color_assignment":["black","white"],"door_generator_assignment":[0,1],"goal":3,"start":2,"action_noise":0,"location_history":"[2,3]","action_history":"[1]","door_history":"[1]","location_rts":"[1052]","trial_type":"two-door-navigation","trial_index":30,"time_elapsed":3159562,"internal_node_id":"0.0-2.0-28.0"},{"group":"hexagon_tri","room_assignment":["purple","yellow","red","blue","grey","green"],"door_color_assignment":["black","white"],"door_generator_assignment":[0,1],"goal":1,"start":3,"action_noise":0,"location_history":"[3,2,1]","action_history":"[0,0]","door_history":"[0,0]","location_rts":"[2015,1784]","trial_type":"two-door-navigation","trial_index":31,"time_elapsed":3169642,"internal_node_id":"0.0-2.0-29.0"},{"group":"hexagon_tri","room_assignment":["purple","yellow","red","blue","grey","green"],"door_color_assignment":["black","white"],"door_generator_assignment":[0,1],"goal":4,"start":1,"action_noise":0,"location_history":"[1,3,2,1,5,0,5,4]","action_history":"[0,0,0,1,1,0,0]","door_history":"[0,0,0,1,1,0,0]","location_rts":"[2258,863,614,563,603,477,444]","trial_type":"two-door-navigation","trial_index":32,"time_elapsed":3187398,"internal_node_id":"0.0-2.0-30.0"},{"group":"hexagon_tri","room_assignment":["purple","yellow","red","blue","grey","green"],"door_color_assignment":["black","white"],"door_generator_assignment":[0,1],"goal":5,"start":4,"action_noise":0,"location_history":"[4,0,1,5]","action_history":"[0,1,1]","door_history":"[0,1,1]","location_rts":"[1781,806,627]","trial_type":"two-door-navigation","trial_index":33,"time_elapsed":3197935,"internal_node_id":"0.0-2.0-31.0"},{"group":"hexagon_tri","room_assignment":["purple","yellow","red","blue","grey","green"],"door_color_assignment":["black","white"],"door_generator_assignment":[0,1],"goal":0,"start":5,"action_noise":0,"location_history":"[5,4,0]","action_history":"[0,0]","door_history":"[0,0]","location_rts":"[2005,760]","trial_type":"two-door-navigation","trial_index":34,"time_elapsed":3206939,"internal_node_id":"0.0-2.0-32.0"},{"group":"hexagon_tri","room_assignment":["purple","yellow","red","blue","grey","green"],"door_color_assignment":["black","white"],"door_generator_assignment":[0,1],"goal":2,"start":0,"action_noise":0,"location_history":"[0,5,4,2]","action_history":"[0,0,1]","door_history":"[0,0,1]","location_rts":"[1593,856,726]","trial_type":"two-door-navigation","trial_index":35,"time_elapsed":3217527,"internal_node_id":"0.0-2.0-33.0"},{"group":"hexagon_tri","room_assignment":["purple","yellow","red","blue","grey","green"],"door_color_assignment":["black","white"],"door_generator_assignment":[0,1],"goal":0,"start":2,"action_noise":0,"location_history":"[2,3,2,1,3,4,0]","action_history":"[1,0,0,0,1,0]","door_history":"[1,0,0,0,1,0]","location_rts":"[1211,901,381,345,575,1052]","trial_type":"two-door-navigation","trial_index":36,"time_elapsed":3232419,"internal_node_id":"0.0-2.0-34.0"},{"group":"hexagon_tri","room_assignment":["purple","yellow","red","blue","grey","green"],"door_color_assignment":["black","white"],"door_generator_assignment":[0,1],"goal":5,"start":0,"action_noise":0,"location_history":"[0,1,3,4,0,5]","action_history":"[1,0,1,0,0]","door_history":"[1,0,1,0,0]","location_rts":"[2706,972,1044,900,807]","trial_type":"two-door-navigation","trial_index":37,"time_elapsed":3248300,"internal_node_id":"0.0-2.0-35.0"},{"group":"hexagon_tri","room_assignment":["purple","yellow","red","blue","grey","green"],"door_color_assignment":["black","white"],"door_generator_assignment":[0,1],"goal":1,"start":5,"action_noise":0,"location_history":"[5,4,0,1]","action_history":"[0,0,1]","door_history":"[0,0,1]","location_rts":"[1462,1048,453]","trial_type":"two-door-navigation","trial_index":38,"time_elapsed":3258605,"internal_node_id":"0.0-2.0-36.0"},{"group":"hexagon_tri","room_assignment":["purple","yellow","red","blue","grey","green"],"door_color_assignment":["black","white"],"door_generator_assignment":[0,1],"goal":4,"start":1,"action_noise":0,"location_history":"[1,5,4]","action_history":"[1,0]","door_history":"[1,0]","location_rts":"[710,648]","trial_type":"two-door-navigation","trial_index":39,"time_elapsed":3266244,"internal_node_id":"0.0-2.0-37.0"},{"group":"hexagon_tri","room_assignment":["purple","yellow","red","blue","grey","green"],"door_color_assignment":["black","white"],"door_generator_assignment":[0,1],"goal":3,"start":4,"action_noise":0,"location_history":"[4,2,1,5,0,1,3]","action_history":"[1,0,1,1,1,0]","door_history":"[1,0,1,1,1,0]","location_rts":"[2106,777,559,630,387,488]","trial_type":"two-door-navigation","trial_index":40,"time_elapsed":3282062,"internal_node_id":"0.0-2.0-38.0"},{"group":"hexagon_tri","room_assignment":["purple","yellow","red","blue","grey","green"],"door_color_assignment":["black","white"],"door_generator_assignment":[0,1],"goal":5,"start":3,"action_noise":0,"location_history":"[3,2,3,2,3,4,2,3,2,1,3,4,0,5]","action_history":"[0,1,0,1,1,1,1,0,0,0,1,0,0]","door_history":"[0,1,0,1,1,1,1,0,0,0,1,0,0]","location_rts":"[1154,516,533,538,2609,558,355,866,707,810,907,548,248]","trial_type":"two-door-navigation","trial_index":41,"time_elapsed":3310835,"internal_node_id":"0.0-2.0-39.0"},{"group":"hexagon_tri","room_assignment":["purple","yellow","red","blue","grey","green"],"door_color_assignment":["black","white"],"door_generator_assignment":[0,1],"goal":1,"start":5,"action_noise":0,"location_history":"[5,0,5,4,2,3,4,0,1]","action_history":"[1,0,0,1,1,1,0,1]","door_history":"[1,0,0,1,1,1,0,1]","location_rts":"[1245,500,723,1301,449,748,561,526]","trial_type":"two-door-navigation","trial_index":42,"time_elapsed":3329672,"internal_node_id":"0.0-2.0-40.0"},{"group":"hexagon_tri","room_assignment":["purple","yellow","red","blue","grey","green"],"door_color_assignment":["black","white"],"door_generator_assignment":[0,1],"goal":2,"start":1,"action_noise":0,"location_history":"[1,5,4,2]","action_history":"[1,0,1]","door_history":"[1,0,1]","location_rts":"[866,727,8110]","trial_type":"two-door-navigation","trial_index":43,"time_elapsed":3346715,"internal_node_id":"0.0-2.0-41.0"},{"group":"hexagon_tri","room_assignment":["purple","yellow","red","blue","grey","green"],"door_color_assignment":["black","white"],"door_generator_assignment":[0,1],"goal":4,"start":2,"action_noise":0,"location_history":"[2,3,2,3,4]","action_history":"[1,0,1,1]","door_history":"[1,0,1,1]","location_rts":"[2930,1413,1496,463]","trial_type":"two-door-navigation","trial_index":44,"time_elapsed":3361525,"internal_node_id":"0.0-2.0-42.0"},{"group":"hexagon_tri","room_assignment":["purple","yellow","red","blue","grey","green"],"door_color_assignment":["black","white"],"door_generator_assignment":[0,1],"goal":0,"start":4,"action_noise":0,"location_history":"[4,0]","action_history":"[0]","door_history":"[0]","location_rts":"[1149]","trial_type":"two-door-navigation","trial_index":45,"time_elapsed":3367816,"internal_node_id":"0.0-2.0-43.0"},{"group":"hexagon_tri","room_assignment":["purple","yellow","red","blue","grey","green"],"door_color_assignment":["black","white"],"door_generator_assignment":[0,1],"goal":3,"start":0,"action_noise":0,"location_history":"[0,5,0,5,4,0,1,5,0,5,0,5,4,0,1,5,0,1,3]","action_history":"[0,1,0,0,0,1,1,1,0,1,0,0,0,1,1,1,1,0]","door_history":"[0,1,0,0,0,1,1,1,0,1,0,0,0,1,1,1,1,0]","location_rts":"[1481,892,624,284,577,681,314,467,583,436,657,253,349,435,203,302,313,489]","trial_type":"two-door-navigation","trial_index":46,"time_elapsed":3401172,"internal_node_id":"0.0-2.0-44.0"},{"group":"hexagon_tri","room_assignment":["purple","yellow","red","blue","grey","green"],"door_color_assignment":["black","white"],"door_generator_assignment":[0,1],"goal":0,"start":3,"action_noise":0,"location_history":"[3,4,0]","action_history":"[1,0]","door_history":"[1,0]","location_rts":"[1584,1469]","trial_type":"two-door-navigation","trial_index":47,"time_elapsed":3410487,"internal_node_id":"0.0-2.0-45.0"},{"group":"hexagon_tri","room_assignment":["purple","yellow","red","blue","grey","green"],"door_color_assignment":["black","white"],"door_generator_assignment":[0,1],"goal":4,"start":0,"action_noise":0,"location_history":"[0,5,4]","action_history":"[0,0]","door_history":"[0,0]","location_rts":"[968,889]","trial_type":"two-door-navigation","trial_index":48,"time_elapsed":3418736,"internal_node_id":"0.0-2.0-46.0"},{"group":"hexagon_tri","room_assignment":["purple","yellow","red","blue","grey","green"],"door_color_assignment":["black","white"],"door_generator_assignment":[0,1],"goal":5,"start":4,"action_noise":0,"location_history":"[4,2,1,3,4,0,5]","action_history":"[1,0,0,1,0,0]","door_history":"[1,0,0,1,0,0]","location_rts":"[2326,2097,1236,3719,591,39]","trial_type":"two-door-navigation","trial_index":49,"time_elapsed":3439603,"internal_node_id":"0.0-2.0-47.0"},{"group":"hexagon_tri","room_assignment":["purple","yellow","red","blue","grey","green"],"door_color_assignment":["black","white"],"door_generator_assignment":[0,1],"goal":2,"start":5,"action_noise":0,"location_history":"[5,0,5,4,2]","action_history":"[1,0,0,1]","door_history":"[1,0,0,1]","location_rts":"[1414,592,511,1221]","trial_type":"two-door-navigation","trial_index":50,"time_elapsed":3451771,"internal_node_id":"0.0-2.0-48.0"},{"group":"hexagon_tri","room_assignment":["purple","yellow","red","blue","grey","green"],"door_color_assignment":["black","white"],"door_generator_assignment":[0,1],"goal":1,"start":2,"action_noise":0,"location_history":"[2,1]","action_history":"[0]","door_history":"[0]","location_rts":"[1071]","trial_type":"two-door-navigation","trial_index":51,"time_elapsed":3458012,"internal_node_id":"0.0-2.0-49.0"},{"view_history":"[{\"page_index\":0,\"viewing_time\":1522}]","rt":1524,"trial_type":"instructions","trial_index":52,"time_elapsed":3460580,"internal_node_id":"0.0-3.0"},{"view_history":"[{\"page_index\":0,\"viewing_time\":1734},{\"page_index\":1,\"viewing_time\":4599}]","rt":6336,"trial_type":"instructions","trial_index":53,"time_elapsed":3467918,"internal_node_id":"0.0-4.0"},{"group":"hexagon_tri","fractal_assignment":["../images/gry_blk.png","../images/org_blu.png","../images/cyn_red.png","../images/blu_wht.png","../images/pnk_blu.png","../images/ylw_slt.png"],"mutagen_generator_assignment":[1,0],"goal":2,"start":1,"action_noise":0,"location_history":"[1,3,4,0,1,3,4,2]","action_history":"[0,1,0,1,0,1,1]","mutagen_history":"[1,0,1,0,1,0,0]","location_rts":"[11988,834,697,521,579,529,657]","trial_type":"fractal-mutation","trial_index":54,"time_elapsed":3496802,"internal_node_id":"0.0-5.0-0.0"},{"group":"hexagon_tri","fractal_assignment":["../images/gry_blk.png","../images/org_blu.png","../images/cyn_red.png","../images/blu_wht.png","../images/pnk_blu.png","../images/ylw_slt.png"],"mutagen_generator_assignment":[1,0],"goal":0,"start":2,"action_noise":0,"location_history":"[2,3,4,0]","action_history":"[1,1,0]","mutagen_history":"[0,0,1]","location_rts":"[1618,1201,756]","trial_type":"fractal-mutation","trial_index":55,"time_elapsed":3508235,"internal_node_id":"0.0-5.0-1.0"},{"group":"hexagon_tri","fractal_assignment":["../images/gry_blk.png","../images/org_blu.png","../images/cyn_red.png","../images/blu_wht.png","../images/pnk_blu.png","../images/ylw_slt.png"],"mutagen_generator_assignment":[1,0],"goal":5,"start":0,"action_noise":0,"location_history":"[0,1,3,4,2,3,2,1,3,2,3,4,2,3,2,1,3,4,0,1,3,4,2,3,4,0,5]","action_history":"[1,0,1,1,1,0,0,0,0,1,1,1,1,0,0,0,1,0,1,0,1,1,1,1,0,0]","mutagen_history":"[0,1,0,0,0,1,1,1,1,0,0,0,0,1,1,1,0,1,0,1,0,0,0,0,1,1]","location_rts":"[1526,979,678,817,698,1334,487,959,1321,399,427,850,650,648,415,1189,1374,1981,1381,848,481,335,647,694,1164,730]","trial_type":"fractal-mutation","trial_index":56,"time_elapsed":3571773,"internal_node_id":"0.0-5.0-2.0"},{"group":"hexagon_tri","fractal_assignment":["../images/gry_blk.png","../images/org_blu.png","../images/cyn_red.png","../images/blu_wht.png","../images/pnk_blu.png","../images/ylw_slt.png"],"mutagen_generator_assignment":[1,0],"goal":1,"start":5,"action_noise":0,"location_history":"[5,0,1]","action_history":"[1,1]","mutagen_history":"[0,0]","location_rts":"[2199,1114]","trial_type":"fractal-mutation","trial_index":57,"time_elapsed":3581517,"internal_node_id":"0.0-5.0-3.0"},{"group":"hexagon_tri","fractal_assignment":["../images/gry_blk.png","../images/org_blu.png","../images/cyn_red.png","../images/blu_wht.png","../images/pnk_blu.png","../images/ylw_slt.png"],"mutagen_generator_assignment":[1,0],"goal":3,"start":1,"action_noise":0,"location_history":"[1,3]","action_history":"[0]","mutagen_history":"[1]","location_rts":"[1927]","trial_type":"fractal-mutation","trial_index":58,"time_elapsed":3588730,"internal_node_id":"0.0-5.0-4.0"},{"group":"hexagon_tri","fractal_assignment":["../images/gry_blk.png","../images/org_blu.png","../images/cyn_red.png","../images/blu_wht.png","../images/pnk_blu.png","../images/ylw_slt.png"],"mutagen_generator_assignment":[1,0],"goal":5,"start":3,"action_noise":0,"location_history":"[3,2,3,4,0,5]","action_history":"[0,1,1,0,0]","mutagen_history":"[1,0,0,1,1]","location_rts":"[6751,905,574,751,537]","trial_type":"fractal-mutation","trial_index":59,"time_elapsed":3610115,"internal_node_id":"0.0-5.0-5.0"},{"group":"hexagon_tri","fractal_assignment":["../images/gry_blk.png","../images/org_blu.png","../images/cyn_red.png","../images/blu_wht.png","../images/pnk_blu.png","../images/ylw_slt.png"],"mutagen_generator_assignment":[1,0],"goal":4,"start":5,"action_noise":0,"location_history":"[5,0,1,3,2,3,2,1,3,4]","action_history":"[1,1,0,0,1,0,0,0,1]","mutagen_history":"[0,0,1,1,0,1,1,1,0]","location_rts":"[1410,1275,529,1113,406,567,179,651,762]","trial_type":"fractal-mutation","trial_index":60,"time_elapsed":3631003,"internal_node_id":"0.0-5.0-6.0"},{"group":"hexagon_tri","fractal_assignment":["../images/gry_blk.png","../images/org_blu.png","../images/cyn_red.png","../images/blu_wht.png","../images/pnk_blu.png","../images/ylw_slt.png"],"mutagen_generator_assignment":[1,0],"goal":0,"start":4,"action_noise":0,"location_history":"[4,2,3,4,0]","action_history":"[1,1,1,0]","mutagen_history":"[0,0,0,1]","location_rts":"[7189,1686,1551,601]","trial_type":"fractal-mutation","trial_index":61,"time_elapsed":3650823,"internal_node_id":"0.0-5.0-7.0"},{"group":"hexagon_tri","fractal_assignment":["../images/gry_blk.png","../images/org_blu.png","../images/cyn_red.png","../images/blu_wht.png","../images/pnk_blu.png","../images/ylw_slt.png"],"mutagen_generator_assignment":[1,0],"goal":2,"start":0,"action_noise":0,"location_history":"[0,5,0,1,3,4,2]","action_history":"[0,1,1,0,1,1]","mutagen_history":"[1,0,0,1,0,0]","location_rts":"[1518,1781,784,906,479,588]","trial_type":"fractal-mutation","trial_index":62,"time_elapsed":3668067,"internal_node_id":"0.0-5.0-8.0"},{"group":"hexagon_tri","fractal_assignment":["../images/gry_blk.png","../images/org_blu.png","../images/cyn_red.png","../images/blu_wht.png","../images/pnk_blu.png","../images/ylw_slt.png"],"mutagen_generator_assignment":[1,0],"goal":4,"start":2,"action_noise":0,"location_history":"[2,3,4]","action_history":"[1,1]","mutagen_history":"[0,0]","location_rts":"[1385,1254]","trial_type":"fractal-mutation","trial_index":63,"time_elapsed":3677113,"internal_node_id":"0.0-5.0-9.0"},{"group":"hexagon_tri","fractal_assignment":["../images/gry_blk.png","../images/org_blu.png","../images/cyn_red.png","../images/blu_wht.png","../images/pnk_blu.png","../images/ylw_slt.png"],"mutagen_generator_assignment":[1,0],"goal":2,"start":4,"action_noise":0,"location_history":"[4,2]","action_history":"[1]","mutagen_history":"[0]","location_rts":"[1638]","trial_type":"fractal-mutation","trial_index":64,"time_elapsed":3684002,"internal_node_id":"0.0-5.0-10.0"},{"group":"hexagon_tri","fractal_assignment":["../images/gry_blk.png","../images/org_blu.png","../images/cyn_red.png","../images/blu_wht.png","../images/pnk_blu.png","../images/ylw_slt.png"],"mutagen_generator_assignment":[1,0],"goal":3,"start":2,"action_noise":0,"location_history":"[2,1,5,0,1,3]","action_history":"[0,1,1,1,0]","mutagen_history":"[1,0,0,0,1]","location_rts":"[1280,1554,610,618,387]","trial_type":"fractal-mutation","trial_index":65,"time_elapsed":3698543,"internal_node_id":"0.0-5.0-11.0"},{"group":"hexagon_tri","fractal_assignment":["../images/gry_blk.png","../images/org_blu.png","../images/cyn_red.png","../images/blu_wht.png","../images/pnk_blu.png","../images/ylw_slt.png"],"mutagen_generator_assignment":[1,0],"goal":0,"start":3,"action_noise":0,"location_history":"[3,4,0]","action_history":"[1,0]","mutagen_history":"[0,1]","location_rts":"[2841,553]","trial_type":"fractal-mutation","trial_index":66,"time_elapsed":3708384,"internal_node_id":"0.0-5.0-12.0"},{"group":"hexagon_tri","fractal_assignment":["../images/gry_blk.png","../images/org_blu.png","../images/cyn_red.png","../images/blu_wht.png","../images/pnk_blu.png","../images/ylw_slt.png"],"mutagen_generator_assignment":[1,0],"goal":5,"start":0,"action_noise":0,"location_history":"[0,5]","action_history":"[0]","mutagen_history":"[1]","location_rts":"[4141]","trial_type":"fractal-mutation","trial_index":67,"time_elapsed":3717846,"internal_node_id":"0.0-5.0-13.0"},{"group":"hexagon_tri","fractal_assignment":["../images/gry_blk.png","../images/org_blu.png","../images/cyn_red.png","../images/blu_wht.png","../images/pnk_blu.png","../images/ylw_slt.png"],"mutagen_generator_assignment":[1,0],"goal":1,"start":5,"action_noise":0,"location_history":"[5,0,1]","action_history":"[1,1]","mutagen_history":"[0,0]","location_rts":"[2232,1810]","trial_type":"fractal-mutation","trial_index":68,"time_elapsed":3728376,"internal_node_id":"0.0-5.0-14.0"},{"group":"hexagon_tri","fractal_assignment":["../images/gry_blk.png","../images/org_blu.png","../images/cyn_red.png","../images/blu_wht.png","../images/pnk_blu.png","../images/ylw_slt.png"],"mutagen_generator_assignment":[1,0],"goal":5,"start":1,"action_noise":0,"location_history":"[1,5]","action_history":"[1]","mutagen_history":"[0]","location_rts":"[1496]","trial_type":"fractal-mutation","trial_index":69,"time_elapsed":3735171,"internal_node_id":"0.0-5.0-15.0"},{"group":"hexagon_tri","fractal_assignment":["../images/gry_blk.png","../images/org_blu.png","../images/cyn_red.png","../images/blu_wht.png","../images/pnk_blu.png","../images/ylw_slt.png"],"mutagen_generator_assignment":[1,0],"goal":3,"start":5,"action_noise":0,"location_history":"[5,4,2,3]","action_history":"[0,1,1]","mutagen_history":"[1,0,0]","location_rts":"[4506,845,1536]","trial_type":"fractal-mutation","trial_index":70,"time_elapsed":3749692,"internal_node_id":"0.0-5.0-16.0"},{"group":"hexagon_tri","fractal_assignment":["../images/gry_blk.png","../images/org_blu.png","../images/cyn_red.png","../images/blu_wht.png","../images/pnk_blu.png","../images/ylw_slt.png"],"mutagen_generator_assignment":[1,0],"goal":2,"start":3,"action_noise":0,"location_history":"[3,2]","action_history":"[0]","mutagen_history":"[1]","location_rts":"[2269]","trial_type":"fractal-mutation","trial_index":71,"time_elapsed":3757221,"internal_node_id":"0.0-5.0-17.0"},{"group":"hexagon_tri","fractal_assignment":["../images/gry_blk.png","../images/org_blu.png","../images/cyn_red.png","../images/blu_wht.png","../images/pnk_blu.png","../images/ylw_slt.png"],"mutagen_generator_assignment":[1,0],"goal":1,"start":2,"action_noise":0,"location_history":"[2,3,2,1]","action_history":"[1,0,0]","mutagen_history":"[0,1,1]","location_rts":"[2186,640,584]","trial_type":"fractal-mutation","trial_index":72,"time_elapsed":3768264,"internal_node_id":"0.0-5.0-18.0"},{"group":"hexagon_tri","fractal_assignment":["../images/gry_blk.png","../images/org_blu.png","../images/cyn_red.png","../images/blu_wht.png","../images/pnk_blu.png","../images/ylw_slt.png"],"mutagen_generator_assignment":[1,0],"goal":4,"start":1,"action_noise":0,"location_history":"[1,5,0,1,3,2,3,4]","action_history":"[1,1,1,0,0,1,1]","mutagen_history":"[0,0,0,1,1,0,0]","location_rts":"[989,817,759,572,950,518,297]","trial_type":"fractal-mutation","trial_index":73,"time_elapsed":3785774,"internal_node_id":"0.0-5.0-19.0"},{"group":"hexagon_tri","fractal_assignment":["../images/gry_blk.png","../images/org_blu.png","../images/cyn_red.png","../images/blu_wht.png","../images/pnk_blu.png","../images/ylw_slt.png"],"mutagen_generator_assignment":[1,0],"goal":0,"start":4,"action_noise":0,"location_history":"[4,0]","action_history":"[0]","mutagen_history":"[1]","location_rts":"[1995]","trial_type":"fractal-mutation","trial_index":74,"time_elapsed":3793027,"internal_node_id":"0.0-5.0-20.0"},{"group":"hexagon_tri","fractal_assignment":["../images/gry_blk.png","../images/org_blu.png","../images/cyn_red.png","../images/blu_wht.png","../images/pnk_blu.png","../images/ylw_slt.png"],"mutagen_generator_assignment":[1,0],"goal":3,"start":0,"action_noise":0,"location_history":"[0,1,3]","action_history":"[1,0]","mutagen_history":"[0,1]","location_rts":"[1474,624]","trial_type":"fractal-mutation","trial_index":75,"time_elapsed":3801553,"internal_node_id":"0.0-5.0-21.0"},{"group":"hexagon_tri","fractal_assignment":["../images/gry_blk.png","../images/org_blu.png","../images/cyn_red.png","../images/blu_wht.png","../images/pnk_blu.png","../images/ylw_slt.png"],"mutagen_generator_assignment":[1,0],"goal":1,"start":3,"action_noise":0,"location_history":"[3,2,3,4,2,1]","action_history":"[0,1,1,1,0]","mutagen_history":"[1,0,0,0,1]","location_rts":"[1606,547,542,494,411]","trial_type":"fractal-mutation","trial_index":76,"time_elapsed":3815269,"internal_node_id":"0.0-5.0-22.0"},{"group":"hexagon_tri","fractal_assignment":["../images/gry_blk.png","../images/org_blu.png","../images/cyn_red.png","../images/blu_wht.png","../images/pnk_blu.png","../images/ylw_slt.png"],"mutagen_generator_assignment":[1,0],"goal":0,"start":1,"action_noise":0,"location_history":"[1,5,4,0]","action_history":"[1,0,0]","mutagen_history":"[0,1,1]","location_rts":"[1842,728,720]","trial_type":"fractal-mutation","trial_index":77,"time_elapsed":3826275,"internal_node_id":"0.0-5.0-23.0"},{"group":"hexagon_tri","fractal_assignment":["../images/gry_blk.png","../images/org_blu.png","../images/cyn_red.png","../images/blu_wht.png","../images/pnk_blu.png","../images/ylw_slt.png"],"mutagen_generator_assignment":[1,0],"goal":2,"start":0,"action_noise":0,"location_history":"[0,1,3,2]","action_history":"[1,0,0]","mutagen_history":"[0,1,1]","location_rts":"[945,794,546]","trial_type":"fractal-mutation","trial_index":78,"time_elapsed":3836309,"internal_node_id":"0.0-5.0-24.0"},{"group":"hexagon_tri","fractal_assignment":["../images/gry_blk.png","../images/org_blu.png","../images/cyn_red.png","../images/blu_wht.png","../images/pnk_blu.png","../images/ylw_slt.png"],"mutagen_generator_assignment":[1,0],"goal":4,"start":2,"action_noise":0,"location_history":"[2,3,4]","action_history":"[1,1]","mutagen_history":"[0,0]","location_rts":"[673,693]","trial_type":"fractal-mutation","trial_index":79,"time_elapsed":3844039,"internal_node_id":"0.0-5.0-25.0"},{"group":"hexagon_tri","fractal_assignment":["../images/gry_blk.png","../images/org_blu.png","../images/cyn_red.png","../images/blu_wht.png","../images/pnk_blu.png","../images/ylw_slt.png"],"mutagen_generator_assignment":[1,0],"goal":5,"start":4,"action_noise":0,"location_history":"[4,2,3,2,3,4,2,1,3,4,2,3,4,0,5]","action_history":"[1,1,0,1,1,1,0,0,1,1,1,1,0,0]","mutagen_history":"[0,0,1,0,0,0,1,1,0,0,0,0,1,1]","location_rts":"[816,661,803,341,422,2895,567,382,686,334,808,529,410,383]","trial_type":"fractal-mutation","trial_index":80,"time_elapsed":3875093,"internal_node_id":"0.0-5.0-26.0"},{"group":"hexagon_tri","fractal_assignment":["../images/gry_blk.png","../images/org_blu.png","../images/cyn_red.png","../images/blu_wht.png","../images/pnk_blu.png","../images/ylw_slt.png"],"mutagen_generator_assignment":[1,0],"goal":2,"start":5,"action_noise":0,"location_history":"[5,0,1,3,2]","action_history":"[1,1,0,0]","mutagen_history":"[0,0,1,1]","location_rts":"[1394,743,831,912]","trial_type":"fractal-mutation","trial_index":81,"time_elapsed":3887796,"internal_node_id":"0.0-5.0-27.0"},{"group":"hexagon_tri","fractal_assignment":["../images/gry_blk.png","../images/org_blu.png","../images/cyn_red.png","../images/blu_wht.png","../images/pnk_blu.png","../images/ylw_slt.png"],"mutagen_generator_assignment":[1,0],"goal":3,"start":2,"action_noise":0,"location_history":"[2,1,5,4,0,5,0,1,3]","action_history":"[0,1,0,0,0,1,1,0]","mutagen_history":"[1,0,1,1,1,0,0,1]","location_rts":"[3729,581,574,540,807,381,330,1024]","trial_type":"fractal-mutation","trial_index":82,"time_elapsed":3910498,"internal_node_id":"0.0-5.0-28.0"},{"group":"hexagon_tri","fractal_assignment":["../images/gry_blk.png","../images/org_blu.png","../images/cyn_red.png","../images/blu_wht.png","../images/pnk_blu.png","../images/ylw_slt.png"],"mutagen_generator_assignment":[1,0],"goal":1,"start":3,"action_noise":0,"location_history":"[3,2,3,4,2,1]","action_history":"[0,1,1,1,0]","mutagen_history":"[1,0,0,0,1]","location_rts":"[1291,1245,638,821,641]","trial_type":"fractal-mutation","trial_index":83,"time_elapsed":3925292,"internal_node_id":"0.0-5.0-29.0"},{"group":"hexagon_tri","fractal_assignment":["../images/gry_blk.png","../images/org_blu.png","../images/cyn_red.png","../images/blu_wht.png","../images/pnk_blu.png","../images/ylw_slt.png"],"mutagen_generator_assignment":[1,0],"goal":4,"start":1,"action_noise":0,"location_history":"[1,5,4]","action_history":"[1,0]","mutagen_history":"[0,1]","location_rts":"[1302,670]","trial_type":"fractal-mutation","trial_index":84,"time_elapsed":3933633,"internal_node_id":"0.0-5.0-30.0"},{"group":"hexagon_tri","fractal_assignment":["../images/gry_blk.png","../images/org_blu.png","../images/cyn_red.png","../images/blu_wht.png","../images/pnk_blu.png","../images/ylw_slt.png"],"mutagen_generator_assignment":[1,0],"goal":5,"start":4,"action_noise":0,"location_history":"[4,2,1,5]","action_history":"[1,0,1]","mutagen_history":"[0,1,0]","location_rts":"[738,753,519]","trial_type":"fractal-mutation","trial_index":85,"time_elapsed":3943262,"internal_node_id":"0.0-5.0-31.0"},{"group":"hexagon_tri","fractal_assignment":["../images/gry_blk.png","../images/org_blu.png","../images/cyn_red.png","../images/blu_wht.png","../images/pnk_blu.png","../images/ylw_slt.png"],"mutagen_generator_assignment":[1,0],"goal":0,"start":5,"action_noise":0,"location_history":"[5,0]","action_history":"[1]","mutagen_history":"[0]","location_rts":"[655]","trial_type":"fractal-mutation","trial_index":86,"time_elapsed":3949122,"internal_node_id":"0.0-5.0-32.0"},{"group":"hexagon_tri","fractal_assignment":["../images/gry_blk.png","../images/org_blu.png","../images/cyn_red.png","../images/blu_wht.png","../images/pnk_blu.png","../images/ylw_slt.png"],"mutagen_generator_assignment":[1,0],"goal":2,"start":0,"action_noise":0,"location_history":"[0,5,0,1,5,0,5,4,0,5,0,1,3,2]","action_history":"[0,1,1,1,1,0,0,0,0,1,1,0,0]","mutagen_history":"[1,0,0,0,0,1,1,1,1,0,0,1,1]","location_rts":"[1018,452,496,349,520,521,613,709,885,2151,1237,500,409]","trial_type":"fractal-mutation","trial_index":87,"time_elapsed":3979362,"internal_node_id":"0.0-5.0-33.0"},{"group":"hexagon_tri","fractal_assignment":["../images/gry_blk.png","../images/org_blu.png","../images/cyn_red.png","../images/blu_wht.png","../images/pnk_blu.png","../images/ylw_slt.png"],"mutagen_generator_assignment":[1,0],"goal":0,"start":2,"action_noise":0,"location_history":"[2,3,2,1,3,4,2,3,4,0]","action_history":"[1,0,0,0,1,1,1,1,0]","mutagen_history":"[0,1,1,1,0,0,0,0,1]","location_rts":"[814,1036,451,1264,633,377,414,334,358]","trial_type":"fractal-mutation","trial_index":88,"time_elapsed":4000130,"internal_node_id":"0.0-5.0-34.0"},{"group":"hexagon_tri","fractal_assignment":["../images/gry_blk.png","../images/org_blu.png","../images/cyn_red.png","../images/blu_wht.png","../images/pnk_blu.png","../images/ylw_slt.png"],"mutagen_generator_assignment":[1,0],"goal":5,"start":0,"action_noise":0,"location_history":"[0,5]","action_history":"[0]","mutagen_history":"[1]","location_rts":"[1908]","trial_type":"fractal-mutation","trial_index":89,"time_elapsed":4007288,"internal_node_id":"0.0-5.0-35.0"},{"group":"hexagon_tri","fractal_assignment":["../images/gry_blk.png","../images/org_blu.png","../images/cyn_red.png","../images/blu_wht.png","../images/pnk_blu.png","../images/ylw_slt.png"],"mutagen_generator_assignment":[1,0],"goal":1,"start":5,"action_noise":0,"location_history":"[5,0,1]","action_history":"[1,1]","mutagen_history":"[0,0]","location_rts":"[2165,900]","trial_type":"fractal-mutation","trial_index":90,"time_elapsed":4016824,"internal_node_id":"0.0-5.0-36.0"},{"group":"hexagon_tri","fractal_assignment":["../images/gry_blk.png","../images/org_blu.png","../images/cyn_red.png","../images/blu_wht.png","../images/pnk_blu.png","../images/ylw_slt.png"],"mutagen_generator_assignment":[1,0],"goal":4,"start":1,"action_noise":0,"location_history":"[1,3,4]","action_history":"[0,1]","mutagen_history":"[1,0]","location_rts":"[2061,1180]","trial_type":"fractal-mutation","trial_index":91,"time_elapsed":4026463,"internal_node_id":"0.0-5.0-37.0"},{"group":"hexagon_tri","fractal_assignment":["../images/gry_blk.png","../images/org_blu.png","../images/cyn_red.png","../images/blu_wht.png","../images/pnk_blu.png","../images/ylw_slt.png"],"mutagen_generator_assignment":[1,0],"goal":3,"start":4,"action_noise":0,"location_history":"[4,2,3]","action_history":"[1,1]","mutagen_history":"[0,0]","location_rts":"[3887,2673]","trial_type":"fractal-mutation","trial_index":92,"time_elapsed":4039380,"internal_node_id":"0.0-5.0-38.0"},{"group":"hexagon_tri","fractal_assignment":["../images/gry_blk.png","../images/org_blu.png","../images/cyn_red.png","../images/blu_wht.png","../images/pnk_blu.png","../images/ylw_slt.png"],"mutagen_generator_assignment":[1,0],"goal":5,"start":3,"action_noise":0,"location_history":"[3,4,0,5]","action_history":"[1,0,0]","mutagen_history":"[0,1,1]","location_rts":"[1179,1876,247]","trial_type":"fractal-mutation","trial_index":93,"time_elapsed":4050346,"internal_node_id":"0.0-5.0-39.0"},{"group":"hexagon_tri","fractal_assignment":["../images/gry_blk.png","../images/org_blu.png","../images/cyn_red.png","../images/blu_wht.png","../images/pnk_blu.png","../images/ylw_slt.png"],"mutagen_generator_assignment":[1,0],"goal":1,"start":5,"action_noise":0,"location_history":"[5,0,1]","action_history":"[1,1]","mutagen_history":"[0,0]","location_rts":"[2126,1165]","trial_type":"fractal-mutation","trial_index":94,"time_elapsed":4059974,"internal_node_id":"0.0-5.0-40.0"},{"group":"hexagon_tri","fractal_assignment":["../images/gry_blk.png","../images/org_blu.png","../images/cyn_red.png","../images/blu_wht.png","../images/pnk_blu.png","../images/ylw_slt.png"],"mutagen_generator_assignment":[1,0],"goal":2,"start":1,"action_noise":0,"location_history":"[1,5,0,1,3,4,0,1,5,0,1,3,2]","action_history":"[1,1,1,0,1,0,1,1,1,1,0,0]","mutagen_history":"[0,0,0,1,0,1,0,0,0,0,1,1]","location_rts":"[1939,1374,2614,1120,816,897,1035,1046,1054,820,435,469]","trial_type":"fractal-mutation","trial_index":95,"time_elapsed":4092072,"internal_node_id":"0.0-5.0-41.0"},{"group":"hexagon_tri","fractal_assignment":["../images/gry_blk.png","../images/org_blu.png","../images/cyn_red.png","../images/blu_wht.png","../images/pnk_blu.png","../images/ylw_slt.png"],"mutagen_generator_assignment":[1,0],"goal":4,"start":2,"action_noise":0,"location_history":"[2,3,2,1,5,4]","action_history":"[1,0,0,1,0]","mutagen_history":"[0,1,1,0,1]","location_rts":"[835,339,481,782,407]","trial_type":"fractal-mutation","trial_index":96,"time_elapsed":4104894,"internal_node_id":"0.0-5.0-42.0"},{"group":"hexagon_tri","fractal_assignment":["../images/gry_blk.png","../images/org_blu.png","../images/cyn_red.png","../images/blu_wht.png","../images/pnk_blu.png","../images/ylw_slt.png"],"mutagen_generator_assignment":[1,0],"goal":0,"start":4,"action_noise":0,"location_history":"[4,0]","action_history":"[0]","mutagen_history":"[1]","location_rts":"[2561]","trial_type":"fractal-mutation","trial_index":97,"time_elapsed":4112757,"internal_node_id":"0.0-5.0-43.0"},{"group":"hexagon_tri","fractal_assignment":["../images/gry_blk.png","../images/org_blu.png","../images/cyn_red.png","../images/blu_wht.png","../images/pnk_blu.png","../images/ylw_slt.png"],"mutagen_generator_assignment":[1,0],"goal":3,"start":0,"action_noise":0,"location_history":"[0,1,5,0,1,3]","action_history":"[1,1,1,1,0]","mutagen_history":"[0,0,0,0,1]","location_rts":"[989,1550,696,151,128]","trial_type":"fractal-mutation","trial_index":98,"time_elapsed":4126249,"internal_node_id":"0.0-5.0-44.0"},{"group":"hexagon_tri","fractal_assignment":["../images/gry_blk.png","../images/org_blu.png","../images/cyn_red.png","../images/blu_wht.png","../images/pnk_blu.png","../images/ylw_slt.png"],"mutagen_generator_assignment":[1,0],"goal":0,"start":3,"action_noise":0,"location_history":"[3,4,0]","action_history":"[1,0]","mutagen_history":"[0,1]","location_rts":"[1280,473]","trial_type":"fractal-mutation","trial_index":99,"time_elapsed":4134424,"internal_node_id":"0.0-5.0-45.0"},{"group":"hexagon_tri","fractal_assignment":["../images/gry_blk.png","../images/org_blu.png","../images/cyn_red.png","../images/blu_wht.png","../images/pnk_blu.png","../images/ylw_slt.png"],"mutagen_generator_assignment":[1,0],"goal":4,"start":0,"action_noise":0,"location_history":"[0,1,3,2,3,2,1,3,4]","action_history":"[1,0,0,1,0,0,0,1]","mutagen_history":"[0,1,1,0,1,1,1,0]","location_rts":"[794,402,443,442,559,332,398,494]","trial_type":"fractal-mutation","trial_index":100,"time_elapsed":4152367,"internal_node_id":"0.0-5.0-46.0"},{"group":"hexagon_tri","fractal_assignment":["../images/gry_blk.png","../images/org_blu.png","../images/cyn_red.png","../images/blu_wht.png","../images/pnk_blu.png","../images/ylw_slt.png"],"mutagen_generator_assignment":[1,0],"goal":5,"start":4,"action_noise":0,"location_history":"[4,2,1,3,4,2,3,2,1,3,4,0,1,3,2,3,4,0,5]","action_history":"[1,0,0,1,1,1,0,0,0,1,0,1,0,0,1,1,0,0]","mutagen_history":"[0,1,1,0,0,0,1,1,1,0,1,0,1,1,0,0,1,1]","location_rts":"[725,488,981,393,385,400,616,349,616,837,659,711,468,395,321,431,443,514]","trial_type":"fractal-mutation","trial_index":101,"time_elapsed":4187933,"internal_node_id":"0.0-5.0-47.0"},{"group":"hexagon_tri","fractal_assignment":["../images/gry_blk.png","../images/org_blu.png","../images/cyn_red.png","../images/blu_wht.png","../images/pnk_blu.png","../images/ylw_slt.png"],"mutagen_generator_assignment":[1,0],"goal":2,"start":5,"action_noise":0,"location_history":"[5,0,1,5,0,5,4,0,5,0,1,5,0,1,3,4,0,5,4,2]","action_history":"[1,1,1,1,0,0,0,0,1,1,1,1,1,0,1,0,0,0,1]","mutagen_history":"[0,0,0,0,1,1,1,1,0,0,0,0,0,1,0,1,1,1,0]","location_rts":"[1343,1259,738,820,242,174,408,866,268,342,595,712,540,326,1089,1356,1008,420,331]","trial_type":"fractal-mutation","trial_index":102,"time_elapsed":4227963,"internal_node_id":"0.0-5.0-48.0"},{"group":"hexagon_tri","fractal_assignment":["../images/gry_blk.png","../images/org_blu.png","../images/cyn_red.png","../images/blu_wht.png","../images/pnk_blu.png","../images/ylw_slt.png"],"mutagen_generator_assignment":[1,0],"goal":1,"start":2,"action_noise":0,"location_history":"[2,1]","action_history":"[0]","mutagen_history":"[1]","location_rts":"[844]","trial_type":"fractal-mutation","trial_index":103,"time_elapsed":4233941,"internal_node_id":"0.0-5.0-49.0"},{"view_history":"[{\"page_index\":0,\"viewing_time\":2778}]","rt":2779,"trial_type":"instructions","trial_index":104,"time_elapsed":4237722,"internal_node_id":"0.0-6.0"},{"rt":6002,"responses":"{\"Q0\":\"I have no clue\"}","trial_type":"survey-text","trial_index":105,"time_elapsed":4244741,"internal_node_id":"0.0-7.0-0.0"},{"rt":7527,"responses":"{\"Q0\":\"No idea.\"}","trial_type":"survey-text","trial_index":106,"time_elapsed":4253277,"internal_node_id":"0.0-7.0-1.0"},{"rt":30447,"responses":"{\"Q0\":\"<img src='../images/diagrams/hexagon_tri.png'>\"}","trial_type":"survey-multi-choice","trial_index":107,"time_elapsed":4284763,"internal_node_id":"0.0-7.0-2.0"},{"rt":69746,"assignments":["../images/gry_blk.png","../images/ylw_slt.png","../images/blu_wht.png","../images/cyn_red.png","../images/org_blu.png","../images/pnk_blu.png"],"trial_type":"drag-drop-on-image","trial_index":108,"time_elapsed":4355571,"internal_node_id":"0.0-7.0-3.0"},{"rt":10396,"responses":"{\"Q0\":\"1\"}","trial_type":"survey-likert","trial_index":109,"time_elapsed":4366980,"internal_node_id":"0.0-7.0-4.0"},{"rt":35462,"responses":"{\"Q0\":\"I cant really tell. They were much different. The visual pattern you had to combine and the spatial navigation you had to remember each way.\"}","trial_type":"survey-text","trial_index":110,"time_elapsed":4403448,"internal_node_id":"0.0-7.0-5.0"},{"rt":4027,"responses":"{\"Q0\":\"No\"}","trial_type":"survey-multi-choice","trial_index":111,"time_elapsed":4408501,"internal_node_id":"0.0-7.0-6.0"},{"rt":10522,"responses":"{\"Q0\":\"Did not notice\"}","trial_type":"survey-multi-choice","trial_index":112,"time_elapsed":4420039,"internal_node_id":"0.0-7.0-7.0"},{"rt":2543,"responses":"{\"Q0\":\"\"}","trial_type":"survey-text","trial_index":113,"time_elapsed":4423588,"internal_node_id":"0.0-7.0-8.0"},{"rt":8531,"responses":"{\"Q0\":\"1\"}","trial_type":"survey-likert","trial_index":114,"time_elapsed":4433150,"internal_node_id":"0.0-7.0-9.0"},{"rt":11019,"responses":"{\"Q0\":\"Same structure\"}","trial_type":"survey-multi-choice","trial_index":115,"time_elapsed":4445178,"internal_node_id":"0.0-7.0-10.0"},{"rt":78326,"assignments":["../images/gry_blk.png","../images/ylw_slt.png","../images/pnk_blu.png","../images/org_blu.png","../images/cyn_red.png","../images/blu_wht.png"],"background_order":[3,4,5,0,1,2],"trial_type":"drag-drop-on-image","trial_index":116,"time_elapsed":4524519,"internal_node_id":"0.0-7.0-11.0"},{"rt":21182,"responses":"{\"Q0\":\"left (black) door = acid, right (white) door = ray\",\"Q1\":\"Not at all confident\"}","trial_type":"survey-multi-choice","trial_index":117,"time_elapsed":4546719,"internal_node_id":"0.0-7.0-12.0"},{"rt":8983,"responses":"{\"Q0\":\"25-35\",\"Q1\":\"High school degree or GED\",\"Q2\":\"Male\",\"Q3\":\"Hispanic\"}","trial_type":"survey-multi-choice","trial_index":118,"time_elapsed":4556778,"internal_node_id":"0.0-8.0"},{"rt":4597,"responses":"{\"Q0\":\"Fun\"}","trial_type":"survey-text","trial_index":119,"time_elapsed":4562387,"internal_node_id":"0.0-9.0"}]