[{"view_history":"[{\"page_index\":0,\"viewing_time\":2445},{\"page_index\":1,\"viewing_time\":6899}]","rt":9349,"trial_type":"instructions","trial_index":0,"time_elapsed":9354,"internal_node_id":"0.0-0.0"},{"view_history":"[{\"page_index\":0,\"viewing_time\":5937},{\"page_index\":1,\"viewing_time\":16626}]","rt":22566,"trial_type":"instructions","trial_index":1,"time_elapsed":32931,"internal_node_id":"0.0-1.0"},{"group":"hexagon_bi","room_assignment":["purple","yellow","blue","green","red","grey"],"door_color_assignment":["white","black"],"door_generator_assignment":[1,0],"goal":2,"start":1,"action_noise":0.2,"location_history":"[1,0,1,0,1,2]","action_history":"[0,1,1,0,0]","door_history":"[1,0,0,1,1]","location_rts":"[2730,1473,498,1689,590]","trial_type":"two-door-navigation","trial_index":2,"time_elapsed":49101,"internal_node_id":"0.0-2.0-0.0"},{"group":"hexagon_bi","room_assignment":["purple","yellow","blue","green","red","grey"],"door_color_assignment":["white","black"],"door_generator_assignment":[1,0],"goal":0,"start":2,"action_noise":0.2,"location_history":"[2,3,4,3,2,1,0]","action_history":"[1,0,1,1,0,1]","door_history":"[0,1,0,0,1,0]","location_rts":"[1934,1369,1492,833,786,2600]","trial_type":"two-door-navigation","trial_index":3,"time_elapsed":68463,"internal_node_id":"0.0-2.0-1.0"},{"group":"hexagon_bi","room_assignment":["purple","yellow","blue","green","red","grey"],"door_color_assignment":["white","black"],"door_generator_assignment":[1,0],"goal":5,"start":0,"action_noise":0.2,"location_history":"[0,1,0,1,2,1,2,3,4,5]","action_history":"[0,1,1,0,0,0,1,1,1]","door_history":"[1,0,0,1,1,1,0,0,0]","location_rts":"[2036,1109,599,979,1282,490,596,927,424]","trial_type":"two-door-navigation","trial_index":4,"time_elapsed":90663,"internal_node_id":"0.0-2.0-2.0"},{"group":"hexagon_bi","room_assignment":["purple","yellow","blue","green","red","grey"],"door_color_assignment":["white","black"],"door_generator_assignment":[1,0],"goal":3,"start":5,"action_noise":0.2,"location_history":"[5,0,5,4,3]","action_history":"[0,0,1,0]","door_history":"[1,1,0,1]","location_rts":"[2808,622,741,1181]","trial_type":"two-door-navigation","trial_index":5,"time_elapsed":104054,"internal_node_id":"0.0-2.0-3.0"},{"group":"hexagon_bi","room_assignment":["purple","yellow","blue","green","red","grey"],"door_color_assignment":["white","black"],"door_generator_assignment":[1,0],"goal":4,"start":3,"action_noise":0.2,"location_history":"[3,2,3,4]","action_history":"[1,1,0]","door_history":"[0,0,1]","location_rts":"[1322,1325,796]","trial_type":"two-door-navigation","trial_index":6,"time_elapsed":114422,"internal_node_id":"0.0-2.0-4.0"},{"group":"hexagon_bi","room_assignment":["purple","yellow","blue","green","red","grey"],"door_color_assignment":["white","black"],"door_generator_assignment":[1,0],"goal":0,"start":4,"action_noise":0.2,"location_history":"[4,5,4,5,4,5,0]","action_history":"[1,1,1,0,1,0]","door_history":"[0,0,0,1,0,1]","location_rts":"[1775,1198,500,390,1411,765]","trial_type":"two-door-navigation","trial_index":7,"time_elapsed":130759,"internal_node_id":"0.0-2.0-5.0"},{"group":"hexagon_bi","room_assignment":["purple","yellow","blue","green","red","grey"],"door_color_assignment":["white","black"],"door_generator_assignment":[1,0],"goal":4,"start":0,"action_noise":0.2,"location_history":"[0,5,0,5,0,1,0,5,0,5,0,5,0,5,0,1,0,1,2,1,0,1,2,3,2,3,2,3,2,3,4]","action_history":"[0,1,0,0,0,1,0,0,0,1,1,1,0,0,1,1,1,0,0,0,1,1,1,1,1,0,1,0,1,0]","door_history":"[1,0,1,1,1,0,1,1,1,0,0,0,1,1,0,0,0,1,1,1,0,0,0,0,0,1,0,1,0,1]","location_rts":"[2278,1405,1149,506,668,807,747,2889,916,345,809,826,392,1144,980,2034,571,423,1116,736,600,702,1250,1206,1004,533,1334,1091,775,573]","trial_type":"two-door-navigation","trial_index":8,"time_elapsed":197956,"internal_node_id":"0.0-2.0-6.0"},{"group":"hexagon_bi","room_assignment":["purple","yellow","blue","green","red","grey"],"door_color_assignment":["white","black"],"door_generator_assignment":[1,0],"goal":3,"start":4,"action_noise":0.2,"location_history":"[4,5,0,5,4,5,0,5,0,5,4,3]","action_history":"[0,0,0,1,1,0,1,1,0,0,0]","door_history":"[1,1,1,0,0,1,0,0,1,1,1]","location_rts":"[2410,1076,783,939,1125,1356,1262,1166,330,631,1863]","trial_type":"two-door-navigation","trial_index":9,"time_elapsed":226892,"internal_node_id":"0.0-2.0-7.0"},{"group":"hexagon_bi","room_assignment":["purple","yellow","blue","green","red","grey"],"door_color_assignment":["white","black"],"door_generator_assignment":[1,0],"goal":2,"start":3,"action_noise":0.2,"location_history":"[3,4,5,4,3,4,3,4,3,4,5,4,5,0,5,0,5,4,5,0,5,0,1,2]","action_history":"[1,1,1,0,0,0,0,0,0,0,1,1,0,0,0,1,1,0,0,0,0,1,1]","door_history":"[0,0,0,1,1,1,1,1,1,1,0,0,1,1,1,0,0,1,1,1,1,0,0]","location_rts":"[1407,1505,682,1068,1228,492,1205,499,507,498,2623,1567,1541,1244,667,1251,1370,1270,448,909,663,692,2256]","trial_type":"two-door-navigation","trial_index":10,"time_elapsed":282024,"internal_node_id":"0.0-2.0-8.0"},{"group":"hexagon_bi","room_assignment":["purple","yellow","blue","green","red","grey"],"door_color_assignment":["white","black"],"door_generator_assignment":[1,0],"goal":1,"start":2,"action_noise":0.2,"location_history":"[2,1]","action_history":"[0]","door_history":"[1]","location_rts":"[2098]","trial_type":"two-door-navigation","trial_index":11,"time_elapsed":288794,"internal_node_id":"0.0-2.0-9.0"},{"group":"hexagon_bi","room_assignment":["purple","yellow","blue","green","red","grey"],"door_color_assignment":["white","black"],"door_generator_assignment":[1,0],"goal":5,"start":1,"action_noise":0.2,"location_history":"[1,2,3,4,5]","action_history":"[0,1,1,1]","door_history":"[1,0,0,0]","location_rts":"[1449,1895,1158,1024]","trial_type":"two-door-navigation","trial_index":12,"time_elapsed":302398,"internal_node_id":"0.0-2.0-10.0"},{"group":"hexagon_bi","room_assignment":["purple","yellow","blue","green","red","grey"],"door_color_assignment":["white","black"],"door_generator_assignment":[1,0],"goal":0,"start":5,"action_noise":0.2,"location_history":"[5,0]","action_history":"[0]","door_history":"[1]","location_rts":"[2497]","trial_type":"two-door-navigation","trial_index":13,"time_elapsed":309567,"internal_node_id":"0.0-2.0-11.0"},{"group":"hexagon_bi","room_assignment":["purple","yellow","blue","green","red","grey"],"door_color_assignment":["white","black"],"door_generator_assignment":[1,0],"goal":4,"start":0,"action_noise":0.2,"location_history":"[0,5,4]","action_history":"[0,1]","door_history":"[1,0]","location_rts":"[1575,1370]","trial_type":"two-door-navigation","trial_index":14,"time_elapsed":318311,"internal_node_id":"0.0-2.0-12.0"},{"group":"hexagon_bi","room_assignment":["purple","yellow","blue","green","red","grey"],"door_color_assignment":["white","black"],"door_generator_assignment":[1,0],"goal":2,"start":4,"action_noise":0.2,"location_history":"[4,3,2]","action_history":"[0,1]","door_history":"[1,0]","location_rts":"[3130,1935]","trial_type":"two-door-navigation","trial_index":15,"time_elapsed":329161,"internal_node_id":"0.0-2.0-13.0"},{"group":"hexagon_bi","room_assignment":["purple","yellow","blue","green","red","grey"],"door_color_assignment":["white","black"],"door_generator_assignment":[1,0],"goal":1,"start":2,"action_noise":0.2,"location_history":"[2,3,2,3,2,1]","action_history":"[0,1,1,1,0]","door_history":"[1,0,0,0,1]","location_rts":"[3547,1086,453,838,541]","trial_type":"two-door-navigation","trial_index":16,"time_elapsed":344818,"internal_node_id":"0.0-2.0-14.0"},{"group":"hexagon_bi","room_assignment":["purple","yellow","blue","green","red","grey"],"door_color_assignment":["white","black"],"door_generator_assignment":[1,0],"goal":3,"start":1,"action_noise":0.2,"location_history":"[1,2,3]","action_history":"[1,1]","door_history":"[0,0]","location_rts":"[5194,838]","trial_type":"two-door-navigation","trial_index":17,"time_elapsed":356617,"internal_node_id":"0.0-2.0-15.0"},{"group":"hexagon_bi","room_assignment":["purple","yellow","blue","green","red","grey"],"door_color_assignment":["white","black"],"door_generator_assignment":[1,0],"goal":5,"start":3,"action_noise":0.2,"location_history":"[3,2,3,2,3,2,3,4,5]","action_history":"[1,1,1,1,1,1,0,1]","door_history":"[0,0,0,0,0,0,1,0]","location_rts":"[1555,826,400,452,451,497,321,1225]","trial_type":"two-door-navigation","trial_index":18,"time_elapsed":374895,"internal_node_id":"0.0-2.0-16.0"},{"group":"hexagon_bi","room_assignment":["purple","yellow","blue","green","red","grey"],"door_color_assignment":["white","black"],"door_generator_assignment":[1,0],"goal":0,"start":5,"action_noise":0.2,"location_history":"[5,4,3,4,5,4,3,2,1,2,1,0]","action_history":"[0,0,1,1,1,0,1,0,0,0,1]","door_history":"[1,1,0,0,0,1,0,1,1,1,0]","location_rts":"[1785,1157,1351,659,496,1094,980,1748,3218,1958,1180]","trial_type":"two-door-navigation","trial_index":19,"time_elapsed":406514,"internal_node_id":"0.0-2.0-17.0"},{"group":"hexagon_bi","room_assignment":["purple","yellow","blue","green","red","grey"],"door_color_assignment":["white","black"],"door_generator_assignment":[1,0],"goal":5,"start":0,"action_noise":0.2,"location_history":"[0,1,2,3,4,3,4,5]","action_history":"[1,1,1,0,0,0,1]","door_history":"[0,0,0,1,1,1,0]","location_rts":"[1996,967,1967,1004,634,1064,535]","trial_type":"two-door-navigation","trial_index":20,"time_elapsed":426152,"internal_node_id":"0.0-2.0-18.0"},{"group":"hexagon_bi","room_assignment":["purple","yellow","blue","green","red","grey"],"door_color_assignment":["white","black"],"door_generator_assignment":[1,0],"goal":3,"start":5,"action_noise":0.2,"location_history":"[5,0,5,0,1,0,1,2,1,2,3]","action_history":"[0,0,1,1,1,1,0,0,0,1]","door_history":"[1,1,0,0,0,0,1,1,1,0]","location_rts":"[1987,7511,2021,3122,688,769,1027,1828,941,436]","trial_type":"two-door-navigation","trial_index":21,"time_elapsed":461316,"internal_node_id":"0.0-2.0-19.0"},{"group":"hexagon_bi","room_assignment":["purple","yellow","blue","green","red","grey"],"door_color_assignment":["white","black"],"door_generator_assignment":[1,0],"goal":4,"start":3,"action_noise":0.2,"location_history":"[3,2,1,2,3,4]","action_history":"[1,1,0,1,0]","door_history":"[0,0,1,0,1]","location_rts":"[1222,524,914,797,558]","trial_type":"two-door-navigation","trial_index":22,"time_elapsed":474509,"internal_node_id":"0.0-2.0-20.0"},{"group":"hexagon_bi","room_assignment":["purple","yellow","blue","green","red","grey"],"door_color_assignment":["white","black"],"door_generator_assignment":[1,0],"goal":1,"start":4,"action_noise":0.2,"location_history":"[4,3,2,3,2,1]","action_history":"[0,1,1,1,0]","door_history":"[1,0,0,0,1]","location_rts":"[2496,1512,554,547,430]","trial_type":"two-door-navigation","trial_index":23,"time_elapsed":489234,"internal_node_id":"0.0-2.0-21.0"},{"group":"hexagon_bi","room_assignment":["purple","yellow","blue","green","red","grey"],"door_color_assignment":["white","black"],"door_generator_assignment":[1,0],"goal":2,"start":1,"action_noise":0.2,"location_history":"[1,0,1,2]","action_history":"[1,1,0]","door_history":"[0,0,1]","location_rts":"[2118,1055,441]","trial_type":"two-door-navigation","trial_index":24,"time_elapsed":499772,"internal_node_id":"0.0-2.0-22.0"},{"group":"hexagon_bi","room_assignment":["purple","yellow","blue","green","red","grey"],"door_color_assignment":["white","black"],"door_generator_assignment":[1,0],"goal":3,"start":2,"action_noise":0.2,"location_history":"[2,1,2,3]","action_history":"[1,1,1]","door_history":"[0,0,0]","location_rts":"[1537,747,369]","trial_type":"two-door-navigation","trial_index":25,"time_elapsed":509349,"internal_node_id":"0.0-2.0-23.0"},{"group":"hexagon_bi","room_assignment":["purple","yellow","blue","green","red","grey"],"door_color_assignment":["white","black"],"door_generator_assignment":[1,0],"goal":5,"start":3,"action_noise":0.2,"location_history":"[3,2,3,2,3,4,5]","action_history":"[1,1,0,0,0,1]","door_history":"[0,0,1,1,1,0]","location_rts":"[1147,753,389,1612,917,829]","trial_type":"two-door-navigation","trial_index":26,"time_elapsed":525270,"internal_node_id":"0.0-2.0-24.0"},{"group":"hexagon_bi","room_assignment":["purple","yellow","blue","green","red","grey"],"door_color_assignment":["white","black"],"door_generator_assignment":[1,0],"goal":4,"start":5,"action_noise":0.2,"location_history":"[5,0,5,4]","action_history":"[0,0,1]","door_history":"[1,1,0]","location_rts":"[3192,2028,791]","trial_type":"two-door-navigation","trial_index":27,"time_elapsed":538193,"internal_node_id":"0.0-2.0-25.0"},{"group":"hexagon_bi","room_assignment":["purple","yellow","blue","green","red","grey"],"door_color_assignment":["white","black"],"door_generator_assignment":[1,0],"goal":0,"start":4,"action_noise":0.2,"location_history":"[4,5,0]","action_history":"[1,0]","door_history":"[0,1]","location_rts":"[3149,458]","trial_type":"two-door-navigation","trial_index":28,"time_elapsed":547612,"internal_node_id":"0.0-2.0-26.0"},{"group":"hexagon_bi","room_assignment":["purple","yellow","blue","green","red","grey"],"door_color_assignment":["white","black"],"door_generator_assignment":[1,0],"goal":2,"start":0,"action_noise":0.2,"location_history":"[0,5,4,3,2]","action_history":"[0,1,0,1]","door_history":"[1,0,1,0]","location_rts":"[1236,1229,2513,1258]","trial_type":"two-door-navigation","trial_index":29,"time_elapsed":561899,"internal_node_id":"0.0-2.0-27.0"},{"group":"hexagon_bi","room_assignment":["purple","yellow","blue","green","red","grey"],"door_color_assignment":["white","black"],"door_generator_assignment":[1,0],"goal":1,"start":2,"action_noise":0.2,"location_history":"[2,1]","action_history":"[0]","door_history":"[1]","location_rts":"[1819]","trial_type":"two-door-navigation","trial_index":30,"time_elapsed":568391,"internal_node_id":"0.0-2.0-28.0"},{"group":"hexagon_bi","room_assignment":["purple","yellow","blue","green","red","grey"],"door_color_assignment":["white","black"],"door_generator_assignment":[1,0],"goal":0,"start":1,"action_noise":0.2,"location_history":"[1,2,1,0]","action_history":"[0,0,1]","door_history":"[1,1,0]","location_rts":"[2479,526,300]","trial_type":"two-door-navigation","trial_index":31,"time_elapsed":578622,"internal_node_id":"0.0-2.0-29.0"},{"group":"hexagon_bi","room_assignment":["purple","yellow","blue","green","red","grey"],"door_color_assignment":["white","black"],"door_generator_assignment":[1,0],"goal":2,"start":0,"action_noise":0.2,"location_history":"[0,1,2]","action_history":"[1,0]","door_history":"[0,1]","location_rts":"[2129,527]","trial_type":"two-door-navigation","trial_index":32,"time_elapsed":587051,"internal_node_id":"0.0-2.0-30.0"},{"group":"hexagon_bi","room_assignment":["purple","yellow","blue","green","red","grey"],"door_color_assignment":["white","black"],"door_generator_assignment":[1,0],"goal":4,"start":2,"action_noise":0.2,"location_history":"[2,3,4]","action_history":"[0,0]","door_history":"[1,1]","location_rts":"[3040,2860]","trial_type":"two-door-navigation","trial_index":33,"time_elapsed":598767,"internal_node_id":"0.0-2.0-31.0"},{"group":"hexagon_bi","room_assignment":["purple","yellow","blue","green","red","grey"],"door_color_assignment":["white","black"],"door_generator_assignment":[1,0],"goal":1,"start":4,"action_noise":0.2,"location_history":"[4,5,0,1]","action_history":"[0,0,1]","door_history":"[1,1,0]","location_rts":"[1968,778,1548]","trial_type":"two-door-navigation","trial_index":34,"time_elapsed":610002,"internal_node_id":"0.0-2.0-32.0"},{"group":"hexagon_bi","room_assignment":["purple","yellow","blue","green","red","grey"],"door_color_assignment":["white","black"],"door_generator_assignment":[1,0],"goal":3,"start":1,"action_noise":0.2,"location_history":"[1,0,1,2,3]","action_history":"[1,0,0,1]","door_history":"[0,1,1,0]","location_rts":"[3016,446,1262,1158]","trial_type":"two-door-navigation","trial_index":35,"time_elapsed":623939,"internal_node_id":"0.0-2.0-33.0"},{"group":"hexagon_bi","room_assignment":["purple","yellow","blue","green","red","grey"],"door_color_assignment":["white","black"],"door_generator_assignment":[1,0],"goal":5,"start":3,"action_noise":0.2,"location_history":"[3,4,5]","action_history":"[0,1]","door_history":"[1,0]","location_rts":"[2004,537]","trial_type":"two-door-navigation","trial_index":36,"time_elapsed":632273,"internal_node_id":"0.0-2.0-34.0"},{"group":"hexagon_bi","room_assignment":["purple","yellow","blue","green","red","grey"],"door_color_assignment":["white","black"],"door_generator_assignment":[1,0],"goal":2,"start":5,"action_noise":0.2,"location_history":"[5,4,3,2]","action_history":"[1,0,0]","door_history":"[0,1,1]","location_rts":"[1764,1488,1722]","trial_type":"two-door-navigation","trial_index":37,"time_elapsed":644195,"internal_node_id":"0.0-2.0-35.0"},{"group":"hexagon_bi","room_assignment":["purple","yellow","blue","green","red","grey"],"door_color_assignment":["white","black"],"door_generator_assignment":[1,0],"goal":0,"start":2,"action_noise":0.2,"location_history":"[2,3,4,3,2,1,0]","action_history":"[1,0,0,1,0,1]","door_history":"[0,1,1,0,1,0]","location_rts":"[9706,1495,1115,467,336,309]","trial_type":"two-door-navigation","trial_index":38,"time_elapsed":667907,"internal_node_id":"0.0-2.0-36.0"},{"group":"hexagon_bi","room_assignment":["purple","yellow","blue","green","red","grey"],"door_color_assignment":["white","black"],"door_generator_assignment":[1,0],"goal":4,"start":0,"action_noise":0.2,"location_history":"[0,1,2,1,2,3,2,3,4]","action_history":"[1,0,0,0,1,0,1,0]","door_history":"[0,1,1,1,0,1,0,1]","location_rts":"[3174,889,1629,798,826,754,2960,1637]","trial_type":"two-door-navigation","trial_index":39,"time_elapsed":693185,"internal_node_id":"0.0-2.0-37.0"},{"group":"hexagon_bi","room_assignment":["purple","yellow","blue","green","red","grey"],"door_color_assignment":["white","black"],"door_generator_assignment":[1,0],"goal":5,"start":4,"action_noise":0.2,"location_history":"[4,5]","action_history":"[1]","door_history":"[0]","location_rts":"[3388]","trial_type":"two-door-navigation","trial_index":40,"time_elapsed":701240,"internal_node_id":"0.0-2.0-38.0"},{"group":"hexagon_bi","room_assignment":["purple","yellow","blue","green","red","grey"],"door_color_assignment":["white","black"],"door_generator_assignment":[1,0],"goal":1,"start":5,"action_noise":0.2,"location_history":"[5,4,3,2,3,4,3,4,3,4,3,2,1]","action_history":"[1,0,0,1,0,0,0,0,0,0,1,0]","door_history":"[0,1,1,0,1,1,1,1,1,1,0,1]","location_rts":"[7906,2315,826,1435,920,302,796,502,272,389,486,1151]","trial_type":"two-door-navigation","trial_index":41,"time_elapsed":735591,"internal_node_id":"0.0-2.0-39.0"},{"group":"hexagon_bi","room_assignment":["purple","yellow","blue","green","red","grey"],"door_color_assignment":["white","black"],"door_generator_assignment":[1,0],"goal":3,"start":1,"action_noise":0.2,"location_history":"[1,2,3]","action_history":"[0,1]","door_history":"[1,0]","location_rts":"[1976,570]","trial_type":"two-door-navigation","trial_index":42,"time_elapsed":743951,"internal_node_id":"0.0-2.0-40.0"},{"group":"hexagon_bi","room_assignment":["purple","yellow","blue","green","red","grey"],"door_color_assignment":["white","black"],"door_generator_assignment":[1,0],"goal":1,"start":3,"action_noise":0.2,"location_history":"[3,2,1]","action_history":"[1,0]","door_history":"[0,1]","location_rts":"[2646,1185]","trial_type":"two-door-navigation","trial_index":43,"time_elapsed":753590,"internal_node_id":"0.0-2.0-41.0"},{"group":"hexagon_bi","room_assignment":["purple","yellow","blue","green","red","grey"],"door_color_assignment":["white","black"],"door_generator_assignment":[1,0],"goal":0,"start":1,"action_noise":0.2,"location_history":"[1,0]","action_history":"[1]","door_history":"[0]","location_rts":"[2841]","trial_type":"two-door-navigation","trial_index":44,"time_elapsed":761104,"internal_node_id":"0.0-2.0-42.0"},{"group":"hexagon_bi","room_assignment":["purple","yellow","blue","green","red","grey"],"door_color_assignment":["white","black"],"door_generator_assignment":[1,0],"goal":4,"start":0,"action_noise":0.2,"location_history":"[0,5,4]","action_history":"[0,1]","door_history":"[1,0]","location_rts":"[3064,2665]","trial_type":"two-door-navigation","trial_index":45,"time_elapsed":772617,"internal_node_id":"0.0-2.0-43.0"},{"group":"hexagon_bi","room_assignment":["purple","yellow","blue","green","red","grey"],"door_color_assignment":["white","black"],"door_generator_assignment":[1,0],"goal":2,"start":4,"action_noise":0.2,"location_history":"[4,3,2]","action_history":"[0,1]","door_history":"[1,0]","location_rts":"[7587,965]","trial_type":"two-door-navigation","trial_index":46,"time_elapsed":786946,"internal_node_id":"0.0-2.0-44.0"},{"group":"hexagon_bi","room_assignment":["purple","yellow","blue","green","red","grey"],"door_color_assignment":["white","black"],"door_generator_assignment":[1,0],"goal":3,"start":2,"action_noise":0.2,"location_history":"[2,3]","action_history":"[1]","door_history":"[0]","location_rts":"[1128]","trial_type":"two-door-navigation","trial_index":47,"time_elapsed":792736,"internal_node_id":"0.0-2.0-45.0"},{"group":"hexagon_bi","room_assignment":["purple","yellow","blue","green","red","grey"],"door_color_assignment":["white","black"],"door_generator_assignment":[1,0],"goal":5,"start":3,"action_noise":0.2,"location_history":"[3,4,5]","action_history":"[0,1]","door_history":"[1,0]","location_rts":"[2259,740]","trial_type":"two-door-navigation","trial_index":48,"time_elapsed":801523,"internal_node_id":"0.0-2.0-46.0"},{"group":"hexagon_bi","room_assignment":["purple","yellow","blue","green","red","grey"],"door_color_assignment":["white","black"],"door_generator_assignment":[1,0],"goal":4,"start":5,"action_noise":0.2,"location_history":"[5,4]","action_history":"[1]","door_history":"[0]","location_rts":"[1380]","trial_type":"two-door-navigation","trial_index":49,"time_elapsed":807547,"internal_node_id":"0.0-2.0-47.0"},{"group":"hexagon_bi","room_assignment":["purple","yellow","blue","green","red","grey"],"door_color_assignment":["white","black"],"door_generator_assignment":[1,0],"goal":3,"start":4,"action_noise":0.2,"location_history":"[4,3]","action_history":"[0]","door_history":"[1]","location_rts":"[1630]","trial_type":"two-door-navigation","trial_index":50,"time_elapsed":813826,"internal_node_id":"0.0-2.0-48.0"},{"group":"hexagon_bi","room_assignment":["purple","yellow","blue","green","red","grey"],"door_color_assignment":["white","black"],"door_generator_assignment":[1,0],"goal":1,"start":3,"action_noise":0.2,"location_history":"[3,2,3,2,1]","action_history":"[1,0,1,0]","door_history":"[0,1,0,1]","location_rts":"[1958,980,1253,874]","trial_type":"two-door-navigation","trial_index":51,"time_elapsed":826929,"internal_node_id":"0.0-2.0-49.0"},{"group":"hexagon_bi","room_assignment":["purple","yellow","blue","green","red","grey"],"door_color_assignment":["white","black"],"door_generator_assignment":[1,0],"goal":2,"start":1,"action_noise":0.2,"location_history":"[1,0,5,0,1,0,1,0,1,0,1,2]","action_history":"[0,0,0,1,1,1,0,1,1,1,1]","door_history":"[1,1,1,0,0,0,1,0,0,0,0]","location_rts":"[3490,2024,860,785,768,1098,630,894,368,777,4]","trial_type":"two-door-navigation","trial_index":52,"time_elapsed":854641,"internal_node_id":"0.0-2.0-50.0"},{"group":"hexagon_bi","room_assignment":["purple","yellow","blue","green","red","grey"],"door_color_assignment":["white","black"],"door_generator_assignment":[1,0],"goal":0,"start":2,"action_noise":0.2,"location_history":"[2,1,2,1,2,3,2,3,2,1,0]","action_history":"[0,0,0,0,0,1,1,1,0,1]","door_history":"[1,1,1,1,1,0,0,0,1,0]","location_rts":"[1684,440,971,476,686,3263,544,415,740,985]","trial_type":"two-door-navigation","trial_index":53,"time_elapsed":879690,"internal_node_id":"0.0-2.0-51.0"},{"group":"hexagon_bi","room_assignment":["purple","yellow","blue","green","red","grey"],"door_color_assignment":["white","black"],"door_generator_assignment":[1,0],"goal":5,"start":0,"action_noise":0.2,"location_history":"[0,1,0,5]","action_history":"[0,0,1]","door_history":"[1,1,0]","location_rts":"[1722,658,449]","trial_type":"two-door-navigation","trial_index":54,"time_elapsed":889436,"internal_node_id":"0.0-2.0-52.0"},{"group":"hexagon_bi","room_assignment":["purple","yellow","blue","green","red","grey"],"door_color_assignment":["white","black"],"door_generator_assignment":[1,0],"goal":1,"start":5,"action_noise":0.2,"location_history":"[5,4,3,2,1]","action_history":"[1,0,0,0]","door_history":"[0,1,1,1]","location_rts":"[3339,1196,415,1481]","trial_type":"two-door-navigation","trial_index":55,"time_elapsed":903940,"internal_node_id":"0.0-2.0-53.0"},{"group":"hexagon_bi","room_assignment":["purple","yellow","blue","green","red","grey"],"door_color_assignment":["white","black"],"door_generator_assignment":[1,0],"goal":3,"start":1,"action_noise":0.2,"location_history":"[1,0,1,2,3]","action_history":"[1,1,0,1]","door_history":"[0,0,1,0]","location_rts":"[2848,975,1762,2156]","trial_type":"two-door-navigation","trial_index":56,"time_elapsed":919713,"internal_node_id":"0.0-2.0-54.0"},{"group":"hexagon_bi","room_assignment":["purple","yellow","blue","green","red","grey"],"door_color_assignment":["white","black"],"door_generator_assignment":[1,0],"goal":5,"start":3,"action_noise":0.2,"location_history":"[3,4,5]","action_history":"[0,1]","door_history":"[1,0]","location_rts":"[2332,372]","trial_type":"two-door-navigation","trial_index":57,"time_elapsed":928206,"internal_node_id":"0.0-2.0-55.0"},{"group":"hexagon_bi","room_assignment":["purple","yellow","blue","green","red","grey"],"door_color_assignment":["white","black"],"door_generator_assignment":[1,0],"goal":4,"start":5,"action_noise":0.2,"location_history":"[5,4]","action_history":"[1]","door_history":"[0]","location_rts":"[2327]","trial_type":"two-door-navigation","trial_index":58,"time_elapsed":935197,"internal_node_id":"0.0-2.0-56.0"},{"group":"hexagon_bi","room_assignment":["purple","yellow","blue","green","red","grey"],"door_color_assignment":["white","black"],"door_generator_assignment":[1,0],"goal":0,"start":4,"action_noise":0.2,"location_history":"[4,5,4,5,0]","action_history":"[1,0,1,0]","door_history":"[0,1,0,1]","location_rts":"[1889,401,1122,678]","trial_type":"two-door-navigation","trial_index":59,"time_elapsed":947305,"internal_node_id":"0.0-2.0-57.0"},{"group":"hexagon_bi","room_assignment":["purple","yellow","blue","green","red","grey"],"door_color_assignment":["white","black"],"door_generator_assignment":[1,0],"goal":2,"start":0,"action_noise":0.2,"location_history":"[0,5,4,3,4,5,4,3,4,3,4,3,2]","action_history":"[1,1,0,1,0,1,0,0,0,1,0,1]","door_history":"[0,0,1,0,1,0,1,1,1,0,1,0]","location_rts":"[6224,627,2366,1523,1805,1151,1066,1034,360,340,1186,357]","trial_type":"two-door-navigation","trial_index":60,"time_elapsed":982336,"internal_node_id":"0.0-2.0-58.0"},{"group":"hexagon_bi","room_assignment":["purple","yellow","blue","green","red","grey"],"door_color_assignment":["white","black"],"door_generator_assignment":[1,0],"goal":4,"start":2,"action_noise":0.2,"location_history":"[2,3,4]","action_history":"[0,0]","door_history":"[1,1]","location_rts":"[2145,378]","trial_type":"two-door-navigation","trial_index":61,"time_elapsed":990676,"internal_node_id":"0.0-2.0-59.0"},{"group":"hexagon_bi","room_assignment":["purple","yellow","blue","green","red","grey"],"door_color_assignment":["white","black"],"door_generator_assignment":[1,0],"goal":2,"start":4,"action_noise":0.2,"location_history":"[4,3,2]","action_history":"[0,1]","door_history":"[1,0]","location_rts":"[2259,1301]","trial_type":"two-door-navigation","trial_index":62,"time_elapsed":1000036,"internal_node_id":"0.0-2.0-60.0"},{"group":"hexagon_bi","room_assignment":["purple","yellow","blue","green","red","grey"],"door_color_assignment":["white","black"],"door_generator_assignment":[1,0],"goal":3,"start":2,"action_noise":0.2,"location_history":"[2,3]","action_history":"[1]","door_history":"[0]","location_rts":"[1955]","trial_type":"two-door-navigation","trial_index":63,"time_elapsed":1006655,"internal_node_id":"0.0-2.0-61.0"},{"group":"hexagon_bi","room_assignment":["purple","yellow","blue","green","red","grey"],"door_color_assignment":["white","black"],"door_generator_assignment":[1,0],"goal":0,"start":3,"action_noise":0.2,"location_history":"[3,2,3,4,5,4,5,0]","action_history":"[0,0,0,1,1,1,0]","door_history":"[1,1,1,0,0,0,1]","location_rts":"[2716,1120,1142,1012,316,645,489]","trial_type":"two-door-navigation","trial_index":64,"time_elapsed":1025585,"internal_node_id":"0.0-2.0-62.0"},{"group":"hexagon_bi","room_assignment":["purple","yellow","blue","green","red","grey"],"door_color_assignment":["white","black"],"door_generator_assignment":[1,0],"goal":5,"start":0,"action_noise":0.2,"location_history":"[0,5]","action_history":"[0]","door_history":"[1]","location_rts":"[2096]","trial_type":"two-door-navigation","trial_index":65,"time_elapsed":1032355,"internal_node_id":"0.0-2.0-63.0"},{"group":"hexagon_bi","room_assignment":["purple","yellow","blue","green","red","grey"],"door_color_assignment":["white","black"],"door_generator_assignment":[1,0],"goal":1,"start":5,"action_noise":0.2,"location_history":"[5,0,1]","action_history":"[0,1]","door_history":"[1,0]","location_rts":"[3446,420]","trial_type":"two-door-navigation","trial_index":66,"time_elapsed":1041983,"internal_node_id":"0.0-2.0-64.0"},{"group":"hexagon_bi","room_assignment":["purple","yellow","blue","green","red","grey"],"door_color_assignment":["white","black"],"door_generator_assignment":[1,0],"goal":5,"start":1,"action_noise":0.2,"location_history":"[1,0,5]","action_history":"[1,0]","door_history":"[0,1]","location_rts":"[1751,1208]","trial_type":"two-door-navigation","trial_index":67,"time_elapsed":1050737,"internal_node_id":"0.0-2.0-65.0"},{"group":"hexagon_bi","room_assignment":["purple","yellow","blue","green","red","grey"],"door_color_assignment":["white","black"],"door_generator_assignment":[1,0],"goal":3,"start":5,"action_noise":0.2,"location_history":"[5,0,5,4,3]","action_history":"[0,0,0,0]","door_history":"[1,1,1,1]","location_rts":"[1673,864,1488,493]","trial_type":"two-door-navigation","trial_index":68,"time_elapsed":1063292,"internal_node_id":"0.0-2.0-66.0"},{"group":"hexagon_bi","room_assignment":["purple","yellow","blue","green","red","grey"],"door_color_assignment":["white","black"],"door_generator_assignment":[1,0],"goal":2,"start":3,"action_noise":0.2,"location_history":"[3,2]","action_history":"[1]","door_history":"[0]","location_rts":"[2396]","trial_type":"two-door-navigation","trial_index":69,"time_elapsed":1070360,"internal_node_id":"0.0-2.0-67.0"},{"group":"hexagon_bi","room_assignment":["purple","yellow","blue","green","red","grey"],"door_color_assignment":["white","black"],"door_generator_assignment":[1,0],"goal":1,"start":2,"action_noise":0.2,"location_history":"[2,1]","action_history":"[0]","door_history":"[1]","location_rts":"[3083]","trial_type":"two-door-navigation","trial_index":70,"time_elapsed":1078104,"internal_node_id":"0.0-2.0-68.0"},{"group":"hexagon_bi","room_assignment":["purple","yellow","blue","green","red","grey"],"door_color_assignment":["white","black"],"door_generator_assignment":[1,0],"goal":4,"start":1,"action_noise":0.2,"location_history":"[1,0,1,2,1,0,1,0,1,0,5,0,5,0,1,2,1,2,1,0,1,2,3,2,1,2,1,2,1,2,3,4]","action_history":"[1,1,0,0,0,1,1,1,1,0,0,0,1,0,0,0,0,1,0,1,1,0,0,0,0,0,0,0,0,1,0]","door_history":"[0,0,1,1,1,0,0,0,0,1,1,1,0,1,1,1,1,0,1,0,0,1,1,1,1,1,1,1,1,0,1]","location_rts":"[2237,2575,1091,1213,674,401,569,1755,478,618,824,725,916,1093,788,2409,686,424,505,1006,401,673,486,764,104,718,371,406,573,1151,1003]","trial_type":"two-door-navigation","trial_index":71,"time_elapsed":1144324,"internal_node_id":"0.0-2.0-69.0"},{"group":"hexagon_bi","room_assignment":["purple","yellow","blue","green","red","grey"],"door_color_assignment":["white","black"],"door_generator_assignment":[1,0],"goal":0,"start":4,"action_noise":0.2,"location_history":"[4,5,0]","action_history":"[1,1]","door_history":"[0,0]","location_rts":"[4694,1863]","trial_type":"two-door-navigation","trial_index":72,"time_elapsed":1156678,"internal_node_id":"0.0-2.0-70.0"},{"group":"hexagon_bi","room_assignment":["purple","yellow","blue","green","red","grey"],"door_color_assignment":["white","black"],"door_generator_assignment":[1,0],"goal":3,"start":0,"action_noise":0.2,"location_history":"[0,5,0,5,0,5,0,5,4,3]","action_history":"[0,0,0,1,0,0,0,1,0]","door_history":"[1,1,1,0,1,1,1,0,1]","location_rts":"[3559,945,598,1238,1568,684,390,323,1517]","trial_type":"two-door-navigation","trial_index":73,"time_elapsed":1181207,"internal_node_id":"0.0-2.0-71.0"},{"group":"hexagon_bi","room_assignment":["purple","yellow","blue","green","red","grey"],"door_color_assignment":["white","black"],"door_generator_assignment":[1,0],"goal":1,"start":3,"action_noise":0.2,"location_history":"[3,4,3,2,3,2,3,4,5,0,5,4,5,0,5,0,1]","action_history":"[0,0,1,1,1,1,1,1,0,0,0,1,1,1,1,1]","door_history":"[1,1,0,0,0,0,0,0,1,1,1,0,0,0,0,0]","location_rts":"[5565,23,1238,646,769,192,1310,275,1180,592,660,404,229,443,674,184]","trial_type":"two-door-navigation","trial_index":74,"time_elapsed":1217245,"internal_node_id":"0.0-2.0-72.0"},{"group":"hexagon_bi","room_assignment":["purple","yellow","blue","green","red","grey"],"door_color_assignment":["white","black"],"door_generator_assignment":[1,0],"goal":0,"start":1,"action_noise":0.2,"location_history":"[1,2,1,2,1,2,1,0]","action_history":"[0,0,1,0,0,0,0]","door_history":"[1,1,0,1,1,1,1]","location_rts":"[2565,2857,1470,796,735,670,330]","trial_type":"two-door-navigation","trial_index":75,"time_elapsed":1238108,"internal_node_id":"0.0-2.0-73.0"},{"group":"hexagon_bi","room_assignment":["purple","yellow","blue","green","red","grey"],"door_color_assignment":["white","black"],"door_generator_assignment":[1,0],"goal":2,"start":0,"action_noise":0.2,"location_history":"[0,1,0,1,0,1,0,5,4,3,2]","action_history":"[1,1,1,1,1,1,1,0,0,1]","door_history":"[0,0,0,0,0,0,0,1,1,0]","location_rts":"[2523,981,1832,295,459,105,500,371,1528,1814]","trial_type":"two-door-navigation","trial_index":76,"time_elapsed":1263376,"internal_node_id":"0.0-2.0-74.0"},{"group":"hexagon_bi","room_assignment":["purple","yellow","blue","green","red","grey"],"door_color_assignment":["white","black"],"door_generator_assignment":[1,0],"goal":4,"start":2,"action_noise":0.2,"location_history":"[2,3,4]","action_history":"[0,0]","door_history":"[1,1]","location_rts":"[1615,714]","trial_type":"two-door-navigation","trial_index":77,"time_elapsed":1271514,"internal_node_id":"0.0-2.0-75.0"},{"group":"hexagon_bi","room_assignment":["purple","yellow","blue","green","red","grey"],"door_color_assignment":["white","black"],"door_generator_assignment":[1,0],"goal":5,"start":4,"action_noise":0.2,"location_history":"[4,5]","action_history":"[1]","door_history":"[0]","location_rts":"[1280]","trial_type":"two-door-navigation","trial_index":78,"time_elapsed":1277464,"internal_node_id":"0.0-2.0-76.0"},{"group":"hexagon_bi","room_assignment":["purple","yellow","blue","green","red","grey"],"door_color_assignment":["white","black"],"door_generator_assignment":[1,0],"goal":2,"start":5,"action_noise":0.2,"location_history":"[5,4,3,4,5,4,3,4,3,4,3,2]","action_history":"[1,0,0,0,1,0,1,0,0,0,1]","door_history":"[0,1,1,1,0,1,0,1,1,1,0]","location_rts":"[3370,665,1459,515,444,1464,518,663,541,625,471]","trial_type":"two-door-navigation","trial_index":79,"time_elapsed":1304092,"internal_node_id":"0.0-2.0-77.0"},{"group":"hexagon_bi","room_assignment":["purple","yellow","blue","green","red","grey"],"door_color_assignment":["white","black"],"door_generator_assignment":[1,0],"goal":3,"start":2,"action_noise":0.2,"location_history":"[2,1,2,3]","action_history":"[0,0,1]","door_history":"[1,1,0]","location_rts":"[2115,1103,466]","trial_type":"two-door-navigation","trial_index":80,"time_elapsed":1314710,"internal_node_id":"0.0-2.0-78.0"},{"group":"hexagon_bi","room_assignment":["purple","yellow","blue","green","red","grey"],"door_color_assignment":["white","black"],"door_generator_assignment":[1,0],"goal":1,"start":3,"action_noise":0.2,"location_history":"[3,4,3,4,3,2,3,2,3,2,1]","action_history":"[1,0,0,0,1,0,1,1,1,0]","door_history":"[0,1,1,1,0,1,0,0,0,1]","location_rts":"[2185,997,463,553,508,1781,1074,444,688,362]","trial_type":"two-door-navigation","trial_index":81,"time_elapsed":1338638,"internal_node_id":"0.0-2.0-79.0"},{"group":"hexagon_bi","room_assignment":["purple","yellow","blue","green","red","grey"],"door_color_assignment":["white","black"],"door_generator_assignment":[1,0],"goal":4,"start":1,"action_noise":0.2,"location_history":"[1,2,3,4]","action_history":"[0,1,0]","door_history":"[1,0,1]","location_rts":"[1978,1282,548]","trial_type":"two-door-navigation","trial_index":82,"time_elapsed":1349332,"internal_node_id":"0.0-2.0-80.0"},{"group":"hexagon_bi","room_assignment":["purple","yellow","blue","green","red","grey"],"door_color_assignment":["white","black"],"door_generator_assignment":[1,0],"goal":5,"start":4,"action_noise":0.2,"location_history":"[4,5]","action_history":"[1]","door_history":"[0]","location_rts":"[1140]","trial_type":"two-door-navigation","trial_index":83,"time_elapsed":1355143,"internal_node_id":"0.0-2.0-81.0"},{"group":"hexagon_bi","room_assignment":["purple","yellow","blue","green","red","grey"],"door_color_assignment":["white","black"],"door_generator_assignment":[1,0],"goal":0,"start":5,"action_noise":0.2,"location_history":"[5,4,3,2,3,4,5,0]","action_history":"[1,1,0,0,0,1,0]","door_history":"[0,0,1,1,1,0,1]","location_rts":"[1985,624,390,741,855,1545,1040]","trial_type":"two-door-navigation","trial_index":84,"time_elapsed":1373825,"internal_node_id":"0.0-2.0-82.0"},{"group":"hexagon_bi","room_assignment":["purple","yellow","blue","green","red","grey"],"door_color_assignment":["white","black"],"door_generator_assignment":[1,0],"goal":2,"start":0,"action_noise":0.2,"location_history":"[0,5,0,5,0,5,4,3,2]","action_history":"[0,0,1,0,0,0,0,1]","door_history":"[1,1,0,1,1,1,1,0]","location_rts":"[22904,7014,1838,12003,6620,1124,4470,1054]","trial_type":"two-door-navigation","trial_index":85,"time_elapsed":1443461,"internal_node_id":"0.0-2.0-83.0"},{"group":"hexagon_bi","room_assignment":["purple","yellow","blue","green","red","grey"],"door_color_assignment":["white","black"],"door_generator_assignment":[1,0],"goal":0,"start":2,"action_noise":0.2,"location_history":"[2,1,2,3,2,1,2,1,2,1,2,1,2,1,0]","action_history":"[1,0,1,1,0,1,0,0,0,1,0,0,0,1]","door_history":"[0,1,0,0,1,0,1,1,1,0,1,1,1,0]","location_rts":"[12603,1783,2181,1433,24065,2622,1109,674,10194,1108,1455,502,469,290]","trial_type":"two-door-navigation","trial_index":86,"time_elapsed":1523368,"internal_node_id":"0.0-2.0-84.0"},{"group":"hexagon_bi","room_assignment":["purple","yellow","blue","green","red","grey"],"door_color_assignment":["white","black"],"door_generator_assignment":[1,0],"goal":5,"start":0,"action_noise":0.2,"location_history":"[0,5]","action_history":"[1]","door_history":"[0]","location_rts":"[3762]","trial_type":"two-door-navigation","trial_index":87,"time_elapsed":1531793,"internal_node_id":"0.0-2.0-85.0"},{"group":"hexagon_bi","room_assignment":["purple","yellow","blue","green","red","grey"],"door_color_assignment":["white","black"],"door_generator_assignment":[1,0],"goal":1,"start":5,"action_noise":0.2,"location_history":"[5,4,5,0,1]","action_history":"[1,1,0,1]","door_history":"[0,0,1,0]","location_rts":"[18213,386,626,425]","trial_type":"two-door-navigation","trial_index":88,"time_elapsed":1559513,"internal_node_id":"0.0-2.0-86.0"},{"group":"hexagon_bi","room_assignment":["purple","yellow","blue","green","red","grey"],"door_color_assignment":["white","black"],"door_generator_assignment":[1,0],"goal":4,"start":1,"action_noise":0.2,"location_history":"[1,0,1,0,5,0,1,2,1,2,1,0,5,4]","action_history":"[1,1,1,0,0,0,1,0,0,1,1,0,1]","door_history":"[0,0,0,1,1,1,0,1,1,0,0,1,0]","location_rts":"[8312,1163,374,344,400,408,440,658,1225,547,1181,785,1838]","trial_type":"two-door-navigation","trial_index":89,"time_elapsed":1595386,"internal_node_id":"0.0-2.0-87.0"},{"group":"hexagon_bi","room_assignment":["purple","yellow","blue","green","red","grey"],"door_color_assignment":["white","black"],"door_generator_assignment":[1,0],"goal":3,"start":4,"action_noise":0.2,"location_history":"[4,3]","action_history":"[0]","door_history":"[1]","location_rts":"[2781]","trial_type":"two-door-navigation","trial_index":90,"time_elapsed":1602839,"internal_node_id":"0.0-2.0-88.0"},{"group":"hexagon_bi","room_assignment":["purple","yellow","blue","green","red","grey"],"door_color_assignment":["white","black"],"door_generator_assignment":[1,0],"goal":5,"start":3,"action_noise":0.2,"location_history":"[3,4,5]","action_history":"[0,1]","door_history":"[1,0]","location_rts":"[2264,1176]","trial_type":"two-door-navigation","trial_index":91,"time_elapsed":1612074,"internal_node_id":"0.0-2.0-89.0"},{"group":"hexagon_bi","room_assignment":["purple","yellow","blue","green","red","grey"],"door_color_assignment":["white","black"],"door_generator_assignment":[1,0],"goal":1,"start":5,"action_noise":0.2,"location_history":"[5,4,5,4,5,0,1]","action_history":"[1,1,1,1,0,1]","door_history":"[0,0,0,0,1,0]","location_rts":"[11735,704,286,409,297,1750]","trial_type":"two-door-navigation","trial_index":92,"time_elapsed":1637613,"internal_node_id":"0.0-2.0-90.0"},{"group":"hexagon_bi","room_assignment":["purple","yellow","blue","green","red","grey"],"door_color_assignment":["white","black"],"door_generator_assignment":[1,0],"goal":2,"start":1,"action_noise":0.2,"location_history":"[1,0,1,0,1,0,1,0,1,0,1,0,1,0,1,2]","action_history":"[1,1,0,1,1,1,1,1,0,1,1,1,1,1,0]","door_history":"[0,0,1,0,0,0,0,0,1,0,0,0,0,0,1]","location_rts":"[5207,4511,860,7224,808,1412,4533,4563,448,1114,372,588,108,421,315]","trial_type":"two-door-navigation","trial_index":93,"time_elapsed":1690632,"internal_node_id":"0.0-2.0-91.0"},{"group":"hexagon_bi","room_assignment":["purple","yellow","blue","green","red","grey"],"door_color_assignment":["white","black"],"door_generator_assignment":[1,0],"goal":4,"start":2,"action_noise":0.2,"location_history":"[2,3,4]","action_history":"[0,0]","door_history":"[1,1]","location_rts":"[7806,882]","trial_type":"two-door-navigation","trial_index":94,"time_elapsed":1705090,"internal_node_id":"0.0-2.0-92.0"},{"group":"hexagon_bi","room_assignment":["purple","yellow","blue","green","red","grey"],"door_color_assignment":["white","black"],"door_generator_assignment":[1,0],"goal":0,"start":4,"action_noise":0.2,"location_history":"[4,3,4,5,0]","action_history":"[0,0,1,0]","door_history":"[1,1,0,1]","location_rts":"[1926,468,1078,444]","trial_type":"two-door-navigation","trial_index":95,"time_elapsed":1717068,"internal_node_id":"0.0-2.0-93.0"},{"group":"hexagon_bi","room_assignment":["purple","yellow","blue","green","red","grey"],"door_color_assignment":["white","black"],"door_generator_assignment":[1,0],"goal":3,"start":0,"action_noise":0.2,"location_history":"[0,5,0,1,0,1,2,1,0,1,0,1,0,5,0,5,4,3]","action_history":"[0,0,1,1,1,0,0,0,1,0,1,1,1,0,0,1,0]","door_history":"[1,1,0,0,0,1,1,1,0,1,0,0,0,1,1,0,1]","location_rts":"[2350,1247,1428,971,606,813,1628,406,377,3023,1896,444,514,1559,1414,892,1341]","trial_type":"two-door-navigation","trial_index":96,"time_elapsed":1760742,"internal_node_id":"0.0-2.0-94.0"},{"group":"hexagon_bi","room_assignment":["purple","yellow","blue","green","red","grey"],"door_color_assignment":["white","black"],"door_generator_assignment":[1,0],"goal":0,"start":3,"action_noise":0.2,"location_history":"[3,4,5,0]","action_history":"[0,1,0]","door_history":"[1,0,1]","location_rts":"[2007,484,1005]","trial_type":"two-door-navigation","trial_index":97,"time_elapsed":1771143,"internal_node_id":"0.0-2.0-95.0"},{"group":"hexagon_bi","room_assignment":["purple","yellow","blue","green","red","grey"],"door_color_assignment":["white","black"],"door_generator_assignment":[1,0],"goal":4,"start":0,"action_noise":0.2,"location_history":"[0,1,0,1,0,5,4]","action_history":"[0,0,1,0,0,1]","door_history":"[1,1,0,1,1,0]","location_rts":"[3033,940,890,545,480,1280]","trial_type":"two-door-navigation","trial_index":98,"time_elapsed":1788657,"internal_node_id":"0.0-2.0-96.0"},{"group":"hexagon_bi","room_assignment":["purple","yellow","blue","green","red","grey"],"door_color_assignment":["white","black"],"door_generator_assignment":[1,0],"goal":5,"start":4,"action_noise":0.2,"location_history":"[4,5]","action_history":"[1]","door_history":"[0]","location_rts":"[1476]","trial_type":"two-door-navigation","trial_index":99,"time_elapsed":1794788,"internal_node_id":"0.0-2.0-97.0"},{"group":"hexagon_bi","room_assignment":["purple","yellow","blue","green","red","grey"],"door_color_assignment":["white","black"],"door_generator_assignment":[1,0],"goal":2,"start":5,"action_noise":0.2,"location_history":"[5,4,3,2]","action_history":"[1,0,1]","door_history":"[0,1,0]","location_rts":"[2812,581,1191]","trial_type":"two-door-navigation","trial_index":100,"time_elapsed":1806296,"internal_node_id":"0.0-2.0-98.0"},{"group":"hexagon_bi","room_assignment":["purple","yellow","blue","green","red","grey"],"door_color_assignment":["white","black"],"door_generator_assignment":[1,0],"goal":1,"start":2,"action_noise":0.2,"location_history":"[2,1]","action_history":"[0]","door_history":"[1]","location_rts":"[1680]","trial_type":"two-door-navigation","trial_index":101,"time_elapsed":1812627,"internal_node_id":"0.0-2.0-99.0"},{"view_history":"[{\"page_index\":0,\"viewing_time\":3827}]","rt":3828,"trial_type":"instructions","trial_index":102,"time_elapsed":1817464,"internal_node_id":"0.0-3.0"},{"view_history":"[{\"page_index\":0,\"viewing_time\":2726},{\"page_index\":1,\"viewing_time\":14158}]","rt":16885,"trial_type":"instructions","trial_index":103,"time_elapsed":1835353,"internal_node_id":"0.0-4.0"},{"group":"hexagon_bi","fractal_assignment":["../images/gry_blk.png","../images/ylw_slt.png","../images/org_blu.png","../images/blu_wht.png","../images/pnk_blu.png","../images/cyn_red.png"],"mutagen_generator_assignment":[1,0],"goal":2,"start":1,"action_noise":0.2,"location_history":"[1,2]","action_history":"[0]","mutagen_history":"[1]","location_rts":"[3120]","trial_type":"fractal-mutation","trial_index":104,"time_elapsed":1843179,"internal_node_id":"0.0-5.0-0.0"},{"group":"hexagon_bi","fractal_assignment":["../images/gry_blk.png","../images/ylw_slt.png","../images/org_blu.png","../images/blu_wht.png","../images/pnk_blu.png","../images/cyn_red.png"],"mutagen_generator_assignment":[1,0],"goal":0,"start":2,"action_noise":0.2,"location_history":"[2,3,4,3,2,1,0]","action_history":"[1,0,0,1,0,0]","mutagen_history":"[0,1,1,0,1,1]","location_rts":"[2609,1311,1150,1430,1301,1697]","trial_type":"fractal-mutation","trial_index":105,"time_elapsed":1863249,"internal_node_id":"0.0-5.0-1.0"},{"group":"hexagon_bi","fractal_assignment":["../images/gry_blk.png","../images/ylw_slt.png","../images/org_blu.png","../images/blu_wht.png","../images/pnk_blu.png","../images/cyn_red.png"],"mutagen_generator_assignment":[1,0],"goal":5,"start":0,"action_noise":0.2,"location_history":"[0,5]","action_history":"[0]","mutagen_history":"[1]","location_rts":"[1688]","trial_type":"fractal-mutation","trial_index":106,"time_elapsed":1869647,"internal_node_id":"0.0-5.0-2.0"},{"group":"hexagon_bi","fractal_assignment":["../images/gry_blk.png","../images/ylw_slt.png","../images/org_blu.png","../images/blu_wht.png","../images/pnk_blu.png","../images/cyn_red.png"],"mutagen_generator_assignment":[1,0],"goal":3,"start":5,"action_noise":0.2,"location_history":"[5,4,5,0,5,4,3]","action_history":"[1,0,0,0,1,1]","mutagen_history":"[0,1,1,1,0,0]","location_rts":"[2721,1206,1048,1226,1103,965]","trial_type":"fractal-mutation","trial_index":107,"time_elapsed":1888466,"internal_node_id":"0.0-5.0-3.0"},{"group":"hexagon_bi","fractal_assignment":["../images/gry_blk.png","../images/ylw_slt.png","../images/org_blu.png","../images/blu_wht.png","../images/pnk_blu.png","../images/cyn_red.png"],"mutagen_generator_assignment":[1,0],"goal":4,"start":3,"action_noise":0.2,"location_history":"[3,4]","action_history":"[0]","mutagen_history":"[1]","location_rts":"[1576]","trial_type":"fractal-mutation","trial_index":108,"time_elapsed":1894742,"internal_node_id":"0.0-5.0-4.0"},{"group":"hexagon_bi","fractal_assignment":["../images/gry_blk.png","../images/ylw_slt.png","../images/org_blu.png","../images/blu_wht.png","../images/pnk_blu.png","../images/cyn_red.png"],"mutagen_generator_assignment":[1,0],"goal":0,"start":4,"action_noise":0.2,"location_history":"[4,3,4,3,4,3,2,3,4,3,4,3,4,3,4,5,4,5,4,5,0]","action_history":"[0,0,0,0,1,1,0,0,0,0,0,0,0,1,1,0,1,1,0,0]","mutagen_history":"[1,1,1,1,0,0,1,1,1,1,1,1,1,0,0,1,0,0,1,1]","location_rts":"[2321,659,439,1193,609,415,901,558,405,484,296,346,392,333,349,1121,1112,450,1550,1250]","trial_type":"fractal-mutation","trial_index":109,"time_elapsed":1936880,"internal_node_id":"0.0-5.0-5.0"},{"group":"hexagon_bi","fractal_assignment":["../images/gry_blk.png","../images/ylw_slt.png","../images/org_blu.png","../images/blu_wht.png","../images/pnk_blu.png","../images/cyn_red.png"],"mutagen_generator_assignment":[1,0],"goal":4,"start":0,"action_noise":0.2,"location_history":"[0,5,0,5,4]","action_history":"[0,0,0,1]","mutagen_history":"[1,1,1,0]","location_rts":"[1583,485,345,262]","trial_type":"fractal-mutation","trial_index":110,"time_elapsed":1947779,"internal_node_id":"0.0-5.0-6.0"},{"group":"hexagon_bi","fractal_assignment":["../images/gry_blk.png","../images/ylw_slt.png","../images/org_blu.png","../images/blu_wht.png","../images/pnk_blu.png","../images/cyn_red.png"],"mutagen_generator_assignment":[1,0],"goal":3,"start":4,"action_noise":0.2,"location_history":"[4,3]","action_history":"[0]","mutagen_history":"[1]","location_rts":"[1351]","trial_type":"fractal-mutation","trial_index":111,"time_elapsed":1953809,"internal_node_id":"0.0-5.0-7.0"},{"group":"hexagon_bi","fractal_assignment":["../images/gry_blk.png","../images/ylw_slt.png","../images/org_blu.png","../images/blu_wht.png","../images/pnk_blu.png","../images/cyn_red.png"],"mutagen_generator_assignment":[1,0],"goal":2,"start":3,"action_noise":0.2,"location_history":"[3,4,3,2]","action_history":"[1,0,0]","mutagen_history":"[0,1,1]","location_rts":"[1837,1045,998]","trial_type":"fractal-mutation","trial_index":112,"time_elapsed":1964735,"internal_node_id":"0.0-5.0-8.0"},{"group":"hexagon_bi","fractal_assignment":["../images/gry_blk.png","../images/ylw_slt.png","../images/org_blu.png","../images/blu_wht.png","../images/pnk_blu.png","../images/cyn_red.png"],"mutagen_generator_assignment":[1,0],"goal":1,"start":2,"action_noise":0.2,"location_history":"[2,3,4,5,4,3,4,5,4,5,4,3,4,3,2,1]","action_history":"[1,0,0,0,0,1,1,1,1,1,0,0,0,1,0]","mutagen_history":"[0,1,1,1,1,0,0,0,0,0,1,1,1,0,1]","location_rts":"[1706,1028,434,731,928,1938,1019,393,633,328,291,384,611,1008,1305]","trial_type":"fractal-mutation","trial_index":113,"time_elapsed":1998468,"internal_node_id":"0.0-5.0-9.0"},{"group":"hexagon_bi","fractal_assignment":["../images/gry_blk.png","../images/ylw_slt.png","../images/org_blu.png","../images/blu_wht.png","../images/pnk_blu.png","../images/cyn_red.png"],"mutagen_generator_assignment":[1,0],"goal":5,"start":1,"action_noise":0.2,"location_history":"[1,2,1,2,1,0,5]","action_history":"[1,0,0,0,1,0]","mutagen_history":"[0,1,1,1,0,1]","location_rts":"[1810,1193,416,648,1024,1722]","trial_type":"fractal-mutation","trial_index":114,"time_elapsed":2015783,"internal_node_id":"0.0-5.0-10.0"},{"group":"hexagon_bi","fractal_assignment":["../images/gry_blk.png","../images/ylw_slt.png","../images/org_blu.png","../images/blu_wht.png","../images/pnk_blu.png","../images/cyn_red.png"],"mutagen_generator_assignment":[1,0],"goal":0,"start":5,"action_noise":0.2,"location_history":"[5,4,5,4,3,4,3,4,3,2,1,2,1,0]","action_history":"[0,1,1,1,0,0,0,0,1,0,0,0,1]","mutagen_history":"[1,0,0,0,1,1,1,1,0,1,1,1,0]","location_rts":"[1280,1491,378,1124,886,863,366,354,405,1231,1393,897,1273]","trial_type":"fractal-mutation","trial_index":115,"time_elapsed":2046486,"internal_node_id":"0.0-5.0-11.0"},{"group":"hexagon_bi","fractal_assignment":["../images/gry_blk.png","../images/ylw_slt.png","../images/org_blu.png","../images/blu_wht.png","../images/pnk_blu.png","../images/cyn_red.png"],"mutagen_generator_assignment":[1,0],"goal":4,"start":0,"action_noise":0.2,"location_history":"[0,5,0,5,4]","action_history":"[0,0,0,1]","mutagen_history":"[1,1,1,0]","location_rts":"[2025,1055,1147,343]","trial_type":"fractal-mutation","trial_index":116,"time_elapsed":2059198,"internal_node_id":"0.0-5.0-12.0"},{"group":"hexagon_bi","fractal_assignment":["../images/gry_blk.png","../images/ylw_slt.png","../images/org_blu.png","../images/blu_wht.png","../images/pnk_blu.png","../images/cyn_red.png"],"mutagen_generator_assignment":[1,0],"goal":2,"start":4,"action_noise":0.2,"location_history":"[4,3,2]","action_history":"[1,1]","mutagen_history":"[0,0]","location_rts":"[2121,2251]","trial_type":"fractal-mutation","trial_index":117,"time_elapsed":2069399,"internal_node_id":"0.0-5.0-13.0"},{"group":"hexagon_bi","fractal_assignment":["../images/gry_blk.png","../images/ylw_slt.png","../images/org_blu.png","../images/blu_wht.png","../images/pnk_blu.png","../images/cyn_red.png"],"mutagen_generator_assignment":[1,0],"goal":1,"start":2,"action_noise":0.2,"location_history":"[2,1]","action_history":"[0]","mutagen_history":"[1]","location_rts":"[628]","trial_type":"fractal-mutation","trial_index":118,"time_elapsed":2074763,"internal_node_id":"0.0-5.0-14.0"},{"group":"hexagon_bi","fractal_assignment":["../images/gry_blk.png","../images/ylw_slt.png","../images/org_blu.png","../images/blu_wht.png","../images/pnk_blu.png","../images/cyn_red.png"],"mutagen_generator_assignment":[1,0],"goal":3,"start":1,"action_noise":0.2,"location_history":"[1,0,5,0,5,4,3]","action_history":"[1,0,0,1,1,0]","mutagen_history":"[0,1,1,0,0,1]","location_rts":"[1609,1330,1308,1417,1505,435]","trial_type":"fractal-mutation","trial_index":119,"time_elapsed":2092816,"internal_node_id":"0.0-5.0-15.0"},{"group":"hexagon_bi","fractal_assignment":["../images/gry_blk.png","../images/ylw_slt.png","../images/org_blu.png","../images/blu_wht.png","../images/pnk_blu.png","../images/cyn_red.png"],"mutagen_generator_assignment":[1,0],"goal":5,"start":3,"action_noise":0.2,"location_history":"[3,4,3,2,1,0,5]","action_history":"[0,0,0,1,0,0]","mutagen_history":"[1,1,1,0,1,1]","location_rts":"[1783,665,1274,244,1348,1883]","trial_type":"fractal-mutation","trial_index":120,"time_elapsed":2110611,"internal_node_id":"0.0-5.0-16.0"},{"group":"hexagon_bi","fractal_assignment":["../images/gry_blk.png","../images/ylw_slt.png","../images/org_blu.png","../images/blu_wht.png","../images/pnk_blu.png","../images/cyn_red.png"],"mutagen_generator_assignment":[1,0],"goal":0,"start":5,"action_noise":0.2,"location_history":"[5,0]","action_history":"[0]","mutagen_history":"[1]","location_rts":"[1648]","trial_type":"fractal-mutation","trial_index":121,"time_elapsed":2116935,"internal_node_id":"0.0-5.0-17.0"},{"group":"hexagon_bi","fractal_assignment":["../images/gry_blk.png","../images/ylw_slt.png","../images/org_blu.png","../images/blu_wht.png","../images/pnk_blu.png","../images/cyn_red.png"],"mutagen_generator_assignment":[1,0],"goal":5,"start":0,"action_noise":0.2,"location_history":"[0,5]","action_history":"[0]","mutagen_history":"[1]","location_rts":"[1159]","trial_type":"fractal-mutation","trial_index":122,"time_elapsed":2122809,"internal_node_id":"0.0-5.0-18.0"},{"group":"hexagon_bi","fractal_assignment":["../images/gry_blk.png","../images/ylw_slt.png","../images/org_blu.png","../images/blu_wht.png","../images/pnk_blu.png","../images/cyn_red.png"],"mutagen_generator_assignment":[1,0],"goal":3,"start":5,"action_noise":0.2,"location_history":"[5,0,1,2,3]","action_history":"[0,1,0,1]","mutagen_history":"[1,0,1,0]","location_rts":"[2843,441,684,1492]","trial_type":"fractal-mutation","trial_index":123,"time_elapsed":2136404,"internal_node_id":"0.0-5.0-19.0"},{"group":"hexagon_bi","fractal_assignment":["../images/gry_blk.png","../images/ylw_slt.png","../images/org_blu.png","../images/blu_wht.png","../images/pnk_blu.png","../images/cyn_red.png"],"mutagen_generator_assignment":[1,0],"goal":4,"start":3,"action_noise":0.2,"location_history":"[3,4]","action_history":"[0]","mutagen_history":"[1]","location_rts":"[4035]","trial_type":"fractal-mutation","trial_index":124,"time_elapsed":2145112,"internal_node_id":"0.0-5.0-20.0"},{"group":"hexagon_bi","fractal_assignment":["../images/gry_blk.png","../images/ylw_slt.png","../images/org_blu.png","../images/blu_wht.png","../images/pnk_blu.png","../images/cyn_red.png"],"mutagen_generator_assignment":[1,0],"goal":1,"start":4,"action_noise":0.2,"location_history":"[4,5,0,5,0,1]","action_history":"[1,0,0,0,1]","mutagen_history":"[0,1,1,1,0]","location_rts":"[1922,870,690,499,263]","trial_type":"fractal-mutation","trial_index":125,"time_elapsed":2158664,"internal_node_id":"0.0-5.0-21.0"},{"group":"hexagon_bi","fractal_assignment":["../images/gry_blk.png","../images/ylw_slt.png","../images/org_blu.png","../images/blu_wht.png","../images/pnk_blu.png","../images/cyn_red.png"],"mutagen_generator_assignment":[1,0],"goal":2,"start":1,"action_noise":0.2,"location_history":"[1,2]","action_history":"[0]","mutagen_history":"[1]","location_rts":"[3423]","trial_type":"fractal-mutation","trial_index":126,"time_elapsed":2166786,"internal_node_id":"0.0-5.0-22.0"},{"group":"hexagon_bi","fractal_assignment":["../images/gry_blk.png","../images/ylw_slt.png","../images/org_blu.png","../images/blu_wht.png","../images/pnk_blu.png","../images/cyn_red.png"],"mutagen_generator_assignment":[1,0],"goal":3,"start":2,"action_noise":0.2,"location_history":"[2,3]","action_history":"[1]","mutagen_history":"[0]","location_rts":"[1700]","trial_type":"fractal-mutation","trial_index":127,"time_elapsed":2173169,"internal_node_id":"0.0-5.0-23.0"},{"group":"hexagon_bi","fractal_assignment":["../images/gry_blk.png","../images/ylw_slt.png","../images/org_blu.png","../images/blu_wht.png","../images/pnk_blu.png","../images/cyn_red.png"],"mutagen_generator_assignment":[1,0],"goal":5,"start":3,"action_noise":0.2,"location_history":"[3,4,5]","action_history":"[0,0]","mutagen_history":"[1,1]","location_rts":"[1942,364]","trial_type":"fractal-mutation","trial_index":128,"time_elapsed":2181403,"internal_node_id":"0.0-5.0-24.0"},{"group":"hexagon_bi","fractal_assignment":["../images/gry_blk.png","../images/ylw_slt.png","../images/org_blu.png","../images/blu_wht.png","../images/pnk_blu.png","../images/cyn_red.png"],"mutagen_generator_assignment":[1,0],"goal":4,"start":5,"action_noise":0.2,"location_history":"[5,4]","action_history":"[1]","mutagen_history":"[0]","location_rts":"[1455]","trial_type":"fractal-mutation","trial_index":129,"time_elapsed":2187537,"internal_node_id":"0.0-5.0-25.0"},{"group":"hexagon_bi","fractal_assignment":["../images/gry_blk.png","../images/ylw_slt.png","../images/org_blu.png","../images/blu_wht.png","../images/pnk_blu.png","../images/cyn_red.png"],"mutagen_generator_assignment":[1,0],"goal":0,"start":4,"action_noise":0.2,"location_history":"[4,5,0]","action_history":"[0,0]","mutagen_history":"[1,1]","location_rts":"[1459,339]","trial_type":"fractal-mutation","trial_index":130,"time_elapsed":2195184,"internal_node_id":"0.0-5.0-26.0"},{"group":"hexagon_bi","fractal_assignment":["../images/gry_blk.png","../images/ylw_slt.png","../images/org_blu.png","../images/blu_wht.png","../images/pnk_blu.png","../images/cyn_red.png"],"mutagen_generator_assignment":[1,0],"goal":2,"start":0,"action_noise":0.2,"location_history":"[0,1,0,1,0,5,0,1,2]","action_history":"[1,0,1,1,0,1,1,1]","mutagen_history":"[0,1,0,0,1,0,0,0]","location_rts":"[3248,765,816,421,638,546,356,810]","trial_type":"fractal-mutation","trial_index":131,"time_elapsed":2215522,"internal_node_id":"0.0-5.0-27.0"},{"group":"hexagon_bi","fractal_assignment":["../images/gry_blk.png","../images/ylw_slt.png","../images/org_blu.png","../images/blu_wht.png","../images/pnk_blu.png","../images/cyn_red.png"],"mutagen_generator_assignment":[1,0],"goal":1,"start":2,"action_noise":0.2,"location_history":"[2,3,2,3,2,1]","action_history":"[0,1,1,1,0]","mutagen_history":"[1,0,0,0,1]","location_rts":"[2598,1226,352,919,849]","trial_type":"fractal-mutation","trial_index":132,"time_elapsed":2230792,"internal_node_id":"0.0-5.0-28.0"},{"group":"hexagon_bi","fractal_assignment":["../images/gry_blk.png","../images/ylw_slt.png","../images/org_blu.png","../images/blu_wht.png","../images/pnk_blu.png","../images/cyn_red.png"],"mutagen_generator_assignment":[1,0],"goal":0,"start":1,"action_noise":0.2,"location_history":"[1,2,1,0]","action_history":"[0,0,1]","mutagen_history":"[1,1,0]","location_rts":"[1479,977,980]","trial_type":"fractal-mutation","trial_index":133,"time_elapsed":2241242,"internal_node_id":"0.0-5.0-29.0"},{"group":"hexagon_bi","fractal_assignment":["../images/gry_blk.png","../images/ylw_slt.png","../images/org_blu.png","../images/blu_wht.png","../images/pnk_blu.png","../images/cyn_red.png"],"mutagen_generator_assignment":[1,0],"goal":2,"start":0,"action_noise":0.2,"location_history":"[0,1,2]","action_history":"[1,0]","mutagen_history":"[0,1]","location_rts":"[1402,651]","trial_type":"fractal-mutation","trial_index":134,"time_elapsed":2249145,"internal_node_id":"0.0-5.0-30.0"},{"group":"hexagon_bi","fractal_assignment":["../images/gry_blk.png","../images/ylw_slt.png","../images/org_blu.png","../images/blu_wht.png","../images/pnk_blu.png","../images/cyn_red.png"],"mutagen_generator_assignment":[1,0],"goal":4,"start":2,"action_noise":0.2,"location_history":"[2,3,4]","action_history":"[1,0]","mutagen_history":"[0,1]","location_rts":"[1587,356]","trial_type":"fractal-mutation","trial_index":135,"time_elapsed":2256925,"internal_node_id":"0.0-5.0-31.0"},{"group":"hexagon_bi","fractal_assignment":["../images/gry_blk.png","../images/ylw_slt.png","../images/org_blu.png","../images/blu_wht.png","../images/pnk_blu.png","../images/cyn_red.png"],"mutagen_generator_assignment":[1,0],"goal":1,"start":4,"action_noise":0.2,"location_history":"[4,5,4,5,0,5,4,3,4,3,4,3,4,5,0,1]","action_history":"[1,1,0,0,0,1,0,0,0,1,1,0,1,1,1]","mutagen_history":"[0,0,1,1,1,0,1,1,1,0,0,1,0,0,0]","location_rts":"[3007,1020,1024,326,695,986,330,320,408,484,838,624,465,450,1224]","trial_type":"fractal-mutation","trial_index":136,"time_elapsed":2289999,"internal_node_id":"0.0-5.0-32.0"},{"group":"hexagon_bi","fractal_assignment":["../images/gry_blk.png","../images/ylw_slt.png","../images/org_blu.png","../images/blu_wht.png","../images/pnk_blu.png","../images/cyn_red.png"],"mutagen_generator_assignment":[1,0],"goal":3,"start":1,"action_noise":0.2,"location_history":"[1,0,5,0,1,0,5,0,1,2,1,0,1,2,3]","action_history":"[1,0,0,1,1,1,1,1,0,0,1,1,0,1]","mutagen_history":"[0,1,1,0,0,0,0,0,1,1,0,0,1,0]","location_rts":"[1911,625,518,828,380,812,879,937,1067,1276,1524,846,457,1049]","trial_type":"fractal-mutation","trial_index":137,"time_elapsed":2322819,"internal_node_id":"0.0-5.0-33.0"},{"group":"hexagon_bi","fractal_assignment":["../images/gry_blk.png","../images/ylw_slt.png","../images/org_blu.png","../images/blu_wht.png","../images/pnk_blu.png","../images/cyn_red.png"],"mutagen_generator_assignment":[1,0],"goal":5,"start":3,"action_noise":0.2,"location_history":"[3,4,3,2,1,2,3,2,3,4,5]","action_history":"[0,0,0,1,0,1,1,1,0,1]","mutagen_history":"[1,1,1,0,1,0,0,0,1,0]","location_rts":"[2500,321,1392,279,1542,1011,1097,559,1400,901]","trial_type":"fractal-mutation","trial_index":138,"time_elapsed":2348937,"internal_node_id":"0.0-5.0-34.0"},{"group":"hexagon_bi","fractal_assignment":["../images/gry_blk.png","../images/ylw_slt.png","../images/org_blu.png","../images/blu_wht.png","../images/pnk_blu.png","../images/cyn_red.png"],"mutagen_generator_assignment":[1,0],"goal":2,"start":5,"action_noise":0.2,"location_history":"[5,4,5,0,5,0,1,0,5,4,5,0,1,2]","action_history":"[1,1,0,0,0,1,0,1,1,1,0,1,1]","mutagen_history":"[0,0,1,1,1,0,1,0,0,0,1,0,0]","location_rts":"[3602,6407,1591,655,466,377,2710,986,475,1310,736,1372,776]","trial_type":"fractal-mutation","trial_index":139,"time_elapsed":2389008,"internal_node_id":"0.0-5.0-35.0"},{"group":"hexagon_bi","fractal_assignment":["../images/gry_blk.png","../images/ylw_slt.png","../images/org_blu.png","../images/blu_wht.png","../images/pnk_blu.png","../images/cyn_red.png"],"mutagen_generator_assignment":[1,0],"goal":0,"start":2,"action_noise":0.2,"location_history":"[2,1,2,1,2,3,4,3,2,3,2,1,2,1,0]","action_history":"[0,0,0,0,0,1,0,1,1,1,0,0,0,1]","mutagen_history":"[1,1,1,1,1,0,1,0,0,0,1,1,1,0]","location_rts":"[1427,388,1660,1243,1061,1429,1985,900,683,757,964,2533,10136,1024]","trial_type":"fractal-mutation","trial_index":140,"time_elapsed":2435028,"internal_node_id":"0.0-5.0-36.0"},{"group":"hexagon_bi","fractal_assignment":["../images/gry_blk.png","../images/ylw_slt.png","../images/org_blu.png","../images/blu_wht.png","../images/pnk_blu.png","../images/cyn_red.png"],"mutagen_generator_assignment":[1,0],"goal":4,"start":0,"action_noise":0.2,"location_history":"[0,1,0,5,0,5,4]","action_history":"[1,1,0,0,0,1]","mutagen_history":"[0,0,1,1,1,0]","location_rts":"[2716,340,408,443,1105,706]","trial_type":"fractal-mutation","trial_index":141,"time_elapsed":2451270,"internal_node_id":"0.0-5.0-37.0"},{"group":"hexagon_bi","fractal_assignment":["../images/gry_blk.png","../images/ylw_slt.png","../images/org_blu.png","../images/blu_wht.png","../images/pnk_blu.png","../images/cyn_red.png"],"mutagen_generator_assignment":[1,0],"goal":5,"start":4,"action_noise":0.2,"location_history":"[4,3,4,5]","action_history":"[0,0,1]","mutagen_history":"[1,1,0]","location_rts":"[1788,1204,907]","trial_type":"fractal-mutation","trial_index":142,"time_elapsed":2462198,"internal_node_id":"0.0-5.0-38.0"},{"group":"hexagon_bi","fractal_assignment":["../images/gry_blk.png","../images/ylw_slt.png","../images/org_blu.png","../images/blu_wht.png","../images/pnk_blu.png","../images/cyn_red.png"],"mutagen_generator_assignment":[1,0],"goal":1,"start":5,"action_noise":0.2,"location_history":"[5,0,1]","action_history":"[0,1]","mutagen_history":"[1,0]","location_rts":"[3139,988]","trial_type":"fractal-mutation","trial_index":143,"time_elapsed":2472128,"internal_node_id":"0.0-5.0-39.0"},{"group":"hexagon_bi","fractal_assignment":["../images/gry_blk.png","../images/ylw_slt.png","../images/org_blu.png","../images/blu_wht.png","../images/pnk_blu.png","../images/cyn_red.png"],"mutagen_generator_assignment":[1,0],"goal":3,"start":1,"action_noise":0.2,"location_history":"[1,0,1,0,5,0,1,0,1,2,1,0,5,4,5,4,3]","action_history":"[1,1,0,0,0,0,1,1,0,0,0,0,1,1,1,0]","mutagen_history":"[0,0,1,1,1,1,0,0,1,1,1,1,0,0,0,1]","location_rts":"[1861,451,376,810,289,1397,1032,624,732,767,912,1061,429,556,779,358]","trial_type":"fractal-mutation","trial_index":144,"time_elapsed":2506642,"internal_node_id":"0.0-5.0-40.0"},{"group":"hexagon_bi","fractal_assignment":["../images/gry_blk.png","../images/ylw_slt.png","../images/org_blu.png","../images/blu_wht.png","../images/pnk_blu.png","../images/cyn_red.png"],"mutagen_generator_assignment":[1,0],"goal":1,"start":3,"action_noise":0.2,"location_history":"[3,4,3,4,5,0,1]","action_history":"[1,0,0,1,0,1]","mutagen_history":"[0,1,1,0,1,0]","location_rts":"[2579,851,282,2607,1436,1626]","trial_type":"fractal-mutation","trial_index":145,"time_elapsed":2526598,"internal_node_id":"0.0-5.0-41.0"},{"group":"hexagon_bi","fractal_assignment":["../images/gry_blk.png","../images/ylw_slt.png","../images/org_blu.png","../images/blu_wht.png","../images/pnk_blu.png","../images/cyn_red.png"],"mutagen_generator_assignment":[1,0],"goal":0,"start":1,"action_noise":0.2,"location_history":"[1,2,3,2,3,2,3,2,3,2,3,4,3,2,1,0]","action_history":"[0,1,1,1,1,1,1,1,1,1,0,0,1,0,1]","mutagen_history":"[1,0,0,0,0,0,0,0,0,0,1,1,0,1,0]","location_rts":"[2080,1480,939,1334,875,441,730,316,621,376,1418,1242,1299,913,497]","trial_type":"fractal-mutation","trial_index":146,"time_elapsed":2561951,"internal_node_id":"0.0-5.0-42.0"},{"group":"hexagon_bi","fractal_assignment":["../images/gry_blk.png","../images/ylw_slt.png","../images/org_blu.png","../images/blu_wht.png","../images/pnk_blu.png","../images/cyn_red.png"],"mutagen_generator_assignment":[1,0],"goal":4,"start":0,"action_noise":0.2,"location_history":"[0,5,4]","action_history":"[0,0]","mutagen_history":"[1,1]","location_rts":"[2711,1538]","trial_type":"fractal-mutation","trial_index":147,"time_elapsed":2572132,"internal_node_id":"0.0-5.0-43.0"},{"group":"hexagon_bi","fractal_assignment":["../images/gry_blk.png","../images/ylw_slt.png","../images/org_blu.png","../images/blu_wht.png","../images/pnk_blu.png","../images/cyn_red.png"],"mutagen_generator_assignment":[1,0],"goal":2,"start":4,"action_noise":0.2,"location_history":"[4,5,4,3,2]","action_history":"[1,0,0,1]","mutagen_history":"[0,1,1,0]","location_rts":"[2232,742,447,516]","trial_type":"fractal-mutation","trial_index":148,"time_elapsed":2584235,"internal_node_id":"0.0-5.0-44.0"},{"group":"hexagon_bi","fractal_assignment":["../images/gry_blk.png","../images/ylw_slt.png","../images/org_blu.png","../images/blu_wht.png","../images/pnk_blu.png","../images/cyn_red.png"],"mutagen_generator_assignment":[1,0],"goal":3,"start":2,"action_noise":0.2,"location_history":"[2,3]","action_history":"[1]","mutagen_history":"[0]","location_rts":"[1849]","trial_type":"fractal-mutation","trial_index":149,"time_elapsed":2590759,"internal_node_id":"0.0-5.0-45.0"},{"group":"hexagon_bi","fractal_assignment":["../images/gry_blk.png","../images/ylw_slt.png","../images/org_blu.png","../images/blu_wht.png","../images/pnk_blu.png","../images/cyn_red.png"],"mutagen_generator_assignment":[1,0],"goal":5,"start":3,"action_noise":0.2,"location_history":"[3,2,1,2,1,0,5]","action_history":"[0,0,0,0,0,0]","mutagen_history":"[1,1,1,1,1,1]","location_rts":"[2217,573,1156,380,479,703]","trial_type":"fractal-mutation","trial_index":150,"time_elapsed":2606832,"internal_node_id":"0.0-5.0-46.0"},{"group":"hexagon_bi","fractal_assignment":["../images/gry_blk.png","../images/ylw_slt.png","../images/org_blu.png","../images/blu_wht.png","../images/pnk_blu.png","../images/cyn_red.png"],"mutagen_generator_assignment":[1,0],"goal":4,"start":5,"action_noise":0.2,"location_history":"[5,4]","action_history":"[0]","mutagen_history":"[1]","location_rts":"[5010]","trial_type":"fractal-mutation","trial_index":151,"time_elapsed":2616534,"internal_node_id":"0.0-5.0-47.0"},{"group":"hexagon_bi","fractal_assignment":["../images/gry_blk.png","../images/ylw_slt.png","../images/org_blu.png","../images/blu_wht.png","../images/pnk_blu.png","../images/cyn_red.png"],"mutagen_generator_assignment":[1,0],"goal":3,"start":4,"action_noise":0.2,"location_history":"[4,3]","action_history":"[0]","mutagen_history":"[1]","location_rts":"[4569]","trial_type":"fractal-mutation","trial_index":152,"time_elapsed":2625820,"internal_node_id":"0.0-5.0-48.0"},{"group":"hexagon_bi","fractal_assignment":["../images/gry_blk.png","../images/ylw_slt.png","../images/org_blu.png","../images/blu_wht.png","../images/pnk_blu.png","../images/cyn_red.png"],"mutagen_generator_assignment":[1,0],"goal":1,"start":3,"action_noise":0.2,"location_history":"[3,2,1]","action_history":"[1,0]","mutagen_history":"[0,1]","location_rts":"[4169,1295]","trial_type":"fractal-mutation","trial_index":153,"time_elapsed":2637169,"internal_node_id":"0.0-5.0-49.0"},{"group":"hexagon_bi","fractal_assignment":["../images/gry_blk.png","../images/ylw_slt.png","../images/org_blu.png","../images/blu_wht.png","../images/pnk_blu.png","../images/cyn_red.png"],"mutagen_generator_assignment":[1,0],"goal":2,"start":1,"action_noise":0.2,"location_history":"[1,0,5,0,5,4,5,0,5,0,5,4,3,2]","action_history":"[1,0,0,1,1,0,1,1,1,1,1,0,1]","mutagen_history":"[0,1,1,0,0,1,0,0,0,0,0,1,0]","location_rts":"[1704,1269,550,1252,724,1227,455,338,530,339,459,366,1678]","trial_type":"fractal-mutation","trial_index":154,"time_elapsed":2666659,"internal_node_id":"0.0-5.0-50.0"},{"group":"hexagon_bi","fractal_assignment":["../images/gry_blk.png","../images/ylw_slt.png","../images/org_blu.png","../images/blu_wht.png","../images/pnk_blu.png","../images/cyn_red.png"],"mutagen_generator_assignment":[1,0],"goal":0,"start":2,"action_noise":0.2,"location_history":"[2,3,2,1,2,1,2,1,0]","action_history":"[0,1,0,0,0,0,0,1]","mutagen_history":"[1,0,1,1,1,1,1,0]","location_rts":"[2346,1523,456,822,2629,809,2258,382]","trial_type":"fractal-mutation","trial_index":155,"time_elapsed":2690747,"internal_node_id":"0.0-5.0-51.0"},{"group":"hexagon_bi","fractal_assignment":["../images/gry_blk.png","../images/ylw_slt.png","../images/org_blu.png","../images/blu_wht.png","../images/pnk_blu.png","../images/cyn_red.png"],"mutagen_generator_assignment":[1,0],"goal":5,"start":0,"action_noise":0.2,"location_history":"[0,5]","action_history":"[0]","mutagen_history":"[1]","location_rts":"[9195]","trial_type":"fractal-mutation","trial_index":156,"time_elapsed":2704642,"internal_node_id":"0.0-5.0-52.0"},{"group":"hexagon_bi","fractal_assignment":["../images/gry_blk.png","../images/ylw_slt.png","../images/org_blu.png","../images/blu_wht.png","../images/pnk_blu.png","../images/cyn_red.png"],"mutagen_generator_assignment":[1,0],"goal":1,"start":5,"action_noise":0.2,"location_history":"[5,4,3,4,3,4,3,4,5,0,1]","action_history":"[1,0,0,1,1,0,0,1,0,1]","mutagen_history":"[0,1,1,0,0,1,1,0,1,0]","location_rts":"[2399,1564,718,1216,1123,1586,1483,1587,1744,1891]","trial_type":"fractal-mutation","trial_index":157,"time_elapsed":2735148,"internal_node_id":"0.0-5.0-53.0"},{"group":"hexagon_bi","fractal_assignment":["../images/gry_blk.png","../images/ylw_slt.png","../images/org_blu.png","../images/blu_wht.png","../images/pnk_blu.png","../images/cyn_red.png"],"mutagen_generator_assignment":[1,0],"goal":3,"start":1,"action_noise":0.2,"location_history":"[1,0,1,2,1,0,1,2,3]","action_history":"[1,1,0,0,0,1,0,1]","mutagen_history":"[0,0,1,1,1,0,1,0]","location_rts":"[2414,509,855,1089,965,1801,896,921]","trial_type":"fractal-mutation","trial_index":158,"time_elapsed":2757347,"internal_node_id":"0.0-5.0-54.0"},{"group":"hexagon_bi","fractal_assignment":["../images/gry_blk.png","../images/ylw_slt.png","../images/org_blu.png","../images/blu_wht.png","../images/pnk_blu.png","../images/cyn_red.png"],"mutagen_generator_assignment":[1,0],"goal":5,"start":3,"action_noise":0.2,"location_history":"[3,2,3,2,1,2,1,2,1,2,1,0,5]","action_history":"[1,0,0,0,0,0,0,0,0,0,1,0]","mutagen_history":"[0,1,1,1,1,1,1,1,1,1,0,1]","location_rts":"[3914,577,816,688,971,1012,1029,466,313,1761,842,1434]","trial_type":"fractal-mutation","trial_index":159,"time_elapsed":2788427,"internal_node_id":"0.0-5.0-55.0"},{"group":"hexagon_bi","fractal_assignment":["../images/gry_blk.png","../images/ylw_slt.png","../images/org_blu.png","../images/blu_wht.png","../images/pnk_blu.png","../images/cyn_red.png"],"mutagen_generator_assignment":[1,0],"goal":4,"start":5,"action_noise":0.2,"location_history":"[5,0,5,4]","action_history":"[0,0,1]","mutagen_history":"[1,1,0]","location_rts":"[3588,981,482]","trial_type":"fractal-mutation","trial_index":160,"time_elapsed":2800501,"internal_node_id":"0.0-5.0-56.0"},{"group":"hexagon_bi","fractal_assignment":["../images/gry_blk.png","../images/ylw_slt.png","../images/org_blu.png","../images/blu_wht.png","../images/pnk_blu.png","../images/cyn_red.png"],"mutagen_generator_assignment":[1,0],"goal":0,"start":4,"action_noise":0.2,"location_history":"[4,3,2,3,2,1,2,1,2,3,2,3,4,5,0]","action_history":"[0,1,1,1,0,0,0,1,0,1,1,0,1,0]","mutagen_history":"[1,0,0,0,1,1,1,0,1,0,0,1,0,1]","location_rts":"[2801,1199,528,369,320,1346,1105,299,2217,1206,260,272,856,1222]","trial_type":"fractal-mutation","trial_index":161,"time_elapsed":2834370,"internal_node_id":"0.0-5.0-57.0"},{"group":"hexagon_bi","fractal_assignment":["../images/gry_blk.png","../images/ylw_slt.png","../images/org_blu.png","../images/blu_wht.png","../images/pnk_blu.png","../images/cyn_red.png"],"mutagen_generator_assignment":[1,0],"goal":2,"start":0,"action_noise":0.2,"location_history":"[0,5,0,5,0,1,0,1,2]","action_history":"[1,1,0,1,1,1,1,0]","mutagen_history":"[0,0,1,0,0,0,0,1]","location_rts":"[2703,1399,1481,963,507,1610,1102,1079]","trial_type":"fractal-mutation","trial_index":162,"time_elapsed":2857942,"internal_node_id":"0.0-5.0-58.0"},{"group":"hexagon_bi","fractal_assignment":["../images/gry_blk.png","../images/ylw_slt.png","../images/org_blu.png","../images/blu_wht.png","../images/pnk_blu.png","../images/cyn_red.png"],"mutagen_generator_assignment":[1,0],"goal":4,"start":2,"action_noise":0.2,"location_history":"[2,3,4]","action_history":"[0,0]","mutagen_history":"[1,1]","location_rts":"[17536,1544]","trial_type":"fractal-mutation","trial_index":163,"time_elapsed":2882859,"internal_node_id":"0.0-5.0-59.0"},{"group":"hexagon_bi","fractal_assignment":["../images/gry_blk.png","../images/ylw_slt.png","../images/org_blu.png","../images/blu_wht.png","../images/pnk_blu.png","../images/cyn_red.png"],"mutagen_generator_assignment":[1,0],"goal":2,"start":4,"action_noise":0.2,"location_history":"[4,5,0,1,0,1,2]","action_history":"[1,0,1,1,1,0]","mutagen_history":"[0,1,0,0,0,1]","location_rts":"[2830,4099,2977,1344,1015,524]","trial_type":"fractal-mutation","trial_index":164,"time_elapsed":2906064,"internal_node_id":"0.0-5.0-60.0"},{"group":"hexagon_bi","fractal_assignment":["../images/gry_blk.png","../images/ylw_slt.png","../images/org_blu.png","../images/blu_wht.png","../images/pnk_blu.png","../images/cyn_red.png"],"mutagen_generator_assignment":[1,0],"goal":3,"start":2,"action_noise":0.2,"location_history":"[2,1,0,5,0,5,4,3]","action_history":"[0,1,0,1,0,0,0]","mutagen_history":"[1,0,1,0,1,1,1]","location_rts":"[1691,426,677,329,318,279,624]","trial_type":"fractal-mutation","trial_index":165,"time_elapsed":2922182,"internal_node_id":"0.0-5.0-61.0"},{"group":"hexagon_bi","fractal_assignment":["../images/gry_blk.png","../images/ylw_slt.png","../images/org_blu.png","../images/blu_wht.png","../images/pnk_blu.png","../images/cyn_red.png"],"mutagen_generator_assignment":[1,0],"goal":0,"start":3,"action_noise":0.2,"location_history":"[3,4,3,2,1,0]","action_history":"[0,0,1,0,0]","mutagen_history":"[1,1,0,1,1]","location_rts":"[1566,420,484,1026,303]","trial_type":"fractal-mutation","trial_index":166,"time_elapsed":2935317,"internal_node_id":"0.0-5.0-62.0"},{"group":"hexagon_bi","fractal_assignment":["../images/gry_blk.png","../images/ylw_slt.png","../images/org_blu.png","../images/blu_wht.png","../images/pnk_blu.png","../images/cyn_red.png"],"mutagen_generator_assignment":[1,0],"goal":5,"start":0,"action_noise":0.2,"location_history":"[0,5]","action_history":"[0]","mutagen_history":"[1]","location_rts":"[1104]","trial_type":"fractal-mutation","trial_index":167,"time_elapsed":2941145,"internal_node_id":"0.0-5.0-63.0"},{"group":"hexagon_bi","fractal_assignment":["../images/gry_blk.png","../images/ylw_slt.png","../images/org_blu.png","../images/blu_wht.png","../images/pnk_blu.png","../images/cyn_red.png"],"mutagen_generator_assignment":[1,0],"goal":1,"start":5,"action_noise":0.2,"location_history":"[5,0,1]","action_history":"[0,1]","mutagen_history":"[1,0]","location_rts":"[2673,415]","trial_type":"fractal-mutation","trial_index":168,"time_elapsed":2950083,"internal_node_id":"0.0-5.0-64.0"},{"group":"hexagon_bi","fractal_assignment":["../images/gry_blk.png","../images/ylw_slt.png","../images/org_blu.png","../images/blu_wht.png","../images/pnk_blu.png","../images/cyn_red.png"],"mutagen_generator_assignment":[1,0],"goal":5,"start":1,"action_noise":0.2,"location_history":"[1,2,1,2,1,2,1,0,1,0,5]","action_history":"[0,0,0,0,0,0,1,0,0,0]","mutagen_history":"[1,1,1,1,1,1,0,1,1,1]","location_rts":"[2562,404,292,510,384,379,312,1314,6864,3631]","trial_type":"fractal-mutation","trial_index":169,"time_elapsed":2982035,"internal_node_id":"0.0-5.0-65.0"},{"group":"hexagon_bi","fractal_assignment":["../images/gry_blk.png","../images/ylw_slt.png","../images/org_blu.png","../images/blu_wht.png","../images/pnk_blu.png","../images/cyn_red.png"],"mutagen_generator_assignment":[1,0],"goal":3,"start":5,"action_noise":0.2,"location_history":"[5,0,5,0,5,0,5,4,5,4,5,4,3]","action_history":"[0,0,0,0,0,0,1,0,1,1,1,0]","mutagen_history":"[1,1,1,1,1,1,0,1,0,0,0,1]","location_rts":"[4377,355,230,419,255,318,284,601,1634,518,1486,1339]","trial_type":"fractal-mutation","trial_index":170,"time_elapsed":3011288,"internal_node_id":"0.0-5.0-66.0"},{"group":"hexagon_bi","fractal_assignment":["../images/gry_blk.png","../images/ylw_slt.png","../images/org_blu.png","../images/blu_wht.png","../images/pnk_blu.png","../images/cyn_red.png"],"mutagen_generator_assignment":[1,0],"goal":2,"start":3,"action_noise":0.2,"location_history":"[3,2]","action_history":"[1]","mutagen_history":"[0]","location_rts":"[2042]","trial_type":"fractal-mutation","trial_index":171,"time_elapsed":3017994,"internal_node_id":"0.0-5.0-67.0"},{"group":"hexagon_bi","fractal_assignment":["../images/gry_blk.png","../images/ylw_slt.png","../images/org_blu.png","../images/blu_wht.png","../images/pnk_blu.png","../images/cyn_red.png"],"mutagen_generator_assignment":[1,0],"goal":1,"start":2,"action_noise":0.2,"location_history":"[2,1]","action_history":"[0]","mutagen_history":"[1]","location_rts":"[2664]","trial_type":"fractal-mutation","trial_index":172,"time_elapsed":3025385,"internal_node_id":"0.0-5.0-68.0"},{"group":"hexagon_bi","fractal_assignment":["../images/gry_blk.png","../images/ylw_slt.png","../images/org_blu.png","../images/blu_wht.png","../images/pnk_blu.png","../images/cyn_red.png"],"mutagen_generator_assignment":[1,0],"goal":4,"start":1,"action_noise":0.2,"location_history":"[1,0,5,4]","action_history":"[1,0,0]","mutagen_history":"[0,1,1]","location_rts":"[2715,1377,592]","trial_type":"fractal-mutation","trial_index":173,"time_elapsed":3037075,"internal_node_id":"0.0-5.0-69.0"},{"group":"hexagon_bi","fractal_assignment":["../images/gry_blk.png","../images/ylw_slt.png","../images/org_blu.png","../images/blu_wht.png","../images/pnk_blu.png","../images/cyn_red.png"],"mutagen_generator_assignment":[1,0],"goal":0,"start":4,"action_noise":0.2,"location_history":"[4,5,0]","action_history":"[1,0]","mutagen_history":"[0,1]","location_rts":"[37,1761]","trial_type":"fractal-mutation","trial_index":174,"time_elapsed":3044700,"internal_node_id":"0.0-5.0-70.0"},{"group":"hexagon_bi","fractal_assignment":["../images/gry_blk.png","../images/ylw_slt.png","../images/org_blu.png","../images/blu_wht.png","../images/pnk_blu.png","../images/cyn_red.png"],"mutagen_generator_assignment":[1,0],"goal":3,"start":0,"action_noise":0.2,"location_history":"[0,5,4,3]","action_history":"[0,1,1]","mutagen_history":"[1,0,0]","location_rts":"[13070,521,2076]","trial_type":"fractal-mutation","trial_index":175,"time_elapsed":3067349,"internal_node_id":"0.0-5.0-71.0"},{"group":"hexagon_bi","fractal_assignment":["../images/gry_blk.png","../images/ylw_slt.png","../images/org_blu.png","../images/blu_wht.png","../images/pnk_blu.png","../images/cyn_red.png"],"mutagen_generator_assignment":[1,0],"goal":1,"start":3,"action_noise":0.2,"location_history":"[3,2,1]","action_history":"[1,0]","mutagen_history":"[0,1]","location_rts":"[2115,908]","trial_type":"fractal-mutation","trial_index":176,"time_elapsed":3076183,"internal_node_id":"0.0-5.0-72.0"},{"group":"hexagon_bi","fractal_assignment":["../images/gry_blk.png","../images/ylw_slt.png","../images/org_blu.png","../images/blu_wht.png","../images/pnk_blu.png","../images/cyn_red.png"],"mutagen_generator_assignment":[1,0],"goal":0,"start":1,"action_noise":0.2,"location_history":"[1,2,3,2,3,2,1,0]","action_history":"[0,0,1,1,1,0,1]","mutagen_history":"[1,1,0,0,0,1,0]","location_rts":"[2139,1976,1165,328,498,331,981]","trial_type":"fractal-mutation","trial_index":177,"time_elapsed":3095355,"internal_node_id":"0.0-5.0-73.0"},{"group":"hexagon_bi","fractal_assignment":["../images/gry_blk.png","../images/ylw_slt.png","../images/org_blu.png","../images/blu_wht.png","../images/pnk_blu.png","../images/cyn_red.png"],"mutagen_generator_assignment":[1,0],"goal":2,"start":0,"action_noise":0.2,"location_history":"[0,5,0,5,0,1,2]","action_history":"[1,0,0,0,1,0]","mutagen_history":"[0,1,1,1,0,1]","location_rts":"[4031,528,426,960,390,2719]","trial_type":"fractal-mutation","trial_index":178,"time_elapsed":3114870,"internal_node_id":"0.0-5.0-74.0"},{"group":"hexagon_bi","fractal_assignment":["../images/gry_blk.png","../images/ylw_slt.png","../images/org_blu.png","../images/blu_wht.png","../images/pnk_blu.png","../images/cyn_red.png"],"mutagen_generator_assignment":[1,0],"goal":4,"start":2,"action_noise":0.2,"location_history":"[2,1,0,5,4]","action_history":"[0,1,0,0]","mutagen_history":"[1,0,1,1]","location_rts":"[2882,1256,1450,665]","trial_type":"fractal-mutation","trial_index":179,"time_elapsed":3129312,"internal_node_id":"0.0-5.0-75.0"},{"group":"hexagon_bi","fractal_assignment":["../images/gry_blk.png","../images/ylw_slt.png","../images/org_blu.png","../images/blu_wht.png","../images/pnk_blu.png","../images/cyn_red.png"],"mutagen_generator_assignment":[1,0],"goal":5,"start":4,"action_noise":0.2,"location_history":"[4,5]","action_history":"[1]","mutagen_history":"[0]","location_rts":"[4262]","trial_type":"fractal-mutation","trial_index":180,"time_elapsed":3138252,"internal_node_id":"0.0-5.0-76.0"},{"group":"hexagon_bi","fractal_assignment":["../images/gry_blk.png","../images/ylw_slt.png","../images/org_blu.png","../images/blu_wht.png","../images/pnk_blu.png","../images/cyn_red.png"],"mutagen_generator_assignment":[1,0],"goal":2,"start":5,"action_noise":0.2,"location_history":"[5,4,3,2]","action_history":"[0,0,1]","mutagen_history":"[1,1,0]","location_rts":"[5407,1123,1233]","trial_type":"fractal-mutation","trial_index":181,"time_elapsed":3152987,"internal_node_id":"0.0-5.0-77.0"},{"group":"hexagon_bi","fractal_assignment":["../images/gry_blk.png","../images/ylw_slt.png","../images/org_blu.png","../images/blu_wht.png","../images/pnk_blu.png","../images/cyn_red.png"],"mutagen_generator_assignment":[1,0],"goal":3,"start":2,"action_noise":0.2,"location_history":"[2,3]","action_history":"[0]","mutagen_history":"[1]","location_rts":"[1555]","trial_type":"fractal-mutation","trial_index":182,"time_elapsed":3159217,"internal_node_id":"0.0-5.0-78.0"},{"group":"hexagon_bi","fractal_assignment":["../images/gry_blk.png","../images/ylw_slt.png","../images/org_blu.png","../images/blu_wht.png","../images/pnk_blu.png","../images/cyn_red.png"],"mutagen_generator_assignment":[1,0],"goal":1,"start":3,"action_noise":0.2,"location_history":"[3,2,1]","action_history":"[1,1]","mutagen_history":"[0,0]","location_rts":"[1794,1724]","trial_type":"fractal-mutation","trial_index":183,"time_elapsed":3168578,"internal_node_id":"0.0-5.0-79.0"},{"group":"hexagon_bi","fractal_assignment":["../images/gry_blk.png","../images/ylw_slt.png","../images/org_blu.png","../images/blu_wht.png","../images/pnk_blu.png","../images/cyn_red.png"],"mutagen_generator_assignment":[1,0],"goal":4,"start":1,"action_noise":0.2,"location_history":"[1,2,1,2,3,2,3,4]","action_history":"[0,0,0,1,0,1,1]","mutagen_history":"[1,1,1,0,1,0,0]","location_rts":"[1542,595,686,473,429,443,429]","trial_type":"fractal-mutation","trial_index":184,"time_elapsed":3184839,"internal_node_id":"0.0-5.0-80.0"},{"group":"hexagon_bi","fractal_assignment":["../images/gry_blk.png","../images/ylw_slt.png","../images/org_blu.png","../images/blu_wht.png","../images/pnk_blu.png","../images/cyn_red.png"],"mutagen_generator_assignment":[1,0],"goal":5,"start":4,"action_noise":0.2,"location_history":"[4,3,2,3,4,3,2,3,2,3,4,5]","action_history":"[0,1,1,1,0,1,1,1,1,0,1]","mutagen_history":"[1,0,0,0,1,0,0,0,0,1,0]","location_rts":"[1760,1412,372,1060,2254,344,404,371,595,481,333]","trial_type":"fractal-mutation","trial_index":185,"time_elapsed":3210418,"internal_node_id":"0.0-5.0-81.0"},{"group":"hexagon_bi","fractal_assignment":["../images/gry_blk.png","../images/ylw_slt.png","../images/org_blu.png","../images/blu_wht.png","../images/pnk_blu.png","../images/cyn_red.png"],"mutagen_generator_assignment":[1,0],"goal":0,"start":5,"action_noise":0.2,"location_history":"[5,4,5,0]","action_history":"[0,1,1]","mutagen_history":"[1,0,0]","location_rts":"[2662,2186,382]","trial_type":"fractal-mutation","trial_index":186,"time_elapsed":3222656,"internal_node_id":"0.0-5.0-82.0"},{"group":"hexagon_bi","fractal_assignment":["../images/gry_blk.png","../images/ylw_slt.png","../images/org_blu.png","../images/blu_wht.png","../images/pnk_blu.png","../images/cyn_red.png"],"mutagen_generator_assignment":[1,0],"goal":2,"start":0,"action_noise":0.2,"location_history":"[0,1,2]","action_history":"[1,0]","mutagen_history":"[0,1]","location_rts":"[2729,1827]","trial_type":"fractal-mutation","trial_index":187,"time_elapsed":3233043,"internal_node_id":"0.0-5.0-83.0"},{"group":"hexagon_bi","fractal_assignment":["../images/gry_blk.png","../images/ylw_slt.png","../images/org_blu.png","../images/blu_wht.png","../images/pnk_blu.png","../images/cyn_red.png"],"mutagen_generator_assignment":[1,0],"goal":0,"start":2,"action_noise":0.2,"location_history":"[2,1,2,1,0]","action_history":"[0,0,0,1]","mutagen_history":"[1,1,1,0]","location_rts":"[2523,1543,1719,279]","trial_type":"fractal-mutation","trial_index":188,"time_elapsed":3247281,"internal_node_id":"0.0-5.0-84.0"},{"group":"hexagon_bi","fractal_assignment":["../images/gry_blk.png","../images/ylw_slt.png","../images/org_blu.png","../images/blu_wht.png","../images/pnk_blu.png","../images/cyn_red.png"],"mutagen_generator_assignment":[1,0],"goal":5,"start":0,"action_noise":0.2,"location_history":"[0,5]","action_history":"[0]","mutagen_history":"[1]","location_rts":"[4868]","trial_type":"fractal-mutation","trial_index":189,"time_elapsed":3256838,"internal_node_id":"0.0-5.0-85.0"},{"group":"hexagon_bi","fractal_assignment":["../images/gry_blk.png","../images/ylw_slt.png","../images/org_blu.png","../images/blu_wht.png","../images/pnk_blu.png","../images/cyn_red.png"],"mutagen_generator_assignment":[1,0],"goal":1,"start":5,"action_noise":0.2,"location_history":"[5,4,3,2,1]","action_history":"[1,0,1,0]","mutagen_history":"[0,1,0,1]","location_rts":"[2093,913,1902,1022]","trial_type":"fractal-mutation","trial_index":190,"time_elapsed":3270957,"internal_node_id":"0.0-5.0-86.0"},{"group":"hexagon_bi","fractal_assignment":["../images/gry_blk.png","../images/ylw_slt.png","../images/org_blu.png","../images/blu_wht.png","../images/pnk_blu.png","../images/cyn_red.png"],"mutagen_generator_assignment":[1,0],"goal":4,"start":1,"action_noise":0.2,"location_history":"[1,0,5,0,5,4]","action_history":"[0,0,0,0,1]","mutagen_history":"[1,1,1,1,0]","location_rts":"[3139,879,389,585,298]","trial_type":"fractal-mutation","trial_index":191,"time_elapsed":3285606,"internal_node_id":"0.0-5.0-87.0"},{"group":"hexagon_bi","fractal_assignment":["../images/gry_blk.png","../images/ylw_slt.png","../images/org_blu.png","../images/blu_wht.png","../images/pnk_blu.png","../images/cyn_red.png"],"mutagen_generator_assignment":[1,0],"goal":3,"start":4,"action_noise":0.2,"location_history":"[4,3]","action_history":"[0]","mutagen_history":"[1]","location_rts":"[1807]","trial_type":"fractal-mutation","trial_index":192,"time_elapsed":3292115,"internal_node_id":"0.0-5.0-88.0"},{"group":"hexagon_bi","fractal_assignment":["../images/gry_blk.png","../images/ylw_slt.png","../images/org_blu.png","../images/blu_wht.png","../images/pnk_blu.png","../images/cyn_red.png"],"mutagen_generator_assignment":[1,0],"goal":5,"start":3,"action_noise":0.2,"location_history":"[3,2,1,2,3,2,3,2,3,4,3,4,5]","action_history":"[1,0,0,1,0,1,1,1,0,0,0,1]","mutagen_history":"[0,1,1,0,1,0,0,0,1,1,1,0]","location_rts":"[5153,1160,852,1633,1248,1351,730,1065,3208,1542,1409,561]","trial_type":"fractal-mutation","trial_index":193,"time_elapsed":3329546,"internal_node_id":"0.0-5.0-89.0"},{"group":"hexagon_bi","fractal_assignment":["../images/gry_blk.png","../images/ylw_slt.png","../images/org_blu.png","../images/blu_wht.png","../images/pnk_blu.png","../images/cyn_red.png"],"mutagen_generator_assignment":[1,0],"goal":1,"start":5,"action_noise":0.2,"location_history":"[5,0,5,0,1]","action_history":"[0,0,0,1]","mutagen_history":"[1,1,1,0]","location_rts":"[2487,640,791,519]","trial_type":"fractal-mutation","trial_index":194,"time_elapsed":3342147,"internal_node_id":"0.0-5.0-90.0"},{"group":"hexagon_bi","fractal_assignment":["../images/gry_blk.png","../images/ylw_slt.png","../images/org_blu.png","../images/blu_wht.png","../images/pnk_blu.png","../images/cyn_red.png"],"mutagen_generator_assignment":[1,0],"goal":2,"start":1,"action_noise":0.2,"location_history":"[1,2]","action_history":"[0]","mutagen_history":"[1]","location_rts":"[1647]","trial_type":"fractal-mutation","trial_index":195,"time_elapsed":3348517,"internal_node_id":"0.0-5.0-91.0"},{"group":"hexagon_bi","fractal_assignment":["../images/gry_blk.png","../images/ylw_slt.png","../images/org_blu.png","../images/blu_wht.png","../images/pnk_blu.png","../images/cyn_red.png"],"mutagen_generator_assignment":[1,0],"goal":4,"start":2,"action_noise":0.2,"location_history":"[2,3,4]","action_history":"[1,0]","mutagen_history":"[0,1]","location_rts":"[13640,1438]","trial_type":"fractal-mutation","trial_index":196,"time_elapsed":3369419,"internal_node_id":"0.0-5.0-92.0"},{"group":"hexagon_bi","fractal_assignment":["../images/gry_blk.png","../images/ylw_slt.png","../images/org_blu.png","../images/blu_wht.png","../images/pnk_blu.png","../images/cyn_red.png"],"mutagen_generator_assignment":[1,0],"goal":0,"start":4,"action_noise":0.2,"location_history":"[4,5,4,3,4,5,0]","action_history":"[1,0,1,0,1,0]","mutagen_history":"[0,1,0,1,0,1]","location_rts":"[2906,1560,2118,4257,2980,1437]","trial_type":"fractal-mutation","trial_index":197,"time_elapsed":3395112,"internal_node_id":"0.0-5.0-93.0"},{"group":"hexagon_bi","fractal_assignment":["../images/gry_blk.png","../images/ylw_slt.png","../images/org_blu.png","../images/blu_wht.png","../images/pnk_blu.png","../images/cyn_red.png"],"mutagen_generator_assignment":[1,0],"goal":3,"start":0,"action_noise":0.2,"location_history":"[0,5,4,3]","action_history":"[0,1,0]","mutagen_history":"[1,0,1]","location_rts":"[2457,784,1591]","trial_type":"fractal-mutation","trial_index":198,"time_elapsed":3407016,"internal_node_id":"0.0-5.0-94.0"},{"group":"hexagon_bi","fractal_assignment":["../images/gry_blk.png","../images/ylw_slt.png","../images/org_blu.png","../images/blu_wht.png","../images/pnk_blu.png","../images/cyn_red.png"],"mutagen_generator_assignment":[1,0],"goal":0,"start":3,"action_noise":0.2,"location_history":"[3,2,3,2,1,2,3,4,3,2,3,4,3,4,5,0]","action_history":"[0,0,0,1,0,1,0,0,0,1,0,1,0,1,0]","mutagen_history":"[1,1,1,0,1,0,1,1,1,0,1,0,1,0,1]","location_rts":"[4357,1608,1140,395,941,2378,1244,1116,1139,1459,1095,1067,1345,1292,1313]","trial_type":"fractal-mutation","trial_index":199,"time_elapsed":3449879,"internal_node_id":"0.0-5.0-95.0"},{"group":"hexagon_bi","fractal_assignment":["../images/gry_blk.png","../images/ylw_slt.png","../images/org_blu.png","../images/blu_wht.png","../images/pnk_blu.png","../images/cyn_red.png"],"mutagen_generator_assignment":[1,0],"goal":4,"start":0,"action_noise":0.2,"location_history":"[0,5,4]","action_history":"[0,1]","mutagen_history":"[1,0]","location_rts":"[2451,479]","trial_type":"fractal-mutation","trial_index":200,"time_elapsed":3458635,"internal_node_id":"0.0-5.0-96.0"},{"group":"hexagon_bi","fractal_assignment":["../images/gry_blk.png","../images/ylw_slt.png","../images/org_blu.png","../images/blu_wht.png","../images/pnk_blu.png","../images/cyn_red.png"],"mutagen_generator_assignment":[1,0],"goal":5,"start":4,"action_noise":0.2,"location_history":"[4,3,4,5]","action_history":"[0,0,1]","mutagen_history":"[1,1,0]","location_rts":"[2615,1117,370]","trial_type":"fractal-mutation","trial_index":201,"time_elapsed":3469718,"internal_node_id":"0.0-5.0-97.0"},{"group":"hexagon_bi","fractal_assignment":["../images/gry_blk.png","../images/ylw_slt.png","../images/org_blu.png","../images/blu_wht.png","../images/pnk_blu.png","../images/cyn_red.png"],"mutagen_generator_assignment":[1,0],"goal":2,"start":5,"action_noise":0.2,"location_history":"[5,0,1,2]","action_history":"[1,1,0]","mutagen_history":"[0,0,1]","location_rts":"[13702,1764,2157]","trial_type":"fractal-mutation","trial_index":202,"time_elapsed":3494347,"internal_node_id":"0.0-5.0-98.0"},{"group":"hexagon_bi","fractal_assignment":["../images/gry_blk.png","../images/ylw_slt.png","../images/org_blu.png","../images/blu_wht.png","../images/pnk_blu.png","../images/cyn_red.png"],"mutagen_generator_assignment":[1,0],"goal":1,"start":2,"action_noise":0.2,"location_history":"[2,3,2,3,4,3,2,1]","action_history":"[1,1,0,0,0,1,1]","mutagen_history":"[0,0,1,1,1,0,0]","location_rts":"[3154,2002,377,1253,500,354,557]","trial_type":"fractal-mutation","trial_index":203,"time_elapsed":3514112,"internal_node_id":"0.0-5.0-99.0"},{"view_history":"[{\"page_index\":0,\"viewing_time\":4285}]","rt":4286,"trial_type":"instructions","trial_index":204,"time_elapsed":3519405,"internal_node_id":"0.0-6.0"},{"rt":26081,"responses":"{\"Q0\":\"How people learn about color patterns?\"}","trial_type":"survey-text","trial_index":205,"time_elapsed":3546521,"internal_node_id":"0.0-7.0-0.0"},{"rt":36484,"responses":"{\"Q0\":\"How people learn about what cause leads to which effect?\"}","trial_type":"survey-text","trial_index":206,"time_elapsed":3584014,"internal_node_id":"0.0-7.0-1.0"},{"rt":29539,"responses":"{\"Q0\":\"<img src='../images/diagrams/hexagon_bi.png'>\"}","trial_type":"survey-multi-choice","trial_index":207,"time_elapsed":3614581,"internal_node_id":"0.0-7.0-2.0"},{"rt":20814,"assignments":["../images/gry_blk.png","../images/cyn_red.png","../images/pnk_blu.png","../images/blu_wht.png","../images/org_blu.png","../images/ylw_slt.png"],"trial_type":"drag-drop-on-image","trial_index":208,"time_elapsed":3636410,"internal_node_id":"0.0-7.0-3.0"},{"rt":10521,"responses":"{\"Q0\":\"3\"}","trial_type":"survey-likert","trial_index":209,"time_elapsed":3647946,"internal_node_id":"0.0-7.0-4.0"},{"rt":94787,"responses":"{\"Q0\":\"I could use a strategy in the first round just as effectively as in the second round.\"}","trial_type":"survey-text","trial_index":210,"time_elapsed":3743749,"internal_node_id":"0.0-7.0-5.0"},{"rt":9023,"responses":"{\"Q0\":\"Yes\"}","trial_type":"survey-multi-choice","trial_index":211,"time_elapsed":3753805,"internal_node_id":"0.0-7.0-6.0"},{"rt":12031,"responses":"{\"Q0\":\"During session 1\"}","trial_type":"survey-multi-choice","trial_index":212,"time_elapsed":3766878,"internal_node_id":"0.0-7.0-7.0"},{"rt":125997,"responses":"{\"Q0\":\"I felt like they corresponded because there was the same number of rooms as there was colonies, the same number of doors as tools and the same effects in both studies.\"}","trial_type":"survey-text","trial_index":213,"time_elapsed":3893896,"internal_node_id":"0.0-7.0-8.0"},{"rt":7275,"responses":"{\"Q0\":\"4\"}","trial_type":"survey-likert","trial_index":214,"time_elapsed":3902200,"internal_node_id":"0.0-7.0-9.0"},{"rt":7709,"responses":"{\"Q0\":\"Same structure\"}","trial_type":"survey-multi-choice","trial_index":215,"time_elapsed":3910927,"internal_node_id":"0.0-7.0-10.0"},{"rt":43435,"responses":"{\"Q0\":\"left (white) door = acid, right (black) door = ray\",\"Q1\":\"Pretty confident\"}","trial_type":"survey-multi-choice","trial_index":216,"time_elapsed":3955415,"internal_node_id":"0.0-7.0-11.0"},{"rt":11489,"responses":"{\"Q0\":\"35-45\",\"Q1\":\"Some college\",\"Q2\":\"Female\",\"Q3\":\"White\"}","trial_type":"survey-multi