[{"view_history":"[{\"page_index\":0,\"viewing_time\":1456},{\"page_index\":1,\"viewing_time\":15648}]","rt":17105,"trial_type":"instructions","trial_index":0,"time_elapsed":17107,"internal_node_id":"0.0-0.0"},{"view_history":"[{\"page_index\":0,\"viewing_time\":18319},{\"page_index\":1,\"viewing_time\":3523}]","rt":21843,"trial_type":"instructions","trial_index":1,"time_elapsed":39952,"internal_node_id":"0.0-1.0"},{"group":"hexagon_tri","room_assignment":["grey","blue","purple","green","red","yellow"],"door_color_assignment":["black","white"],"door_generator_assignment":[0,1],"goal":2,"start":1,"action_noise":0.2,"location_history":"[1,5,4,2]","action_history":"[1,0,1]","door_history":"[1,0,1]","location_rts":"[2959,2680,1384]","trial_type":"two-door-navigation","trial_index":2,"time_elapsed":53677,"internal_node_id":"0.0-2.0-0.0"},{"group":"hexagon_tri","room_assignment":["grey","blue","purple","green","red","yellow"],"door_color_assignment":["black","white"],"door_generator_assignment":[0,1],"goal":0,"start":2,"action_noise":0.2,"location_history":"[2,3,2,1,5,0]","action_history":"[1,0,1,1,1]","door_history":"[1,0,1,1,1]","location_rts":"[582,21697,1274,464,433]","trial_type":"two-door-navigation","trial_index":3,"time_elapsed":86681,"internal_node_id":"0.0-2.0-1.0"},{"group":"hexagon_tri","room_assignment":["grey","blue","purple","green","red","yellow"],"door_color_assignment":["black","white"],"door_generator_assignment":[0,1],"goal":5,"start":0,"action_noise":0.2,"location_history":"[0,5]","action_history":"[1]","door_history":"[1]","location_rts":"[505]","trial_type":"two-door-navigation","trial_index":4,"time_elapsed":91699,"internal_node_id":"0.0-2.0-2.0"},{"group":"hexagon_tri","room_assignment":["grey","blue","purple","green","red","yellow"],"door_color_assignment":["black","white"],"door_generator_assignment":[0,1],"goal":3,"start":5,"action_noise":0.2,"location_history":"[5,0,1,5,0,1,3]","action_history":"[1,1,1,1,1,1]","door_history":"[1,1,1,1,1,1]","location_rts":"[653,682,352,98,648,482]","trial_type":"two-door-navigation","trial_index":5,"time_elapsed":105073,"internal_node_id":"0.0-2.0-3.0"},{"group":"hexagon_tri","room_assignment":["grey","blue","purple","green","red","yellow"],"door_color_assignment":["black","white"],"door_generator_assignment":[0,1],"goal":4,"start":3,"action_noise":0.2,"location_history":"[3,4]","action_history":"[1]","door_history":"[1]","location_rts":"[14296]","trial_type":"two-door-navigation","trial_index":6,"time_elapsed":126065,"internal_node_id":"0.0-2.0-4.0"},{"group":"hexagon_tri","room_assignment":["grey","blue","purple","green","red","yellow"],"door_color_assignment":["black","white"],"door_generator_assignment":[0,1],"goal":0,"start":4,"action_noise":0.2,"location_history":"[4,0]","action_history":"[1]","door_history":"[1]","location_rts":"[498]","trial_type":"two-door-navigation","trial_index":7,"time_elapsed":131104,"internal_node_id":"0.0-2.0-5.0"},{"group":"hexagon_tri","room_assignment":["grey","blue","purple","green","red","yellow"],"door_color_assignment":["black","white"],"door_generator_assignment":[0,1],"goal":4,"start":0,"action_noise":0.2,"location_history":"[0,1,5,4]","action_history":"[1,0,0]","door_history":"[1,0,0]","location_rts":"[443,454,405]","trial_type":"two-door-navigation","trial_index":8,"time_elapsed":139021,"internal_node_id":"0.0-2.0-6.0"},{"group":"hexagon_tri","room_assignment":["grey","blue","purple","green","red","yellow"],"door_color_assignment":["black","white"],"door_generator_assignment":[0,1],"goal":3,"start":4,"action_noise":0.2,"location_history":"[4,0,1,3]","action_history":"[0,0,0]","door_history":"[0,0,0]","location_rts":"[505,449,475]","trial_type":"two-door-navigation","trial_index":9,"time_elapsed":146970,"internal_node_id":"0.0-2.0-7.0"},{"group":"hexagon_tri","room_assignment":["grey","blue","purple","green","red","yellow"],"door_color_assignment":["black","white"],"door_generator_assignment":[0,1],"goal":2,"start":3,"action_noise":0.2,"location_history":"[3,4,2]","action_history":"[1,1]","door_history":"[1,1]","location_rts":"[850,509]","trial_type":"two-door-navigation","trial_index":10,"time_elapsed":153967,"internal_node_id":"0.0-2.0-8.0"},{"group":"hexagon_tri","room_assignment":["grey","blue","purple","green","red","yellow"],"door_color_assignment":["black","white"],"door_generator_assignment":[0,1],"goal":1,"start":2,"action_noise":0.2,"location_history":"[2,3,2,3,4,0,5,4,0,1]","action_history":"[1,1,1,1,0,0,0,1,1]","door_history":"[1,1,1,1,0,0,0,1,1]","location_rts":"[576,330,19307,832,38807,466,32937,1121,1320]","trial_type":"two-door-navigation","trial_index":11,"time_elapsed":262234,"internal_node_id":"0.0-2.0-9.0"},{"group":"hexagon_tri","room_assignment":["grey","blue","purple","green","red","yellow"],"door_color_assignment":["black","white"],"door_generator_assignment":[0,1],"goal":5,"start":1,"action_noise":0.2,"location_history":"[1,5]","action_history":"[1]","door_history":"[1]","location_rts":"[576]","trial_type":"two-door-navigation","trial_index":12,"time_elapsed":268065,"internal_node_id":"0.0-2.0-10.0"},{"group":"hexagon_tri","room_assignment":["grey","blue","purple","green","red","yellow"],"door_color_assignment":["black","white"],"door_generator_assignment":[0,1],"goal":0,"start":5,"action_noise":0.2,"location_history":"[5,0]","action_history":"[1]","door_history":"[1]","location_rts":"[664]","trial_type":"two-door-navigation","trial_index":13,"time_elapsed":273236,"internal_node_id":"0.0-2.0-11.0"},{"group":"hexagon_tri","room_assignment":["grey","blue","purple","green","red","yellow"],"door_color_assignment":["black","white"],"door_generator_assignment":[0,1],"goal":4,"start":0,"action_noise":0.2,"location_history":"[0,1,5,0,1,3,4]","action_history":"[0,0,0,0,0,0]","door_history":"[0,0,0,0,0,0]","location_rts":"[1455,480,581,580,400,454]","trial_type":"two-door-navigation","trial_index":14,"time_elapsed":286721,"internal_node_id":"0.0-2.0-12.0"},{"group":"hexagon_tri","room_assignment":["grey","blue","purple","green","red","yellow"],"door_color_assignment":["black","white"],"door_generator_assignment":[0,1],"goal":2,"start":4,"action_noise":0.2,"location_history":"[4,0,5,4,0,5,4,0,1,5,0,1,5,4,2]","action_history":"[0,0,0,0,0,1,1,1,1,1,1,1,1,1]","door_history":"[0,0,0,0,0,1,1,1,1,1,1,1,1,1]","location_rts":"[1752,521,964,79,593,629,501,530,461,520,485,446,453,563]","trial_type":"two-door-navigation","trial_index":15,"time_elapsed":313064,"internal_node_id":"0.0-2.0-13.0"},{"group":"hexagon_tri","room_assignment":["grey","blue","purple","green","red","yellow"],"door_color_assignment":["black","white"],"door_generator_assignment":[0,1],"goal":1,"start":2,"action_noise":0.2,"location_history":"[2,3,4,0,1]","action_history":"[1,1,1,1]","door_history":"[1,1,1,1]","location_rts":"[60380,453,423,456]","trial_type":"two-door-navigation","trial_index":16,"time_elapsed":383064,"internal_node_id":"0.0-2.0-14.0"},{"group":"hexagon_tri","room_assignment":["grey","blue","purple","green","red","yellow"],"door_color_assignment":["black","white"],"door_generator_assignment":[0,1],"goal":3,"start":1,"action_noise":0.2,"location_history":"[1,5,4,2,3]","action_history":"[0,0,1,1]","door_history":"[0,0,1,1]","location_rts":"[1352,158,75,201]","trial_type":"two-door-navigation","trial_index":17,"time_elapsed":392415,"internal_node_id":"0.0-2.0-15.0"},{"group":"hexagon_tri","room_assignment":["grey","blue","purple","green","red","yellow"],"door_color_assignment":["black","white"],"door_generator_assignment":[0,1],"goal":5,"start":3,"action_noise":0.2,"location_history":"[3,4,0,1,5]","action_history":"[1,1,1,1]","door_history":"[1,1,1,1]","location_rts":"[460,499,27,297]","trial_type":"two-door-navigation","trial_index":18,"time_elapsed":401248,"internal_node_id":"0.0-2.0-16.0"},{"group":"hexagon_tri","room_assignment":["grey","blue","purple","green","red","yellow"],"door_color_assignment":["black","white"],"door_generator_assignment":[0,1],"goal":0,"start":5,"action_noise":0.2,"location_history":"[5,4,0]","action_history":"[0,0]","door_history":"[0,0]","location_rts":"[475,212]","trial_type":"two-door-navigation","trial_index":19,"time_elapsed":407451,"internal_node_id":"0.0-2.0-17.0"},{"group":"hexagon_tri","room_assignment":["grey","blue","purple","green","red","yellow"],"door_color_assignment":["black","white"],"door_generator_assignment":[0,1],"goal":5,"start":0,"action_noise":0.2,"location_history":"[0,1,5]","action_history":"[1,1]","door_history":"[1,1]","location_rts":"[493,421]","trial_type":"two-door-navigation","trial_index":20,"time_elapsed":413875,"internal_node_id":"0.0-2.0-18.0"},{"group":"hexagon_tri","room_assignment":["grey","blue","purple","green","red","yellow"],"door_color_assignment":["black","white"],"door_generator_assignment":[0,1],"goal":3,"start":5,"action_noise":0.2,"location_history":"[5,0,1,5,4,2,3]","action_history":"[1,1,1,1,1,1]","door_history":"[1,1,1,1,1,1]","location_rts":"[1353,369,151,535,1615,270]","trial_type":"two-door-navigation","trial_index":21,"time_elapsed":427770,"internal_node_id":"0.0-2.0-19.0"},{"group":"hexagon_tri","room_assignment":["grey","blue","purple","green","red","yellow"],"door_color_assignment":["black","white"],"door_generator_assignment":[0,1],"goal":4,"start":3,"action_noise":0.2,"location_history":"[3,4]","action_history":"[1]","door_history":"[1]","location_rts":"[637]","trial_type":"two-door-navigation","trial_index":22,"time_elapsed":432919,"internal_node_id":"0.0-2.0-20.0"},{"group":"hexagon_tri","room_assignment":["grey","blue","purple","green","red","yellow"],"door_color_assignment":["black","white"],"door_generator_assignment":[0,1],"goal":1,"start":4,"action_noise":0.2,"location_history":"[4,2,1]","action_history":"[1,1]","door_history":"[1,1]","location_rts":"[632,634]","trial_type":"two-door-navigation","trial_index":23,"time_elapsed":439697,"internal_node_id":"0.0-2.0-21.0"},{"group":"hexagon_tri","room_assignment":["grey","blue","purple","green","red","yellow"],"door_color_assignment":["black","white"],"door_generator_assignment":[0,1],"goal":2,"start":1,"action_noise":0.2,"location_history":"[1,5,4,0,1,5,0,5,0,5,4,2]","action_history":"[1,1,1,1,1,1,0,1,1,1,1]","door_history":"[1,1,1,1,1,1,0,1,1,1,1]","location_rts":"[575,492,810,608,560,650,134448,874,495,484,422]","trial_type":"two-door-navigation","trial_index":24,"time_elapsed":594816,"internal_node_id":"0.0-2.0-22.0"},{"group":"hexagon_tri","room_assignment":["grey","blue","purple","green","red","yellow"],"door_color_assignment":["black","white"],"door_generator_assignment":[0,1],"goal":3,"start":2,"action_noise":0.2,"location_history":"[2,3]","action_history":"[1]","door_history":"[1]","location_rts":"[645]","trial_type":"two-door-navigation","trial_index":25,"time_elapsed":599975,"internal_node_id":"0.0-2.0-23.0"},{"group":"hexagon_tri","room_assignment":["grey","blue","purple","green","red","yellow"],"door_color_assignment":["black","white"],"door_generator_assignment":[0,1],"goal":5,"start":3,"action_noise":0.2,"location_history":"[3,4,2,3,4,2,1,3,4,2,3,2,1,5]","action_history":"[1,1,1,1,1,1,1,1,1,1,0,0,1]","door_history":"[1,1,1,1,1,1,1,1,1,1,0,0,1]","location_rts":"[46071,185,450,466,2508,1227,417,4063,484,450,426,472,953]","trial_type":"two-door-navigation","trial_index":26,"time_elapsed":674933,"internal_node_id":"0.0-2.0-24.0"},{"group":"hexagon_tri","room_assignment":["grey","blue","purple","green","red","yellow"],"door_color_assignment":["black","white"],"door_generator_assignment":[0,1],"goal":4,"start":5,"action_noise":0.2,"location_history":"[5,0,5,4]","action_history":"[1,1,1]","door_history":"[1,1,1]","location_rts":"[1794,469,428]","trial_type":"two-door-navigation","trial_index":27,"time_elapsed":684221,"internal_node_id":"0.0-2.0-25.0"},{"group":"hexagon_tri","room_assignment":["grey","blue","purple","green","red","yellow"],"door_color_assignment":["black","white"],"door_generator_assignment":[0,1],"goal":0,"start":4,"action_noise":0.2,"location_history":"[4,2,1,3,4,2,3,4,0]","action_history":"[1,1,1,1,1,1,1,0]","door_history":"[1,1,1,1,1,1,1,0]","location_rts":"[663,519,654,498,514,572,202,757]","trial_type":"two-door-navigation","trial_index":28,"time_elapsed":700222,"internal_node_id":"0.0-2.0-26.0"},{"group":"hexagon_tri","room_assignment":["grey","blue","purple","green","red","yellow"],"door_color_assignment":["black","white"],"door_generator_assignment":[0,1],"goal":2,"start":0,"action_noise":0.2,"location_history":"[0,1,3,4,0,1,5,4,0,1,3,2]","action_history":"[1,0,1,0,1,1,1,1,0,0,0]","door_history":"[1,0,1,0,1,1,1,1,0,0,0]","location_rts":"[1082,540,291,608,458,425,481,448,485,422,402]","trial_type":"two-door-navigation","trial_index":29,"time_elapsed":720512,"internal_node_id":"0.0-2.0-27.0"},{"group":"hexagon_tri","room_assignment":["grey","blue","purple","green","red","yellow"],"door_color_assignment":["black","white"],"door_generator_assignment":[0,1],"goal":1,"start":2,"action_noise":0.2,"location_history":"[2,1]","action_history":"[1]","door_history":"[1]","location_rts":"[583]","trial_type":"two-door-navigation","trial_index":30,"time_elapsed":725709,"internal_node_id":"0.0-2.0-28.0"},{"group":"hexagon_tri","room_assignment":["grey","blue","purple","green","red","yellow"],"door_color_assignment":["black","white"],"door_generator_assignment":[0,1],"goal":0,"start":1,"action_noise":0.2,"location_history":"[1,5,0]","action_history":"[1,1]","door_history":"[1,1]","location_rts":"[548,437]","trial_type":"two-door-navigation","trial_index":31,"time_elapsed":732206,"internal_node_id":"0.0-2.0-29.0"},{"group":"hexagon_tri","room_assignment":["grey","blue","purple","green","red","yellow"],"door_color_assignment":["black","white"],"door_generator_assignment":[0,1],"goal":2,"start":0,"action_noise":0.2,"location_history":"[0,1,5,4,2]","action_history":"[1,1,1,1]","door_history":"[1,1,1,1]","location_rts":"[1368,453,7,223]","trial_type":"two-door-navigation","trial_index":32,"time_elapsed":741913,"internal_node_id":"0.0-2.0-30.0"},{"group":"hexagon_tri","room_assignment":["grey","blue","purple","green","red","yellow"],"door_color_assignment":["black","white"],"door_generator_assignment":[0,1],"goal":4,"start":2,"action_noise":0.2,"location_history":"[2,3,2,3,4]","action_history":"[1,1,1,1]","door_history":"[1,1,1,1]","location_rts":"[666,1870,670,1566]","trial_type":"two-door-navigation","trial_index":33,"time_elapsed":754209,"internal_node_id":"0.0-2.0-31.0"},{"group":"hexagon_tri","room_assignment":["grey","blue","purple","green","red","yellow"],"door_color_assignment":["black","white"],"door_generator_assignment":[0,1],"goal":1,"start":4,"action_noise":0.2,"location_history":"[4,0,1]","action_history":"[1,1]","door_history":"[1,1]","location_rts":"[586,929]","trial_type":"two-door-navigation","trial_index":34,"time_elapsed":761236,"internal_node_id":"0.0-2.0-32.0"},{"group":"hexagon_tri","room_assignment":["grey","blue","purple","green","red","yellow"],"door_color_assignment":["black","white"],"door_generator_assignment":[0,1],"goal":3,"start":1,"action_noise":0.2,"location_history":"[1,5,0,5,0,1,5,0,1,3]","action_history":"[1,1,1,1,1,1,1,1,1]","door_history":"[1,1,1,1,1,1,1,1,1]","location_rts":"[530,152,189,526,511,2733,577,515,623]","trial_type":"two-door-navigation","trial_index":35,"time_elapsed":780241,"internal_node_id":"0.0-2.0-33.0"},{"group":"hexagon_tri","room_assignment":["grey","blue","purple","green","red","yellow"],"door_color_assignment":["black","white"],"door_generator_assignment":[0,1],"goal":5,"start":3,"action_noise":0.2,"location_history":"[3,2,3,2,1,3,2,1,3,2,1,3,4,2,3,4,2,3,4,2,1,5]","action_history":"[0,0,0,0,0,0,0,0,0,0,0,1,1,1,1,1,1,1,1,1,1]","door_history":"[0,0,0,0,0,0,0,0,0,0,0,1,1,1,1,1,1,1,1,1,1]","location_rts":"[38455,279,483,304,371,527,643,611,159,284,453,420,1512,421,299,243,118,72,157,509,616]","trial_type":"two-door-navigation","trial_index":36,"time_elapsed":852032,"internal_node_id":"0.0-2.0-34.0"},{"group":"hexagon_tri","room_assignment":["grey","blue","purple","green","red","yellow"],"door_color_assignment":["black","white"],"door_generator_assignment":[0,1],"goal":2,"start":5,"action_noise":0.2,"location_history":"[5,4,2]","action_history":"[1,1]","door_history":"[1,1]","location_rts":"[535,480]","trial_type":"two-door-navigation","trial_index":37,"time_elapsed":858576,"internal_node_id":"0.0-2.0-35.0"},{"group":"hexagon_tri","room_assignment":["grey","blue","purple","green","red","yellow"],"door_color_assignment":["black","white"],"door_generator_assignment":[0,1],"goal":0,"start":2,"action_noise":0.2,"location_history":"[2,3,2,3,2,3,4,0]","action_history":"[1,1,1,1,0,1,0]","door_history":"[1,1,1,1,0,1,0]","location_rts":"[82,594,432,610,937,387,447]","trial_type":"two-door-navigation","trial_index":38,"time_elapsed":872609,"internal_node_id":"0.0-2.0-36.0"},{"group":"hexagon_tri","room_assignment":["grey","blue","purple","green","red","yellow"],"door_color_assignment":["black","white"],"door_generator_assignment":[0,1],"goal":4,"start":0,"action_noise":0.2,"location_history":"[0,5,4]","action_history":"[0,0]","door_history":"[0,0]","location_rts":"[537,149]","trial_type":"two-door-navigation","trial_index":39,"time_elapsed":878818,"internal_node_id":"0.0-2.0-37.0"},{"group":"hexagon_tri","room_assignment":["grey","blue","purple","green","red","yellow"],"door_color_assignment":["black","white"],"door_generator_assignment":[0,1],"goal":5,"start":4,"action_noise":0.2,"location_history":"[4,0,5]","action_history":"[0,0]","door_history":"[0,0]","location_rts":"[486,269]","trial_type":"two-door-navigation","trial_index":40,"time_elapsed":885114,"internal_node_id":"0.0-2.0-38.0"},{"group":"hexagon_tri","room_assignment":["grey","blue","purple","green","red","yellow"],"door_color_assignment":["black","white"],"door_generator_assignment":[0,1],"goal":1,"start":5,"action_noise":0.2,"location_history":"[5,0,1]","action_history":"[1,1]","door_history":"[1,1]","location_rts":"[564,451]","trial_type":"two-door-navigation","trial_index":41,"time_elapsed":891794,"internal_node_id":"0.0-2.0-39.0"},{"group":"hexagon_tri","room_assignment":["grey","blue","purple","green","red","yellow"],"door_color_assignment":["black","white"],"door_generator_assignment":[0,1],"goal":3,"start":1,"action_noise":0.2,"location_history":"[1,5,0,5,0,1,3]","action_history":"[1,1,1,1,1,1]","door_history":"[1,1,1,1,1,1]","location_rts":"[689,863,324,1663,796,271]","trial_type":"two-door-navigation","trial_index":42,"time_elapsed":906008,"internal_node_id":"0.0-2.0-40.0"},{"group":"hexagon_tri","room_assignment":["grey","blue","purple","green","red","yellow"],"door_color_assignment":["black","white"],"door_generator_assignment":[0,1],"goal":1,"start":3,"action_noise":0.2,"location_history":"[3,4,2,1]","action_history":"[1,1,1]","door_history":"[1,1,1]","location_rts":"[382,1306,4907]","trial_type":"two-door-navigation","trial_index":43,"time_elapsed":919189,"internal_node_id":"0.0-2.0-41.0"},{"group":"hexagon_tri","room_assignment":["grey","blue","purple","green","red","yellow"],"door_color_assignment":["black","white"],"door_generator_assignment":[0,1],"goal":0,"start":1,"action_noise":0.2,"location_history":"[1,3,2,3,4,2,1,5,4,2,3,4,2,1,3,4,2,1,5,0]","action_history":"[0,0,1,1,1,0,1,0,1,0,1,1,0,0,1,1,0,1,1]","door_history":"[0,0,1,1,1,0,1,0,1,0,1,1,0,0,1,1,0,1,1]","location_rts":"[272,289,533,602,453,32,194,682,860,2138,56,923,269,718,16490,548,1881,651,820]","trial_type":"two-door-navigation","trial_index":44,"time_elapsed":970293,"internal_node_id":"0.0-2.0-42.0"},{"group":"hexagon_tri","room_assignment":["grey","blue","purple","green","red","yellow"],"door_color_assignment":["black","white"],"door_generator_assignment":[0,1],"goal":4,"start":0,"action_noise":0.2,"location_history":"[0,1,5,0,5,4]","action_history":"[1,1,1,0,0]","door_history":"[1,1,1,0,0]","location_rts":"[549,326,877,10491,2132]","trial_type":"two-door-navigation","trial_index":45,"time_elapsed":993204,"internal_node_id":"0.0-2.0-43.0"},{"group":"hexagon_tri","room_assignment":["grey","blue","purple","green","red","yellow"],"door_color_assignment":["black","white"],"door_generator_assignment":[0,1],"goal":2,"start":4,"action_noise":0.2,"location_history":"[4,2]","action_history":"[1]","door_history":"[1]","location_rts":"[5075]","trial_type":"two-door-navigation","trial_index":46,"time_elapsed":1004064,"internal_node_id":"0.0-2.0-44.0"},{"group":"hexagon_tri","room_assignment":["grey","blue","purple","green","red","yellow"],"door_color_assignment":["black","white"],"door_generator_assignment":[0,1],"goal":3,"start":2,"action_noise":0.2,"location_history":"[2,1,3]","action_history":"[0,0]","door_history":"[0,0]","location_rts":"[1048,836]","trial_type":"two-door-navigation","trial_index":47,"time_elapsed":1011590,"internal_node_id":"0.0-2.0-45.0"},{"group":"hexagon_tri","room_assignment":["grey","blue","purple","green","red","yellow"],"door_color_assignment":["black","white"],"door_generator_assignment":[0,1],"goal":5,"start":3,"action_noise":0.2,"location_history":"[3,2,1,5]","action_history":"[1,1,1]","door_history":"[1,1,1]","location_rts":"[447,573,1488]","trial_type":"two-door-navigation","trial_index":48,"time_elapsed":1020620,"internal_node_id":"0.0-2.0-46.0"},{"group":"hexagon_tri","room_assignment":["grey","blue","purple","green","red","yellow"],"door_color_assignment":["black","white"],"door_generator_assignment":[0,1],"goal":4,"start":5,"action_noise":0.2,"location_history":"[5,0,1,5,0,1,3,4]","action_history":"[1,1,1,1,1,1,1]","door_history":"[1,1,1,1,1,1,1]","location_rts":"[115,1760,239,344,790,1509,1472]","trial_type":"two-door-navigation","trial_index":49,"time_elapsed":1037507,"internal_node_id":"0.0-2.0-47.0"},{"group":"hexagon_tri","room_assignment":["grey","blue","purple","green","red","yellow"],"door_color_assignment":["black","white"],"door_generator_assignment":[0,1],"goal":3,"start":4,"action_noise":0.2,"location_history":"[4,2,3]","action_history":"[1,1]","door_history":"[1,1]","location_rts":"[98,35]","trial_type":"two-door-navigation","trial_index":50,"time_elapsed":1043155,"internal_node_id":"0.0-2.0-48.0"},{"group":"hexagon_tri","room_assignment":["grey","blue","purple","green","red","yellow"],"door_color_assignment":["black","white"],"door_generator_assignment":[0,1],"goal":1,"start":3,"action_noise":0.2,"location_history":"[3,4,2,1]","action_history":"[1,1,1]","door_history":"[1,1,1]","location_rts":"[521,517,20]","trial_type":"two-door-navigation","trial_index":51,"time_elapsed":1050744,"internal_node_id":"0.0-2.0-49.0"},{"group":"hexagon_tri","room_assignment":["grey","blue","purple","green","red","yellow"],"door_color_assignment":["black","white"],"door_generator_assignment":[0,1],"goal":2,"start":1,"action_noise":0.2,"location_history":"[1,3,2]","action_history":"[0,0]","door_history":"[0,0]","location_rts":"[7463,724]","trial_type":"two-door-navigation","trial_index":52,"time_elapsed":1064822,"internal_node_id":"0.0-2.0-50.0"},{"group":"hexagon_tri","room_assignment":["grey","blue","purple","green","red","yellow"],"door_color_assignment":["black","white"],"door_generator_assignment":[0,1],"goal":0,"start":2,"action_noise":0.2,"location_history":"[2,3,4,2,1,5,0]","action_history":"[1,1,1,0,1,1]","door_history":"[1,1,1,0,1,1]","location_rts":"[2103,2315,606,1182,70,189]","trial_type":"two-door-navigation","trial_index":53,"time_elapsed":1080835,"internal_node_id":"0.0-2.0-51.0"},{"group":"hexagon_tri","room_assignment":["grey","blue","purple","green","red","yellow"],"door_color_assignment":["black","white"],"door_generator_assignment":[0,1],"goal":5,"start":0,"action_noise":0.2,"location_history":"[0,1,5]","action_history":"[1,1]","door_history":"[1,1]","location_rts":"[1754,182]","trial_type":"two-door-navigation","trial_index":54,"time_elapsed":1088283,"internal_node_id":"0.0-2.0-52.0"},{"group":"hexagon_tri","room_assignment":["grey","blue","purple","green","red","yellow"],"door_color_assignment":["black","white"],"door_generator_assignment":[0,1],"goal":1,"start":5,"action_noise":0.2,"location_history":"[5,0,1]","action_history":"[1,1]","door_history":"[1,1]","location_rts":"[431,45]","trial_type":"two-door-navigation","trial_index":55,"time_elapsed":1094275,"internal_node_id":"0.0-2.0-53.0"},{"group":"hexagon_tri","room_assignment":["grey","blue","purple","green","red","yellow"],"door_color_assignment":["black","white"],"door_generator_assignment":[0,1],"goal":3,"start":1,"action_noise":0.2,"location_history":"[1,3]","action_history":"[1]","door_history":"[1]","location_rts":"[126]","trial_type":"two-door-navigation","trial_index":56,"time_elapsed":1098912,"internal_node_id":"0.0-2.0-54.0"},{"group":"hexagon_tri","room_assignment":["grey","blue","purple","green","red","yellow"],"door_color_assignment":["black","white"],"door_generator_assignment":[0,1],"goal":5,"start":3,"action_noise":0.2,"location_history":"[3,4,2,1,5]","action_history":"[1,1,1,1]","door_history":"[1,1,1,1]","location_rts":"[667,9295,343,382]","trial_type":"two-door-navigation","trial_index":57,"time_elapsed":1117229,"internal_node_id":"0.0-2.0-55.0"},{"group":"hexagon_tri","room_assignment":["grey","blue","purple","green","red","yellow"],"door_color_assignment":["black","white"],"door_generator_assignment":[0,1],"goal":4,"start":5,"action_noise":0.2,"location_history":"[5,0,5,4]","action_history":"[1,1,0]","door_history":"[1,1,0]","location_rts":"[612,537,541]","trial_type":"two-door-navigation","trial_index":58,"time_elapsed":1125446,"internal_node_id":"0.0-2.0-56.0"},{"group":"hexagon_tri","room_assignment":["grey","blue","purple","green","red","yellow"],"door_color_assignment":["black","white"],"door_generator_assignment":[0,1],"goal":0,"start":4,"action_noise":0.2,"location_history":"[4,2,1,5,4,2,1,5,0]","action_history":"[1,1,1,1,1,1,1,1]","door_history":"[1,1,1,1,1,1,1,1]","location_rts":"[194,775,773,587,147,155,605,540]","trial_type":"two-door-navigation","trial_index":59,"time_elapsed":1140844,"internal_node_id":"0.0-2.0-57.0"},{"group":"hexagon_tri","room_assignment":["grey","blue","purple","green","red","yellow"],"door_color_assignment":["black","white"],"door_generator_assignment":[0,1],"goal":2,"start":0,"action_noise":0.2,"location_history":"[0,1,5,4,0,5,0,1,3,4,2]","action_history":"[1,1,1,1,1,1,1,1,1,1]","door_history":"[1,1,1,1,1,1,1,1,1,1]","location_rts":"[996,1274,576,496,588,335,2196,664,33,241]","trial_type":"two-door-navigation","trial_index":60,"time_elapsed":1161981,"internal_node_id":"0.0-2.0-58.0"},{"group":"hexagon_tri","room_assignment":["grey","blue","purple","green","red","yellow"],"door_color_assignment":["black","white"],"door_generator_assignment":[0,1],"goal":4,"start":2,"action_noise":0.2,"location_history":"[2,3,4]","action_history":"[1,1]","door_history":"[1,1]","location_rts":"[632,1937]","trial_type":"two-door-navigation","trial_index":61,"time_elapsed":1170062,"internal_node_id":"0.0-2.0-59.0"},{"group":"hexagon_tri","room_assignment":["grey","blue","purple","green","red","yellow"],"door_color_assignment":["black","white"],"door_generator_assignment":[0,1],"goal":2,"start":4,"action_noise":0.2,"location_history":"[4,2]","action_history":"[1]","door_history":"[1]","location_rts":"[1192]","trial_type":"two-door-navigation","trial_index":62,"time_elapsed":1175763,"internal_node_id":"0.0-2.0-60.0"},{"group":"hexagon_tri","room_assignment":["grey","blue","purple","green","red","yellow"],"door_color_assignment":["black","white"],"door_generator_assignment":[0,1],"goal":3,"start":2,"action_noise":0.2,"location_history":"[2,3]","action_history":"[1]","door_history":"[1]","location_rts":"[259]","trial_type":"two-door-navigation","trial_index":63,"time_elapsed":1180534,"internal_node_id":"0.0-2.0-61.0"},{"group":"hexagon_tri","room_assignment":["grey","blue","purple","green","red","yellow"],"door_color_assignment":["black","white"],"door_generator_assignment":[0,1],"goal":0,"start":3,"action_noise":0.2,"location_history":"[3,4,2,3,4,2,1,3,4,2,3,4,0]","action_history":"[0,1,1,1,1,0,0,1,1,1,1,0]","door_history":"[0,1,1,1,1,0,0,1,1,1,1,0]","location_rts":"[359,248,5,781,1,1029,259,1264,725,571,864,737]","trial_type":"two-door-navigation","trial_index":64,"time_elapsed":1203126,"internal_node_id":"0.0-2.0-62.0"},{"group":"hexagon_tri","room_assignment":["grey","blue","purple","green","red","yellow"],"door_color_assignment":["black","white"],"door_generator_assignment":[0,1],"goal":5,"start":0,"action_noise":0.2,"location_history":"[0,5]","action_history":"[0]","door_history":"[0]","location_rts":"[2124]","trial_type":"two-door-navigation","trial_index":65,"time_elapsed":1209758,"internal_node_id":"0.0-2.0-63.0"},{"group":"hexagon_tri","room_assignment":["grey","blue","purple","green","red","yellow"],"door_color_assignment":["black","white"],"door_generator_assignment":[0,1],"goal":1,"start":5,"action_noise":0.2,"location_history":"[5,4,0,1]","action_history":"[0,0,1]","door_history":"[0,0,1]","location_rts":"[763,1764,281]","trial_type":"two-door-navigation","trial_index":66,"time_elapsed":1219098,"internal_node_id":"0.0-2.0-64.0"},{"group":"hexagon_tri","room_assignment":["grey","blue","purple","green","red","yellow"],"door_color_assignment":["black","white"],"door_generator_assignment":[0,1],"goal":5,"start":1,"action_noise":0.2,"location_history":"[1,5]","action_history":"[1]","door_history":"[1]","location_rts":"[582]","trial_type":"two-door-navigation","trial_index":67,"time_elapsed":1224193,"internal_node_id":"0.0-2.0-65.0"},{"group":"hexagon_tri","room_assignment":["grey","blue","purple","green","red","yellow"],"door_color_assignment":["black","white"],"door_generator_assignment":[0,1],"goal":3,"start":5,"action_noise":0.2,"location_history":"[5,4,2,3]","action_history":"[1,1,1]","door_history":"[1,1,1]","location_rts":"[124,499,2379]","trial_type":"two-door-navigation","trial_index":68,"time_elapsed":1233759,"internal_node_id":"0.0-2.0-66.0"},{"group":"hexagon_tri","room_assignment":["grey","blue","purple","green","red","yellow"],"door_color_assignment":["black","white"],"door_generator_assignment":[0,1],"goal":2,"start":3,"action_noise":0.2,"location_history":"[3,4,2]","action_history":"[1,1]","door_history":"[1,1]","location_rts":"[960,100]","trial_type":"two-door-navigation","trial_index":69,"time_elapsed":1240341,"internal_node_id":"0.0-2.0-67.0"},{"group":"hexagon_tri","room_assignment":["grey","blue","purple","green","red","yellow"],"door_color_assignment":["black","white"],"door_generator_assignment":[0,1],"goal":1,"start":2,"action_noise":0.2,"location_history":"[2,1]","action_history":"[1]","door_history":"[1]","location_rts":"[836]","trial_type":"two-door-navigation","trial_index":70,"time_elapsed":1245689,"internal_node_id":"0.0-2.0-68.0"},{"group":"hexagon_tri","room_assignment":["grey","blue","purple","green","red","yellow"],"door_color_assignment":["black","white"],"door_generator_assignment":[0,1],"goal":4,"start":1,"action_noise":0.2,"location_history":"[1,3,4]","action_history":"[1,1]","door_history":"[1,1]","location_rts":"[574,580]","trial_type":"two-door-navigation","trial_index":71,"time_elapsed":1252366,"internal_node_id":"0.0-2.0-69.0"},{"group":"hexagon_tri","room_assignment":["grey","blue","purple","green","red","yellow"],"door_color_assignment":["black","white"],"door_generator_assignment":[0,1],"goal":0,"start":4,"action_noise":0.2,"location_history":"[4,2,3,2,3,2,3,2,3,2,3,2,3,4,2,3,4,2,1,5,4,2,3,2,3,4,2,3,4,2,1,5,4,0]","action_history":"[1,1,1,1,1,1,0,0,0,1,1,1,1,1,1,1,1,1,1,1,1,1,1,1,1,1,1,1,1,1,1,1,1]","door_history":"[1,1,1,1,1,1,0,0,0,1,1,1,1,1,1,1,1,1,1,1,1,1,1,1,1,1,1,1,1,1,1,1,1]","location_rts":"[510,155,880,1027,365,930,654,726,794,138,1024,2776,4852,1544,572,1988,210,2909,2403,1669,1138,1939,289,3278,3361,726,1212,1789,553,420,1429,18675,687]","trial_type":"two-door-navigation","trial_index":72,"time_elapsed":1350893,"internal_node_id":"0.0-2.0-70.0"},{"group":"hexagon_tri","room_assignment":["grey","blue","purple","green","red","yellow"],"door_color_assignment":["black","white"],"door_generator_assignment":[0,1],"goal":3,"start":0,"action_noise":0.2,"location_history":"[0,1,5,0,1,5,0,1,5,0,5,4,0,1,5,4,0,1,5,0,5,0,1,3]","action_history":"[1,1,1,1,1,1,1,1,1,0,0,1,1,0,1,0,1,0,1,0,1,1,0]","door_history":"[1,1,1,1,1,1,1,1,1,0,0,1,1,0,1,0,1,0,1,0,1,1,0]","location_rts":"[19600,611,365,500,547,614,568,630,604,419,223,453,154,1258,209,967,360,403,426,1360,136,507,156]","trial_type":"two-door-navigation","trial_index":73,"time_elapsed":1408777,"internal_node_id":"0.0-2.0-71.0"},{"group":"hexagon_tri","room_assignment":["grey","blue","purple","green","red","yellow"],"door_color_assignment":["black","white"],"door_generator_assignment":[0,1],"goal":1,"start":3,"action_noise":0.2,"location_history":"[3,4,0,5,0,1]","action_history":"[1,0,1,1,1]","door_history":"[1,0,1,1,1]","location_rts":"[3975,393,564,126,747]","trial_type":"two-door-navigation","trial_index":74,"time_elapsed":1423124,"internal_node_id":"0.0-2.0-72.0"},{"group":"hexagon_tri","room_assignment":["grey","blue","purple","green","red","yellow"],"door_color_assignment":["black","white"],"door_generator_assignment":[0,1],"goal":0,"start":1,"action_noise":0.2,"location_history":"[1,5,4,2,1,5,0]","action_history":"[1,0,1,0,1,1]","door_history":"[1,0,1,0,1,1]","location_rts":"[3528,495,619,394,781,674]","trial_type":"two-door-navigation","trial_index":75,"time_elapsed":1439164,"internal_node_id":"0.0-2.0-73.0"},{"group":"hexagon_tri","room_assignment":["grey","blue","purple","green","red","yellow"],"door_color_assignment":["black","white"],"door_generator_assignment":[0,1],"goal":2,"start":0,"action_noise":0.2,"location_history":"[0,1,5,0,1,5,4,2]","action_history":"[1,1,1,1,1,0,1]","door_history":"[1,1,1,1,1,0,1]","location_rts":"[515,32,507,468,191,564,460]","trial_type":"two-door-navigation","trial_index":76,"time_elapsed":1452493,"internal_node_id":"0.0-2.0-74.0"},{"group":"hexagon_tri","room_assignment":["grey","blue","purple","green","red","yellow"],"door_color_assignment":["black","white"],"door_generator_assignment":[0,1],"goal":4,"start":2,"action_noise":0.2,"location_history":"[2,1,5,0,1,3,2,1,3,2,1,3,2,1,5,0,5,4]","action_history":"[1,1,1,1,1,0,0,0,0,0,0,0,0,1,0,0,0]","door_history":"[1,1,1,1,1,0,0,0,0,0,0,0,0,1,0,0,0]","location_rts":"[558,732,614,514,626,456,98,744,188,303,723,633,691,628,589,465,753]","trial_type":"two-door-navigation","trial_index":77,"time_elapsed":1482583,"internal_node_id":"0.0-2.0-75.0"},{"group":"hexagon_tri","room_assignment":["grey","blue","purple","green","red","yellow"],"door_color_assignment":["black","white"],"door_generator_assignment":[0,1],"goal":5,"start":4,"action_noise":0.2,"location_history":"[4,2,3,2,1,3,2,1,5]","action_history":"[1,1,0,0,0,0,1,0]","door_history":"[1,1,0,0,0,0,1,0]","location_rts":"[1017,580,668,543,170,11,127,256]","trial_type":"two-door-navigation","trial_index":78,"time_elapsed":1497604,"internal_node_id":"0.0-2.0-76.0"},{"group":"hexagon_tri","room_assignment":["grey","blue","purple","green","red","yellow"],"door_color_assignment":["black","white"],"door_generator_assignment":[0,1],"goal":2,"start":5,"action_noise":0.2,"location_history":"[5,4,0,5,0,1,3,2]","action_history":"[0,0,0,1,0,0,0]","door_history":"[0,0,0,1,0,0,0]","location_rts":"[640,24,840,157,515,247,156]","trial_type":"two-door-navigation","trial_index":79,"time_elapsed":1510797,"internal_node_id":"0.0-2.0-77.0"},{"group":"hexagon_tri","room_assignment":["grey","blue","purple","green","red","yellow"],"door_color_assignment":["black","white"],"door_generator_assignment":[0,1],"goal":3,"start":2,"action_noise":0.2,"location_history":"[2,3]","action_history":"[1]","door_history":"[1]","location_rts":"[899]","trial_type":"two-door-navigation","trial_index":80,"time_elapsed":1516214,"internal_node_id":"0.0-2.0-78.0"},{"group":"hexagon_tri","room_assignment":["grey","blue","purple","green","red","yellow"],"door_color_assignment":["black","white"],"door_generator_assignment":[0,1],"goal":1,"start":3,"action_noise":0.2,"location_history":"[3,2,1]","action_history":"[0,1]","door_history":"[0,1]","location_rts":"[718,675]","trial_type":"two-door-navigation","trial_index":81,"time_elapsed":1523264,"internal_node_id":"0.0-2.0-79.0"},{"group":"hexagon_tri","room_assignment":["grey","blue","purple","green","red","yellow"],"door_color_assignment":["black","white"],"door_generator_assignment":[0,1],"goal":4,"start":1,"action_noise":0.2,"location_history":"[1,3,2,1,3,4]","action_history":"[0,0,0,0,1]","door_history":"[0,0,0,0,1]","location_rts":"[500,142,218,548,739]","trial_type":"two-door-navigation","trial_index":82,"time_elapsed":1533947,"internal_node_id":"0.0-2.0-80.0"},{"group":"hexagon_tri","room_assignment":["grey","blue","purple","green","red","yellow"],"door_color_assignment":["black","white"],"door_generator_assignment":[0,1],"goal":5,"start":4,"action_noise":0.2,"location_history":"[4,0,5]","action_history":"[1,0]","door_history":"[1,0]","location_rts":"[476,463]","trial_type":"two-door-navigation","trial_index":83,"time_elapsed":1540398,"internal_node_id":"0.0-2.0-81.0"},{"group":"hexagon_tri","room_assignment":["grey","blue","purple","green","red","yellow"],"door_color_assignment":["black","white"],"door_generator_assignment":[0,1],"goal":0,"start":5,"action_noise":0.2,"location_history":"[5,0]","action_history":"[1]","door_history":"[1]","location_rts":"[558]","trial_type":"two-door-navigation","trial_index":84,"time_elapsed":1545507,"internal_node_id":"0.0-2.0-82.0"},{"group":"hexagon_tri","room_assignment":["grey","blue","purple","green","red","yellow"],"door_color_assignment":["black","white"],"door_generator_assignment":[0,1],"goal":2,"start":0,"action_noise":0.2,"location_history":"[0,1,3,4,0,1,3,2]","action_history":"[1,0,1,0,1,0,0]","door_history":"[1,0,1,0,1,0,0]","location_rts":"[781,633,424,606,434,619,487]","trial_type":"two-door-navigation","trial_index":85,"time_elapsed":1560070,"internal_node_id":"0.0-2.0-83.0"},{"group":"hexagon_tri","room_assignment":["grey","blue","purple","green","red","yellow"],"door_color_assignment":["black","white"],"door_generator_assignment":[0,1],"goal":0,"start":2,"action_noise":0.2,"location_history":"[2,3,4,2,3,2,1,5,4,2,3,4,2,3,4,2,3,4,0]","action_history":"[1,1,1,1,0,0,1,0,1,1,1,0,1,1,1,1,1,0]","door_history":"[1,1,1,1,0,0,1,0,1,1,1,0,1,1,1,1,1,0]","location_rts":"[548,447,277,247,237,614,604,906,492,594,528,886,1088,616,105,819,517,713]","trial_type":"two-door-navigation","trial_index":86,"time_elapsed":1592006,"internal_node_id":"0.0-2.0-84.0"},{"group":"hexagon_tri","room_assignment":["grey","blue","purple","green","red","yellow"],"door_color_assignment":["black","white"],"door_generator_assignment":[0,1],"goal":5,"start":0,"action_noise":0.2,"location_history":"[0,1,3,2,1,5]","action_history":"[1,1,1,1,1]","door_history":"[1,1,1,1,1]","location_rts":"[99,533,393,274,698]","trial_type":"two-door-navigation","trial_index":87,"time_elapsed":1602538,"internal_node_id":"0.0-2.0-85.0"},{"group":"hexagon_tri","room_assignment":["grey","blue","purple","green","red","yellow"],"door_color_assignment":["black","white"],"door_generator_assignment":[0,1],"goal":1,"start":5,"action_noise":0.2,"location_history":"[5,4,0,5,4,2,3,4,2,1]","action_history":"[0,0,0,0,1,1,0,1,0]","door_history":"[0,0,0,0,1,1,0,1,0]","location_rts":"[808,544,45,238,713,564,552,86,540]","trial_type":"two-door-navigation","trial_index":88,"time_elapsed":1619341,"internal_node_id":"0.0-2.0-86.0"},{"group":"hexagon_tri","room_assignment":["grey","blue","purple","green","red","yellow"],"door_color_assignment":["black","white"],"door_generator_assignment":[0,1],"goal":4,"start":1,"action_noise":0.2,"location_history":"[1,5,4]","action_history":"[1,0]","door_history":"[1,0]","location_rts":"[878,671]","trial_type":"two-door-navigation","trial_index":89,"time_elapsed":1626542,"internal_node_id":"0.0-2.0-87.0"},{"group":"hexagon_tri","room_assignment":["grey","blue","purple","green","red","yellow"],"door_color_assignment":["black","white"],"door_generator_assignment":[0,1],"goal":3,"start":4,"action_noise":0.2,"location_history":"[4,2,1,3]","action_history":"[0,0,0]","door_history":"[0,0,0]","location_rts":"[15216,1882,1922]","trial_type":"two-door-navigation","trial_index":90,"time_elapsed":1652089,"internal_node_id":"0.0-2.0-88.0"},{"group":"hexagon_tri","room_assignment":["grey","blue","purple","green","red","yellow"],"door_color_assignment":["black","white"],"door_generator_assignment":[0,1],"goal":5,"start":3,"action_noise":0.2,"location_history":"[3,2,1,3,4,2,1,5]","action_history":"[0,0,0,0,0,0,1]","door_history":"[0,0,0,0,0,0,1]","location_rts":"[294,567,607,597,2010,947,6783]","trial_type":"two-door-navigation","trial_index":91,"time_elapsed":1674475,"internal_node_id":"0.0-2.0-89.0"},{"group":"hexagon_tri","room_assignment":["grey","blue","purple","green","red","yellow"],"door_color_assignment":["black","white"],"door_generator_assignment":[0,1],"goal":1,"start":5,"action_noise":0.2,"location_history":"[5,0,5,0,5,4,2,1]","action_history":"[1,0,1,1,1,1,0]","door_history":"[1,0,1,1,1,1,0]","location_rts":"[8285,1730,283,444,467,249,48]","trial_type":"two-door-navigation","trial_index":92,"time_elapsed":1696539,"internal_node_id":"0.0-2.0-90.0"},{"group":"hexagon_tri","room_assignment":["grey","blue","purple","green","red","yellow"],"door_color_assignment":["black","white"],"door_generator_assignment":[0,1],"goal":2,"start":1,"action_noise":0.2,"location_history":"[1,5,4,2]","action_history":"[1,1,1]","door_history":"[1,1,1]","location_rts":"[463,354,713]","trial_type":"two-door-navigation","trial_index":93,"time_elapsed":1704579,"internal_node_id":"0.0-2.0-91.0"},{"group":"hexagon_tri","room_assignment":["grey","blue","purple","green","red","yellow"],"door_color_assignment":["black","white"],"door_generator_assignment":[0,1],"goal":4,"start":2,"action_noise":0.2,"location_history":"[2,1,3,4]","action_history":"[1,0,1]","door_history":"[1,0,1]","location_rts":"[822,566,1053]","trial_type":"two-door-navigation","trial_index":94,"time_elapsed":1713576,"internal_node_id":"0.0-2.0-92.0"},{"group":"hexagon_tri","room_assignment":["grey","blue","purple","green","red","yellow"],"door_color_assignment":["black","white"],"door_generator_assignment":[0,1],"goal":0,"start":4,"action_noise":0.2,"location_history":"[4,0]","action_history":"[1]","door_history":"[1]","location_rts":"[596]","trial_type":"two-door-navigation","trial_index":95,"time_elapsed":1718683,"internal_node_id":"0.0-2.0-93.0"},{"group":"hexagon_tri","room_assignment":["grey","blue","purple","green","red","yellow"],"door_color_assignment":["black","white"],"door_generator_assignment":[0,1],"goal":3,"start":0,"action_noise":0.2,"location_history":"[0,5,0,5,4,0,1,3]","action_history":"[0,1,0,1,0,1,0]","door_history":"[0,1,0,1,0,1,0]","location_rts":"[8325,544,264,779,594,603,762]","trial_type":"two-door-navigation","trial_index":96,"time_elapsed":1741103,"internal_node_id":"0.0-2.0-94.0"},{"group":"hexagon_tri","room_assignment":["grey","blue","purple","green","red","yellow"],"door_color_assignment":["black","white"],"door_generator_assignment":[0,1],"goal":0,"start":3,"action_noise":0.2,"location_history":"[3,2,1,3,4,0]","action_history":"[1,0,0,1,1]","door_history":"[1,0,0,1,1]","location_rts":"[914,337,105,40,943]","trial_type":"two-door-navigation","trial_index":97,"time_elapsed":1751978,"internal_node_id":"0.0-2.0-95.0"},{"group":"hexagon_tri","room_assignment":["grey","blue","purple","green","red","yellow"],"door_color_assignment":["black","white"],"door_generator_assignment":[0,1],"goal":4,"start":0,"action_noise":0.2,"location_history":"[0,1,3,2,1,5,0,5,4]","action_history":"[1,0,0,0,1,1,0,1]","door_history":"[1,0,0,0,1,1,0,1]","location_rts":"[627,556,1141,1972,1685,593,150,1269]","trial_type":"two-door-navigation","trial_index":98,"time_elapsed":1771607,"internal_node_id":"0.0-2.0-96.0"},{"group":"hexagon_tri","room_assignment":["grey","blue","purple","green","red","yellow"],"door_color_assignment":["black","white"],"door_generator_assignment":[0,1],"goal":5,"start":4,"action_noise":0.2,"location_history":"[4,2,3,2,3,4,0,1,3,4,0,1,3,4,2,3,4,2,1,5]","action_history":"[1,0,1,0,1,0,1,0,1,0,1,0,1,1,1,1,0,0,1]","door_history":"[1,0,1,0,1,0,1,0,1,0,1,0,1,1,1,1,0,0,1]","location_rts":"[728,408,976,517,30,229,324,165,455,104,1,486,363,641,120,385,285,171,377]","trial_type":"two-door-navigation","trial_index":99,"time_elapsed":1801081,"internal_node_id":"0.0-2.0-97.0"},{"group":"hexagon_tri","room_assignment":["grey","blue","purple","green","red","yellow"],"door_color_assignment":["black","white"],"door_generator_assignment":[0,1],"goal":2,"start":5,"action_noise":0.2,"location_history":"[5,0,5,4,0,1,3,2]","action_history":"[1,0,0,0,1,1,0]","door_history":"[1,0,0,0,1,1,0]","location_rts":"[480,1324,328,338,536,34,679]","trial_type":"two-door-navigation","trial_index":100,"time_elapsed":1815347,"internal_node_id":"0.0-2.0-98.0"},{"group":"hexagon_tri","room_assignment":["grey","blue","purple","green","red","yellow"],"door_color_assignment":["black","white"],"door_generator_assignment":[0,1],"goal":1,"start":2,"action_noise":0.2,"location_history":"[2,3,4,2,1]","action_history":"[1,0,0,0]","door_history":"[1,0,0,0]","location_rts":"[546,29,458,54]","trial_type":"two-door-navigation","trial_index":101,"time_elapsed":1824065,"internal_node_id":"0.0-2.0-99.0"},{"view_history":"[{\"page_index\":0,\"viewing_time\":2614}]","rt":2615,"trial_type":"instructions","trial_index":102,"time_elapsed":1827681,"internal_node_id":"0.0-3.0"},{"view_history":"[{\"page_index\":0,\"viewing_time\":2362},{\"page_index\":1,\"viewing_time\":5644}]","rt":8006,"trial_type":"instructions","trial_index":103,"time_elapsed":1836689,"internal_node_id":"0.0-4.0"},{"group":"hexagon_tri","fractal_assignment":["../images/gry_blk.png","../images/org_blu.png","../images/ylw_slt.png","../images/pnk_blu.png","../images/cyn_red.png","../images/blu_wht.png"],"mutagen_generator_assignment":[0,1],"goal":2,"start":1,"action_noise":0.2,"location_history":"[1,3,4,0,5,0,1,3,2]","action_history":"[1,0,0,0,1,1,1,0]","mutagen_history":"[1,0,0,0,1,1,1,0]","location_rts":"[5030,557,1012,581,107,891,108,2250]","trial_type":"fractal-mutation","trial_index":104,"time_elapsed":1859067,"internal_node_id":"0.0-5.0-0.0"},{"group":"hexagon_tri","fractal_assignment":["../images/gry_blk.png","../images/org_blu.png","../images/ylw_slt.png","../images/pnk_blu.png","../images/cyn_red.png","../images/blu_wht.png"],"mutagen_generator_assignment":[0,1],"goal":0,"start":2,"action_noise":0.2,"location_history":"[2,1,3,4,2,1,3,4,2,1,5,0]","action_history":"[0,0,1,0,0,1,1,0,1,1,1]","mutagen_history":"[0,0,1,0,0,1,1,0,1,1,1]","location_rts":"[1022,734,1975,745,1049,711,706,305,49,490,383]","trial_type":"fractal-mutation","trial_index":105,"time_elapsed":1882312,"internal_node_id":"0.0-5.0-1.0"},{"group":"hexagon_tri","fractal_assignment":["../images/gry_blk.png","../images/org_blu.png","../images/ylw_slt.png","../images/pnk_blu.png","../images/cyn_red.png","../images/blu_wht.png"],"mutagen_generator_assignment":[0,1],"goal":5,"start":0,"action_noise":0.2,"location_history":"[0,5]","action_history":"[1]","mutagen_history":"[1]","location_rts":"[10]","trial_type":"fractal-mutation","trial_index":106,"time_elapsed":1886875,"internal_node_id":"0.0-5.0-2.0"},{"group":"hexagon_tri","fractal_assignment":["../images/gry_blk.png","../images/org_blu.png","../images/ylw_slt.png","../images/pnk_blu.png","../images/cyn_red.png","../images/blu_wht.png"],"mutagen_generator_assignment":[0,1],"goal":3,"start":5,"action_noise":0.2,"location_history":"[5,4,2,3]","action_history":"[0,0,1]","mutagen_history":"[0,0,1]","location_rts":"[437,502,32]","trial_type":"fractal-mutation","trial_index":107,"time_elapsed":1894420,"internal_node_id":"0.0-5.0-3.0"},{"group":"hexagon_tri","fractal_assignment":["../images/gry_blk.png","../images/org_blu.png","../images/ylw_slt.png","../images/pnk_blu.png","../images/cyn_red.png","../images/blu_wht.png"],"mutagen_generator_assignment":[0,1],"goal":4,"start":3,"action_noise":0.2,"location_history":"[3,2,3,4]","action_history":"[0,1,1]","mutagen_history":"[0,1,1]","location_rts":"[1080,824,14]","trial_type":"fractal-mutation","trial_index":108,"time_elapsed":1902911,"internal_node_id":"0.0-5.0-4.0"},{"group":"hexagon_tri","fractal_assignment":["../images/gry_blk.png","../images/org_blu.png","../images/ylw_slt.png","../images/pnk_blu.png","../images/cyn_red.png","../images/blu_wht.png"],"mutagen_generator_assignment":[0,1],"goal":0,"start":4,"action_noise":0.2,"location_history":"[4,2,3,2,3,4,0]","action_history":"[1,1,0,1,1,0]","mutagen_history":"[1,1,0,1,1,0]","location_rts":"[390,388,163,352,392,77]","trial_type":"fractal-mutation","trial_index":109,"time_elapsed":1914382,"internal_node_id":"0.0-5.0-5.0"},{"group":"hexagon_tri","fractal_assignment":["../images/gry_blk.png","../images/org_blu.png","../images/ylw_slt.png","../images/pnk_blu.png","../images/cyn_red.png","../images/blu_wht.png"],"mutagen_generator_assignment":[0,1],"goal":4,"start":0,"action_noise":0.2,"location_history":"[0,5,0,5,0,1,3,2,3,4]","action_history":"[0,1,1,1,1,0,0,1,1]","mutagen_history":"[0,1,1,1,1,0,0,1,1]","location_rts":"[7251,131,548,326,451,567,589,420,442]","trial_type":"fractal-mutation","trial_index":110,"time_elapsed":1937837,"internal_node_id":"0.0-5.0-6.0"},{"group":"hexagon_tri","fractal_assignment":["../images/gry_blk.png","../images/org_blu.png","../images/ylw_slt.png","../images/pnk_blu.png","../images/cyn_red.png","../images/blu_wht.png"],"mutagen_generator_assignment":[0,1],"goal":3,"start":4,"action_noise":0.2,"location_history":"[4,0,1,5,0,1,5,0,5,4,2,1,3]","action_history":"[0,1,0,1,1,1,1,0,0,1,0,1]","mutagen_history":"[0,1,0,1,1,1,1,0,0,1,0,1]","location_rts":"[398,404,890,833,171,322,21,205,199,404,282,368]","trial_type":"fractal-mutation","trial_index":111,"time_elapsed":1958307,"internal_node_id":"0.0-5.0-7.0"},{"group":"hexagon_tri","fractal_assignment":["../images/gry_blk.png","../images/org_blu.png","../images/ylw_slt.png","../images/pnk_blu.png","../images/cyn_red.png","../images/blu_wht.png"],"mutagen_generator_assignment":[0,1],"goal":2,"start":3,"action_noise":0.2,"location_history":"[3,2]","action_history":"[0]","mutagen_history":"[0]","location_rts":"[118]","trial_type":"fractal-mutation","trial_index":112,"time_elapsed":1962942,"internal_node_id":"0.0-5.0-8.0"},{"group":"hexagon_tri","fractal_assignment":["../images/gry_blk.png","../images/org_blu.png","../images/ylw_slt.png","../images/pnk_blu.png","../images/cyn_red.png","../images/blu_wht.png"],"mutagen_generator_assignment":[0,1],"goal":1,"start":2,"action_noise":0.2,"location_history":"[2,1]","action_history":"[0]","mutagen_history":"[0]","location_rts":"[453]","trial_type":"fractal-mutation","trial_index":113,"time_elapsed":1967925,"internal_node_id":"0.0-5.0-9.0"},{"group":"hexagon_tri","fractal_assignment":["../images/gry_blk.png","../images/org_blu.png","../images/ylw_slt.png","../images/pnk_blu.png","../images/cyn_red.png","../images/blu_wht.png"],"mutagen_generator_assignment":[0,1],"goal":5,"start":1,"action_noise":0.2,"location_history":"[1,3,4,2,1,3,2,3,4,2,3,2,1,3,4,2,1,5]","action_history":"[0,1,1,0,0,0,1,1,1,1,0,0,0,1,1,0,1]","mutagen_history":"[0,1,1,0,0,0,1,1,1,1,0,0,0,1,1,0,1]","location_rts":"[430,272,94,179,182,388,96,425,743,19569,397,85,308,926,371,539,351]","trial_type":"fractal-mutation","trial_index":114,"time_elapsed":2014165,"internal_node_id":"0.0-5.0-10.0"},{"group":"hexagon_tri","fractal_assignment":["../images/gry_blk.png","../images/org_blu.png","../images/ylw_slt.png","../images/pnk_blu.png","../images/cyn_red.png","../images/blu_wht.png"],"mutagen_generator_assignment":[0,1],"goal":0,"start":5,"action_noise":0.2,"location_history":"[5,4,0]","action_history":"[0,0]","mutagen_history":"[0,0]","location_rts":"[117,332]","trial_type":"fractal-mutation","trial_index":115,"time_elapsed":2020171,"internal_node_id":"0.0-5.0-11.0"},{"group":"hexagon_tri","fractal_assignment":["../images/gry_blk.png","../images/org_blu.png","../images/ylw_slt.png","../images/pnk_blu.png","../images/cyn_red.png","../images/blu_wht.png"],"mutagen_generator_assignment":[0,1],"goal":4,"start":0,"action_noise":0.2,"location_history":"[0,1,5,0,1,5,0,5,4]","action_history":"[1,0,1,1,0,1,1,0]","mutagen_history":"[1,0,1,1,0,1,1,0]","location_rts":"[314,334,353,252,131,376,656,361]","trial_type":"fractal-mutation","trial_index":116,"time_elapsed":2034927,"internal_node_id":"0.0-5.0-12.0"},{"group":"hexagon_tri","fractal_assignment":["../images/gry_blk.png","../images/org_blu.png","../images/ylw_slt.png","../images/pnk_blu.png","../images/cyn_red.png","../images/blu_wht.png"],"mutagen_generator_assignment":[0,1],"goal":2,"start":4,"action_noise":0.2,"location_history":"[4,0,1,3,4,2]","action_history":"[0,1,0,1,1]","mutagen_history":"[0,1,0,1,1]","location_rts":"[422,477,640,229,345]","trial_type":"fractal-mutation","trial_index":117,"time_elapsed":2045767,"internal_node_id":"0.0-5.0-13.0"},{"group":"hexagon_tri","fractal_assignment":["../images/gry_blk.png","../images/org_blu.png","../images/ylw_slt.png","../images/pnk_blu.png","../images/cyn_red.png","../images/blu_wht.png"],"mutagen_generator_assignment":[0,1],"goal":1,"start":2,"action_noise":0.2,"location_history":"[2,3,2,3,4,2,3,2,1]","action_history":"[0,0,1,1,1,1,1,1]","mutagen_history":"[0,0,1,1,1,1,1,1]","location_rts":"[201,621,225,70,279,188,401,485]","trial_type":"fractal-mutation","trial_index":118,"time_elapsed":2060055,"internal_node_id":"0.0-5.0-14.0"},{"group":"hexagon_tri","fractal_assignment":["../images/gry_blk.png","../images/org_blu.png","../images/ylw_slt.png","../images/pnk_blu.png","../images/cyn_red.png","../images/blu_wht.png"],"mutagen_generator_assignment":[0,1],"goal":3,"start":1,"action_noise":0.2,"location_history":"[1,5,0,5,0,1,3]","action_history":"[0,1,0,1,1,1]","mutagen_history":"[0,1,0,1,1,1]","location_rts":"[790,687,1179,665,865,964]","trial_type":"fractal-mutation","trial_index":119,"time_elapsed":2074926,"internal_node_id":"0.0-5.0-15.0"},{"group":"hexagon_tri","fractal_assignment":["../images/gry_blk.png","../images/org_blu.png","../images/ylw_slt.png","../images/pnk_blu.png","../images/cyn_red.png","../images/blu_wht.png"],"mutagen_generator_assignment":[0,1],"goal":5,"start":3,"action_noise":0.2,"location_history":"[3,2,3,4,2,3,4,2,1,3,4,0,5]","action_history":"[0,1,1,1,1,1,1,0,0,1,0,0]","mutagen_history":"[0,1,1,1,1,1,1,0,0,1,0,0]","location_rts":"[123,729,700,631,442,416,467,1479,128,1387,2735,566]","trial_type":"fractal-mutation","trial_index":120,"time_elapsed":2100539,"internal_node_id":"0.0-5.0-16.0"},{"group":"hexagon_tri","fractal_assignment":["../images/gry_blk.png","../images/org_blu.png","../images/ylw_slt.png","../images/pnk_blu.png","../images/cyn_red.png","../images/blu_wht.png"],"mutagen_generator_assignment":[0,1],"goal":0,"start":5,"action_noise":0.2,"location_history":"[5,4,0]","action_history":"[1,0]","mutagen_history":"[1,0]","location_rts":"[182,1008]","trial_type":"fractal-mutation","trial_index":121,"time_elapsed":2107333,"internal_node_id":"0.0-5.0-17.0"},{"group":"hexagon_tri","fractal_assignment":["../images/gry_blk.png","../images/org_blu.png","../images/ylw_slt.png","../images/pnk_blu.png","../images/cyn_red.png","../images/blu_wht.png"],"mutagen_generator_assignment":[0,1],"goal":5,"start":0,"action_noise":0.2,"location_history":"[0,5]","action_history":"[0]","mutagen_history":"[0]","location_rts":"[384]","trial_type":"fractal-mutation","trial_index":122,"time_elapsed":2112245,"internal_node_id":"0.0-5.0-18.0"},{"group":"hexagon_tri","fractal_assignment":["../images/gry_blk.png","../images/org_blu.png","../images/ylw_slt.png","../images/pnk_blu.png","../images/cyn_red.png","../images/blu_wht.png"],"mutagen_generator_assignment":[0,1],"goal":3,"start":5,"action_noise":0.2,"location_history":"[5,0,1,5,0,5,4,0,5,0,5,0,5,4,2,3]","action_history":"[1,1,1,0,1,0,0,1,1,0,1,0,0,1,1]","mutagen_history":"[1,1,1,0,1,0,0,1,1,0,1,0,0,1,1]","location_rts":"[354,335,58,748,522,361,414,559,674,410,447,512,709,764,602]","trial_type":"fractal-mutation","trial_index":123,"time_elapsed":2138739,"internal_node_id":"0.0-5.0-19.0"},{"group":"hexagon_tri","fractal_assignment":["../images/gry_blk.png","../images/org_blu.png","../images/ylw_slt.png","../images/pnk_blu.png","../images/cyn_red.png","../images/blu_wht.png"],"mutagen_generator_assignment":[0,1],"goal":4,"start":3,"action_noise":0.2,"location_history":"[3,2,1,5,4]","action_history":"[0,0,1,0]","mutagen_history":"[0,0,1,0]","location_rts":"[198,467,363,492]","trial_type":"fractal-mutation","trial_index":124,"time_elapsed":2147847,"internal_node_id":"0.0-5.0-20.0"},{"group":"hexagon_tri","fractal_assignment":["../images/gry_blk.png","../images/org_blu.png","../images/ylw_slt.png","../images/pnk_blu.png","../images/cyn_red.png","../images/blu_wht.png"],"mutagen_generator_assignment":[0,1],"goal":1,"start":4,"action_noise":0.2,"location_history":"[4,2,3,2,3,4,2,1]","action_history":"[1,1,0,1,1,1,1]","mutagen_history":"[1,1,0,1,1,1,1]","location_rts":"[402,418,754,429,181,606,249]","trial_type":"fractal-mutation","trial_index":125,"time_elapsed":2161567,"internal_node_id":"0.0-5.0-21.0"},{"group":"hexagon_tri","fractal_assignment":["../images/gry_blk.png","../images/org_blu.png","../images/ylw_slt.png","../images/pnk_blu.png","../images/cyn_red.png","../images/blu_wht.png"],"mutagen_generator_assignment":[0,1],"goal":2,"start":1,"action_noise":0.2,"location_history":"[1,3,4,2]","action_history":"[0,1,1]","mutagen_history":"[0,1,1]","location_rts":"[362,396,435]","trial_type":"fractal-mutation","trial_index":126,"time_elapsed":2169352,"internal_node_id":"0.0-5.0-22.0"},{"group":"hexagon_tri","fractal_assignment":["../images/gry_blk.png","../images/org_blu.png","../images/ylw_slt.png","../images/pnk_blu.png","../images/cyn_red.png","../images/blu_wht.png"],"mutagen_generator_assignment":[0,1],"goal":3,"start":2,"action_noise":0.2,"location_history":"[2,1,3]","action_history":"[1,0]","mutagen_history":"[1,0]","location_rts":"[6,408]","trial_type":"fractal-mutation","trial_index":127,"time_elapsed":2175328,"internal_node_id":"0.0-5.0-23.0"},{"group":"hexagon_tri","fractal_assignment":["../images/gry_blk.png","../images/org_blu.png","../images/ylw_slt.png","../images/pnk_blu.png","../images/cyn_red.png","../images/blu_wht.png"],"mutagen_generator_assignment":[0,1],"goal":5,"start":3,"action_noise":0.2,"location_history":"[3,2,1,5]","action_history":"[0,0,1]","mutagen_history":"[0,0,1]","location_rts":"[537,368,597]","trial_type":"fractal-mutation","trial_index":128,"time_elapsed":2183479,"internal_node_id":"0.0-5.0-24.0"},{"group":"hexagon_tri","fractal_assignment":["../images/gry_blk.png","../images/org_blu.png","../images/ylw_slt.png","../images/pnk_blu.png","../images/cyn_red.png","../images/blu_wht.png"],"mutagen_generator_assignment":[0,1],"goal":4,"start":5,"action_noise":0.2,"location_history":"[5,4]","action_history":"[1]","mutagen_history":"[1]","location_rts":"[76]","trial_type":"fractal-mutation","trial_index":129,"time_elapsed":2188085,"internal_node_id":"0.0-5.0-25.0"},{"group":"hexagon_tri","fractal_assignment":["../images/gry_blk.png","../images/org_blu.png","../images/ylw_slt.png","../images/pnk_blu.png","../images/cyn_red.png","../images/blu_wht.png"],"mutagen_generator_assignment":[0,1],"goal":0,"start":4,"action_noise":0.2,"location_history":"[4,2,1,3,4,2,1,5,4,2,3,4,2,1,3,2,1,3,4,2,3,2,1,3,2,3,4,0]","action_history":"[1,1,0,1,1,0,1,0,0,1,1,1,0,0,0,0,0,1,1,1,0,0,0,0,1,1,1]","mutagen_history":"[1,1,0,1,1,0,1,0,0,1,1,1,0,0,0,0,0,1,1,1,0,0,0,0,1,1,1]","location_rts":"[434,402,457,709,482,16366,337,133,44,1060,419,181,353,493,740,683,887,509,610,434,420,689,425,522,464,302,482]","trial_type":"fractal-mutation","trial_index":130,"time_elapsed":2248364,"internal_node_id":"0.0-5.0-26.0"},{"group":"hexagon_tri","fractal_assignment":["../images/gry_blk.png","../images/org_blu.png","../images/ylw_slt.png","../images/pnk_blu.png","../images/cyn_red.png","../images/blu_wht.png"],"mutagen_generator_assignment":[0,1],"goal":2,"start":0,"action_noise":0.2,"location_history":"[0,1,5,0,5,0,5,0,5,0,1,3,2]","action_history":"[0,1,1,0,1,0,0,0,1,1,1,0]","mutagen_history":"[0,1,1,0,1,0,0,0,1,1,1,0]","location_rts":"[462,326,440,1531,866,783,55,92,523,1257,323,607]","trial_type":"fractal-mutation","trial_index":131,"time_elapsed":2271441,"internal_node_id":"0.0-5.0-27.0"},{"group":"hexagon_tri","fractal_assignment":["../images/gry_blk.png","../images/org_blu.png","../images/ylw_slt.png","../images/pnk_blu.png","../images/cyn_red.png","../images/blu_wht.png"],"mutagen_generator_assignment":[0,1],"goal":1,"start":2,"action_noise":0.2,"location_history":"[2,3,2,1]","action_history":"[1,0,1]","mutagen_history":"[1,0,1]","location_rts":"[2623,32,365]","trial_type":"fractal-mutation","trial_index":132,"time_elapsed":2281069,"internal_node_id":"0.0-5.0-28.0"},{"group":"hexagon_tri","fractal_assignment":["../images/gry_blk.png","../images/org_blu.png","../images/ylw_slt.png","../images/pnk_blu.png","../images/cyn_red.png","../images/blu_wht.png"],"mutagen_generator_assignment":[0,1],"goal":0,"start":1,"action_noise":0.2,"location_history":"[1,3,2,3,4,2,1,3,2,3,2,1,5,4,0]","action_history":"[0,1,1,1,1,0,1,0,0,0,0,0,0,0]","mutagen_history":"[0,1,1,1,1,0,1,0,0,0,0,0,0,0]","location_rts":"[444,2318,487,623,4817,401,93,243,256,396,522,444,457,341]","trial_type":"fractal-mutation","trial_index":133,"time_elapsed":2310746,"internal_node_id":"0.0-5.0-29.0"},{"group":"hexagon_tri","fractal_assignment":["../images/gry_blk.png","../images/org_blu.png","../images/ylw_slt.png","../images/pnk_blu.png","../images/cyn_red.png","../images/blu_wht.png"],"mutagen_generator_assignment":[0,1],"goal":2,"start":0,"action_noise":0.2,"location_history":"[0,5,4,0,5,4,0,5,0,1,3,4,2]","action_history":"[0,0,0,0,0,0,0,1,0,0,1,1]","mutagen_history":"[0,0,0,0,0,0,0,1,0,0,1,1]","location_rts":"[5731,881,395,726,791,452,655,39,477,292,384,415]","trial_type":"fractal-mutation","trial_index":134,"time_elapsed":2337777,"internal_node_id":"0.0-5.0-30.0"},{"group":"hexagon_tri","fractal_assignment":["../images/gry_blk.png","../images/org_blu.png","../images/ylw_slt.png","../images/pnk_blu.png","../images/cyn_red.png","../images/blu_wht.png"],"mutagen_generator_assignment":[0,1],"goal":4,"start":2,"action_noise":0.2,"location_history":"[2,3,4]","action_history":"[1,1]","mutagen_history":"[1,1]","location_rts":"[780,456]","trial_type":"fractal-mutation","trial_index":135,"time_elapsed":2344598,"internal_node_id":"0.0-5.0-31.0"},{"group":"hexagon_tri","fractal_assignment":["../images/gry_blk.png","../images/org_blu.png","../images/ylw_slt.png","../images/pnk_blu.png","../images/cyn_red.png","../images/blu_wht.png"],"mutagen_generator_assignment":[0,1],"goal":1,"start":4,"action_noise":0.2,"location_history":"[4,0,5,0,1]","action_history":"[0,0,1,0]","mutagen_history":"[0,0,1,0]","location_rts":"[413,324,39,213]","trial_type":"fractal-mutation","trial_index":136,"time_elapsed":2353192,"internal_node_id":"0.0-5.0-32.0"},{"group":"hexagon_tri","fractal_assignment":["../images/gry_blk.png","../images/org_blu.png","../images/ylw_slt.png","../images/pnk_blu.png","../images/cyn_red.png","../images/blu_wht.png"],"mutagen_generator_assignment":[0,1],"goal":3,"start":1,"action_noise":0.2,"location_history":"[1,3]","action_history":"[1]","mutagen_history":"[1]","location_rts":"[411]","trial_type":"fractal-mutation","trial_index":137,"time_elapsed":2358152,"internal_node_id":"0.0-5.0-33.0"},{"group":"hexagon_tri","fractal_assignment":["../images/gry_blk.png","../images/org_blu.png","../images/ylw_slt.png","../images/pnk_blu.png","../images/cyn_red.png","../images/blu_wht.png"],"mutagen_generator_assignment":[0,1],"goal":5,"start":3,"action_noise":0.2,"location_history":"[3,4,0,5]","action_history":"[1,1,0]","mutagen_history":"[1,1,0]","location_rts":"[410,232,324]","trial_type":"fractal-mutation","trial_index":138,"time_elapsed":2365719,"internal_node_id":"0.0-5.0-34.0"},{"group":"hexagon_tri","fractal_assignment":["../images/gry_blk.png","../images/org_blu.png","../images/ylw_slt.png","../images/pnk_blu.png","../images/cyn_red.png","../images/blu_wht.png"],"mutagen_generator_assignment":[0,1],"goal":2,"start":5,"action_noise":0.2,"location_history":"[5,0,5,0,1,3,2]","action_history":"[1,0,0,1,0,1]","mutagen_history":"[1,0,0,1,0,1]","location_rts":"[248,406,302,207,109,434]","trial_type":"fractal-mutation","trial_index":139,"time_elapsed":2377178,"internal_node_id":"0.0-5.0-35.0"},{"group":"hexagon_tri","fractal_assignment":["../images/gry_blk.png","../images/org_blu.png","../images/ylw_slt.png","../images/pnk_blu.png","../images/cyn_red.png","../images/blu_wht.png"],"mutagen_generator_assignment":[0,1],"goal":0,"start":2,"action_noise":0.2,"location_history":"[2,1,3,4,0]","action_history":"[1,1,1,1]","mutagen_history":"[1,1,1,1]","location_rts":"[543,307,352,308]","trial_type":"fractal-mutation","trial_index":140,"time_elapsed":2386558,"internal_node_id":"0.0-5.0-36.0"},{"group":"hexagon_tri","fractal_assignment":["../images/gry_blk.png","../images/org_blu.png","../images/ylw_slt.png","../images/pnk_blu.png","../images/cyn_red.png","../images/blu_wht.png"],"mutagen_generator_assignment":[0,1],"goal":4,"start":0,"action_noise":0.2,"location_history":"[0,1,3,4]","action_history":"[1,1,1]","mutagen_history":"[1,1,1]","location_rts":"[303,60,469]","trial_type":"fractal-mutation","trial_index":141,"time_elapsed":2394022,"internal_node_id":"0.0-5.0-37.0"},{"group":"hexagon_tri","fractal_assignment":["../images/gry_blk.png","../images/org_blu.png","../images/ylw_slt.png","../images/pnk_blu.png","../images/cyn_red.png","../images/blu_wht.png"],"mutagen_generator_assignment":[0,1],"goal":5,"start":4,"action_noise":0.2,"location_history":"[4,2,3,2,3,2,3,4,2,1,5]","action_history":"[1,1,0,1,0,0,1,1,0,0]","mutagen_history":"[1,1,0,1,0,0,1,1,0,0]","location_rts":"[673,808,471,57,4064,444,277,317,3709,26]","trial_type":"fractal-mutation","trial_index":142,"time_elapsed":2418608,"internal_node_id":"0.0-5.0-38.0"},{"group":"hexagon_tri","fractal_assignment":["../images/gry_blk.png","../images/org_blu.png","../images/ylw_slt.png","../images/pnk_blu.png","../images/cyn_red.png","../images/blu_wht.png"],"mutagen_generator_assignment":[0,1],"goal":1,"start":5,"action_noise":0.2,"location_history":"[5,0,5,4,0,5,4,0,1]","action_history":"[0,0,1,0,0,0,1,1]","mutagen_history":"[0,0,1,0,0,0,1,1]","location_rts":"[127,643,208,74,355,53,55,159]","trial_type":"fractal-mutation","trial_index":143,"time_elapsed":2431993,"internal_node_id":"0.0-5.0-39.0"},{"group":"hexagon_tri","fractal_assignment":["../images/gry_blk.png","../images/org_blu.png","../images/ylw_slt.png","../images/pnk_blu.png","../images/cyn_red.png","../images/blu_wht.png"],"mutagen_generator_assignment":[0,1],"goal":3,"start":1,"action_noise":0.2,"location_history":"[1,5,4,0,1,3]","action_history":"[1,0,0,1,0]","mutagen_history":"[1,0,0,1,0]","location_rts":"[649,316,342,299,248]","trial_type":"fractal-mutation","trial_index":144,"time_elapsed":2442460,"internal_node_id":"0.0-5.0-40.0"},{"group":"hexagon_tri","fractal_assignment":["../images/gry_blk.png","../images/org_blu.png","../images/ylw_slt.png","../images/pnk_blu.png","../images/cyn_red.png","../images/blu_wht.png"],"mutagen_generator_assignment":[0,1],"goal":1,"start":3,"action_noise":0.2,"location_history":"[3,4,2,3,4,0,1]","action_history":"[1,1,1,0,0,1]","mutagen_history":"[1,1,1,0,0,1]","location_rts":"[717,415,495,180,189,336]","trial_type":"fractal-mutation","trial_index":145,"time_elapsed":2454521,"internal_node_id":"0.0-5.0-41.0"},{"group":"hexagon_tri","fractal_assignment":["../images/gry_blk.png","../images/org_blu.png","../images/ylw_slt.png","../images/pnk_blu.png","../images/cyn_red.png","../images/blu_wht.png"],"mutagen_generator_assignment":[0,1],"goal":0,"start":1,"action_noise":0.2,"location_history":"[1,5,4,2,3,2,3,4,2,3,2,1,3,2,1,3,4,2,3,4,2,1,3,4,0]","action_history":"[1,1,0,1,0,1,1,1,1,0,0,1,0,0,0,1,1,1,1,0,0,1,1,0]","mutagen_history":"[1,1,0,1,0,1,1,1,1,0,0,1,0,0,0,1,1,1,1,0,0,1,1,0]","location_rts":"[146,250,326,431,352,130,344,142,306,420,412,252,66,65,2811,717,527,362,382,442,499,486,395,828]","trial_type":"fractal-mutation","trial_index":146,"time_elapsed":2494076,"internal_node_id":"0.0-5.0-42.0"},{"group":"hexagon_tri","fractal_assignment":["../images/gry_blk.png","../images/org_blu.png","../images/ylw_slt.png","../images/pnk_blu.png","../images/cyn_red.png","../images/blu_wht.png"],"mutagen_generator_assignment":[0,1],"goal":4,"start":0,"action_noise":0.2,"location_history":"[0,1,3,4]","action_history":"[0,0,1]","mutagen_history":"[0,0,1]","location_rts":"[1865,451,599]","trial_type":"fractal-mutation","trial_index":147,"time_elapsed":2504568,"internal_node_id":"0.0-5.0-43.0"},{"group":"hexagon_tri","fractal_assignment":["../images/gry_blk.png","../images/org_blu.png","../images/ylw_slt.png","../images/pnk_blu.png","../images/cyn_red.png","../images/blu_wht.png"],"mutagen_generator_assignment":[0,1],"goal":2,"start":4,"action_noise":0.2,"location_history":"[4,0,5,4,2]","action_history":"[0,0,0,1]","mutagen_history":"[0,0,0,1]","location_rts":"[595,163,134,160]","trial_type":"fractal-mutation","trial_index":148,"time_elapsed":2513196,"internal_node_id":"0.0-5.0-44.0"},{"group":"hexagon_tri","fractal_assignment":["../images/gry_blk.png","../images/org_blu.png","../images/ylw_slt.png","../images/pnk_blu.png","../images/cyn_red.png","../images/blu_wht.png"],"mutagen_generator_assignment":[0,1],"goal":3,"start":2,"action_noise":0.2,"location_history":"[2,3]","action_history":"[1]","mutagen_history":"[1]","location_rts":"[543]","trial_type":"fractal-mutation","trial_index":149,"time_elapsed":2518279,"internal_node_id":"0.0-5.0-45.0"},{"group":"hexagon_tri","fractal_assignment":["../images/gry_blk.png","../images/org_blu.png","../images/ylw_slt.png","../images/pnk_blu.png","../images/cyn_red.png","../images/blu_wht.png"],"mutagen_generator_assignment":[0,1],"goal":5,"start":3,"action_noise":0.2,"location_history":"[3,4,0,1,5]","action_history":"[1,0,1,1]","mutagen_history":"[1,0,1,1]","location_rts":"[483,207,376,387]","trial_type":"fractal-mutation","trial_index":150,"time_elapsed":2527384,"internal_node_id":"0.0-5.0-46.0"},{"group":"hexagon_tri","fractal_assignment":["../images/gry_blk.png","../images/org_blu.png","../images/ylw_slt.png","../images/pnk_blu.png","../images/cyn_red.png","../images/blu_wht.png"],"mutagen_generator_assignment":[0,1],"goal":4,"start":5,"action_noise":0.2,"location_history":"[5,4]","action_history":"[0]","mutagen_history":"[0]","location_rts":"[8424]","trial_type":"fractal-mutation","trial_index":151,"time_elapsed":2540483,"internal_node_id":"0.0-5.0-47.0"},{"group":"hexagon_tri","fractal_assignment":["../images/gry_blk.png","../images/org_blu.png","../images/ylw_slt.png","../images/pnk_blu.png","../images/cyn_red.png","../images/blu_wht.png"],"mutagen_generator_assignment":[0,1],"goal":3,"start":4,"action_noise":0.2,"location_history":"[4,2,1,3]","action_history":"[1,0,1]","mutagen_history":"[1,0,1]","location_rts":"[460,76,507]","trial_type":"fractal-mutation","trial_index":152,"time_elapsed":2548119,"internal_node_id":"0.0-5.0-48.0"},{"group":"hexagon_tri","fractal_assignment":["../images/gry_blk.png","../images/org_blu.png","../images/ylw_slt.png","../images/pnk_blu.png","../images/cyn_red.png","../images/blu_wht.png"],"mutagen_generator_assignment":[0,1],"goal":1,"start":3,"action_noise":0.2,"location_history":"[3,2,3,2,1]","action_history":"[0,1,0,0]","mutagen_history":"[0,1,0,0]","location_rts":"[325,197,344,625]","trial_type":"fractal-mutation","trial_index":153,"time_elapsed":2557307,"internal_node_id":"0.0-5.0-49.0"},{"group":"hexagon_tri","fractal_assignment":["../images/gry_blk.png","../images/org_blu.png","../images/ylw_slt.png","../images/pnk_blu.png","../images/cyn_red.png","../images/blu_wht.png"],"mutagen_generator_assignment":[0,1],"goal":2,"start":1,"action_noise":0.2,"location_history":"[1,5,0,5,4,0,5,4,0,5,4,2]","action_history":"[1,1,0,0,0,0,0,0,0,0,1]","mutagen_history":"[1,1,0,0,0,0,0,0,0,0,1]","location_rts":"[2283,416,127,395,306,364,381,360,650,21038,118]","trial_type":"fractal-mutation","trial_index":154,"time_elapsed":2598570,"internal_node_id":"0.0-5.0-50.0"},{"group":"hexagon_tri","fractal_assignment":["../images/gry_blk.png","../images/org_blu.png","../images/ylw_slt.png","../images/pnk_blu.png","../images/cyn_red.png","../images/blu_wht.png"],"mutagen_generator_assignment":[0,1],"goal":0,"start":2,"action_noise":0.2,"location_history":"[2,3,2,1,3,2,3,4,0]","action_history":"[1,0,0,1,0,1,1,0]","mutagen_history":"[1,0,0,1,0,1,1,0]","location_rts":"[762,448,171,170,923,67,51,1306]","trial_type":"fractal-mutation","trial_index":155,"time_elapsed":2614219,"internal_node_id":"0.0-5.0-51.0"},{"group":"hexagon_tri","fractal_assignment":["../images/gry_blk.png","../images/org_blu.png","../images/ylw_slt.png","../images/pnk_blu.png","../images/cyn_red.png","../images/blu_wht.png"],"mutagen_generator_assignment":[0,1],"goal":5,"start":0,"action_noise":0.2,"location_history":"[0,1,3,4,0,5]","action_history":"[1,0,1,0,0]","mutagen_history":"[1,0,1,0,0]","location_rts":"[137,442,426,114,339]","trial_type":"fractal-mutation","trial_index":156,"time_elapsed":2624267,"internal_node_id":"0.0-5.0-52.0"},{"group":"hexagon_tri","fractal_assignment":["../images/gry_blk.png","../images/org_blu.png","../images/ylw_slt.png","../images/pnk_blu.png","../images/cyn_red.png","../images/blu_wht.png"],"mutagen_generator_assignment":[0,1],"goal":1,"start":5,"action_noise":0.2,"location_history":"[5,4,2,1]","action_history":"[1,0,0]","mutagen_history":"[1,0,0]","location_rts":"[339,198,362]","trial_type":"fractal-mutation","trial_index":157,"time_elapsed":2631955,"internal_node_id":"0.0-5.0-53.0"},{"group":"hexagon_tri","fractal_assignment":["../images/gry_blk.png","../images/org_blu.png","../images/ylw_slt.png","../images/pnk_blu.png","../images/cyn_red.png","../images/blu_wht.png"],"mutagen_generator_assignment":[0,1],"goal":3,"start":1,"action_noise":0.2,"location_history":"[1,3]","action_history":"[1]","mutagen_history":"[1]","location_rts":"[293]","trial_type":"fractal-mutation","trial_index":158,"time_elapsed":2636786,"internal_node_id":"0.0-5.0-54.0"},{"group":"hexagon_tri","fractal_assignment":["../images/gry_blk.png","../images/org_blu.png","../images/ylw_slt.png","../images/pnk_blu.png","../images/cyn_red.png","../images/blu_wht.png"],"mutagen_generator_assignment":[0,1],"goal":5,"start":3,"action_noise":0.2,"location_history":"[3,2,3,4,2,1,5]","action_history":"[0,1,1,1,0,1]","mutagen_history":"[0,1,1,1,0,1]","location_rts":"[1071,250,16,230,64,154]","trial_type":"fractal-mutation","trial_index":159,"time_elapsed":2648219,"internal_node_id":"0.0-5.0-55.0"},{"group":"hexagon_tri","fractal_assignment":["../images/gry_blk.png","../images/org_blu.png","../images/ylw_slt.png","../images/pnk_blu.png","../images/cyn_red.png","../images/blu_wht.png"],"mutagen_generator_assignment":[0,1],"goal":4,"start":5,"action_noise":0.2,"location_history":"[5,0,1,5,0,1,5,0,1,3,2,1,5,4]","action_history":"[1,1,1,0,1,1,1,1,0,0,0,1,0]","mutagen_history":"[1,1,1,0,1,1,1,1,0,0,0,1,0]","location_rts":"[54,20,73,154,420,371,84,166,48,66,520,413,348]","trial_type":"fractal-mutation","trial_index":160,"time_elapsed":2667826,"internal_node_id":"0.0-5.0-56.0"},{"group":"hexagon_tri","fractal_assignment":["../images/gry_blk.png","../images/org_blu.png","../images/ylw_slt.png","../images/pnk_blu.png","../images/cyn_red.png","../images/blu_wht.png"],"mutagen_generator_assignment":[0,1],"goal":0,"start":4,"action_noise":0.2,"location_history":"[4,0]","action_history":"[0]","mutagen_history":"[0]","location_rts":"[1740]","trial_type":"fractal-mutation","trial_index":161,"time_elapsed":2674088,"internal_node_id":"0.0-5.0-57.0"},{"group":"hexagon_tri","fractal_assignment":["../images/gry_blk.png","../images/org_blu.png","../images/ylw_slt.png","../images/pnk_blu.png","../images/cyn_red.png","../images/blu_wht.png"],"mutagen_generator_assignment":[0,1],"goal":2,"start":0,"action_noise":0.2,"location_history":"[0,5,0,1,5,4,0,5,4,0,5,0,5,0,1,5,4,2]","action_history":"[1,0,1,1,1,1,0,1,1,0,1,1,1,1,1,0,1]","mutagen_history":"[1,0,1,1,1,1,0,1,1,0,1,1,1,1,1,0,1]","location_rts":"[592,0,189,157,210,53,436,371,520,38,17,462,612,133,358,422,696]","trial_type":"fractal-mutation","trial_index":162,"time_elapsed":2700615,"internal_node_id":"0.0-5.0-58.0"},{"group":"hexagon_tri","fractal_assignment":["../images/gry_blk.png","../images/org_blu.png","../images/ylw_slt.png","../images/pnk_blu.png","../images/cyn_red.png","../images/blu_wht.png"],"mutagen_generator_assignment":[0,1],"goal":4,"start":2,"action_noise":0.2,"location_history":"[2,1,3,4]","action_history":"[0,0,1]","mutagen_history":"[0,0,1]","location_rts":"[409,303,821]","trial_type":"fractal-mutation","trial_index":163,"time_elapsed":2708991,"internal_node_id":"0.0-5.0-59.0"},{"group":"hexagon_tri","fractal_assignment":["../images/gry_blk.png","../images/org_blu.png","../images/ylw_slt.png","../images/pnk_blu.png","../images/cyn_red.png","../images/blu_wht.png"],"mutagen_generator_assignment":[0,1],"goal":2,"start":4,"action_noise":0.2,"location_history":"[4,0,5,0,5,0,1,5,4,2]","action_history":"[0,1,1,0,0,0,0,0,1]","mutagen_history":"[0,1,1,0,0,0,0,0,1]","location_rts":"[42,146,447,3603,78,19,282,202,25]","trial_type":"fractal-mutation","trial_index":164,"time_elapsed":2726608,"internal_node_id":"0.0-5.0-60.0"},{"group":"hexagon_tri","fractal_assignment":["../images/gry_blk.png","../images/org_blu.png","../images/ylw_slt.png","../images/pnk_blu.png","../images/cyn_red.png","../images/blu_wht.png"],"mutagen_generator_assignment":[0,1],"goal":3,"start":2,"action_noise":0.2,"location_history":"[2,3]","action_history":"[1]","mutagen_history":"[1]","location_rts":"[471]","trial_type":"fractal-mutation","trial_index":165,"time_elapsed":2731609,"internal_node_id":"0.0-5.0-61.0"},{"group":"hexagon_tri","fractal_assignment":["../images/gry_blk.png","../images/org_blu.png","../images/ylw_slt.png","../images/pnk_blu.png","../images/cyn_red.png","../images/blu_wht.png"],"mutagen_generator_assignment":[0,1],"goal":0,"start":3,"action_noise":0.2,"location_history":"[3,2,3,4,0]","action_history":"[0,0,1,0]","mutagen_history":"[0,0,1,0]","location_rts":"[697,302,387,167]","trial_type":"fractal-mutation","trial_index":166,"time_elapsed":2740780,"internal_node_id":"0.0-5.0-62.0"},{"group":"hexagon_tri","fractal_assignment":["../images/gry_blk.png","../images/org_blu.png","../images/ylw_slt.png","../images/pnk_blu.png","../images/cyn_red.png","../images/blu_wht.png"],"mutagen_generator_assignment":[0,1],"goal":5,"start":0,"action_noise":0.2,"location_history":"[0,1,5]","action_history":"[1,0]","mutagen_history":"[1,0]","location_rts":"[1814,20]","trial_type":"fractal-mutation","trial_index":167,"time_elapsed":2748157,"internal_node_id":"0.0-5.0-63.0"},{"group":"hexagon_tri","fractal_assignment":["../images/gry_blk.png","../images/org_blu.png","../images/ylw_slt.png","../images/pnk_blu.png","../images/cyn_red.png","../images/blu_wht.png"],"mutagen_generator_assignment":[0,1],"goal":1,"start":5,"action_noise":0.2,"location_history":"[5,4,0,5,0,1]","action_history":"[0,0,1,1,1]","mutagen_history":"[0,0,1,1,1]","location_rts":"[94,266,42,636,102]","trial_type":"fractal-mutation","trial_index":168,"time_elapsed":2757928,"internal_node_id":"0.0-5.0-64.0"},{"group":"hexagon_tri","fractal_assignment":["../images/gry_blk.png","../images/org_blu.png","../images/ylw_slt.png","../images/pnk_blu.png","../images/cyn_red.png","../images/blu_wht.png"],"mutagen_generator_assignment":[0,1],"goal":5,"start":1,"action_noise":0.2,"location_history":"[1,5]","action_history":"[1]","mutagen_history":"[1]","location_rts":"[357]","trial_type":"fractal-mutation","trial_index":169,"time_elapsed":2762837,"internal_node_id":"0.0-5.0-65.0"},{"group":"hexagon_tri","fractal_assignment":["../images/gry_blk.png","../images/org_blu.png","../images/ylw_slt.png","../images/pnk_blu.png","../images/cyn_red.png","../images/blu_wht.png"],"mutagen_generator_assignment":[0,1],"goal":3,"start":5,"action_noise":0.2,"location_history":"[5,4,2,3]","action_history":"[0,1,0]","mutagen_history":"[0,1,0]","location_rts":"[1714,371,124]","trial_type":"fractal-mutation","trial_index":170,"time_elapsed":2771604,"internal_node_id":"0.0-5.0-66.0"},{"group":"hexagon_tri","fractal_assignment":["../images/gry_blk.png","../images/org_blu.png","../images/ylw_slt.png","../images/pnk_blu.png","../images/cyn_red.png","../images/blu_wht.png"],"mutagen_generator_assignment":[0,1],"goal":2,"start":3,"action_noise":0.2,"location_history":"[3,4,2]","action_history":"[0,0]","mutagen_history":"[0,0]","location_rts":"[323,135]","trial_type":"fractal-mutation","trial_index":171,"time_elapsed":2777617,"internal_node_id":"0.0-5.0-67.0"},{"group":"hexagon_tri","fractal_assignment":["../images/gry_blk.png","../images/org_blu.png","../images/ylw_slt.png","../images/pnk_blu.png","../images/cyn_red.png","../images/blu_wht.png"],"mutagen_generator_assignment":[0,1],"goal":1,"start":2,"action_noise":0.2,"location_history":"[2,3,4,0,1]","action_history":"[0,1,0,1]","mutagen_history":"[0,1,0,1]","location_rts":"[1320,23,378,166]","trial_type":"fractal-mutation","trial_index":172,"time_elapsed":2787136,"internal_node_id":"0.0-5.0-68.0"},{"group":"hexagon_tri","fractal_assignment":["../images/gry_blk.png","../images/org_blu.png","../images/ylw_slt.png","../images/pnk_blu.png","../images/cyn_red.png","../images/blu_wht.png"],"mutagen_generator_assignment":[0,1],"goal":4,"start":1,"action_noise":0.2,"location_history":"[1,5,4]","action_history":"[0,0]","mutagen_history":"[0,0]","location_rts":"[638,19]","trial_type":"fractal-mutation","trial_index":173,"time_elapsed":2793350,"internal_node_id":"0.0-5.0-69.0"},{"group":"hexagon_tri","fractal_assignment":["../images/gry_blk.png","../images/org_blu.png","../images/ylw_slt.png","../images/pnk_blu.png","../images/cyn_red.png","../images/blu_wht.png"],"mutagen_generator_assignment":[0,1],"goal":0,"start":4,"action_noise":0.2,"location_history":"[4,2,3,2,3,2,1,5,0]","action_history":"[1,0,1,1,0,0,1,1]","mutagen_history":"[1,0,1,1,0,0,1,1]","location_rts":"[48,708,450,392,294,127,112,212]","trial_type":"fractal-mutation","trial_index":174,"time_elapsed":2807445,"internal_node_id":"0.0-5.0-70.0"},{"group":"hexagon_tri","fractal_assignment":["../images/gry_blk.png","../images/org_blu.png","../images/ylw_slt.png","../images/pnk_blu.png","../images/cyn_red.png","../images/blu_wht.png"],"mutagen_generator_assignment":[0,1],"goal":3,"start":0,"action_noise":0.2,"location_history":"[0,1,5,4,2,3]","action_history":"[1,1,0,1,0]","mutagen_history":"[1,1,0,1,0]","location_rts":"[214,478,314,123,335]","trial_type":"fractal-mutation","trial_index":175,"time_elapsed":2817526,"internal_node_id":"0.0-5.0-71.0"},{"group":"hexagon_tri","fractal_assignment":["../images/gry_blk.png","../images/org_blu.png","../images/ylw_slt.png","../images/pnk_blu.png","../images/cyn_red.png","../images/blu_wht.png"],"mutagen_generator_assignment":[0,1],"goal":1,"start":3,"action_noise":0.2,"location_history":"[3,2,3,4,2,3,4,2,3,4,2,1]","action_history":"[0,1,1,1,1,1,1,1,1,1,0]","mutagen_history":"[0,1,1,1,1,1,1,1,1,1,0]","location_rts":"[406,258,479,465,303,294,147,32,215,81,59]","trial_type":"fractal-mutation","trial_index":176,"time_elapsed":2835387,"internal_node_id":"0.0-5.0-72.0"},{"group":"hexagon_tri","fractal_assignment":["../images/gry_blk.png","../images/org_blu.png","../images/ylw_slt.png","../images/pnk_blu.png","../images/cyn_red.png","../images/blu_wht.png"],"mutagen_generator_assignment":[0,1],"goal":0,"start":1,"action_noise":0.2,"location_history":"[1,3,4,2,3,2,3,4,2,3,2,1,3,4,2,1,5,0]","action_history":"[0,1,1,1,1,1,1,1,0,1,0,1,1,1,1,1,1]","mutagen_history":"[0,1,1,1,1,1,1,1,0,1,0,1,1,1,1,1,1]","location_rts":"[4494,455,394,1248,396,109,222,148,467,123,347,244,61,341,283,163,76]","trial_type":"fractal-mutation","trial_index":177,"time_elapsed":2866006,"internal_node_id":"0.0-5.0-73.0"},{"group":"hexagon_tri","fractal_assignment":["../images/gry_blk.png","../images/org_blu.png","../images/ylw_slt.png","../images/pnk_blu.png","../images/cyn_red.png","../images/blu_wht.png"],"mutagen_generator_assignment":[0,1],"goal":2,"start":0,"action_noise":0.2,"location_history":"[0,5,0,1,5,4,2]","action_history":"[1,0,1,1,0,1]","mutagen_history":"[1,0,1,1,0,1]","location_rts":"[508,216,197,436,82,141]","trial_type":"fractal-mutation","trial_index":178,"time_elapsed":2877303,"internal_node_id":"0.0-5.0-74.0"},{"group":"hexagon_tri","fractal_assignment":["../images/gry_blk.png","../images/org_blu.png","../images/ylw_slt.png","../images/pnk_blu.png","../images/cyn_red.png","../images/blu_wht.png"],"mutagen_generator_assignment":[0,1],"goal":4,"start":2,"action_noise":0.2,"location_history":"[2,3,2,1,5,4]","action_history":"[1,0,0,1,0]","mutagen_history":"[1,0,0,1,0]","location_rts":"[389,18,98,517,420]","trial_type":"fractal-mutation","trial_index":179,"time_elapsed":2887392,"internal_node_id":"0.0-5.0-75.0"},{"group":"hexagon_tri","fractal_assignment":["../images/gry_blk.png","../images/org_blu.png","../images/ylw_slt.png","../images/pnk_blu.png","../images/cyn_red.png","../images/blu_wht.png"],"mutagen_generator_assignment":[0,1],"goal":5,"start":4,"action_noise":0.2,"location_history":"[4,2,3,4,2,1,5]","action_history":"[0,1,1,1,1,1]","mutagen_history":"[0,1,1,1,1,1]","location_rts":"[352,242,342,407,207,362]","trial_type":"fractal-mutation","trial_index":180,"time_elapsed":2899076,"internal_node_id":"0.0-5.0-76.0"},{"group":"hexagon_tri","fractal_assignment":["../images/gry_blk.png","../images/org_blu.png","../images/ylw_slt.png","../images/pnk_blu.png","../images/cyn_red.png","../images/blu_wht.png"],"mutagen_generator_assignment":[0,1],"goal":2,"start":5,"action_noise":0.2,"location_history":"[5,0,1,5,4,0,5,4,0,1,5,0,5,0,1,3,2]","action_history":"[0,0,1,1,0,0,0,0,1,1,0,0,1,1,1,0]","mutagen_history":"[0,0,1,1,0,0,0,0,1,1,0,0,1,1,1,0]","location_rts":"[399,75,396,916,246,80,4317,1165,344,419,358,138,275,597,690,536]","trial_type":"fractal-mutation","trial_index":181,"time_elapsed":2929929,"internal_node_id":"0.0-5.0-77.0"},{"group":"hexagon_tri","fractal_assignment":["../images/gry_blk.png","../images/org_blu.png","../images/ylw_slt.png","../images/pnk_blu.png","../images/cyn_red.png","../images/blu_wht.png"],"mutagen_generator_assignment":[0,1],"goal":3,"start":2,"action_noise":0.2,"location_history":"[2,1,5,0,1,5,0,1,5,4,2,3]","action_history":"[1,1,0,1,1,1,1,1,0,0,1]","mutagen_history":"[1,1,0,1,1,1,1,1,0,0,1]","location_rts":"[4315,498,27,356,378,562,308,181,464,10,734]","trial_type":"fractal-mutation","trial_index":182,"time_elapsed":2952620,"internal_node_id":"0.0-5.0-78.0"},{"group":"hexagon_tri","fractal_assignment":["../images/gry_blk.png","../images/org_blu.png","../images/ylw_slt.png","../images/pnk_blu.png","../images/cyn_red.png","../images/blu_wht.png"],"mutagen_generator_assignment":[0,1],"goal":1,"start":3,"action_noise":0.2,"location_history":"[3,2,3,2,3,2,3,2,3,4,2,3,4,0,5,4,0,1]","action_history":"[0,0,0,1,1,1,0,1,0,0,1,1,0,0,0,0,1]","mutagen_history":"[0,0,0,1,1,1,0,1,0,0,1,1,0,0,0,0,1]","location_rts":"[2485,25,422,32,348,343,327,64,379,176,438,415,335,255,800,549,312]","trial_type":"fractal-mutation","trial_index":183,"time_elapsed":2981473,"internal_node_id":"0.0-5.0-79.0"},{"group":"hexagon_tri","fractal_assignment":["../images/gry_blk.png","../images/org_blu.png","../images/ylw_slt.png","../images/pnk_blu.png","../images/cyn_red.png","../images/blu_wht.png"],"mutagen_generator_assignment":[0,1],"goal":4,"start":1,"action_noise":0.2,"location_history":"[1,5,4]","action_history":"[1,0]","mutagen_history":"[1,0]","location_rts":"[413,147]","trial_type":"fractal-mutation","trial_index":184,"time_elapsed":2987578,"internal_node_id":"0.0-5.0-80.0"},{"group":"hexagon_tri","fractal_assignment":["../images/gry_blk.png","../images/org_blu.png","../images/ylw_slt.png","../images/pnk_blu.png","../images/cyn_red.png","../images/blu_wht.png"],"mutagen_generator_assignment":[0,1],"goal":5,"start":4,"action_noise":0.2,"location_history":"[4,0,5]","action_history":"[1,0]","mutagen_history":"[1,0]","location_rts":"[250,43]","trial_type":"fractal-mutation","trial_index":185,"time_elapsed":2993421,"internal_node_id":"0.0-5.0-81.0"},{"group":"hexagon_tri","fractal_assignment":["../images/gry_blk.png","../images/org_blu.png","../images/ylw_slt.png","../images/pnk_blu.png","../images/cyn_red.png","../images/blu_wht.png"],"mutagen_generator_assignment":[0,1],"goal":0,"start":5,"action_noise":0.2,"location_history":"[5,4,2,3,2,3,4,0]","action_history":"[0,0,1,0,1,1,1]","mutagen_history":"[0,0,1,0,1,1,1]","location_rts":"[199,29,183,345,31,285,445]","trial_type":"fractal-mutation","trial_index":186,"time_elapsed":3005696,"internal_node_id":"0.0-5.0-82.0"},{"group":"hexagon_tri","fractal_assignment":["../images/gry_blk.png","../images/org_blu.png","../images/ylw_slt.png","../images/pnk_blu.png","../images/cyn_red.png","../images/blu_wht.png"],"mutagen_generator_assignment":[0,1],"goal":2,"start":0,"action_noise":0.2,"location_history":"[0,1,3,4,2]","action_history":"[1,0,1,1]","mutagen_history":"[1,0,1,1]","location_rts":"[203,324,244,46]","trial_type":"fractal-mutation","trial_index":187,"time_elapsed":3014117,"internal_node_id":"0.0-5.0-83.0"},{"group":"hexagon_tri","fractal_assignment":["../images/gry_blk.png","../images/org_blu.png","../images/ylw_slt.png","../images/pnk_blu.png","../images/cyn_red.png","../images/blu_wht.png"],"mutagen_generator_assignment":[0,1],"goal":0,"start":2,"action_noise":0.2,"location_history":"[2,1,3,2,1,5,0]","action_history":"[0,0,0,1,1,1]","mutagen_history":"[0,0,0,1,1,1]","location_rts":"[337,338,129,179,425,76]","trial_type":"fractal-mutation","trial_index":188,"time_elapsed":3025441,"internal_node_id":"0.0-5.0-84.0"},{"group":"hexagon_tri","fractal_assignment":["../images/gry_blk.png","../images/org_blu.png","../images/ylw_slt.png","../images/pnk_blu.png","../images/cyn_red.png","../images/blu_wht.png"],"mutagen_generator_assignment":[0,1],"goal":5,"start":0,"action_noise":0.2,"location_history":"[0,5]","action_history":"[0]","mutagen_history":"[0]","location_rts":"[315]","trial_type":"fractal-mutation","trial_index":189,"time_elapsed":3030274,"internal_node_id":"0.0-5.0-85.0"},{"group":"hexagon_tri","fractal_assignment":["../images/gry_blk.png","../images/org_blu.png","../images/ylw_slt.png","../images/pnk_blu.png","../images/cyn_red.png","../images/blu_wht.png"],"mutagen_generator_assignment":[0,1],"goal":1,"start":5,"action_noise":0.2,"location_history":"[5,4,0,5,4,2,3,2,1]","action_history":"[0,0,0,0,1,1,0,0]","mutagen_history":"[0,0,0,0,1,1,0,0]","location_rts":"[136,103,361,22,15,14,129,325]","trial_type":"fractal-mutation","trial_index":190,"time_elapsed":3043067,"internal_node_id":"0.0-5.0-86.0"},{"group":"hexagon_tri","fractal_assignment":["../images/gry_blk.png","../images/org_blu.png","../images/ylw_slt.png","../images/pnk_blu.png","../images/cyn_red.png","../images/blu_wht.png"],"mutagen_generator_assignment":[0,1],"goal":4,"start":1,"action_noise":0.2,"location_history":"[1,3,2,1,5,4]","action_history":"[0,0,0,1,0]","mutagen_history":"[0,0,0,1,0]","location_rts":"[399,79,4421,1304,1086]","trial_type":"fractal-mutation","trial_index":191,"time_elapsed":3058952,"internal_node_id":"0.0-5.0-87.0"},{"group":"hexagon_tri","fractal_assignment":["../images/gry_blk.png","../images/org_blu.png","../images/ylw_slt.png","../images/pnk_blu.png","../images/cyn_red.png","../images/blu_wht.png"],"mutagen_generator_assignment":[0,1],"goal":3,"start":4,"action_noise":0.2,"location_history":"[4,0,1,5,4,0,1,5,0,1,5,0,1,5,0,5,0,5,0,1,3]","action_history":"[0,1,1,0,1,1,1,0,1,1,1,1,1,1,0,1,0,1,1,0]","mutagen_history":"[0,1,1,0,1,1,1,0,1,1,1,1,1,1,0,1,0,1,1,0]","location_rts":"[3855,54,174,129,195,84,728,25,436,428,405,211,97,342,125,180,133,295,314,643]","trial_type":"fractal-mutation","trial_index":192,"time_elapsed":3092094,"internal_node_id":"0.0-5.0-88.0"},{"group":"hexagon_tri","fractal_assignment":["../images/gry_blk.png","../images/org_blu.png","../images/ylw_slt.png","../images/pnk_blu.png","../images/cyn_red.png","../images/blu_wht.png"],"mutagen_generator_assignment":[0,1],"goal":5,"start":3,"action_noise":0.2,"location_history":"[3,2,1,5]","action_history":"[0,1,1]","mutagen_history":"[0,1,1]","location_rts":"[123,414,276]","trial_type":"fractal-mutation","trial_index":193,"time_elapsed":3099495,"internal_node_id":"0.0-5.0-89.0"},{"group":"hexagon_tri","fractal_assignment":["../images/gry_blk.png","../images/org_blu.png","../images/ylw_slt.png","../images/pnk_blu.png","../images/cyn_red.png","../images/blu_wht.png"],"mutagen_generator_assignment":[0,1],"goal":1,"start":5,"action_noise":0.2,"location_history":"[5,0,5,0,5,0,5,0,1]","action_history":"[1,0,0,0,1,0,1,1]","mutagen_history":"[1,0,0,0,1,0,1,1]","location_rts":"[356,30,70,199,139,186,27,88]","trial_type":"fractal-mutation","trial_index":194,"time_elapsed":3112302,"internal_node_id":"0.0-5.0-90.0"},{"group":"hexagon_tri","fractal_assignment":["../images/gry_blk.png","../images/org_blu.png","../images/ylw_slt.png","../images/pnk_blu.png","../images/cyn_red.png","../images/blu_wht.png"],"mutagen_generator_assignment":[0,1],"goal":2,"start":1,"action_noise":0.2,"location_history":"[1,3,4,2]","action_history":"[1,1,1]","mutagen_history":"[1,1,1]","location_rts":"[426,135,610]","trial_type":"fractal-mutation","trial_index":195,"time_elapsed":3120073,"internal_node_id":"0.0-5.0-91.0"},{"group":"hexagon_tri","fractal_assignment":["../images/gry_blk.png","../images/org_blu.png","../images/ylw_slt.png","../images/pnk_blu.png","../images/cyn_red.png","../images/blu_wht.png"],"mutagen_generator_assignment":[0,1],"goal":4,"start":2,"action_noise":0.2,"location_history":"[2,3,4]","action_history":"[1,0]","mutagen_history":"[1,0]","location_rts":"[62,233]","trial_type":"fractal-mutation","trial_index":196,"time_elapsed":3125930,"internal_node_id":"0.0-5.0-92.0"},{"group":"hexagon_tri","fractal_assignment":["../images/gry_blk.png","../images/org_blu.png","../images/ylw_slt.png","../images/pnk_blu.png","../images/cyn_red.png","../images/blu_wht.png"],"mutagen_generator_assignment":[0,1],"goal":0,"start":4,"action_noise":0.2,"location_history":"[4,2,3,4,2,3,2,1,5,0]","action_history":"[1,1,1,1,0,0,0,1,1]","mutagen_history":"[1,1,1,1,0,0,0,1,1]","location_rts":"[361,375,537,43,342,451,633,595,87]","trial_type":"fractal-mutation","trial_index":197,"time_elapsed":3142123,"internal_node_id":"0.0-5.0-93.0"},{"group":"hexagon_tri","fractal_assignment":["../images/gry_blk.png","../images/org_blu.png","../images/ylw_slt.png","../images/pnk_blu.png","../images/cyn_red.png","../images/blu_wht.png"],"mutagen_generator_assignment":[0,1],"goal":3,"start":0,"action_noise":0.2,"location_history":"[0,1,5,4,2,1,3]","action_history":"[1,1,1,1,0,1]","mutagen_history":"[1,1,1,1,0,1]","location_rts":"[372,425,255,297,86,332]","trial_type":"fractal-mutation","trial_index":198,"time_elapsed":3153566,"internal_node_id":"0.0-5.0-94.0"},{"group":"hexagon_tri","fractal_assignment":["../images/gry_blk.png","../images/org_blu.png","../images/ylw_slt.png","../images/pnk_blu.png","../images/cyn_red.png","../images/blu_wht.png"],"mutagen_generator_assignment":[0,1],"goal":0,"start":3,"action_noise":0.2,"location_history":"[3,2,3,2,1,5,0]","action_history":"[0,1,0,1,1,0]","mutagen_history":"[0,1,0,1,1,0]","location_rts":"[166,383,33,754,138,99]","trial_type":"fractal-mutation","trial_index":199,"time_elapsed":3164758,"internal_node_id":"0.0-5.0-95.0"},{"group":"hexagon_tri","fractal_assignment":["../images/gry_blk.png","../images/org_blu.png","../images/ylw_slt.png","../images/pnk_blu.png","../images/cyn_red.png","../images/blu_wht.png"],"mutagen_generator_assignment":[0,1],"goal":4,"start":0,"action_noise":0.2,"location_history":"[0,1,5,0,5,0,5,0,1,5,0,1,5,0,1,5,0,5,4]","action_history":"[0,1,0,1,1,0,1,1,1,1,1,1,1,1,1,1,0,0]","mutagen_history":"[0,1,0,1,1,0,1,1,1,1,1,1,1,1,1,1,0,0]","location_rts":"[481,128,742,418,281,188,23,102,524,881,126,37,391,121,505,870,272,177]","trial_type":"fractal-mutation","trial_index":200,"time_elapsed":3193111,"internal_node_id":"0.0-5.0-96.0"},{"group":"hexagon_tri","fractal_assignment":["../images/gry_blk.png","../images/org_blu.png","../images/ylw_slt.png","../images/pnk_blu.png","../images/cyn_red.png","../images/blu_wht.png"],"mutagen_generator_assignment":[0,1],"goal":5,"start":4,"action_noise":0.2,"location_history":"[4,0,1,3,4,0,1,3,4,2,3,4,2,3,2,3,4,0,1,5]","action_history":"[1,1,1,1,0,0,0,1,1,1,1,0,1,0,1,1,0,1,0]","mutagen_history":"[1,1,1,1,0,0,0,1,1,1,1,0,1,0,1,1,0,1,0]","location_rts":"[280,156,158,70,440,0,661,336,106,380,90,898,43,569,997,146,649,512,285]","trial_type":"fractal-mutation","trial_index":201,"time_elapsed":3222949,"internal_node_id":"0.0-5.0-97.0"},{"group":"hexagon_tri","fractal_assignment":["../images/gry_blk.png","../images/org_blu.png","../images/ylw_slt.png","../images/pnk_blu.png","../images/cyn_red.png","../images/blu_wht.png"],"mutagen_generator_assignment":[0,1],"goal":2,"start":5,"action_noise":0.2,"location_history":"[5,4,2]","action_history":"[1,1]","mutagen_history":"[1,1]","location_rts":"[119,363]","trial_type":"fractal-mutation","trial_index":202,"time_elapsed":3229000,"internal_node_id":"0.0-5.0-98.0"},{"group":"hexagon_tri","fractal_assignment":["../images/gry_blk.png","../images/org_blu.png","../images/ylw_slt.png","../images/pnk_blu.png","../images/cyn_red.png","../images/blu_wht.png"],"mutagen_generator_assignment":[0,1],"goal":1,"start":2,"action_noise":0.2,"location_history":"[2,3,2,1]","action_history":"[1,1,1]","mutagen_history":"[1,1,1]","location_rts":"[217,114,200]","trial_type":"fractal-mutation","trial_index":203,"time_elapsed":3236150,"internal_node_id":"0.0-5.0-99.0"},{"view_history":"[{\"page_index\":0,\"viewing_time\":10853}]","rt":10854,"trial_type":"instructions","trial_index":204,"time_elapsed":3248006,"internal_node_id":"0.0-6.0"},{"rt":51227,"responses":"{\"Q0\":\"experience learning\"}","trial_type":"survey-text","trial_index":205,"time_elapsed":3300242,"internal_node_id":"0.0-7.0-0.0"},{"rt":6692,"responses":"{\"Q0\":\"luck\"}","trial_type":"survey-text","trial_index":206,"time_elapsed":3307944,"internal_node_id":"0.0-7.0-1.0"},{"rt":12231,"responses":"{\"Q0\":\"<img src='../images/diagrams/hexagon_bi.png'>\"}","trial_type":"survey-multi-choice","trial_index":207,"time_elapsed":3321188,"internal_node_id":"0.0-7.0-2.0"},{"rt":24888,"assignments":["../images/gry_blk.png","../images/cyn_red.png","../images/ylw_slt.png","../images/blu_wht.png","../images/pnk_blu.png","../images/org_blu.png"],"trial_type":"drag-drop-on-image","trial_index":208,"time_elapsed":3347079,"internal_node_id":"0.0-7.0-3.0"},{"rt":1875,"responses":"{\"Q0\":\"2\"}","trial_type":"survey-likert","trial_index":209,"time_elapsed":3349959,"internal_node_id":"0.0-7.0-4.0"},{"rt":12983,"responses":"{\"Q0\":\"trying different ways to acheive something\"}","trial_type":"survey-text","trial_index":210,"time_elapsed":3363945,"internal_node_id":"0.0-7.0-5.0"},{"rt":3985,"responses":"{\"Q0\":\"No\"}","trial_type":"survey-multi-choice","trial_index":211,"time_elapsed":3368940,"internal_node_id":"0.0-7.0-6.0"},{"rt":7519,"responses":"{\"Q0\":\"During this session\"}","trial_type":"survey-multi-choice","trial_index":212,"time_elapsed":3377465,"internal_node_id":"0.0-7.0-7.0"},{"rt":2992,"responses":"{\"Q0\":\"\"}","trial_type":"survey-text",