[{"view_history":"[{\"page_index\":0,\"viewing_time\":969},{\"page_index\":1,\"viewing_time\":6211}]","rt":7182,"trial_type":"instructions","trial_index":0,"time_elapsed":7185,"internal_node_id":"0.0-0.0"},{"view_history":"[{\"page_index\":0,\"viewing_time\":1825},{\"page_index\":1,\"viewing_time\":8235}]","rt":10061,"trial_type":"instructions","trial_index":1,"time_elapsed":18246,"internal_node_id":"0.0-1.0"},{"group":"hexagon_bi","room_assignment":["grey","purple","green","blue","red","yellow"],"door_color_assignment":["white","black"],"door_generator_assignment":[0,1],"goal":2,"start":1,"action_noise":0.2,"location_history":"[1,0,5,4,5,4,5,4,3,2]","action_history":"[0,0,0,1,1,0,0,1,1]","door_history":"[0,0,0,1,1,0,0,1,1]","location_rts":"[5280,1442,1297,1721,1708,794,2083,437,492]","trial_type":"two-door-navigation","trial_index":2,"time_elapsed":46051,"internal_node_id":"0.0-2.0-0.0"},{"group":"hexagon_bi","room_assignment":["grey","purple","green","blue","red","yellow"],"door_color_assignment":["white","black"],"door_generator_assignment":[0,1],"goal":0,"start":2,"action_noise":0.2,"location_history":"[2,3,2,1,0]","action_history":"[0,1,1,0]","door_history":"[0,1,1,0]","location_rts":"[2436,1083,765,438]","trial_type":"two-door-navigation","trial_index":3,"time_elapsed":58294,"internal_node_id":"0.0-2.0-1.0"},{"group":"hexagon_bi","room_assignment":["grey","purple","green","blue","red","yellow"],"door_color_assignment":["white","black"],"door_generator_assignment":[0,1],"goal":5,"start":0,"action_noise":0.2,"location_history":"[0,5]","action_history":"[1]","door_history":"[1]","location_rts":"[10810]","trial_type":"two-door-navigation","trial_index":4,"time_elapsed":73605,"internal_node_id":"0.0-2.0-2.0"},{"group":"hexagon_bi","room_assignment":["grey","purple","green","blue","red","yellow"],"door_color_assignment":["white","black"],"door_generator_assignment":[0,1],"goal":3,"start":5,"action_noise":0.2,"location_history":"[5,4,5,0,1,2,1,2,1,2,3]","action_history":"[0,1,0,1,0,1,0,1,0,1]","door_history":"[0,1,0,1,0,1,0,1,0,1]","location_rts":"[3551,1101,421,566,565,382,374,280,902,599]","trial_type":"two-door-navigation","trial_index":5,"time_elapsed":95899,"internal_node_id":"0.0-2.0-3.0"},{"group":"hexagon_bi","room_assignment":["grey","purple","green","blue","red","yellow"],"door_color_assignment":["white","black"],"door_generator_assignment":[0,1],"goal":4,"start":3,"action_noise":0.2,"location_history":"[3,4]","action_history":"[0]","door_history":"[0]","location_rts":"[2816]","trial_type":"two-door-navigation","trial_index":6,"time_elapsed":103219,"internal_node_id":"0.0-2.0-4.0"},{"group":"hexagon_bi","room_assignment":["grey","purple","green","blue","red","yellow"],"door_color_assignment":["white","black"],"door_generator_assignment":[0,1],"goal":0,"start":4,"action_noise":0.2,"location_history":"[4,5,4,3,4,5,4,5,0]","action_history":"[0,1,0,0,1,0,1,0]","door_history":"[0,1,0,0,1,0,1,0]","location_rts":"[1759,924,419,396,1302,338,304,370]","trial_type":"two-door-navigation","trial_index":7,"time_elapsed":120576,"internal_node_id":"0.0-2.0-5.0"},{"group":"hexagon_bi","room_assignment":["grey","purple","green","blue","red","yellow"],"door_color_assignment":["white","black"],"door_generator_assignment":[0,1],"goal":4,"start":0,"action_noise":0.2,"location_history":"[0,5,4]","action_history":"[0,1]","door_history":"[0,1]","location_rts":"[1608,822]","trial_type":"two-door-navigation","trial_index":8,"time_elapsed":128530,"internal_node_id":"0.0-2.0-6.0"},{"group":"hexagon_bi","room_assignment":["grey","purple","green","blue","red","yellow"],"door_color_assignment":["white","black"],"door_generator_assignment":[0,1],"goal":3,"start":4,"action_noise":0.2,"location_history":"[4,5,0,1,0,5,4,3]","action_history":"[1,0,0,1,0,1,0]","door_history":"[1,0,0,1,0,1,0]","location_rts":"[3347,859,445,768,403,334,364]","trial_type":"two-door-navigation","trial_index":9,"time_elapsed":145590,"internal_node_id":"0.0-2.0-7.0"},{"group":"hexagon_bi","room_assignment":["grey","purple","green","blue","red","yellow"],"door_color_assignment":["white","black"],"door_generator_assignment":[0,1],"goal":2,"start":3,"action_noise":0.2,"location_history":"[3,2]","action_history":"[0]","door_history":"[0]","location_rts":"[11609]","trial_type":"two-door-navigation","trial_index":10,"time_elapsed":161710,"internal_node_id":"0.0-2.0-8.0"},{"group":"hexagon_bi","room_assignment":["grey","purple","green","blue","red","yellow"],"door_color_assignment":["white","black"],"door_generator_assignment":[0,1],"goal":1,"start":2,"action_noise":0.2,"location_history":"[2,3,4,5,0,1]","action_history":"[1,0,1,0,1]","door_history":"[1,0,1,0,1]","location_rts":"[4148,897,399,397,323]","trial_type":"two-door-navigation","trial_index":11,"time_elapsed":176413,"internal_node_id":"0.0-2.0-9.0"},{"group":"hexagon_bi","room_assignment":["grey","purple","green","blue","red","yellow"],"door_color_assignment":["white","black"],"door_generator_assignment":[0,1],"goal":5,"start":1,"action_noise":0.2,"location_history":"[1,2,3,4,5]","action_history":"[0,1,0,1]","door_history":"[0,1,0,1]","location_rts":"[1396,791,329,386]","trial_type":"two-door-navigation","trial_index":12,"time_elapsed":186849,"internal_node_id":"0.0-2.0-10.0"},{"group":"hexagon_bi","room_assignment":["grey","purple","green","blue","red","yellow"],"door_color_assignment":["white","black"],"door_generator_assignment":[0,1],"goal":0,"start":5,"action_noise":0.2,"location_history":"[5,0]","action_history":"[0]","door_history":"[0]","location_rts":"[1848]","trial_type":"two-door-navigation","trial_index":13,"time_elapsed":193201,"internal_node_id":"0.0-2.0-11.0"},{"group":"hexagon_bi","room_assignment":["grey","purple","green","blue","red","yellow"],"door_color_assignment":["white","black"],"door_generator_assignment":[0,1],"goal":4,"start":0,"action_noise":0.2,"location_history":"[0,5,4]","action_history":"[0,1]","door_history":"[0,1]","location_rts":"[2373,327]","trial_type":"two-door-navigation","trial_index":14,"time_elapsed":201419,"internal_node_id":"0.0-2.0-12.0"},{"group":"hexagon_bi","room_assignment":["grey","purple","green","blue","red","yellow"],"door_color_assignment":["white","black"],"door_generator_assignment":[0,1],"goal":2,"start":4,"action_noise":0.2,"location_history":"[4,5,0,1,2]","action_history":"[1,0,1,0]","door_history":"[1,0,1,0]","location_rts":"[5572,852,627,390]","trial_type":"two-door-navigation","trial_index":15,"time_elapsed":216380,"internal_node_id":"0.0-2.0-13.0"},{"group":"hexagon_bi","room_assignment":["grey","purple","green","blue","red","yellow"],"door_color_assignment":["white","black"],"door_generator_assignment":[0,1],"goal":1,"start":2,"action_noise":0.2,"location_history":"[2,3,4,3,2,3,2,1]","action_history":"[0,1,0,1,0,1,0]","door_history":"[0,1,0,1,0,1,0]","location_rts":"[3012,464,355,459,442,456,670]","trial_type":"two-door-navigation","trial_index":16,"time_elapsed":232777,"internal_node_id":"0.0-2.0-14.0"},{"group":"hexagon_bi","room_assignment":["grey","purple","green","blue","red","yellow"],"door_color_assignment":["white","black"],"door_generator_assignment":[0,1],"goal":3,"start":1,"action_noise":0.2,"location_history":"[1,0,1,0,1,0,1,0,5,0,1,2,3]","action_history":"[0,1,0,1,0,1,1,1,0,1,0,1]","door_history":"[0,1,0,1,0,1,1,1,0,1,0,1]","location_rts":"[2140,307,381,442,449,655,649,539,393,367,338,330]","trial_type":"two-door-navigation","trial_index":17,"time_elapsed":255334,"internal_node_id":"0.0-2.0-15.0"},{"group":"hexagon_bi","room_assignment":["grey","purple","green","blue","red","yellow"],"door_color_assignment":["white","black"],"door_generator_assignment":[0,1],"goal":5,"start":3,"action_noise":0.2,"location_history":"[3,2,1,2,1,0,1,0,1,2,1,2,1,2,1,2,3,2,3,2,1,2,3,4,5]","action_history":"[1,0,0,0,1,0,1,0,1,0,0,1,0,0,1,1,0,1,0,1,0,1,0,0]","door_history":"[1,0,0,0,1,0,1,0,1,0,0,1,0,0,1,1,0,1,0,1,0,1,0,0]","location_rts":"[6357,476,857,997,383,383,638,309,323,410,353,732,363,799,361,579,249,641,365,402,545,455,405,307]","trial_type":"two-door-navigation","trial_index":18,"time_elapsed":300636,"internal_node_id":"0.0-2.0-16.0"},{"group":"hexagon_bi","room_assignment":["grey","purple","green","blue","red","yellow"],"door_color_assignment":["white","black"],"door_generator_assignment":[0,1],"goal":0,"start":5,"action_noise":0.2,"location_history":"[5,0]","action_history":"[1]","door_history":"[1]","location_rts":"[2766]","trial_type":"two-door-navigation","trial_index":19,"time_elapsed":307917,"internal_node_id":"0.0-2.0-17.0"},{"group":"hexagon_bi","room_assignment":["grey","purple","green","blue","red","yellow"],"door_color_assignment":["white","black"],"door_generator_assignment":[0,1],"goal":5,"start":0,"action_noise":0.2,"location_history":"[0,1,0,5]","action_history":"[0,1,0]","door_history":"[0,1,0]","location_rts":"[1955,402,627]","trial_type":"two-door-navigation","trial_index":20,"time_elapsed":317413,"internal_node_id":"0.0-2.0-18.0"},{"group":"hexagon_bi","room_assignment":["grey","purple","green","blue","red","yellow"],"door_color_assignment":["white","black"],"door_generator_assignment":[0,1],"goal":3,"start":5,"action_noise":0.2,"location_history":"[5,4,3]","action_history":"[1,0]","door_history":"[1,0]","location_rts":"[1674,354]","trial_type":"two-door-navigation","trial_index":21,"time_elapsed":324959,"internal_node_id":"0.0-2.0-19.0"},{"group":"hexagon_bi","room_assignment":["grey","purple","green","blue","red","yellow"],"door_color_assignment":["white","black"],"door_generator_assignment":[0,1],"goal":4,"start":3,"action_noise":0.2,"location_history":"[3,4]","action_history":"[0]","door_history":"[0]","location_rts":"[5094]","trial_type":"two-door-navigation","trial_index":22,"time_elapsed":334561,"internal_node_id":"0.0-2.0-20.0"},{"group":"hexagon_bi","room_assignment":["grey","purple","green","blue","red","yellow"],"door_color_assignment":["white","black"],"door_generator_assignment":[0,1],"goal":1,"start":4,"action_noise":0.2,"location_history":"[4,3,2,3,4,3,2,3,2,3,2,3,4,5,0,1]","action_history":"[0,1,1,0,1,1,0,1,1,0,1,0,1,0,1]","door_history":"[0,1,1,0,1,1,0,1,1,0,1,0,1,0,1]","location_rts":"[3481,418,383,1086,389,451,800,423,365,751,271,421,392,365,671]","trial_type":"two-door-navigation","trial_index":23,"time_elapsed":363829,"internal_node_id":"0.0-2.0-21.0"},{"group":"hexagon_bi","room_assignment":["grey","purple","green","blue","red","yellow"],"door_color_assignment":["white","black"],"door_generator_assignment":[0,1],"goal":2,"start":1,"action_noise":0.2,"location_history":"[1,2]","action_history":"[1]","door_history":"[1]","location_rts":"[2299]","trial_type":"two-door-navigation","trial_index":24,"time_elapsed":370632,"internal_node_id":"0.0-2.0-22.0"},{"group":"hexagon_bi","room_assignment":["grey","purple","green","blue","red","yellow"],"door_color_assignment":["white","black"],"door_generator_assignment":[0,1],"goal":3,"start":2,"action_noise":0.2,"location_history":"[2,1,0,5,0,1,2,3]","action_history":"[0,1,0,0,1,0,1]","door_history":"[0,1,0,0,1,0,1]","location_rts":"[1887,439,440,676,291,313,332]","trial_type":"two-door-navigation","trial_index":25,"time_elapsed":385560,"internal_node_id":"0.0-2.0-23.0"},{"group":"hexagon_bi","room_assignment":["grey","purple","green","blue","red","yellow"],"door_color_assignment":["white","black"],"door_generator_assignment":[0,1],"goal":5,"start":3,"action_noise":0.2,"location_history":"[3,2,1,0,1,0,1,0,1,2,3,4,3,2,1,0,1,2,1,2,3,4,5]","action_history":"[0,0,1,0,1,0,1,1,0,1,0,0,1,0,1,0,0,1,0,1,0,1]","door_history":"[0,0,1,0,1,0,1,1,0,1,0,0,1,0,1,0,0,1,0,1,0,1]","location_rts":"[2029,826,246,285,264,323,426,419,326,2016,419,337,368,445,1529,397,1399,606,436,415,379,245]","trial_type":"two-door-navigation","trial_index":26,"time_elapsed":425350,"internal_node_id":"0.0-2.0-24.0"},{"group":"hexagon_bi","room_assignment":["grey","purple","green","blue","red","yellow"],"door_color_assignment":["white","black"],"door_generator_assignment":[0,1],"goal":4,"start":5,"action_noise":0.2,"location_history":"[5,4]","action_history":"[0]","door_history":"[0]","location_rts":"[5212]","trial_type":"two-door-navigation","trial_index":27,"time_elapsed":435070,"internal_node_id":"0.0-2.0-25.0"},{"group":"hexagon_bi","room_assignment":["grey","purple","green","blue","red","yellow"],"door_color_assignment":["white","black"],"door_generator_assignment":[0,1],"goal":0,"start":4,"action_noise":0.2,"location_history":"[4,3,4,3,4,3,2,3,4,5,0]","action_history":"[0,1,0,1,0,0,1,0,1,0]","door_history":"[0,1,0,1,0,0,1,0,1,0]","location_rts":"[3989,775,350,461,337,833,272,330,321,347]","trial_type":"two-door-navigation","trial_index":28,"time_elapsed":456635,"internal_node_id":"0.0-2.0-26.0"},{"group":"hexagon_bi","room_assignment":["grey","purple","green","blue","red","yellow"],"door_color_assignment":["white","black"],"door_generator_assignment":[0,1],"goal":2,"start":0,"action_noise":0.2,"location_history":"[0,5,4,5,0,5,4,5,4,3,4,5,0,5,4,3,2]","action_history":"[0,0,1,0,1,0,1,0,1,0,1,0,0,1,0,1]","door_history":"[0,0,1,0,1,0,1,0,1,0,1,0,0,1,0,1]","location_rts":"[1849,1660,348,470,334,312,330,431,316,1125,373,384,385,268,358,329]","trial_type":"two-door-navigation","trial_index":29,"time_elapsed":485463,"internal_node_id":"0.0-2.0-27.0"},{"group":"hexagon_bi","room_assignment":["grey","purple","green","blue","red","yellow"],"door_color_assignment":["white","black"],"door_generator_assignment":[0,1],"goal":1,"start":2,"action_noise":0.2,"location_history":"[2,3,4,5,0,1]","action_history":"[1,0,1,0,1]","door_history":"[1,0,1,0,1]","location_rts":"[861,479,1320,432,377]","trial_type":"two-door-navigation","trial_index":30,"time_elapsed":497452,"internal_node_id":"0.0-2.0-28.0"},{"group":"hexagon_bi","room_assignment":["grey","purple","green","blue","red","yellow"],"door_color_assignment":["white","black"],"door_generator_assignment":[0,1],"goal":0,"start":1,"action_noise":0.2,"location_history":"[1,0]","action_history":"[1]","door_history":"[1]","location_rts":"[5708]","trial_type":"two-door-navigation","trial_index":31,"time_elapsed":507669,"internal_node_id":"0.0-2.0-29.0"},{"group":"hexagon_bi","room_assignment":["grey","purple","green","blue","red","yellow"],"door_color_assignment":["white","black"],"door_generator_assignment":[0,1],"goal":2,"start":0,"action_noise":0.2,"location_history":"[0,5,4,3,2]","action_history":"[0,1,0,0]","door_history":"[0,1,0,0]","location_rts":"[1626,379,321,837]","trial_type":"two-door-navigation","trial_index":32,"time_elapsed":518353,"internal_node_id":"0.0-2.0-30.0"},{"group":"hexagon_bi","room_assignment":["grey","purple","green","blue","red","yellow"],"door_color_assignment":["white","black"],"door_generator_assignment":[0,1],"goal":4,"start":2,"action_noise":0.2,"location_history":"[2,3,2,3,4]","action_history":"[1,0,0,1]","door_history":"[1,0,0,1]","location_rts":"[4439,417,316,282]","trial_type":"two-door-navigation","trial_index":33,"time_elapsed":531329,"internal_node_id":"0.0-2.0-31.0"},{"group":"hexagon_bi","room_assignment":["grey","purple","green","blue","red","yellow"],"door_color_assignment":["white","black"],"door_generator_assignment":[0,1],"goal":1,"start":4,"action_noise":0.2,"location_history":"[4,3,2,1]","action_history":"[0,1,0]","door_history":"[0,1,0]","location_rts":"[1762,393,298]","trial_type":"two-door-navigation","trial_index":34,"time_elapsed":540305,"internal_node_id":"0.0-2.0-32.0"},{"group":"hexagon_bi","room_assignment":["grey","purple","green","blue","red","yellow"],"door_color_assignment":["white","black"],"door_generator_assignment":[0,1],"goal":3,"start":1,"action_noise":0.2,"location_history":"[1,0,5,0,1,2,1,2,1,0,5,0,5,0,5,0,1,2,1,2,3]","action_history":"[1,0,0,1,1,0,1,0,1,0,1,0,1,1,0,1,0,0,0,1]","door_history":"[1,0,0,1,1,0,1,0,1,0,1,0,1,1,0,1,0,0,0,1]","location_rts":"[2034,442,375,342,537,367,574,326,295,364,357,365,293,760,426,391,420,294,825,249]","trial_type":"two-door-navigation","trial_index":35,"time_elapsed":574821,"internal_node_id":"0.0-2.0-33.0"},{"group":"hexagon_bi","room_assignment":["grey","purple","green","blue","red","yellow"],"door_color_assignment":["white","black"],"door_generator_assignment":[0,1],"goal":5,"start":3,"action_noise":0.2,"location_history":"[3,4,3,4,5]","action_history":"[0,0,0,0]","door_history":"[0,0,0,0]","location_rts":"[4818,874,885,929]","trial_type":"two-door-navigation","trial_index":36,"time_elapsed":590854,"internal_node_id":"0.0-2.0-34.0"},{"group":"hexagon_bi","room_assignment":["grey","purple","green","blue","red","yellow"],"door_color_assignment":["white","black"],"door_generator_assignment":[0,1],"goal":2,"start":5,"action_noise":0.2,"location_history":"[5,4,5,0,5,0,1,2]","action_history":"[1,0,0,0,0,1,0]","door_history":"[1,0,0,0,0,1,0]","location_rts":"[17353,332,550,304,410,940,451]","trial_type":"two-door-navigation","trial_index":37,"time_elapsed":621729,"internal_node_id":"0.0-2.0-35.0"},{"group":"hexagon_bi","room_assignment":["grey","purple","green","blue","red","yellow"],"door_color_assignment":["white","black"],"door_generator_assignment":[0,1],"goal":0,"start":2,"action_noise":0.2,"location_history":"[2,1,2,3,2,3,2,1,2,3,2,1,2,3,4,5,0]","action_history":"[0,0,1,0,0,1,0,0,1,1,0,0,1,0,1,0]","door_history":"[0,0,1,0,0,1,0,0,1,1,0,0,1,0,1,0]","location_rts":"[1761,570,750,355,335,590,393,315,711,601,255,541,405,385,273,329]","trial_type":"two-door-navigation","trial_index":38,"time_elapsed":649875,"internal_node_id":"0.0-2.0-36.0"},{"group":"hexagon_bi","room_assignment":["grey","purple","green","blue","red","yellow"],"door_color_assignment":["white","black"],"door_generator_assignment":[0,1],"goal":4,"start":0,"action_noise":0.2,"location_history":"[0,5,4]","action_history":"[0,1]","door_history":"[0,1]","location_rts":"[2657,295]","trial_type":"two-door-navigation","trial_index":39,"time_elapsed":658340,"internal_node_id":"0.0-2.0-37.0"},{"group":"hexagon_bi","room_assignment":["grey","purple","green","blue","red","yellow"],"door_color_assignment":["white","black"],"door_generator_assignment":[0,1],"goal":5,"start":4,"action_noise":0.2,"location_history":"[4,5]","action_history":"[1]","door_history":"[1]","location_rts":"[6548]","trial_type":"two-door-navigation","trial_index":40,"time_elapsed":669410,"internal_node_id":"0.0-2.0-38.0"},{"group":"hexagon_bi","room_assignment":["grey","purple","green","blue","red","yellow"],"door_color_assignment":["white","black"],"door_generator_assignment":[0,1],"goal":1,"start":5,"action_noise":0.2,"location_history":"[5,4,3,2,3,2,1]","action_history":"[1,0,1,0,1,0]","door_history":"[1,0,1,0,1,0]","location_rts":"[2064,334,439,300,267,309]","trial_type":"two-door-navigation","trial_index":41,"time_elapsed":682720,"internal_node_id":"0.0-2.0-39.0"},{"group":"hexagon_bi","room_assignment":["grey","purple","green","blue","red","yellow"],"door_color_assignment":["white","black"],"door_generator_assignment":[0,1],"goal":3,"start":1,"action_noise":0.2,"location_history":"[1,2,3]","action_history":"[0,1]","door_history":"[0,1]","location_rts":"[2046,733]","trial_type":"two-door-navigation","trial_index":42,"time_elapsed":691036,"internal_node_id":"0.0-2.0-40.0"},{"group":"hexagon_bi","room_assignment":["grey","purple","green","blue","red","yellow"],"door_color_assignment":["white","black"],"door_generator_assignment":[0,1],"goal":1,"start":3,"action_noise":0.2,"location_history":"[3,2,1]","action_history":"[1,0]","door_history":"[1,0]","location_rts":"[2297,377]","trial_type":"two-door-navigation","trial_index":43,"time_elapsed":699242,"internal_node_id":"0.0-2.0-41.0"},{"group":"hexagon_bi","room_assignment":["grey","purple","green","blue","red","yellow"],"door_color_assignment":["white","black"],"door_generator_assignment":[0,1],"goal":0,"start":1,"action_noise":0.2,"location_history":"[1,2,1,2,3,4,3,2,1,2,3,4,3,2,3,2,1,2,3,4,3,4,5,0]","action_history":"[0,1,0,1,0,0,1,0,0,1,0,1,0,1,1,0,0,1,0,1,0,1,0]","door_history":"[0,1,0,1,0,0,1,0,0,1,0,1,0,1,1,0,0,1,0,1,0,1,0]","location_rts":"[2673,379,314,393,398,269,235,288,404,295,418,326,390,364,571,288,538,360,672,369,397,410,489]","trial_type":"two-door-navigation","trial_index":44,"time_elapsed":737120,"internal_node_id":"0.0-2.0-42.0"},{"group":"hexagon_bi","room_assignment":["grey","purple","green","blue","red","yellow"],"door_color_assignment":["white","black"],"door_generator_assignment":[0,1],"goal":4,"start":0,"action_noise":0.2,"location_history":"[0,5,0,5,4]","action_history":"[1,0,0,1]","door_history":"[1,0,0,1]","location_rts":"[2143,341,342,264]","trial_type":"two-door-navigation","trial_index":45,"time_elapsed":747740,"internal_node_id":"0.0-2.0-43.0"},{"group":"hexagon_bi","room_assignment":["grey","purple","green","blue","red","yellow"],"door_color_assignment":["white","black"],"door_generator_assignment":[0,1],"goal":2,"start":4,"action_noise":0.2,"location_history":"[4,3,4,3,4,5,0,1,0,1,0,5,4,3,2]","action_history":"[0,0,1,0,1,0,1,0,0,1,0,1,0,0]","door_history":"[0,0,1,0,1,0,1,0,0,1,0,1,0,0]","location_rts":"[2514,445,310,358,317,1428,371,366,236,204,257,379,345,651]","trial_type":"two-door-navigation","trial_index":46,"time_elapsed":773505,"internal_node_id":"0.0-2.0-44.0"},{"group":"hexagon_bi","room_assignment":["grey","purple","green","blue","red","yellow"],"door_color_assignment":["white","black"],"door_generator_assignment":[0,1],"goal":3,"start":2,"action_noise":0.2,"location_history":"[2,3]","action_history":"[1]","door_history":"[1]","location_rts":"[3832]","trial_type":"two-door-navigation","trial_index":47,"time_elapsed":781840,"internal_node_id":"0.0-2.0-45.0"},{"group":"hexagon_bi","room_assignment":["grey","purple","green","blue","red","yellow"],"door_color_assignment":["white","black"],"door_generator_assignment":[0,1],"goal":5,"start":3,"action_noise":0.2,"location_history":"[3,2,1,2,3,2,3,4,3,2,1,0,1,2,1,0,1,0,5]","action_history":"[0,0,1,0,1,1,0,0,1,0,1,0,1,0,0,1,0,0]","door_history":"[0,0,1,0,1,1,0,0,1,0,1,0,1,0,0,1,0,0]","location_rts":"[1908,676,1083,481,363,830,229,1304,274,296,309,358,958,376,290,816,272,441]","trial_type":"two-door-navigation","trial_index":48,"time_elapsed":814699,"internal_node_id":"0.0-2.0-46.0"},{"group":"hexagon_bi","room_assignment":["grey","purple","green","blue","red","yellow"],"door_color_assignment":["white","black"],"door_generator_assignment":[0,1],"goal":4,"start":5,"action_noise":0.2,"location_history":"[5,4]","action_history":"[1]","door_history":"[1]","location_rts":"[4612]","trial_type":"two-door-navigation","trial_index":49,"time_elapsed":823819,"internal_node_id":"0.0-2.0-47.0"},{"group":"hexagon_bi","room_assignment":["grey","purple","green","blue","red","yellow"],"door_color_assignment":["white","black"],"door_generator_assignment":[0,1],"goal":3,"start":4,"action_noise":0.2,"location_history":"[4,5,0,5,0,5,4,3]","action_history":"[1,0,0,0,0,1,0]","door_history":"[1,0,0,0,0,1,0]","location_rts":"[7463,529,553,588,648,298,423]","trial_type":"two-door-navigation","trial_index":50,"time_elapsed":844879,"internal_node_id":"0.0-2.0-48.0"},{"group":"hexagon_bi","room_assignment":["grey","purple","green","blue","red","yellow"],"door_color_assignment":["white","black"],"door_generator_assignment":[0,1],"goal":1,"start":3,"action_noise":0.2,"location_history":"[3,2,1]","action_history":"[1,0]","door_history":"[1,0]","location_rts":"[3671,1439]","trial_type":"two-door-navigation","trial_index":51,"time_elapsed":855505,"internal_node_id":"0.0-2.0-49.0"},{"group":"hexagon_bi","room_assignment":["grey","purple","green","blue","red","yellow"],"door_color_assignment":["white","black"],"door_generator_assignment":[0,1],"goal":2,"start":1,"action_noise":0.2,"location_history":"[1,0,1,2]","action_history":"[0,1,0]","door_history":"[0,1,0]","location_rts":"[3036,238,278]","trial_type":"two-door-navigation","trial_index":52,"time_elapsed":865567,"internal_node_id":"0.0-2.0-50.0"},{"group":"hexagon_bi","room_assignment":["grey","purple","green","blue","red","yellow"],"door_color_assignment":["white","black"],"door_generator_assignment":[0,1],"goal":0,"start":2,"action_noise":0.2,"location_history":"[2,1,0]","action_history":"[0,1]","door_history":"[0,1]","location_rts":"[3368,255]","trial_type":"two-door-navigation","trial_index":53,"time_elapsed":874706,"internal_node_id":"0.0-2.0-51.0"},{"group":"hexagon_bi","room_assignment":["grey","purple","green","blue","red","yellow"],"door_color_assignment":["white","black"],"door_generator_assignment":[0,1],"goal":5,"start":0,"action_noise":0.2,"location_history":"[0,5]","action_history":"[0]","door_history":"[0]","location_rts":"[3629]","trial_type":"two-door-navigation","trial_index":54,"time_elapsed":882842,"internal_node_id":"0.0-2.0-52.0"},{"group":"hexagon_bi","room_assignment":["grey","purple","green","blue","red","yellow"],"door_color_assignment":["white","black"],"door_generator_assignment":[0,1],"goal":1,"start":5,"action_noise":0.2,"location_history":"[5,4,3,2,1]","action_history":"[1,0,1,0]","door_history":"[1,0,1,0]","location_rts":"[2351,695,211,2815]","trial_type":"two-door-navigation","trial_index":55,"time_elapsed":896433,"internal_node_id":"0.0-2.0-53.0"},{"group":"hexagon_bi","room_assignment":["grey","purple","green","blue","red","yellow"],"door_color_assignment":["white","black"],"door_generator_assignment":[0,1],"goal":3,"start":1,"action_noise":0.2,"location_history":"[1,2,1,0,5,4,3]","action_history":"[0,0,1,0,1,0]","door_history":"[0,0,1,0,1,0]","location_rts":"[3126,926,319,792,560,355]","trial_type":"two-door-navigation","trial_index":56,"time_elapsed":912041,"internal_node_id":"0.0-2.0-54.0"},{"group":"hexagon_bi","room_assignment":["grey","purple","green","blue","red","yellow"],"door_color_assignment":["white","black"],"door_generator_assignment":[0,1],"goal":5,"start":3,"action_noise":0.2,"location_history":"[3,2,3,4,3,2,1,2,3,4,5]","action_history":"[0,1,0,0,1,0,0,1,0,1]","door_history":"[0,1,0,0,1,0,0,1,0,1]","location_rts":"[2388,1156,177,1055,436,389,599,371,763,422]","trial_type":"two-door-navigation","trial_index":57,"time_elapsed":933339,"internal_node_id":"0.0-2.0-55.0"},{"group":"hexagon_bi","room_assignment":["grey","purple","green","blue","red","yellow"],"door_color_assignment":["white","black"],"door_generator_assignment":[0,1],"goal":4,"start":5,"action_noise":0.2,"location_history":"[5,4]","action_history":"[1]","door_history":"[1]","location_rts":"[4697]","trial_type":"two-door-navigation","trial_index":58,"time_elapsed":942542,"internal_node_id":"0.0-2.0-56.0"},{"group":"hexagon_bi","room_assignment":["grey","purple","green","blue","red","yellow"],"door_color_assignment":["white","black"],"door_generator_assignment":[0,1],"goal":0,"start":4,"action_noise":0.2,"location_history":"[4,3,4,5,4,3,2,3,4,5,0]","action_history":"[1,0,1,0,0,1,0,0,1,0]","door_history":"[1,0,1,0,0,1,0,0,1,0]","location_rts":"[3563,540,557,2974,710,516,398,911,443,352]","trial_type":"two-door-navigation","trial_index":59,"time_elapsed":967060,"internal_node_id":"0.0-2.0-57.0"},{"group":"hexagon_bi","room_assignment":["grey","purple","green","blue","red","yellow"],"door_color_assignment":["white","black"],"door_generator_assignment":[0,1],"goal":2,"start":0,"action_noise":0.2,"location_history":"[0,5,4,3,4,5,0,1,2]","action_history":"[0,1,0,1,0,0,1,0]","door_history":"[0,1,0,1,0,0,1,0]","location_rts":"[3851,552,612,397,367,1149,259,366]","trial_type":"two-door-navigation","trial_index":60,"time_elapsed":986156,"internal_node_id":"0.0-2.0-58.0"},{"group":"hexagon_bi","room_assignment":["grey","purple","green","blue","red","yellow"],"door_color_assignment":["white","black"],"door_generator_assignment":[0,1],"goal":4,"start":2,"action_noise":0.2,"location_history":"[2,1,0,5,4]","action_history":"[0,1,0,1]","door_history":"[0,1,0,1]","location_rts":"[3358,427,711,482]","trial_type":"two-door-navigation","trial_index":61,"time_elapsed":998652,"internal_node_id":"0.0-2.0-59.0"},{"group":"hexagon_bi","room_assignment":["grey","purple","green","blue","red","yellow"],"door_color_assignment":["white","black"],"door_generator_assignment":[0,1],"goal":2,"start":4,"action_noise":0.2,"location_history":"[4,3,2]","action_history":"[0,1]","door_history":"[0,1]","location_rts":"[1522,2941]","trial_type":"two-door-navigation","trial_index":62,"time_elapsed":1008627,"internal_node_id":"0.0-2.0-60.0"},{"group":"hexagon_bi","room_assignment":["grey","purple","green","blue","red","yellow"],"door_color_assignment":["white","black"],"door_generator_assignment":[0,1],"goal":3,"start":2,"action_noise":0.2,"location_history":"[2,3]","action_history":"[1]","door_history":"[1]","location_rts":"[3946]","trial_type":"two-door-navigation","trial_index":63,"time_elapsed":1017083,"internal_node_id":"0.0-2.0-61.0"},{"group":"hexagon_bi","room_assignment":["grey","purple","green","blue","red","yellow"],"door_color_assignment":["white","black"],"door_generator_assignment":[0,1],"goal":0,"start":3,"action_noise":0.2,"location_history":"[3,2,1,2,3,4,5,4,3,4,5,0]","action_history":"[1,0,0,1,0,0,1,0,0,1,0]","door_history":"[1,0,0,1,0,0,1,0,0,1,0]","location_rts":"[3077,545,573,291,962,699,324,337,621,425,403]","trial_type":"two-door-navigation","trial_index":64,"time_elapsed":1039896,"internal_node_id":"0.0-2.0-62.0"},{"group":"hexagon_bi","room_assignment":["grey","purple","green","blue","red","yellow"],"door_color_assignment":["white","black"],"door_generator_assignment":[0,1],"goal":5,"start":0,"action_noise":0.2,"location_history":"[0,1,0,5]","action_history":"[0,1,0]","door_history":"[0,1,0]","location_rts":"[3022,348,312]","trial_type":"two-door-navigation","trial_index":65,"time_elapsed":1050093,"internal_node_id":"0.0-2.0-63.0"},{"group":"hexagon_bi","room_assignment":["grey","purple","green","blue","red","yellow"],"door_color_assignment":["white","black"],"door_generator_assignment":[0,1],"goal":1,"start":5,"action_noise":0.2,"location_history":"[5,4,5,0,1]","action_history":"[1,0,0,1]","door_history":"[1,0,0,1]","location_rts":"[2892,383,809,442]","trial_type":"two-door-navigation","trial_index":66,"time_elapsed":1062133,"internal_node_id":"0.0-2.0-64.0"},{"group":"hexagon_bi","room_assignment":["grey","purple","green","blue","red","yellow"],"door_color_assignment":["white","black"],"door_generator_assignment":[0,1],"goal":5,"start":1,"action_noise":0.2,"location_history":"[1,0,1,2,3,4,3,4,3,2,1,0,5]","action_history":"[1,0,0,1,0,0,1,0,1,0,1,0]","door_history":"[1,0,0,1,0,0,1,0,1,0,1,0]","location_rts":"[4635,396,800,470,329,1099,396,388,306,504,875,572]","trial_type":"two-door-navigation","trial_index":67,"time_elapsed":1088476,"internal_node_id":"0.0-2.0-65.0"},{"group":"hexagon_bi","room_assignment":["grey","purple","green","blue","red","yellow"],"door_color_assignment":["white","black"],"door_generator_assignment":[0,1],"goal":3,"start":5,"action_noise":0.2,"location_history":"[5,4,5,4,5,4,3]","action_history":"[1,1,0,1,1,0]","door_history":"[1,1,0,1,1,0]","location_rts":"[2827,1618,393,682,689,614]","trial_type":"two-door-navigation","trial_index":68,"time_elapsed":1104837,"internal_node_id":"0.0-2.0-66.0"},{"group":"hexagon_bi","room_assignment":["grey","purple","green","blue","red","yellow"],"door_color_assignment":["white","black"],"door_generator_assignment":[0,1],"goal":2,"start":3,"action_noise":0.2,"location_history":"[3,4,5,0,5,4,3,2]","action_history":"[0,1,0,0,1,0,0]","door_history":"[0,1,0,0,1,0,0]","location_rts":"[6364,1917,609,632,277,389,772]","trial_type":"two-door-navigation","trial_index":69,"time_elapsed":1126326,"internal_node_id":"0.0-2.0-67.0"},{"group":"hexagon_bi","room_assignment":["grey","purple","green","blue","red","yellow"],"door_color_assignment":["white","black"],"door_generator_assignment":[0,1],"goal":1,"start":2,"action_noise":0.2,"location_history":"[2,3,2,3,4,5,0,1]","action_history":"[0,1,1,0,1,0,1]","door_history":"[0,1,1,0,1,0,1]","location_rts":"[3362,574,795,273,362,444,1295]","trial_type":"two-door-navigation","trial_index":70,"time_elapsed":1143968,"internal_node_id":"0.0-2.0-68.0"},{"group":"hexagon_bi","room_assignment":["grey","purple","green","blue","red","yellow"],"door_color_assignment":["white","black"],"door_generator_assignment":[0,1],"goal":4,"start":1,"action_noise":0.2,"location_history":"[1,0,5,4]","action_history":"[1,0,0]","door_history":"[1,0,0]","location_rts":"[2641,401,1708]","trial_type":"two-door-navigation","trial_index":71,"time_elapsed":1155243,"internal_node_id":"0.0-2.0-69.0"},{"group":"hexagon_bi","room_assignment":["grey","purple","green","blue","red","yellow"],"door_color_assignment":["white","black"],"door_generator_assignment":[0,1],"goal":0,"start":4,"action_noise":0.2,"location_history":"[4,5,0]","action_history":"[0,1]","door_history":"[0,1]","location_rts":"[4111,415]","trial_type":"two-door-navigation","trial_index":72,"time_elapsed":1165285,"internal_node_id":"0.0-2.0-70.0"},{"group":"hexagon_bi","room_assignment":["grey","purple","green","blue","red","yellow"],"door_color_assignment":["white","black"],"door_generator_assignment":[0,1],"goal":3,"start":0,"action_noise":0.2,"location_history":"[0,5,0,1,2,1,0,1,2,3]","action_history":"[1,0,1,0,1,0,1,0,1]","door_history":"[1,0,1,0,1,0,1,0,1]","location_rts":"[4562,641,464,879,902,825,624,866,1198]","trial_type":"two-door-navigation","trial_index":73,"time_elapsed":1188812,"internal_node_id":"0.0-2.0-71.0"},{"group":"hexagon_bi","room_assignment":["grey","purple","green","blue","red","yellow"],"door_color_assignment":["white","black"],"door_generator_assignment":[0,1],"goal":1,"start":3,"action_noise":0.2,"location_history":"[3,4,5,0,1]","action_history":"[0,1,0,1]","door_history":"[0,1,0,1]","location_rts":"[3170,422,396,394]","trial_type":"two-door-navigation","trial_index":74,"time_elapsed":1200729,"internal_node_id":"0.0-2.0-72.0"},{"group":"hexagon_bi","room_assignment":["grey","purple","green","blue","red","yellow"],"door_color_assignment":["white","black"],"door_generator_assignment":[0,1],"goal":0,"start":1,"action_noise":0.2,"location_history":"[1,0]","action_history":"[1]","door_history":"[1]","location_rts":"[1646]","trial_type":"two-door-navigation","trial_index":75,"time_elapsed":1206885,"internal_node_id":"0.0-2.0-73.0"},{"group":"hexagon_bi","room_assignment":["grey","purple","green","blue","red","yellow"],"door_color_assignment":["white","black"],"door_generator_assignment":[0,1],"goal":2,"start":0,"action_noise":0.2,"location_history":"[0,5,0,1,2]","action_history":"[0,1,0,0]","door_history":"[0,1,0,0]","location_rts":"[776,1213,1106,498]","trial_type":"two-door-navigation","trial_index":76,"time_elapsed":1218010,"internal_node_id":"0.0-2.0-74.0"},{"group":"hexagon_bi","room_assignment":["grey","purple","green","blue","red","yellow"],"door_color_assignment":["white","black"],"door_generator_assignment":[0,1],"goal":4,"start":2,"action_noise":0.2,"location_history":"[2,1,0,5,0,1,0,5,4]","action_history":"[0,1,0,0,1,0,0,1]","door_history":"[0,1,0,0,1,0,0,1]","location_rts":"[6616,436,314,267,299,417,402,385]","trial_type":"two-door-navigation","trial_index":77,"time_elapsed":1238701,"internal_node_id":"0.0-2.0-75.0"},{"group":"hexagon_bi","room_assignment":["grey","purple","green","blue","red","yellow"],"door_color_assignment":["white","black"],"door_generator_assignment":[0,1],"goal":5,"start":4,"action_noise":0.2,"location_history":"[4,3,4,3,4,5]","action_history":"[0,1,0,0,1]","door_history":"[0,1,0,0,1]","location_rts":"[1526,296,898,309,173]","trial_type":"two-door-navigation","trial_index":78,"time_elapsed":1250439,"internal_node_id":"0.0-2.0-76.0"},{"group":"hexagon_bi","room_assignment":["grey","purple","green","blue","red","yellow"],"door_color_assignment":["white","black"],"door_generator_assignment":[0,1],"goal":2,"start":5,"action_noise":0.2,"location_history":"[5,0,5,4,3,4,3,2]","action_history":"[0,1,0,0,0,0,0]","door_history":"[0,1,0,0,0,0,0]","location_rts":"[1286,678,311,358,685,40679,5913]","trial_type":"two-door-navigation","trial_index":79,"time_elapsed":1310899,"internal_node_id":"0.0-2.0-77.0"},{"group":"hexagon_bi","room_assignment":["grey","purple","green","blue","red","yellow"],"door_color_assignment":["white","black"],"door_generator_assignment":[0,1],"goal":3,"start":2,"action_noise":0.2,"location_history":"[2,3]","action_history":"[1]","door_history":"[1]","location_rts":"[5039]","trial_type":"two-door-navigation","trial_index":80,"time_elapsed":1320447,"internal_node_id":"0.0-2.0-78.0"},{"group":"hexagon_bi","room_assignment":["grey","purple","green","blue","red","yellow"],"door_color_assignment":["white","black"],"door_generator_assignment":[0,1],"goal":1,"start":3,"action_noise":0.2,"location_history":"[3,4,3,4,5,4,3,2,3,4,5,0,5,0,1]","action_history":"[1,0,0,1,1,0,1,1,0,1,0,0,1,1]","door_history":"[1,0,0,1,1,0,1,1,0,1,0,0,1,1]","location_rts":"[4128,642,1406,333,399,396,396,389,567,348,256,622,359,704]","trial_type":"two-door-navigation","trial_index":81,"time_elapsed":1349077,"internal_node_id":"0.0-2.0-79.0"},{"group":"hexagon_bi","room_assignment":["grey","purple","green","blue","red","yellow"],"door_color_assignment":["white","black"],"door_generator_assignment":[0,1],"goal":4,"start":1,"action_noise":0.2,"location_history":"[1,2,3,2,3,4]","action_history":"[0,1,0,1,1]","door_history":"[0,1,0,1,1]","location_rts":"[2167,432,683,238,379]","trial_type":"two-door-navigation","trial_index":82,"time_elapsed":1361557,"internal_node_id":"0.0-2.0-80.0"},{"group":"hexagon_bi","room_assignment":["grey","purple","green","blue","red","yellow"],"door_color_assignment":["white","black"],"door_generator_assignment":[0,1],"goal":5,"start":4,"action_noise":0.2,"location_history":"[4,3,2,3,4,3,2,3,2,1,2,3,4,3,2,1,2,1,2,1,0,5]","action_history":"[0,1,1,0,1,1,1,1,0,0,0,0,0,1,0,1,0,0,1,0,1]","door_history":"[0,1,1,0,1,1,1,1,0,0,0,0,0,1,0,1,0,0,1,0,1]","location_rts":"[6302,987,1401,409,719,416,888,433,605,1288,827,969,1199,735,595,399,405,308,300,326,342]","trial_type":"two-door-navigation","trial_index":83,"time_elapsed":1406064,"internal_node_id":"0.0-2.0-81.0"},{"group":"hexagon_bi","room_assignment":["grey","purple","green","blue","red","yellow"],"door_color_assignment":["white","black"],"door_generator_assignment":[0,1],"goal":0,"start":5,"action_noise":0.2,"location_history":"[5,0]","action_history":"[0]","door_history":"[0]","location_rts":"[2087]","trial_type":"two-door-navigation","trial_index":84,"time_elapsed":1412657,"internal_node_id":"0.0-2.0-82.0"},{"group":"hexagon_bi","room_assignment":["grey","purple","green","blue","red","yellow"],"door_color_assignment":["white","black"],"door_generator_assignment":[0,1],"goal":2,"start":0,"action_noise":0.2,"location_history":"[0,5,4,3,2]","action_history":"[1,0,0,1]","door_history":"[1,0,0,1]","location_rts":"[2314,493,1178,422]","trial_type":"two-door-navigation","trial_index":85,"time_elapsed":1424596,"internal_node_id":"0.0-2.0-83.0"},{"group":"hexagon_bi","room_assignment":["grey","purple","green","blue","red","yellow"],"door_color_assignment":["white","black"],"door_generator_assignment":[0,1],"goal":0,"start":2,"action_noise":0.2,"location_history":"[2,3,4,3,2,3,4,3,2,1,2,3,2,3,4,3,4,5,0]","action_history":"[1,0,0,1,1,0,0,1,1,0,0,1,1,0,1,0,1,0]","door_history":"[1,0,0,1,1,0,0,1,1,0,0,1,1,0,1,0,1,0]","location_rts":"[7116,673,327,396,773,384,644,620,713,352,730,370,368,418,350,381,297,309]","trial_type":"two-door-navigation","trial_index":86,"time_elapsed":1461439,"internal_node_id":"0.0-2.0-84.0"},{"group":"hexagon_bi","room_assignment":["grey","purple","green","blue","red","yellow"],"door_color_assignment":["white","black"],"door_generator_assignment":[0,1],"goal":5,"start":0,"action_noise":0.2,"location_history":"[0,5]","action_history":"[0]","door_history":"[0]","location_rts":"[3130]","trial_type":"two-door-navigation","trial_index":87,"time_elapsed":1469075,"internal_node_id":"0.0-2.0-85.0"},{"group":"hexagon_bi","room_assignment":["grey","purple","green","blue","red","yellow"],"door_color_assignment":["white","black"],"door_generator_assignment":[0,1],"goal":1,"start":5,"action_noise":0.2,"location_history":"[5,4,3,2,1]","action_history":"[1,0,1,1]","door_history":"[1,0,1,1]","location_rts":"[6514,664,389,306]","trial_type":"two-door-navigation","trial_index":88,"time_elapsed":1484469,"internal_node_id":"0.0-2.0-86.0"},{"group":"hexagon_bi","room_assignment":["grey","purple","green","blue","red","yellow"],"door_color_assignment":["white","black"],"door_generator_assignment":[0,1],"goal":4,"start":1,"action_noise":0.2,"location_history":"[1,2,1,0,1,0,1,2,3,4]","action_history":"[0,0,1,0,1,1,0,1,0]","door_history":"[0,0,1,0,1,1,0,1,0]","location_rts":"[1325,557,503,533,505,384,411,326,548]","trial_type":"two-door-navigation","trial_index":89,"time_elapsed":1502118,"internal_node_id":"0.0-2.0-87.0"},{"group":"hexagon_bi","room_assignment":["grey","purple","green","blue","red","yellow"],"door_color_assignment":["white","black"],"door_generator_assignment":[0,1],"goal":3,"start":4,"action_noise":0.2,"location_history":"[4,3]","action_history":"[1]","door_history":"[1]","location_rts":"[2051]","trial_type":"two-door-navigation","trial_index":90,"time_elapsed":1508676,"internal_node_id":"0.0-2.0-88.0"},{"group":"hexagon_bi","room_assignment":["grey","purple","green","blue","red","yellow"],"door_color_assignment":["white","black"],"door_generator_assignment":[0,1],"goal":5,"start":3,"action_noise":0.2,"location_history":"[3,4,3,4,3,4,3,2,1,2,3,4,3,4,5]","action_history":"[0,1,0,1,0,0,1,0,0,1,0,0,1,1]","door_history":"[0,1,0,1,0,0,1,0,0,1,0,0,1,1]","location_rts":"[1241,430,227,311,418,825,414,398,2293,542,394,942,921,641]","trial_type":"two-door-navigation","trial_index":91,"time_elapsed":1536265,"internal_node_id":"0.0-2.0-89.0"},{"group":"hexagon_bi","room_assignment":["grey","purple","green","blue","red","yellow"],"door_color_assignment":["white","black"],"door_generator_assignment":[0,1],"goal":1,"start":5,"action_noise":0.2,"location_history":"[5,4,3,2,1]","action_history":"[1,0,1,1]","door_history":"[1,0,1,1]","location_rts":"[313250,448,273,419]","trial_type":"two-door-navigation","trial_index":92,"time_elapsed":1858179,"internal_node_id":"0.0-2.0-90.0"},{"group":"hexagon_bi","room_assignment":["grey","purple","green","blue","red","yellow"],"door_color_assignment":["white","black"],"door_generator_assignment":[0,1],"goal":2,"start":1,"action_noise":0.2,"location_history":"[1,2]","action_history":"[0]","door_history":"[0]","location_rts":"[153057]","trial_type":"two-door-navigation","trial_index":93,"time_elapsed":2015755,"internal_node_id":"0.0-2.0-91.0"},{"group":"hexagon_bi","room_assignment":["grey","purple","green","blue","red","yellow"],"door_color_assignment":["white","black"],"door_generator_assignment":[0,1],"goal":4,"start":2,"action_noise":0.2,"location_history":"[2,1,2,1,0,1,2,1,0,1,2,1,0,5,0,1,2,3,4]","action_history":"[1,0,0,1,1,0,0,1,1,0,0,1,0,0,1,0,1,0]","door_history":"[1,0,0,1,1,0,0,1,1,0,0,1,0,0,1,0,1,0]","location_rts":"[3244,677,563,429,3490,1028,335,399,1518,274,309,353,793,478,813,389,276,331]","trial_type":"two-door-navigation","trial_index":94,"time_elapsed":2053090,"internal_node_id":"0.0-2.0-92.0"},{"group":"hexagon_bi","room_assignment":["grey","purple","green","blue","red","yellow"],"door_color_assignment":["white","black"],"door_generator_assignment":[0,1],"goal":0,"start":4,"action_noise":0.2,"location_history":"[4,5,0]","action_history":"[1,0]","door_history":"[1,0]","location_rts":"[5036,363]","trial_type":"two-door-navigation","trial_index":95,"time_elapsed":2063999,"internal_node_id":"0.0-2.0-93.0"},{"group":"hexagon_bi","room_assignment":["grey","purple","green","blue","red","yellow"],"door_color_assignment":["white","black"],"door_generator_assignment":[0,1],"goal":3,"start":0,"action_noise":0.2,"location_history":"[0,1,0,5,0,1,0,5,4,5,0,5,4,3]","action_history":"[0,1,0,1,1,1,0,0,1,0,0,1,1]","door_history":"[0,1,0,1,1,1,0,0,1,0,0,1,1]","location_rts":"[3590,550,335,906,712,469,341,600,624,787,391,365,1552]","trial_type":"two-door-navigation","trial_index":96,"time_elapsed":2091799,"internal_node_id":"0.0-2.0-94.0"},{"group":"hexagon_bi","room_assignment":["grey","purple","green","blue","red","yellow"],"door_color_assignment":["white","black"],"door_generator_assignment":[0,1],"goal":0,"start":3,"action_noise":0.2,"location_history":"[3,2,1,2,3,4,3,2,1,2,3,2,1,0]","action_history":"[1,0,0,1,0,0,1,0,0,1,1,0,0]","door_history":"[1,0,0,1,0,0,1,0,0,1,1,0,0]","location_rts":"[1862,372,406,530,274,331,456,302,262,420,460,306,255]","trial_type":"two-door-navigation","trial_index":97,"time_elapsed":2114597,"internal_node_id":"0.0-2.0-95.0"},{"group":"hexagon_bi","room_assignment":["grey","purple","green","blue","red","yellow"],"door_color_assignment":["white","black"],"door_generator_assignment":[0,1],"goal":4,"start":0,"action_noise":0.2,"location_history":"[0,5,0,1,0,1,0,1,0,1,0,5,4]","action_history":"[1,0,1,1,0,1,1,0,1,1,0,1]","door_history":"[1,0,1,1,0,1,1,0,1,1,0,1]","location_rts":"[2013,254,279,491,232,404,283,228,349,339,171,426]","trial_type":"two-door-navigation","trial_index":98,"time_elapsed":2135647,"internal_node_id":"0.0-2.0-96.0"},{"group":"hexagon_bi","room_assignment":["grey","purple","green","blue","red","yellow"],"door_color_assignment":["white","black"],"door_generator_assignment":[0,1],"goal":5,"start":4,"action_noise":0.2,"location_history":"[4,3,2,1,2,3,2,1,2,1,2,1,0,5]","action_history":"[0,1,1,0,1,1,1,0,1,0,0,0,1]","door_history":"[0,1,1,0,1,1,1,0,1,0,0,0,1]","location_rts":"[6333,1578,870,318,543,343,1310,694,565,948,589,1273,1204]","trial_type":"two-door-navigation","trial_index":99,"time_elapsed":2168792,"internal_node_id":"0.0-2.0-97.0"},{"group":"hexagon_bi","room_assignment":["grey","purple","green","blue","red","yellow"],"door_color_assignment":["white","black"],"door_generator_assignment":[0,1],"goal":2,"start":5,"action_noise":0.2,"location_history":"[5,0,1,2]","action_history":"[0,1,0]","door_history":"[0,1,0]","location_rts":"[1444,374,302]","trial_type":"two-door-navigation","trial_index":100,"time_elapsed":2177439,"internal_node_id":"0.0-2.0-98.0"},{"group":"hexagon_bi","room_assignment":["grey","purple","green","blue","red","yellow"],"door_color_assignment":["white","black"],"door_generator_assignment":[0,1],"goal":1,"start":2,"action_noise":0.2,"location_history":"[2,3,2,3,2,1]","action_history":"[1,0,1,1,0]","door_history":"[1,0,1,1,0]","location_rts":"[2909,1507,301,508,248]","trial_type":"two-door-navigation","trial_index":101,"time_elapsed":2191448,"internal_node_id":"0.0-2.0-99.0"},{"view_history":"[{\"page_index\":0,\"viewing_time\":67036}]","rt":67038,"trial_type":"instructions","trial_index":102,"time_elapsed":2259858,"internal_node_id":"0.0-3.0"},{"view_history":"[{\"page_index\":0,\"viewing_time\":2996},{\"page_index\":1,\"viewing_time\":7770}]","rt":10766,"trial_type":"instructions","trial_index":103,"time_elapsed":2271625,"internal_node_id":"0.0-4.0"},{"group":"hexagon_bi","fractal_assignment":["../images/pnk_blu.png","../images/org_blu.png","../images/ylw_slt.png","../images/cyn_red.png","../images/blu_wht.png","../images/gry_blk.png"],"mutagen_generator_assignment":[1,0],"goal":2,"start":1,"action_noise":0.2,"location_history":"[1,0,5,0,1,2]","action_history":"[1,0,0,1,1]","mutagen_history":"[0,1,1,0,0]","location_rts":"[17560,758,1495,12,430]","trial_type":"fractal-mutation","trial_index":104,"time_elapsed":2300418,"internal_node_id":"0.0-5.0-0.0"},{"group":"hexagon_bi","fractal_assignment":["../images/pnk_blu.png","../images/org_blu.png","../images/ylw_slt.png","../images/cyn_red.png","../images/blu_wht.png","../images/gry_blk.png"],"mutagen_generator_assignment":[1,0],"goal":0,"start":2,"action_noise":0.2,"location_history":"[2,1,0]","action_history":"[0,1]","mutagen_history":"[1,0]","location_rts":"[3270,962]","trial_type":"fractal-mutation","trial_index":105,"time_elapsed":2310171,"internal_node_id":"0.0-5.0-1.0"},{"group":"hexagon_bi","fractal_assignment":["../images/pnk_blu.png","../images/org_blu.png","../images/ylw_slt.png","../images/cyn_red.png","../images/blu_wht.png","../images/gry_blk.png"],"mutagen_generator_assignment":[1,0],"goal":5,"start":0,"action_noise":0.2,"location_history":"[0,5]","action_history":"[1]","mutagen_history":"[0]","location_rts":"[1783]","trial_type":"fractal-mutation","trial_index":106,"time_elapsed":2316458,"internal_node_id":"0.0-5.0-2.0"},{"group":"hexagon_bi","fractal_assignment":["../images/pnk_blu.png","../images/org_blu.png","../images/ylw_slt.png","../images/cyn_red.png","../images/blu_wht.png","../images/gry_blk.png"],"mutagen_generator_assignment":[1,0],"goal":3,"start":5,"action_noise":0.2,"location_history":"[5,0,5,4,5,4,3]","action_history":"[0,0,1,1,1,0]","mutagen_history":"[1,1,0,0,0,1]","location_rts":"[1102,1094,499,1551,495,1076]","trial_type":"fractal-mutation","trial_index":107,"time_elapsed":2331803,"internal_node_id":"0.0-5.0-3.0"},{"group":"hexagon_bi","fractal_assignment":["../images/pnk_blu.png","../images/org_blu.png","../images/ylw_slt.png","../images/cyn_red.png","../images/blu_wht.png","../images/gry_blk.png"],"mutagen_generator_assignment":[1,0],"goal":4,"start":3,"action_noise":0.2,"location_history":"[3,2,3,4]","action_history":"[1,1,0]","mutagen_history":"[0,0,1]","location_rts":"[3363,540,398]","trial_type":"fractal-mutation","trial_index":108,"time_elapsed":2342613,"internal_node_id":"0.0-5.0-4.0"},{"group":"hexagon_bi","fractal_assignment":["../images/pnk_blu.png","../images/org_blu.png","../images/ylw_slt.png","../images/cyn_red.png","../images/blu_wht.png","../images/gry_blk.png"],"mutagen_generator_assignment":[1,0],"goal":0,"start":4,"action_noise":0.2,"location_history":"[4,3,4,3,2,3,2,1,0]","action_history":"[0,0,0,1,1,1,0,0]","mutagen_history":"[1,1,1,0,0,0,1,1]","location_rts":"[3897,861,627,578,982,660,519,1372]","trial_type":"fractal-mutation","trial_index":109,"time_elapsed":2363633,"internal_node_id":"0.0-5.0-5.0"},{"group":"hexagon_bi","fractal_assignment":["../images/pnk_blu.png","../images/org_blu.png","../images/ylw_slt.png","../images/cyn_red.png","../images/blu_wht.png","../images/gry_blk.png"],"mutagen_generator_assignment":[1,0],"goal":4,"start":0,"action_noise":0.2,"location_history":"[0,1,2,1,2,3,4]","action_history":"[1,0,0,0,1,0]","mutagen_history":"[0,1,1,1,0,1]","location_rts":"[2854,570,529,1176,405,858]","trial_type":"fractal-mutation","trial_index":110,"time_elapsed":2379550,"internal_node_id":"0.0-5.0-6.0"},{"group":"hexagon_bi","fractal_assignment":["../images/pnk_blu.png","../images/org_blu.png","../images/ylw_slt.png","../images/cyn_red.png","../images/blu_wht.png","../images/gry_blk.png"],"mutagen_generator_assignment":[1,0],"goal":3,"start":4,"action_noise":0.2,"location_history":"[4,3]","action_history":"[0]","mutagen_history":"[1]","location_rts":"[2205]","trial_type":"fractal-mutation","trial_index":111,"time_elapsed":2386261,"internal_node_id":"0.0-5.0-7.0"},{"group":"hexagon_bi","fractal_assignment":["../images/pnk_blu.png","../images/org_blu.png","../images/ylw_slt.png","../images/cyn_red.png","../images/blu_wht.png","../images/gry_blk.png"],"mutagen_generator_assignment":[1,0],"goal":2,"start":3,"action_noise":0.2,"location_history":"[3,4,3,4,5,0,5,0,5,4,3,4,3,2]","action_history":"[0,0,0,1,0,0,1,0,1,0,1,0,1]","mutagen_history":"[1,1,1,0,1,1,0,1,0,1,0,1,0]","location_rts":"[1258,691,716,343,449,974,478,420,694,484,763,432,530]","trial_type":"fractal-mutation","trial_index":112,"time_elapsed":2411048,"internal_node_id":"0.0-5.0-8.0"},{"group":"hexagon_bi","fractal_assignment":["../images/pnk_blu.png","../images/org_blu.png","../images/ylw_slt.png","../images/cyn_red.png","../images/blu_wht.png","../images/gry_blk.png"],"mutagen_generator_assignment":[1,0],"goal":1,"start":2,"action_noise":0.2,"location_history":"[2,1]","action_history":"[0]","mutagen_history":"[1]","location_rts":"[1390]","trial_type":"fractal-mutation","trial_index":113,"time_elapsed":2416943,"internal_node_id":"0.0-5.0-9.0"},{"group":"hexagon_bi","fractal_assignment":["../images/pnk_blu.png","../images/org_blu.png","../images/ylw_slt.png","../images/cyn_red.png","../images/blu_wht.png","../images/gry_blk.png"],"mutagen_generator_assignment":[1,0],"goal":5,"start":1,"action_noise":0.2,"location_history":"[1,2,1,0,5]","action_history":"[0,0,1,0]","mutagen_history":"[1,1,0,1]","location_rts":"[3014,781,443,596]","trial_type":"fractal-mutation","trial_index":114,"time_elapsed":2429304,"internal_node_id":"0.0-5.0-10.0"},{"group":"hexagon_bi","fractal_assignment":["../images/pnk_blu.png","../images/org_blu.png","../images/ylw_slt.png","../images/cyn_red.png","../images/blu_wht.png","../images/gry_blk.png"],"mutagen_generator_assignment":[1,0],"goal":0,"start":5,"action_noise":0.2,"location_history":"[5,4,3,2,3,4,3,2,3,2,3,4,5,4,3,4,3,4,5,0]","action_history":"[1,0,0,1,0,0,1,0,1,1,0,0,1,0,0,0,0,1,0]","mutagen_history":"[0,1,1,0,1,1,0,1,0,0,1,1,0,1,1,1,1,0,1]","location_rts":"[2570,779,579,352,506,575,493,724,475,691,515,478,518,486,477,448,670,383,728]","trial_type":"fractal-mutation","trial_index":115,"time_elapsed":2464336,"internal_node_id":"0.0-5.0-11.0"},{"group":"hexagon_bi","fractal_assignment":["../images/pnk_blu.png","../images/org_blu.png","../images/ylw_slt.png","../images/cyn_red.png","../images/blu_wht.png","../images/gry_blk.png"],"mutagen_generator_assignment":[1,0],"goal":4,"start":0,"action_noise":0.2,"location_history":"[0,1,2,1,2,3,2,3,4]","action_history":"[1,0,0,1,1,1,1,0]","mutagen_history":"[0,1,1,0,0,0,0,1]","location_rts":"[3661,495,575,521,519,3221,517,396]","trial_type":"fractal-mutation","trial_index":116,"time_elapsed":2485769,"internal_node_id":"0.0-5.0-12.0"},{"group":"hexagon_bi","fractal_assignment":["../images/pnk_blu.png","../images/org_blu.png","../images/ylw_slt.png","../images/cyn_red.png","../images/blu_wht.png","../images/gry_blk.png"],"mutagen_generator_assignment":[1,0],"goal":2,"start":4,"action_noise":0.2,"location_history":"[4,3,2]","action_history":"[0,1]","mutagen_history":"[1,0]","location_rts":"[1449,580]","trial_type":"fractal-mutation","trial_index":117,"time_elapsed":2493307,"internal_node_id":"0.0-5.0-13.0"},{"group":"hexagon_bi","fractal_assignment":["../images/pnk_blu.png","../images/org_blu.png","../images/ylw_slt.png","../images/cyn_red.png","../images/blu_wht.png","../images/gry_blk.png"],"mutagen_generator_assignment":[1,0],"goal":1,"start":2,"action_noise":0.2,"location_history":"[2,3,4,3,2,1]","action_history":"[0,1,0,1,0]","mutagen_history":"[1,0,1,0,1]","location_rts":"[1283,947,460,479,533]","trial_type":"fractal-mutation","trial_index":118,"time_elapsed":2505525,"internal_node_id":"0.0-5.0-14.0"},{"group":"hexagon_bi","fractal_assignment":["../images/pnk_blu.png","../images/org_blu.png","../images/ylw_slt.png","../images/cyn_red.png","../images/blu_wht.png","../images/gry_blk.png"],"mutagen_generator_assignment":[1,0],"goal":3,"start":1,"action_noise":0.2,"location_history":"[1,0,1,2,1,0,5,0,1,0,5,4,3]","action_history":"[0,1,0,0,1,1,0,1,1,0,1,0]","mutagen_history":"[1,0,1,1,0,0,1,0,0,1,0,1]","location_rts":"[2914,773,455,497,613,479,701,660,449,749,525,961]","trial_type":"fractal-mutation","trial_index":119,"time_elapsed":2530836,"internal_node_id":"0.0-5.0-15.0"},{"group":"hexagon_bi","fractal_assignment":["../images/pnk_blu.png","../images/org_blu.png","../images/ylw_slt.png","../images/cyn_red.png","../images/blu_wht.png","../images/gry_blk.png"],"mutagen_generator_assignment":[1,0],"goal":5,"start":3,"action_noise":0.2,"location_history":"[3,2,1,2,3,4,3,4,5]","action_history":"[1,0,0,1,1,0,0,1]","mutagen_history":"[0,1,1,0,0,1,1,0]","location_rts":"[6325,538,528,538,792,556,671,453]","trial_type":"fractal-mutation","trial_index":120,"time_elapsed":2552818,"internal_node_id":"0.0-5.0-16.0"},{"group":"hexagon_bi","fractal_assignment":["../images/pnk_blu.png","../images/org_blu.png","../images/ylw_slt.png","../images/cyn_red.png","../images/blu_wht.png","../images/gry_blk.png"],"mutagen_generator_assignment":[1,0],"goal":0,"start":5,"action_noise":0.2,"location_history":"[5,0]","action_history":"[0]","mutagen_history":"[1]","location_rts":"[1112]","trial_type":"fractal-mutation","trial_index":121,"time_elapsed":2558450,"internal_node_id":"0.0-5.0-17.0"},{"group":"hexagon_bi","fractal_assignment":["../images/pnk_blu.png","../images/org_blu.png","../images/ylw_slt.png","../images/cyn_red.png","../images/blu_wht.png","../images/gry_blk.png"],"mutagen_generator_assignment":[1,0],"goal":5,"start":0,"action_noise":0.2,"location_history":"[0,5]","action_history":"[0]","mutagen_history":"[1]","location_rts":"[1559]","trial_type":"fractal-mutation","trial_index":122,"time_elapsed":2564515,"internal_node_id":"0.0-5.0-18.0"},{"group":"hexagon_bi","fractal_assignment":["../images/pnk_blu.png","../images/org_blu.png","../images/ylw_slt.png","../images/cyn_red.png","../images/blu_wht.png","../images/gry_blk.png"],"mutagen_generator_assignment":[1,0],"goal":3,"start":5,"action_noise":0.2,"location_history":"[5,4,3]","action_history":"[1,0]","mutagen_history":"[0,1]","location_rts":"[1366,1259]","trial_type":"fractal-mutation","trial_index":123,"time_elapsed":2572648,"internal_node_id":"0.0-5.0-19.0"},{"group":"hexagon_bi","fractal_assignment":["../images/pnk_blu.png","../images/org_blu.png","../images/ylw_slt.png","../images/cyn_red.png","../images/blu_wht.png","../images/gry_blk.png"],"mutagen_generator_assignment":[1,0],"goal":4,"start":3,"action_noise":0.2,"location_history":"[3,4]","action_history":"[0]","mutagen_history":"[1]","location_rts":"[856]","trial_type":"fractal-mutation","trial_index":124,"time_elapsed":2578009,"internal_node_id":"0.0-5.0-20.0"},{"group":"hexagon_bi","fractal_assignment":["../images/pnk_blu.png","../images/org_blu.png","../images/ylw_slt.png","../images/cyn_red.png","../images/blu_wht.png","../images/gry_blk.png"],"mutagen_generator_assignment":[1,0],"goal":1,"start":4,"action_noise":0.2,"location_history":"[4,3,2,1]","action_history":"[0,0,1]","mutagen_history":"[1,1,0]","location_rts":"[1376,584,750]","trial_type":"fractal-mutation","trial_index":125,"time_elapsed":2587269,"internal_node_id":"0.0-5.0-21.0"},{"group":"hexagon_bi","fractal_assignment":["../images/pnk_blu.png","../images/org_blu.png","../images/ylw_slt.png","../images/cyn_red.png","../images/blu_wht.png","../images/gry_blk.png"],"mutagen_generator_assignment":[1,0],"goal":2,"start":1,"action_noise":0.2,"location_history":"[1,0,1,2]","action_history":"[0,1,0]","mutagen_history":"[1,0,1]","location_rts":"[1062,656,452]","trial_type":"fractal-mutation","trial_index":126,"time_elapsed":2595952,"internal_node_id":"0.0-5.0-22.0"},{"group":"hexagon_bi","fractal_assignment":["../images/pnk_blu.png","../images/org_blu.png","../images/ylw_slt.png","../images/cyn_red.png","../images/blu_wht.png","../images/gry_blk.png"],"mutagen_generator_assignment":[1,0],"goal":3,"start":2,"action_noise":0.2,"location_history":"[2,1,2,3]","action_history":"[0,0,1]","mutagen_history":"[1,1,0]","location_rts":"[1004,1012,609]","trial_type":"fractal-mutation","trial_index":127,"time_elapsed":2605088,"internal_node_id":"0.0-5.0-23.0"},{"group":"hexagon_bi","fractal_assignment":["../images/pnk_blu.png","../images/org_blu.png","../images/ylw_slt.png","../images/cyn_red.png","../images/blu_wht.png","../images/gry_blk.png"],"mutagen_generator_assignment":[1,0],"goal":5,"start":3,"action_noise":0.2,"location_history":"[3,4,3,4,5]","action_history":"[0,1,0,1]","mutagen_history":"[1,0,1,0]","location_rts":"[1222,1187,623,733]","trial_type":"fractal-mutation","trial_index":128,"time_elapsed":2616376,"internal_node_id":"0.0-5.0-24.0"},{"group":"hexagon_bi","fractal_assignment":["../images/pnk_blu.png","../images/org_blu.png","../images/ylw_slt.png","../images/cyn_red.png","../images/blu_wht.png","../images/gry_blk.png"],"mutagen_generator_assignment":[1,0],"goal":4,"start":5,"action_noise":0.2,"location_history":"[5,4]","action_history":"[1]","mutagen_history":"[0]","location_rts":"[1737]","trial_type":"fractal-mutation","trial_index":129,"time_elapsed":2622617,"internal_node_id":"0.0-5.0-25.0"},{"group":"hexagon_bi","fractal_assignment":["../images/pnk_blu.png","../images/org_blu.png","../images/ylw_slt.png","../images/cyn_red.png","../images/blu_wht.png","../images/gry_blk.png"],"mutagen_generator_assignment":[1,0],"goal":0,"start":4,"action_noise":0.2,"location_history":"[4,3,2,1,2,3,4,3,2,1,0]","action_history":"[0,1,0,0,1,0,0,1,1,0]","mutagen_history":"[1,0,1,1,0,1,1,0,0,1]","location_rts":"[4582,1120,650,643,746,930,567,421,552,758]","trial_type":"fractal-mutation","trial_index":130,"time_elapsed":2647123,"internal_node_id":"0.0-5.0-26.0"},{"group":"hexagon_bi","fractal_assignment":["../images/pnk_blu.png","../images/org_blu.png","../images/ylw_slt.png","../images/cyn_red.png","../images/blu_wht.png","../images/gry_blk.png"],"mutagen_generator_assignment":[1,0],"goal":2,"start":0,"action_noise":0.2,"location_history":"[0,5,0,5,4,5,4,3,2]","action_history":"[0,0,0,1,0,1,0,1]","mutagen_history":"[1,1,1,0,1,0,1,0]","location_rts":"[5381,809,615,387,539,412,487,746]","trial_type":"fractal-mutation","trial_index":131,"time_elapsed":2668121,"internal_node_id":"0.0-5.0-27.0"},{"group":"hexagon_bi","fractal_assignment":["../images/pnk_blu.png","../images/org_blu.png","../images/ylw_slt.png","../images/cyn_red.png","../images/blu_wht.png","../images/gry_blk.png"],"mutagen_generator_assignment":[1,0],"goal":1,"start":2,"action_noise":0.2,"location_history":"[2,1]","action_history":"[1]","mutagen_history":"[0]","location_rts":"[3551]","trial_type":"fractal-mutation","trial_index":132,"time_elapsed":2676190,"internal_node_id":"0.0-5.0-28.0"},{"group":"hexagon_bi","fractal_assignment":["../images/pnk_blu.png","../images/org_blu.png","../images/ylw_slt.png","../images/cyn_red.png","../images/blu_wht.png","../images/gry_blk.png"],"mutagen_generator_assignment":[1,0],"goal":0,"start":1,"action_noise":0.2,"location_history":"[1,2,3,2,1,0]","action_history":"[0,1,1,0,1]","mutagen_history":"[1,0,0,1,0]","location_rts":"[1793,653,940,334,409]","trial_type":"fractal-mutation","trial_index":133,"time_elapsed":2688920,"internal_node_id":"0.0-5.0-29.0"},{"group":"hexagon_bi","fractal_assignment":["../images/pnk_blu.png","../images/org_blu.png","../images/ylw_slt.png","../images/cyn_red.png","../images/blu_wht.png","../images/gry_blk.png"],"mutagen_generator_assignment":[1,0],"goal":2,"start":0,"action_noise":0.2,"location_history":"[0,1,2]","action_history":"[1,0]","mutagen_history":"[0,1]","location_rts":"[4409,538]","trial_type":"fractal-mutation","trial_index":134,"time_elapsed":2699394,"internal_node_id":"0.0-5.0-30.0"},{"group":"hexagon_bi","fractal_assignment":["../images/pnk_blu.png","../images/org_blu.png","../images/ylw_slt.png","../images/cyn_red.png","../images/blu_wht.png","../images/gry_blk.png"],"mutagen_generator_assignment":[1,0],"goal":4,"start":2,"action_noise":0.2,"location_history":"[2,3,4]","action_history":"[0,0]","mutagen_history":"[1,1]","location_rts":"[1379,482]","trial_type":"fractal-mutation","trial_index":135,"time_elapsed":2706762,"internal_node_id":"0.0-5.0-31.0"},{"group":"hexagon_bi","fractal_assignment":["../images/pnk_blu.png","../images/org_blu.png","../images/ylw_slt.png","../images/cyn_red.png","../images/blu_wht.png","../images/gry_blk.png"],"mutagen_generator_assignment":[1,0],"goal":1,"start":4,"action_noise":0.2,"location_history":"[4,3,2,3,2,1]","action_history":"[0,0,0,1,0]","mutagen_history":"[1,1,1,0,1]","location_rts":"[3073,863,622,590,491]","trial_type":"fractal-mutation","trial_index":136,"time_elapsed":2720923,"internal_node_id":"0.0-5.0-32.0"},{"group":"hexagon_bi","fractal_assignment":["../images/pnk_blu.png","../images/org_blu.png","../images/ylw_slt.png","../images/cyn_red.png","../images/blu_wht.png","../images/gry_blk.png"],"mutagen_generator_assignment":[1,0],"goal":3,"start":1,"action_noise":0.2,"location_history":"[1,2,1,0,5,4,3]","action_history":"[0,0,1,0,1,0]","mutagen_history":"[1,1,0,1,0,1]","location_rts":"[1759,437,319,492,512,923]","trial_type":"fractal-mutation","trial_index":137,"time_elapsed":2734881,"internal_node_id":"0.0-5.0-33.0"},{"group":"hexagon_bi","fractal_assignment":["../images/pnk_blu.png","../images/org_blu.png","../images/ylw_slt.png","../images/cyn_red.png","../images/blu_wht.png","../images/gry_blk.png"],"mutagen_generator_assignment":[1,0],"goal":5,"start":3,"action_noise":0.2,"location_history":"[3,4,5]","action_history":"[0,1]","mutagen_history":"[1,0]","location_rts":"[1509,543]","trial_type":"fractal-mutation","trial_index":138,"time_elapsed":2742442,"internal_node_id":"0.0-5.0-34.0"},{"group":"hexagon_bi","fractal_assignment":["../images/pnk_blu.png","../images/org_blu.png","../images/ylw_slt.png","../images/cyn_red.png","../images/blu_wht.png","../images/gry_blk.png"],"mutagen_generator_assignment":[1,0],"goal":2,"start":5,"action_noise":0.2,"location_history":"[5,0,1,2]","action_history":"[0,1,1]","mutagen_history":"[1,0,0]","location_rts":"[878,527,582]","trial_type":"fractal-mutation","trial_index":139,"time_elapsed":2750934,"internal_node_id":"0.0-5.0-35.0"},{"group":"hexagon_bi","fractal_assignment":["../images/pnk_blu.png","../images/org_blu.png","../images/ylw_slt.png","../images/cyn_red.png","../images/blu_wht.png","../images/gry_blk.png"],"mutagen_generator_assignment":[1,0],"goal":0,"start":2,"action_noise":0.2,"location_history":"[2,3,2,3,4,3,2,1,0]","action_history":"[0,1,1,0,0,1,0,0]","mutagen_history":"[1,0,0,1,1,0,1,1]","location_rts":"[869,641,402,444,461,407,912,637]","trial_type":"fractal-mutation","trial_index":140,"time_elapsed":2767240,"internal_node_id":"0.0-5.0-36.0"},{"group":"hexagon_bi","fractal_assignment":["../images/pnk_blu.png","../images/org_blu.png","../images/ylw_slt.png","../images/cyn_red.png","../images/blu_wht.png","../images/gry_blk.png"],"mutagen_generator_assignment":[1,0],"goal":4,"start":0,"action_noise":0.2,"location_history":"[0,1,2,1,0,1,2,1,0,1,2,1,2,1,0,5,4]","action_history":"[0,1,0,1,1,0,0,1,0,1,1,0,0,1,0,0]","mutagen_history":"[1,0,1,0,0,1,1,0,1,0,0,1,1,0,1,1]","location_rts":"[1366,543,477,636,988,562,596,566,696,562,547,461,516,555,544,1285]","trial_type":"fractal-mutation","trial_index":141,"time_elapsed":2797716,"internal_node_id":"0.0-5.0-37.0"},{"group":"hexagon_bi","fractal_assignment":["../images/pnk_blu.png","../images/org_blu.png","../images/ylw_slt.png","../images/cyn_red.png","../images/blu_wht.png","../images/gry_blk.png"],"mutagen_generator_assignment":[1,0],"goal":5,"start":4,"action_noise":0.2,"location_history":"[4,5]","action_history":"[1]","mutagen_history":"[0]","location_rts":"[2883]","trial_type":"fractal-mutation","trial_index":142,"time_elapsed":2805105,"internal_node_id":"0.0-5.0-38.0"},{"group":"hexagon_bi","fractal_assignment":["../images/pnk_blu.png","../images/org_blu.png","../images/ylw_slt.png","../images/cyn_red.png","../images/blu_wht.png","../images/gry_blk.png"],"mutagen_generator_assignment":[1,0],"goal":1,"start":5,"action_noise":0.2,"location_history":"[5,0,5,4,3,4,5,0,1]","action_history":"[0,0,1,0,0,1,0,1]","mutagen_history":"[1,1,0,1,1,0,1,0]","location_rts":"[4601,460,424,568,446,388,645,460]","trial_type":"fractal-mutation","trial_index":143,"time_elapsed":2824636,"internal_node_id":"0.0-5.0-39.0"},{"group":"hexagon_bi","fractal_assignment":["../images/pnk_blu.png","../images/org_blu.png","../images/ylw_slt.png","../images/cyn_red.png","../images/blu_wht.png","../images/gry_blk.png"],"mutagen_generator_assignment":[1,0],"goal":3,"start":1,"action_noise":0.2,"location_history":"[1,2,3]","action_history":"[0,1]","mutagen_history":"[1,0]","location_rts":"[1698,3006]","trial_type":"fractal-mutation","trial_index":144,"time_elapsed":2834846,"internal_node_id":"0.0-5.0-40.0"},{"group":"hexagon_bi","fractal_assignment":["../images/pnk_blu.png","../images/org_blu.png","../images/ylw_slt.png","../images/cyn_red.png","../images/blu_wht.png","../images/gry_blk.png"],"mutagen_generator_assignment":[1,0],"goal":1,"start":3,"action_noise":0.2,"location_history":"[3,2,3,4,3,4,5,4,3,4,5,0,5,4,3,2,3,4,3,2,1]","action_history":"[0,1,0,1,0,0,1,0,0,1,0,0,1,0,1,1,0,0,1,0]","mutagen_history":"[1,0,1,0,1,1,0,1,1,0,1,1,0,1,0,0,1,1,0,1]","location_rts":"[1951,602,525,1585,475,507,853,434,471,447,483,714,389,508,446,793,498,431,668,873]","trial_type":"fractal-mutation","trial_index":145,"time_elapsed":2872073,"internal_node_id":"0.0-5.0-41.0"},{"group":"hexagon_bi","fractal_assignment":["../images/pnk_blu.png","../images/org_blu.png","../images/ylw_slt.png","../images/cyn_red.png","../images/blu_wht.png","../images/gry_blk.png"],"mutagen_generator_assignment":[1,0],"goal":0,"start":1,"action_noise":0.2,"location_history":"[1,0]","action_history":"[1]","mutagen_history":"[0]","location_rts":"[1814]","trial_type":"fractal-mutation","trial_index":146,"time_elapsed":2878392,"internal_node_id":"0.0-5.0-42.0"},{"group":"hexagon_bi","fractal_assignment":["../images/pnk_blu.png","../images/org_blu.png","../images/ylw_slt.png","../images/cyn_red.png","../images/blu_wht.png","../images/gry_blk.png"],"mutagen_generator_assignment":[1,0],"goal":4,"start":0,"action_noise":0.2,"location_history":"[0,1,0,1,2,1,2,1,2,3,2,3,4]","action_history":"[0,1,1,0,0,1,0,1,1,0,1,0]","mutagen_history":"[1,0,0,1,1,0,1,0,0,1,0,1]","location_rts":"[1261,479,1060,346,548,499,417,624,518,1065,603,827]","trial_type":"fractal-mutation","trial_index":147,"time_elapsed":2902185,"internal_node_id":"0.0-5.0-43.0"},{"group":"hexagon_bi","fractal_assignment":["../images/pnk_blu.png","../images/org_blu.png","../images/ylw_slt.png","../images/cyn_red.png","../images/blu_wht.png","../images/gry_blk.png"],"mutagen_generator_assignment":[1,0],"goal":2,"start":4,"action_noise":0.2,"location_history":"[4,5,0,5,4,5,0,5,0,5,0,1,2]","action_history":"[1,0,0,1,1,0,0,0,1,1,0,1]","mutagen_history":"[0,1,1,0,0,1,1,1,0,0,1,0]","location_rts":"[6718,429,521,363,417,401,481,486,323,480,270,570]","trial_type":"fractal-mutation","trial_index":148,"time_elapsed":2929197,"internal_node_id":"0.0-5.0-44.0"},{"group":"hexagon_bi","fractal_assignment":["../images/pnk_blu.png","../images/org_blu.png","../images/ylw_slt.png","../images/cyn_red.png","../images/blu_wht.png","../images/gry_blk.png"],"mutagen_generator_assignment":[1,0],"goal":3,"start":2,"action_noise":0.2,"location_history":"[2,1,0,5,0,5,0,1,2,3]","action_history":"[0,1,0,1,0,0,1,0,1]","mutagen_history":"[1,0,1,0,1,1,0,1,0]","location_rts":"[5370,595,700,721,706,481,575,523,423]","trial_type":"fractal-mutation","trial_index":149,"time_elapsed":2951834,"internal_node_id":"0.0-5.0-45.0"},{"group":"hexagon_bi","fractal_assignment":["../images/pnk_blu.png","../images/org_blu.png","../images/ylw_slt.png","../images/cyn_red.png","../images/blu_wht.png","../images/gry_blk.png"],"mutagen_generator_assignment":[1,0],"goal":5,"start":3,"action_noise":0.2,"location_history":"[3,4,5]","action_history":"[0,1]","mutagen_history":"[1,0]","location_rts":"[1248,545]","trial_type":"fractal-mutation","trial_index":150,"time_elapsed":2959142,"internal_node_id":"0.0-5.0-46.0"},{"group":"hexagon_bi","fractal_assignment":["../images/pnk_blu.png","../images/org_blu.png","../images/ylw_slt.png","../images/cyn_red.png","../images/blu_wht.png","../images/gry_blk.png"],"mutagen_generator_assignment":[1,0],"goal":4,"start":5,"action_noise":0.2,"location_history":"[5,4]","action_history":"[0]","mutagen_history":"[1]","location_rts":"[2368]","trial_type":"fractal-mutation","trial_index":151,"time_elapsed":2966019,"internal_node_id":"0.0-5.0-47.0"},{"group":"hexagon_bi","fractal_assignment":["../images/pnk_blu.png","../images/org_blu.png","../images/ylw_slt.png","../images/cyn_red.png","../images/blu_wht.png","../images/gry_blk.png"],"mutagen_generator_assignment":[1,0],"goal":3,"start":4,"action_noise":0.2,"location_history":"[4,5,0,5,0,1,0,5,4,3]","action_history":"[0,1,0,0,1,1,0,1,0]","mutagen_history":"[1,0,1,1,0,0,1,0,1]","location_rts":"[973,526,483,398,467,710,1013,6771,652]","trial_type":"fractal-mutation","trial_index":152,"time_elapsed":2990554,"internal_node_id":"0.0-5.0-48.0"},{"group":"hexagon_bi","fractal_assignment":["../images/pnk_blu.png","../images/org_blu.png","../images/ylw_slt.png","../images/cyn_red.png","../images/blu_wht.png","../images/gry_blk.png"],"mutagen_generator_assignment":[1,0],"goal":1,"start":3,"action_noise":0.2,"location_history":"[3,4,3,4,3,4,3,2,1]","action_history":"[0,1,0,0,1,0,1,0]","mutagen_history":"[1,0,1,1,0,1,0,1]","location_rts":"[1957,451,665,600,659,493,603,479]","trial_type":"fractal-mutation","trial_index":153,"time_elapsed":3008081,"internal_node_id":"0.0-5.0-49.0"},{"group":"hexagon_bi","fractal_assignment":["../images/pnk_blu.png","../images/org_blu.png","../images/ylw_slt.png","../images/cyn_red.png","../images/blu_wht.png","../images/gry_blk.png"],"mutagen_generator_assignment":[1,0],"goal":2,"start":1,"action_noise":0.2,"location_history":"[1,0,5,4,3,2]","action_history":"[1,0,0,0,1]","mutagen_history":"[0,1,1,1,0]","location_rts":"[8741,1602,6691,3257,533]","trial_type":"fractal-mutation","trial_index":154,"time_elapsed":3037427,"internal_node_id":"0.0-5.0-50.0"},{"group":"hexagon_bi","fractal_assignment":["../images/pnk_blu.png","../images/org_blu.png","../images/ylw_slt.png","../images/cyn_red.png","../images/blu_wht.png","../images/gry_blk.png"],"mutagen_generator_assignment":[1,0],"goal":0,"start":2,"action_noise":0.2,"location_history":"[2,1,0]","action_history":"[0,1]","mutagen_history":"[1,0]","location_rts":"[678,1728]","trial_type":"fractal-mutation","trial_index":155,"time_elapsed":3045339,"internal_node_id":"0.0-5.0-51.0"},{"group":"hexagon_bi","fractal_assignment":["../images/pnk_blu.png","../images/org_blu.png","../images/ylw_slt.png","../images/cyn_red.png","../images/blu_wht.png","../images/gry_blk.png"],"mutagen_generator_assignment":[1,0],"goal":5,"start":0,"action_noise":0.2,"location_history":"[0,1,0,5]","action_history":"[0,1,0]","mutagen_history":"[1,0,1]","location_rts":"[1484,1415,1446]","trial_type":"fractal-mutation","trial_index":156,"time_elapsed":3056197,"internal_node_id":"0.0-5.0-52.0"},{"group":"hexagon_bi","fractal_assignment":["../images/pnk_blu.png","../images/org_blu.png","../images/ylw_slt.png","../images/cyn_red.png","../images/blu_wht.png","../images/gry_blk.png"],"mutagen_generator_assignment":[1,0],"goal":1,"start":5,"action_noise":0.2,"location_history":"[5,4,5,0,5,4,3,2,1]","action_history":"[1,1,0,0,1,0,1,0]","mutagen_history":"[0,0,1,1,0,1,0,1]","location_rts":"[6802,545,361,476,531,358,548,539]","trial_type":"fractal-mutation","trial_index":157,"time_elapsed":3077964,"internal_node_id":"0.0-5.0-53.0"},{"group":"hexagon_bi","fractal_assignment":["../images/pnk_blu.png","../images/org_blu.png","../images/ylw_slt.png","../images/cyn_red.png","../images/blu_wht.png","../images/gry_blk.png"],"mutagen_generator_assignment":[1,0],"goal":3,"start":1,"action_noise":0.2,"location_history":"[1,2,3]","action_history":"[0,1]","mutagen_history":"[1,0]","location_rts":"[5042,622]","trial_type":"fractal-mutation","trial_index":158,"time_elapsed":3089142,"internal_node_id":"0.0-5.0-54.0"},{"group":"hexagon_bi","fractal_assignment":["../images/pnk_blu.png","../images/org_blu.png","../images/ylw_slt.png","../images/cyn_red.png","../images/blu_wht.png","../images/gry_blk.png"],"mutagen_generator_assignment":[1,0],"goal":5,"start":3,"action_noise":0.2,"location_history":"[3,2,3,4,5]","action_history":"[0,1,0,1]","mutagen_history":"[1,0,1,0]","location_rts":"[1289,721,500,489]","trial_type":"fractal-mutation","trial_index":159,"time_elapsed":3099657,"internal_node_id":"0.0-5.0-55.0"},{"group":"hexagon_bi","fractal_assignment":["../images/pnk_blu.png","../images/org_blu.png","../images/ylw_slt.png","../images/cyn_red.png","../images/blu_wht.png","../images/gry_blk.png"],"mutagen_generator_assignment":[1,0],"goal":4,"start":5,"action_noise":0.2,"location_history":"[5,0,5,4]","action_history":"[0,0,1]","mutagen_history":"[1,1,0]","location_rts":"[12109,1107,444]","trial_type":"fractal-mutation","trial_index":160,"time_elapsed":3119831,"internal_node_id":"0.0-5.0-56.0"},{"group":"hexagon_bi","fractal_assignment":["../images/pnk_blu.png","../images/org_blu.png","../images/ylw_slt.png","../images/cyn_red.png","../images/blu_wht.png","../images/gry_blk.png"],"mutagen_generator_assignment":[1,0],"goal":0,"start":4,"action_noise":0.2,"location_history":"[4,3,2,1,2,1,2,3,2,3,4,5,0]","action_history":"[0,1,0,0,1,0,1,1,1,0,1,0]","mutagen_history":"[1,0,1,1,0,1,0,0,0,1,0,1]","location_rts":"[3151,539,475,462,764,420,586,501,479,482,536,547]","trial_type":"fractal-mutation","trial_index":161,"time_elapsed":3144324,"internal_node_id":"0.0-5.0-57.0"},{"group":"hexagon_bi","fractal_assignment":["../images/pnk_blu.png","../images/org_blu.png","../images/ylw_slt.png","../images/cyn_red.png","../images/blu_wht.png","../images/gry_blk.png"],"mutagen_generator_assignment":[1,0],"goal":2,"start":0,"action_noise":0.2,"location_history":"[0,1,2]","action_history":"[1,0]","mutagen_history":"[0,1]","location_rts":"[2833,511]","trial_type":"fractal-mutation","trial_index":162,"time_elapsed":3153177,"internal_node_id":"0.0-5.0-58.0"},{"group":"hexagon_bi","fractal_assignment":["../images/pnk_blu.png","../images/org_blu.png","../images/ylw_slt.png","../images/cyn_red.png","../images/blu_wht.png","../images/gry_blk.png"],"mutagen_generator_assignment":[1,0],"goal":4,"start":2,"action_noise":0.2,"location_history":"[2,1,0,5,0,1,2,3,4]","action_history":"[0,1,0,0,1,0,1,0]","mutagen_history":"[1,0,1,1,0,1,0,1]","location_rts":"[2051,562,534,549,526,668,619,942]","trial_type":"fractal-mutation","trial_index":163,"time_elapsed":3171158,"internal_node_id":"0.0-5.0-59.0"},{"group":"hexagon_bi","fractal_assignment":["../images/pnk_blu.png","../images/org_blu.png","../images/ylw_slt.png","../images/cyn_red.png","../images/blu_wht.png","../images/gry_blk.png"],"mutagen_generator_assignment":[1,0],"goal":2,"start":4,"action_noise":0.2,"location_history":"[4,3,2]","action_history":"[0,1]","mutagen_history":"[1,0]","location_rts":"[2432,539]","trial_type":"fractal-mutation","trial_index":164,"time_elapsed":3179637,"internal_node_id":"0.0-5.0-60.0"},{"group":"hexagon_bi","fractal_assignment":["../images/pnk_blu.png","../images/org_blu.png","../images/ylw_slt.png","../images/cyn_red.png","../images/blu_wht.png","../images/gry_blk.png"],"mutagen_generator_assignment":[1,0],"goal":3,"start":2,"action_noise":0.2,"location_history":"[2,3]","action_history":"[0]","mutagen_history":"[1]","location_rts":"[776]","trial_type":"fractal-mutation","trial_index":165,"time_elapsed":3184919,"internal_node_id":"0.0-5.0-61.0"},{"group":"hexagon_bi","fractal_assignment":["../images/pnk_blu.png","../images/org_blu.png","../images/ylw_slt.png","../images/cyn_red.png","../images/blu_wht.png","../images/gry_blk.png"],"mutagen_generator_assignment":[1,0],"goal":0,"start":3,"action_noise":0.2,"location_history":"[3,4,5,0]","action_history":"[0,1,0]","mutagen_history":"[1,0,1]","location_rts":"[1100,521,371]","trial_type":"fractal-mutation","trial_index":166,"time_elapsed":3193422,"internal_node_id":"0.0-5.0-62.0"},{"group":"hexagon_bi","fractal_assignment":["../images/pnk_blu.png","../images/org_blu.png","../images/ylw_slt.png","../images/cyn_red.png","../images/blu_wht.png","../images/gry_blk.png"],"mutagen_generator_assignment":[1,0],"goal":5,"start":0,"action_noise":0.2,"location_history":"[0,1,2,1,2,1,2,3,4,3,2,3,4,5]","action_history":"[1,0,0,1,0,0,1,0,0,1,0,0,0]","mutagen_history":"[0,1,1,0,1,1,0,1,1,0,1,1,1]","location_rts":"[2534,557,446,433,386,575,555,714,703,896,467,479,537]","trial_type":"fractal-mutation","trial_index":167,"time_elapsed":3219253,"internal_node_id":"0.0-5.0-63.0"},{"group":"hexagon_bi","fractal_assignment":["../images/pnk_blu.png","../images/org_blu.png","../images/ylw_slt.png","../images/cyn_red.png","../images/blu_wht.png","../images/gry_blk.png"],"mutagen_generator_assignment":[1,0],"goal":1,"start":5,"action_noise":0.2,"location_history":"[5,4,3,4,3,2,1]","action_history":"[1,0,0,0,1,0]","mutagen_history":"[0,1,1,1,0,1]","location_rts":"[1737,440,409,448,518,424]","trial_type":"fractal-mutation","trial_index":168,"time_elapsed":3232755,"internal_node_id":"0.0-5.0-64.0"},{"group":"hexagon_bi","fractal_assignment":["../images/pnk_blu.png","../images/org_blu.png","../images/ylw_slt.png","../images/cyn_red.png","../images/blu_wht.png","../images/gry_blk.png"],"mutagen_generator_assignment":[1,0],"goal":5,"start":1,"action_noise":0.2,"location_history":"[1,2,3,4,5]","action_history":"[0,1,0,0]","mutagen_history":"[1,0,1,1]","location_rts":"[1683,1085,460,417]","trial_type":"fractal-mutation","trial_index":169,"time_elapsed":3243953,"internal_node_id":"0.0-5.0-65.0"},{"group":"hexagon_bi","fractal_assignment":["../images/pnk_blu.png","../images/org_blu.png","../images/ylw_slt.png","../images/cyn_red.png","../images/blu_wht.png","../images/gry_blk.png"],"mutagen_generator_assignment":[1,0],"goal":3,"start":5,"action_noise":0.2,"location_history":"[5,0,1,0,5,4,3]","action_history":"[0,1,1,0,1,0]","mutagen_history":"[1,0,0,1,0,1]","location_rts":"[1930,680,556,459,452,926]","trial_type":"fractal-mutation","trial_index":170,"time_elapsed":3258488,"internal_node_id":"0.0-5.0-66.0"},{"group":"hexagon_bi","fractal_assignment":["../images/pnk_blu.png","../images/org_blu.png","../images/ylw_slt.png","../images/cyn_red.png","../images/blu_wht.png","../images/gry_blk.png"],"mutagen_generator_assignment":[1,0],"goal":2,"start":3,"action_noise":0.2,"location_history":"[3,2]","action_history":"[1]","mutagen_history":"[0]","location_rts":"[2381]","trial_type":"fractal-mutation","trial_index":171,"time_elapsed":3265375,"internal_node_id":"0.0-5.0-67.0"},{"group":"hexagon_bi","fractal_assignment":["../images/pnk_blu.png","../images/org_blu.png","../images/ylw_slt.png","../images/cyn_red.png","../images/blu_wht.png","../images/gry_blk.png"],"mutagen_generator_assignment":[1,0],"goal":1,"start":2,"action_noise":0.2,"location_history":"[2,1]","action_history":"[0]","mutagen_history":"[1]","location_rts":"[1243]","trial_type":"fractal-mutation","trial_index":172,"time_elapsed":3271129,"internal_node_id":"0.0-5.0-68.0"},{"group":"hexagon_bi","fractal_assignment":["../images/pnk_blu.png","../images/org_blu.png","../images/ylw_slt.png","../images/cyn_red.png","../images/blu_wht.png","../images/gry_blk.png"],"mutagen_generator_assignment":[1,0],"goal":4,"start":1,"action_noise":0.2,"location_history":"[1,0,5,0,5,0,5,0,1,0,1,0,1,2,1,2,1,2,1,2,3,4]","action_history":"[0,1,1,0,1,0,0,1,1,0,1,0,0,1,0,0,0,1,1,1,0]","mutagen_history":"[1,0,0,1,0,1,1,0,0,1,0,1,1,0,1,1,1,0,0,0,1]","location_rts":"[2718,678,1254,293,793,733,544,621,663,374,472,512,449,683,515,489,599,436,353,475,1353]","trial_type":"fractal-mutation","trial_index":173,"time_elapsed":3310708,"internal_node_id":"0.0-5.0-69.0"},{"group":"hexagon_bi","fractal_assignment":["../images/pnk_blu.png","../images/org_blu.png","../images/ylw_slt.png","../images/cyn_red.png","../images/blu_wht.png","../images/gry_blk.png"],"mutagen_generator_assignment":[1,0],"goal":0,"start":4,"action_noise":0.2,"location_history":"[4,3,2,1,2,3,2,1,0]","action_history":"[0,1,0,0,1,1,0,1]","mutagen_history":"[1,0,1,1,0,0,1,0]","location_rts":"[1119,445,446,397,840,430,422,382]","trial_type":"fractal-mutation","trial_index":174,"time_elapsed":3326755,"internal_node_id":"0.0-5.0-70.0"},{"group":"hexagon_bi","fractal_assignment":["../images/pnk_blu.png","../images/org_blu.png","../images/ylw_slt.png","../images/cyn_red.png","../images/blu_wht.png","../images/gry_blk.png"],"mutagen_generator_assignment":[1,0],"goal":3,"start":0,"action_noise":0.2,"location_history":"[0,5,0,1,0,1,2,1,2,3]","action_history":"[1,0,0,1,1,0,0,1,1]","mutagen_history":"[0,1,1,0,0,1,1,0,0]","location_rts":"[550,418,614,333,447,619,589,465,474]","trial_type":"fractal-mutation","trial_index":175,"time_elapsed":3343934,"internal_node_id":"0.0-5.0-71.0"},{"group":"hexagon_bi","fractal_assignment":["../images/pnk_blu.png","../images/org_blu.png","../images/ylw_slt.png","../images/cyn_red.png","../images/blu_wht.png","../images/gry_blk.png"],"mutagen_generator_assignment":[1,0],"goal":1,"start":3,"action_noise":0.2,"location_history":"[3,2,1]","action_history":"[1,0]","mutagen_history":"[0,1]","location_rts":"[528,394]","trial_type":"fractal-mutation","trial_index":176,"time_elapsed":3350398,"internal_node_id":"0.0-5.0-72.0"},{"group":"hexagon_bi","fractal_assignment":["../images/pnk_blu.png","../images/org_blu.png","../images/ylw_slt.png","../images/cyn_red.png","../images/blu_wht.png","../images/gry_blk.png"],"mutagen_generator_assignment":[1,0],"goal":0,"start":1,"action_noise":0.2,"location_history":"[1,2,3,4,3,2,1,2,3,2,1,2,3,4,3,4,3,4,5,0]","action_history":"[0,1,0,0,1,0,0,1,1,0,0,1,0,0,0,1,0,1,0]","mutagen_history":"[1,0,1,1,0,1,1,0,0,1,1,0,1,1,1,0,1,0,1]","location_rts":"[1637,523,474,425,465,459,536,857,457,414,1013,492,1150,613,503,440,406,752,420]","trial_type":"fractal-mutation","trial_index":177,"time_elapsed":3385062,"internal_node_id":"0.0-5.0-73.0"},{"group":"hexagon_bi","fractal_assignment":["../images/pnk_blu.png","../images/org_blu.png","../images/ylw_slt.png","../images/cyn_red.png","../images/blu_wht.png","../images/gry_blk.png"],"mutagen_generator_assignment":[1,0],"goal":2,"start":0,"action_noise":0.2,"location_history":"[0,5,4,3,2]","action_history":"[0,1,1,0]","mutagen_history":"[1,0,0,1]","location_rts":"[2155,468,453,374]","trial_type":"fractal-mutation","trial_index":178,"time_elapsed":3396025,"internal_node_id":"0.0-5.0-74.0"},{"group":"hexagon_bi","fractal_assignment":["../images/pnk_blu.png","../images/org_blu.png","../images/ylw_slt.png","../images/cyn_red.png","../images/blu_wht.png","../images/gry_blk.png"],"mutagen_generator_assignment":[1,0],"goal":4,"start":2,"action_noise":0.2,"location_history":"[2,1,2,3,2,3,4]","action_history":"[0,1,1,1,1,0]","mutagen_history":"[1,0,0,0,0,1]","location_rts":"[2328,563,504,1051,397,926]","trial_type":"fractal-mutation","trial_index":179,"time_elapsed":3411312,"internal_node_id":"0.0-5.0-75.0"},{"group":"hexagon_bi","fractal_assignment":["../images/pnk_blu.png","../images/org_blu.png","../images/ylw_slt.png","../images/cyn_red.png","../images/blu_wht.png","../images/gry_blk.png"],"mutagen_generator_assignment":[1,0],"goal":5,"start":4,"action_noise":0.2,"location_history":"[4,5]","action_history":"[1]","mutagen_history":"[0]","location_rts":"[2953]","trial_type":"fractal-mutation","trial_index":180,"time_elapsed":3418767,"internal_node_id":"0.0-5.0-76.0"},{"group":"hexagon_bi","fractal_assignment":["../images/pnk_blu.png","../images/org_blu.png","../images/ylw_slt.png","../images/cyn_red.png","../images/blu_wht.png","../images/gry_blk.png"],"mutagen_generator_assignment":[1,0],"goal":2,"start":5,"action_noise":0.2,"location_history":"[5,0,1,2]","action_history":"[0,1,0]","mutagen_history":"[1,0,1]","location_rts":"[1456,1078,427]","trial_type":"fractal-mutation","trial_index":181,"time_elapsed":3428239,"internal_node_id":"0.0-5.0-77.0"},{"group":"hexagon_bi","fractal_assignment":["../images/pnk_blu.png","../images/org_blu.png","../images/ylw_slt.png","../images/cyn_red.png","../images/blu_wht.png","../images/gry_blk.png"],"mutagen_generator_assignment":[1,0],"goal":3,"start":2,"action_noise":0.2,"location_history":"[2,1,0,5,4,3]","action_history":"[0,1,0,1,0]","mutagen_history":"[1,0,1,0,1]","location_rts":"[1608,460,489,738,872]","trial_type":"fractal-mutation","trial_index":182,"time_elapsed":3440927,"internal_node_id":"0.0-5.0-78.0"},{"group":"hexagon_bi","fractal_assignment":["../images/pnk_blu.png","../images/org_blu.png","../images/ylw_slt.png","../images/cyn_red.png","../images/blu_wht.png","../images/gry_blk.png"],"mutagen_generator_assignment":[1,0],"goal":1,"start":3,"action_noise":0.2,"location_history":"[3,2,3,2,1]","action_history":"[1,0,1,0]","mutagen_history":"[0,1,0,1]","location_rts":"[3692,534,533,524]","trial_type":"fractal-mutation","trial_index":183,"time_elapsed":3453723,"internal_node_id":"0.0-5.0-79.0"},{"group":"hexagon_bi","fractal_assignment":["../images/pnk_blu.png","../images/org_blu.png","../images/ylw_slt.png","../images/cyn_red.png","../images/blu_wht.png","../images/gry_blk.png"],"mutagen_generator_assignment":[1,0],"goal":4,"start":1,"action_noise":0.2,"location_history":"[1,0,1,0,5,4]","action_history":"[0,0,1,0,1]","mutagen_history":"[1,1,0,1,0]","location_rts":"[1084,842,316,475,595]","trial_type":"fractal-mutation","trial_index":184,"time_elapsed":3465563,"internal_node_id":"0.0-5.0-80.0"},{"group":"hexagon_bi","fractal_assignment":["../images/pnk_blu.png","../images/org_blu.png","../images/ylw_slt.png","../images/cyn_red.png","../images/blu_wht.png","../images/gry_blk.png"],"mutagen_generator_assignment":[1,0],"goal":5,"start":4,"action_noise":0.2,"location_history":"[4,3,2,1,2,3,4,5]","action_history":"[0,1,0,0,1,0,0]","mutagen_history":"[1,0,1,1,0,1,1]","location_rts":"[836,744,360,437,545,453,459]","trial_type":"fractal-mutation","trial_index":185,"time_elapsed":3479930,"internal_node_id":"0.0-5.0-81.0"},{"group":"hexagon_bi","fractal_assignment":["../images/pnk_blu.png","../images/org_blu.png","../images/ylw_slt.png","../images/cyn_red.png","../images/blu_wht.png","../images/gry_blk.png"],"mutagen_generator_assignment":[1,0],"goal":0,"start":5,"action_noise":0.2,"location_history":"[5,0]","action_history":"[0]","mutagen_history":"[1]","location_rts":"[873]","trial_type":"fractal-mutation","trial_index":186,"time_elapsed":3485314,"internal_node_id":"0.0-5.0-82.0"},{"group":"hexagon_bi","fractal_assignment":["../images/pnk_blu.png","../images/org_blu.png","../images/ylw_slt.png","../images/cyn_red.png","../images/blu_wht.png","../images/gry_blk.png"],"mutagen_generator_assignment":[1,0],"goal":2,"start":0,"action_noise":0.2,"location_history":"[0,5,4,5,0,5,0,1,0,1,2]","action_history":"[0,1,0,0,1,0,0,1,1,0]","mutagen_history":"[1,0,1,1,0,1,1,0,0,1]","location_rts":"[992,380,406,610,1149,384,610,822,458,313]","trial_type":"fractal-mutation","trial_index":187,"time_elapsed":3504977,"internal_node_id":"0.0-5.0-83.0"},{"group":"hexagon_bi","fractal_assignment":["../images/pnk_blu.png","../images/org_blu.png","../images/ylw_slt.png","../images/cyn_red.png","../images/blu_wht.png","../images/gry_blk.png"],"mutagen_generator_assignment":[1,0],"goal":0,"start":2,"action_noise":0.2,"location_history":"[2,1,0]","action_history":"[0,1]","mutagen_history":"[1,0]","location_rts":"[834,468]","trial_type":"fractal-mutation","trial_index":188,"time_elapsed":3511787,"internal_node_id":"0.0-5.0-84.0"},{"group":"hexagon_bi","fractal_assignment":["../images/pnk_blu.png","../images/org_blu.png","../images/ylw_slt.png","../images/cyn_red.png","../images/blu_wht.png","../images/gry_blk.png"],"mutagen_generator_assignment":[1,0],"goal":5,"start":0,"action_noise":0.2,"location_history":"[0,1,2,1,2,3,4,5]","action_history":"[0,0,0,1,1,0,1]","mutagen_history":"[1,1,1,0,0,1,0]","location_rts":"[864,1720,548,417,5293,470,912]","trial_type":"fractal-mutation","trial_index":189,"time_elapsed":3532538,"internal_node_id":"0.0-5.0-85.0"},{"group":"hexagon_bi","fractal_assignment":["../images/pnk_blu.png","../images/org_blu.png","../images/ylw_slt.png","../images/cyn_red.png","../images/blu_wht.png","../images/gry_blk.png"],"mutagen_generator_assignment":[1,0],"goal":1,"start":5,"action_noise":0.2,"location_history":"[5,0,5,4,3,4,5,0,5,4,3,2,1]","action_history":"[0,0,1,0,0,0,0,0,1,0,1,0]","mutagen_history":"[1,1,0,1,1,1,1,1,0,1,0,1]","location_rts":"[2921,381,326,394,543,684,993,746,493,419,632,474]","trial_type":"fractal-mutation","trial_index":190,"time_elapsed":3557102,"internal_node_id":"0.0-5.0-86.0"},{"group":"hexagon_bi","fractal_assignment":["../images/pnk_blu.png","../images/org_blu.png","../images/ylw_slt.png","../images/cyn_red.png","../images/blu_wht.png","../images/gry_blk.png"],"mutagen_generator_assignment":[1,0],"goal":4,"start":1,"action_noise":0.2,"location_history":"[1,2,3,4]","action_history":"[0,1,0]","mutagen_history":"[1,0,1]","location_rts":"[539,658,816]","trial_type":"fractal-mutation","trial_index":191,"time_elapsed":3565628,"internal_node_id":"0.0-5.0-87.0"},{"group":"hexagon_bi","fractal_assignment":["../images/pnk_blu.png","../images/org_blu.png","../images/ylw_slt.png","../images/cyn_red.png","../images/blu_wht.png","../images/gry_blk.png"],"mutagen_generator_assignment":[1,0],"goal":3,"start":4,"action_noise":0.2,"location_history":"[4,3]","action_history":"[0]","mutagen_history":"[1]","location_rts":"[850]","trial_type":"fractal-mutation","trial_index":192,"time_elapsed":3570986,"internal_node_id":"0.0-5.0-88.0"},{"group":"hexagon_bi","fractal_assignment":["../images/pnk_blu.png","../images/org_blu.png","../images/ylw_slt.png","../images/cyn_red.png","../images/blu_wht.png","../images/gry_blk.png"],"mutagen_generator_assignment":[1,0],"goal":5,"start":3,"action_noise":0.2,"location_history":"[3,2,3,4,5]","action_history":"[1,1,0,1]","mutagen_history":"[0,0,1,0]","location_rts":"[3345,421,403,434]","trial_type":"fractal-mutation","trial_index":193,"time_elapsed":3583104,"internal_node_id":"0.0-5.0-89.0"},{"group":"hexagon_bi","fractal_assignment":["../images/pnk_blu.png","../images/org_blu.png","../images/ylw_slt.png","../images/cyn_red.png","../images/blu_wht.png","../images/gry_blk.png"],"mutagen_generator_assignment":[1,0],"goal":1,"start":5,"action_noise":0.2,"location_history":"[5,4,5,4,5,0,5,0,1]","action_history":"[1,0,1,1,0,0,0,1]","mutagen_history":"[0,1,0,0,1,1,1,0]","location_rts":"[1730,541,447,494,491,659,515,539]","trial_type":"fractal-mutation","trial_index":194,"time_elapsed":3600051,"internal_node_id":"0.0-5.0-90.0"},{"group":"hexagon_bi","fractal_assignment":["../images/pnk_blu.png","../images/org_blu.png","../images/ylw_slt.png","../images/cyn_red.png","../images/blu_wht.png","../images/gry_blk.png"],"mutagen_generator_assignment":[1,0],"goal":2,"start":1,"action_noise":0.2,"location_history":"[1,2]","action_history":"[0]","mutagen_history":"[1]","location_rts":"[1216]","trial_type":"fractal-mutation","trial_index":195,"time_elapsed":3605774,"internal_node_id":"0.0-5.0-91.0"},{"group":"hexagon_bi","fractal_assignment":["../images/pnk_blu.png","../images/org_blu.png","../images/ylw_slt.png","../images/cyn_red.png","../images/blu_wht.png","../images/gry_blk.png"],"mutagen_generator_assignment":[1,0],"goal":4,"start":2,"action_noise":0.2,"location_history":"[2,1,0,5,4]","action_history":"[0,1,0,1]","mutagen_history":"[1,0,1,0]","location_rts":"[984,456,567,769]","trial_type":"fractal-mutation","trial_index":196,"time_elapsed":3616072,"internal_node_id":"0.0-5.0-92.0"},{"group":"hexagon_bi","fractal_assignment":["../images/pnk_blu.png","../images/org_blu.png","../images/ylw_slt.png","../images/cyn_red.png","../images/blu_wht.png","../images/gry_blk.png"],"mutagen_generator_assignment":[1,0],"goal":0,"start":4,"action_noise":0.2,"location_history":"[4,5,0]","action_history":"[0,1]","mutagen_history":"[1,0]","location_rts":"[1532,610]","trial_type":"fractal-mutation","trial_index":197,"time_elapsed":3623727,"internal_node_id":"0.0-5.0-93.0"},{"group":"hexagon_bi","fractal_assignment":["../images/pnk_blu.png","../images/org_blu.png","../images/ylw_slt.png","../images/cyn_red.png","../images/blu_wht.png","../images/gry_blk.png"],"mutagen_generator_assignment":[1,0],"goal":3,"start":0,"action_noise":0.2,"location_history":"[0,5,4,5,4,5,0,5,0,1,2,1,0,5,0,1,2,3]","action_history":"[0,1,1,1,0,0,0,0,1,0,0,1,0,0,1,1,0]","mutagen_history":"[1,0,0,0,1,1,1,1,0,1,1,0,1,1,0,0,1]","location_rts":"[1318,860,843,458,327,527,706,454,574,489,598,489,508,460,533,699,654]","trial_type":"fractal-mutation","trial_index":198,"time_elapsed":3654874,"internal_node_id":"0.0-5.0-94.0"},{"group":"hexagon_bi","fractal_assignment":["../images/pnk_blu.png","../images/org_blu.png","../images/ylw_slt.png","../images/cyn_red.png","../images/blu_wht.png","../images/gry_blk.png"],"mutagen_generator_assignment":[1,0],"goal":0,"start":3,"action_noise":0.2,"location_history":"[3,2,1,2,1,0]","action_history":"[0,1,0,0,1]","mutagen_history":"[1,0,1,1,0]","location_rts":"[1893,659,411,712,528]","trial_type":"fractal-mutation","trial_index":199,"time_elapsed":3667596,"internal_node_id":"0.0-5.0-95.0"},{"group":"hexagon_bi","fractal_assignment":["../images/pnk_blu.png","../images/org_blu.png","../images/ylw_slt.png","../images/cyn_red.png","../images/blu_wht.png","../images/gry_blk.png"],"mutagen_generator_assignment":[1,0],"goal":4,"start":0,"action_noise":0.2,"location_history":"[0,5,4]","action_history":"[0,1]","mutagen_history":"[1,0]","location_rts":"[963,663]","trial_type":"fractal-mutation","trial_index":200,"time_elapsed":3674734,"internal_node_id":"0.0-5.0-96.0"},{"group":"hexagon_bi","fractal_assignment":["../images/pnk_blu.png","../images/org_blu.png","../images/ylw_slt.png","../images/cyn_red.png","../images/blu_wht.png","../images/gry_blk.png"],"mutagen_generator_assignment":[1,0],"goal":5,"start":4,"action_noise":0.2,"location_history":"[4,5]","action_history":"[1]","mutagen_history":"[0]","location_rts":"[1767]","trial_type":"fractal-mutation","trial_index":201,"time_elapsed":3681004,"internal_node_id":"0.0-5.0-97.0"},{"group":"hexagon_bi","fractal_assignment":["../images/pnk_blu.png","../images/org_blu.png","../images/ylw_slt.png","../images/cyn_red.png","../images/blu_wht.png","../images/gry_blk.png"],"mutagen_generator_assignment":[1,0],"goal":2,"start":5,"action_noise":0.2,"location_history":"[5,4,3,4,3,2]","action_history":"[1,0,0,1,1]","mutagen_history":"[0,1,1,0,0]","location_rts":"[785,3482,77294,674,440]","trial_type":"fractal-mutation","trial_index":202,"time_elapsed":3772202,"internal_node_id":"0.0-5.0-98.0"},{"group":"hexagon_bi","fractal_assignment":["../images/pnk_blu.png","../images/org_blu.png","../images/ylw_slt.png","../images/cyn_red.png","../images/blu_wht.png","../images/gry_blk.png"],"mutagen_generator_assignment":[1,0],"goal":1,"start":2,"action_noise":0.2,"location_history":"[2,3,4,5,0,1]","action_history":"[0,1,1,0,0]","mutagen_history":"[1,0,0,1,1]","location_rts":"[794,918,671,534,4365]","trial_type":"fractal-mutation","trial_index":203,"time_elapsed":3788003,"internal_node_id":"0.0-5.0-99.0"},{"view_history":"[{\"page_index\":0,\"viewing_time\":3795}]","rt":3795,"trial_type":"instructions","trial_index":204,"time_elapsed":3792798,"internal_node_id":"0.0-6.0"},{"rt":21083,"responses":"{\"Q0\":\"If you could remember color sequences\"}","trial_type":"survey-text","trial_index":205,"time_elapsed":3814886,"internal_node_id":"0.0-7.0-0.0"},{"rt":28256,"responses":"{\"Q0\":\"If you could remember pattern recognition\"}","trial_type":"survey-text","trial_index":206,"time_elapsed":3844144,"internal_node_id":"0.0-7.0-1.0"},{"rt":46042,"responses":"{\"Q0\":\"<img src='../images/diagrams/hexagon_bi.png'>\"}","trial_type":"survey-multi-choice","trial_index":207,"time_elapsed":3891192,"internal_node_id":"0.0-7.0-2.0"},{"rt":54265,"assignments":["../images/pnk_blu.png","../images/org_blu.png","../images/cyn_red.png","../images/ylw_slt.png","../images/blu_wht.png","../images/gry_blk.png"],"trial_type":"drag-drop-on-image","trial_index":208,"time_elapsed":3946460,"internal_node_id":"0.0-7.0-3.0"},{"rt":5645,"responses":"{\"Q0\":\"1\"}","trial_type":"survey-likert","trial_index":209,"time_elapsed":3953108,"internal_node_id":"0.0-7.0-4.0"},{"rt":46253,"responses":"{\"Q0\":\"Just a back and forth effect. The path led back to the previous\"}","trial_type":"survey-text","trial_index":210,"time_elapsed":4000363,"internal_node_id":"0.0-7.0-5.0"},{"rt":5815,"responses":"{\"Q0\":\"Yes\"}","trial_type":"survey-multi-choice","trial_index":211,"time_elapsed":4007182,"internal_node_id":"0.0-7.0-6.0"},{"rt":13505,"responses":"{\"Q0\":\"Between ses