[{"view_history":"[{\"page_index\":0,\"viewing_time\":2617},{\"page_index\":1,\"viewing_time\":1895723}]","rt":1898343,"trial_type":"instructions","trial_index":0,"time_elapsed":1898346,"internal_node_id":"0.0-0.0"},{"view_history":"[{\"page_index\":0,\"viewing_time\":3399},{\"page_index\":1,\"viewing_time\":9200}]","rt":12600,"trial_type":"instructions","trial_index":1,"time_elapsed":1911949,"internal_node_id":"0.0-1.0"},{"group":"hexagon_bi","room_assignment":["grey","red","blue","green","yellow","purple"],"door_color_assignment":["black","white"],"door_generator_assignment":[0,1],"goal":2,"start":1,"action_noise":0.2,"location_history":"[1,0,5,0,1,0,1,0,1,2]","action_history":"[1,0,0,1,1,1,1,1,0]","door_history":"[1,0,0,1,1,1,1,1,0]","location_rts":"[4749,1067,895,938,461,540,532,1339,292]","trial_type":"two-door-navigation","trial_index":2,"time_elapsed":1935319,"internal_node_id":"0.0-2.0-0.0"},{"group":"hexagon_bi","room_assignment":["grey","red","blue","green","yellow","purple"],"door_color_assignment":["black","white"],"door_generator_assignment":[0,1],"goal":0,"start":2,"action_noise":0.2,"location_history":"[2,3,2,3,4,5,4,5,4,3,4,5,0]","action_history":"[0,1,1,0,1,1,1,1,0,0,1,0]","door_history":"[0,1,1,0,1,1,1,1,0,0,1,0]","location_rts":"[20299,970,388,1107,1550,436,742,1036,412,486,1311,252]","trial_type":"two-door-navigation","trial_index":3,"time_elapsed":1979853,"internal_node_id":"0.0-2.0-1.0"},{"group":"hexagon_bi","room_assignment":["grey","red","blue","green","yellow","purple"],"door_color_assignment":["black","white"],"door_generator_assignment":[0,1],"goal":5,"start":0,"action_noise":0.2,"location_history":"[0,5]","action_history":"[0]","door_history":"[0]","location_rts":"[3382]","trial_type":"two-door-navigation","trial_index":4,"time_elapsed":1987737,"internal_node_id":"0.0-2.0-2.0"},{"group":"hexagon_bi","room_assignment":["grey","red","blue","green","yellow","purple"],"door_color_assignment":["black","white"],"door_generator_assignment":[0,1],"goal":3,"start":5,"action_noise":0.2,"location_history":"[5,4,5,4,5,4,5,4,5,0,5,0,1,0,5,4,3]","action_history":"[1,1,0,0,1,1,1,0,0,0,0,1,1,0,1,1]","door_history":"[1,1,0,0,1,1,1,0,0,0,0,1,1,0,1,1]","location_rts":"[825,789,443,573,791,1779,1178,434,502,420,992,220,449,808,677,451]","trial_type":"two-door-navigation","trial_index":5,"time_elapsed":2018660,"internal_node_id":"0.0-2.0-3.0"},{"group":"hexagon_bi","room_assignment":["grey","red","blue","green","yellow","purple"],"door_color_assignment":["black","white"],"door_generator_assignment":[0,1],"goal":4,"start":3,"action_noise":0.2,"location_history":"[3,4]","action_history":"[0]","door_history":"[0]","location_rts":"[8155]","trial_type":"two-door-navigation","trial_index":6,"time_elapsed":2031323,"internal_node_id":"0.0-2.0-4.0"},{"group":"hexagon_bi","room_assignment":["grey","red","blue","green","yellow","purple"],"door_color_assignment":["black","white"],"door_generator_assignment":[0,1],"goal":0,"start":4,"action_noise":0.2,"location_history":"[4,5,0]","action_history":"[1,0]","door_history":"[1,0]","location_rts":"[3175,515]","trial_type":"two-door-navigation","trial_index":7,"time_elapsed":2040518,"internal_node_id":"0.0-2.0-5.0"},{"group":"hexagon_bi","room_assignment":["grey","red","blue","green","yellow","purple"],"door_color_assignment":["black","white"],"door_generator_assignment":[0,1],"goal":4,"start":0,"action_noise":0.2,"location_history":"[0,1,2,3,4]","action_history":"[1,0,1,1]","door_history":"[1,0,1,1]","location_rts":"[3422,1349,723,356]","trial_type":"two-door-navigation","trial_index":8,"time_elapsed":2053879,"internal_node_id":"0.0-2.0-6.0"},{"group":"hexagon_bi","room_assignment":["grey","red","blue","green","yellow","purple"],"door_color_assignment":["black","white"],"door_generator_assignment":[0,1],"goal":3,"start":4,"action_noise":0.2,"location_history":"[4,5,4,5,0,5,4,5,0,5,0,1,2,3]","action_history":"[0,1,1,0,1,1,1,1,0,0,1,0,1]","door_history":"[0,1,1,0,1,1,1,1,0,0,1,0,1]","location_rts":"[3129,989,384,935,672,339,431,430,497,1378,413,1021,984]","trial_type":"two-door-navigation","trial_index":9,"time_elapsed":2082082,"internal_node_id":"0.0-2.0-7.0"},{"group":"hexagon_bi","room_assignment":["grey","red","blue","green","yellow","purple"],"door_color_assignment":["black","white"],"door_generator_assignment":[0,1],"goal":2,"start":3,"action_noise":0.2,"location_history":"[3,2]","action_history":"[0]","door_history":"[0]","location_rts":"[3486]","trial_type":"two-door-navigation","trial_index":10,"time_elapsed":2090070,"internal_node_id":"0.0-2.0-8.0"},{"group":"hexagon_bi","room_assignment":["grey","red","blue","green","yellow","purple"],"door_color_assignment":["black","white"],"door_generator_assignment":[0,1],"goal":1,"start":2,"action_noise":0.2,"location_history":"[2,3,4,3,2,3,4,3,4,3,2,1]","action_history":"[1,0,0,1,1,0,0,0,0,1,0]","door_history":"[1,0,0,1,1,0,0,0,0,1,0]","location_rts":"[1897,668,1006,384,907,725,233,764,892,326,588]","trial_type":"two-door-navigation","trial_index":11,"time_elapsed":2113009,"internal_node_id":"0.0-2.0-9.0"},{"group":"hexagon_bi","room_assignment":["grey","red","blue","green","yellow","purple"],"door_color_assignment":["black","white"],"door_generator_assignment":[0,1],"goal":5,"start":1,"action_noise":0.2,"location_history":"[1,2,1,2,3,4,5]","action_history":"[1,0,0,1,0,1]","door_history":"[1,0,0,1,0,1]","location_rts":"[1933,784,660,727,573,1418]","trial_type":"two-door-navigation","trial_index":12,"time_elapsed":2128622,"internal_node_id":"0.0-2.0-10.0"},{"group":"hexagon_bi","room_assignment":["grey","red","blue","green","yellow","purple"],"door_color_assignment":["black","white"],"door_generator_assignment":[0,1],"goal":0,"start":5,"action_noise":0.2,"location_history":"[5,0]","action_history":"[0]","door_history":"[0]","location_rts":"[1408]","trial_type":"two-door-navigation","trial_index":13,"time_elapsed":2134530,"internal_node_id":"0.0-2.0-11.0"},{"group":"hexagon_bi","room_assignment":["grey","red","blue","green","yellow","purple"],"door_color_assignment":["black","white"],"door_generator_assignment":[0,1],"goal":4,"start":0,"action_noise":0.2,"location_history":"[0,1,2,3,4]","action_history":"[1,0,1,0]","door_history":"[1,0,1,0]","location_rts":"[1883,740,1366,1089]","trial_type":"two-door-navigation","trial_index":14,"time_elapsed":2147126,"internal_node_id":"0.0-2.0-12.0"},{"group":"hexagon_bi","room_assignment":["grey","red","blue","green","yellow","purple"],"door_color_assignment":["black","white"],"door_generator_assignment":[0,1],"goal":2,"start":4,"action_noise":0.2,"location_history":"[4,3,2]","action_history":"[0,1]","door_history":"[0,1]","location_rts":"[2897,2371]","trial_type":"two-door-navigation","trial_index":15,"time_elapsed":2157901,"internal_node_id":"0.0-2.0-13.0"},{"group":"hexagon_bi","room_assignment":["grey","red","blue","green","yellow","purple"],"door_color_assignment":["black","white"],"door_generator_assignment":[0,1],"goal":1,"start":2,"action_noise":0.2,"location_history":"[2,1]","action_history":"[0]","door_history":"[0]","location_rts":"[2654]","trial_type":"two-door-navigation","trial_index":16,"time_elapsed":2165074,"internal_node_id":"0.0-2.0-14.0"},{"group":"hexagon_bi","room_assignment":["grey","red","blue","green","yellow","purple"],"door_color_assignment":["black","white"],"door_generator_assignment":[0,1],"goal":3,"start":1,"action_noise":0.2,"location_history":"[1,2,3]","action_history":"[0,1]","door_history":"[0,1]","location_rts":"[2641,521]","trial_type":"two-door-navigation","trial_index":17,"time_elapsed":2173739,"internal_node_id":"0.0-2.0-15.0"},{"group":"hexagon_bi","room_assignment":["grey","red","blue","green","yellow","purple"],"door_color_assignment":["black","white"],"door_generator_assignment":[0,1],"goal":5,"start":3,"action_noise":0.2,"location_history":"[3,2,1,0,5]","action_history":"[1,0,0,0]","door_history":"[1,0,0,0]","location_rts":"[3067,810,1263,1677]","trial_type":"two-door-navigation","trial_index":18,"time_elapsed":2188072,"internal_node_id":"0.0-2.0-16.0"},{"group":"hexagon_bi","room_assignment":["grey","red","blue","green","yellow","purple"],"door_color_assignment":["black","white"],"door_generator_assignment":[0,1],"goal":0,"start":5,"action_noise":0.2,"location_history":"[5,0]","action_history":"[0]","door_history":"[0]","location_rts":"[2453]","trial_type":"two-door-navigation","trial_index":19,"time_elapsed":2195030,"internal_node_id":"0.0-2.0-17.0"},{"group":"hexagon_bi","room_assignment":["grey","red","blue","green","yellow","purple"],"door_color_assignment":["black","white"],"door_generator_assignment":[0,1],"goal":5,"start":0,"action_noise":0.2,"location_history":"[0,5]","action_history":"[1]","door_history":"[1]","location_rts":"[1059]","trial_type":"two-door-navigation","trial_index":20,"time_elapsed":2200595,"internal_node_id":"0.0-2.0-18.0"},{"group":"hexagon_bi","room_assignment":["grey","red","blue","green","yellow","purple"],"door_color_assignment":["black","white"],"door_generator_assignment":[0,1],"goal":3,"start":5,"action_noise":0.2,"location_history":"[5,0,5,4,5,0,1,0,1,0,5,4,3]","action_history":"[0,1,1,1,0,0,1,1,1,0,0,0]","door_history":"[0,1,1,1,0,0,1,1,1,0,0,0]","location_rts":"[1026,1948,1136,1656,942,225,1948,1685,705,2898,1749,6237]","trial_type":"two-door-navigation","trial_index":21,"time_elapsed":2238295,"internal_node_id":"0.0-2.0-19.0"},{"group":"hexagon_bi","room_assignment":["grey","red","blue","green","yellow","purple"],"door_color_assignment":["black","white"],"door_generator_assignment":[0,1],"goal":4,"start":3,"action_noise":0.2,"location_history":"[3,2,3,2,1,2,1,0,5,0,1,0,5,0,5,0,1,2,3,4]","action_history":"[0,1,1,0,0,0,1,1,0,1,1,0,0,0,1,1,0,1,1]","door_history":"[0,1,1,0,0,0,1,1,0,1,1,0,0,0,1,1,0,1,1]","location_rts":"[3758,879,333,774,513,1386,480,236,466,769,577,414,236,761,424,373,943,575,964]","trial_type":"two-door-navigation","trial_index":22,"time_elapsed":2275727,"internal_node_id":"0.0-2.0-20.0"},{"group":"hexagon_bi","room_assignment":["grey","red","blue","green","yellow","purple"],"door_color_assignment":["black","white"],"door_generator_assignment":[0,1],"goal":1,"start":4,"action_noise":0.2,"location_history":"[4,3,2,3,2,1]","action_history":"[0,1,1,0,0]","door_history":"[0,1,1,0,0]","location_rts":"[9758,1671,1170,1008,213]","trial_type":"two-door-navigation","trial_index":23,"time_elapsed":2298066,"internal_node_id":"0.0-2.0-21.0"},{"group":"hexagon_bi","room_assignment":["grey","red","blue","green","yellow","purple"],"door_color_assignment":["black","white"],"door_generator_assignment":[0,1],"goal":2,"start":1,"action_noise":0.2,"location_history":"[1,2]","action_history":"[0]","door_history":"[0]","location_rts":"[759]","trial_type":"two-door-navigation","trial_index":24,"time_elapsed":2303330,"internal_node_id":"0.0-2.0-22.0"},{"group":"hexagon_bi","room_assignment":["grey","red","blue","green","yellow","purple"],"door_color_assignment":["black","white"],"door_generator_assignment":[0,1],"goal":3,"start":2,"action_noise":0.2,"location_history":"[2,1,0,5,0,1,0,1,2,1,0,1,0,5,4,5,4,5,0,1,0,1,0,5,4,5,4,3]","action_history":"[0,1,1,0,0,0,1,1,0,1,1,1,0,1,1,0,0,0,1,1,1,1,0,1,1,1,0]","door_history":"[0,1,1,0,0,0,1,1,0,1,1,1,0,1,1,0,0,0,1,1,1,1,0,1,1,1,0]","location_rts":"[1174,1029,645,544,553,977,992,398,988,600,204,399,2581,1120,2637,863,237,542,968,274,380,527,721,1476,402,437,252]","trial_type":"two-door-navigation","trial_index":25,"time_elapsed":2355938,"internal_node_id":"0.0-2.0-23.0"},{"group":"hexagon_bi","room_assignment":["grey","red","blue","green","yellow","purple"],"door_color_assignment":["black","white"],"door_generator_assignment":[0,1],"goal":5,"start":3,"action_noise":0.2,"location_history":"[3,4,5]","action_history":"[0,1]","door_history":"[0,1]","location_rts":"[2575,564]","trial_type":"two-door-navigation","trial_index":26,"time_elapsed":2364580,"internal_node_id":"0.0-2.0-24.0"},{"group":"hexagon_bi","room_assignment":["grey","red","blue","green","yellow","purple"],"door_color_assignment":["black","white"],"door_generator_assignment":[0,1],"goal":4,"start":5,"action_noise":0.2,"location_history":"[5,4]","action_history":"[1]","door_history":"[1]","location_rts":"[2155]","trial_type":"two-door-navigation","trial_index":27,"time_elapsed":2371238,"internal_node_id":"0.0-2.0-25.0"},{"group":"hexagon_bi","room_assignment":["grey","red","blue","green","yellow","purple"],"door_color_assignment":["black","white"],"door_generator_assignment":[0,1],"goal":0,"start":4,"action_noise":0.2,"location_history":"[4,3,2,3,4,5,0]","action_history":"[0,1,1,0,0,0]","door_history":"[0,1,1,0,0,0]","location_rts":"[2073,1556,626,723,214,414]","trial_type":"two-door-navigation","trial_index":28,"time_elapsed":2386366,"internal_node_id":"0.0-2.0-26.0"},{"group":"hexagon_bi","room_assignment":["grey","red","blue","green","yellow","purple"],"door_color_assignment":["black","white"],"door_generator_assignment":[0,1],"goal":2,"start":0,"action_noise":0.2,"location_history":"[0,1,2]","action_history":"[1,0]","door_history":"[1,0]","location_rts":"[2383,910]","trial_type":"two-door-navigation","trial_index":29,"time_elapsed":2395177,"internal_node_id":"0.0-2.0-27.0"},{"group":"hexagon_bi","room_assignment":["grey","red","blue","green","yellow","purple"],"door_color_assignment":["black","white"],"door_generator_assignment":[0,1],"goal":1,"start":2,"action_noise":0.2,"location_history":"[2,3,4,3,4,5,0,5,0,1]","action_history":"[1,0,0,1,1,1,0,0,1]","door_history":"[1,0,0,1,1,1,0,0,1]","location_rts":"[3045,681,412,1244,395,654,794,610,704]","trial_type":"two-door-navigation","trial_index":30,"time_elapsed":2416282,"internal_node_id":"0.0-2.0-28.0"},{"group":"hexagon_bi","room_assignment":["grey","red","blue","green","yellow","purple"],"door_color_assignment":["black","white"],"door_generator_assignment":[0,1],"goal":0,"start":1,"action_noise":0.2,"location_history":"[1,0]","action_history":"[1]","door_history":"[1]","location_rts":"[722]","trial_type":"two-door-navigation","trial_index":31,"time_elapsed":2421512,"internal_node_id":"0.0-2.0-29.0"},{"group":"hexagon_bi","room_assignment":["grey","red","blue","green","yellow","purple"],"door_color_assignment":["black","white"],"door_generator_assignment":[0,1],"goal":2,"start":0,"action_noise":0.2,"location_history":"[0,5,0,1,2]","action_history":"[0,1,1,0]","door_history":"[0,1,1,0]","location_rts":"[766,751,496,635]","trial_type":"two-door-navigation","trial_index":32,"time_elapsed":2431675,"internal_node_id":"0.0-2.0-30.0"},{"group":"hexagon_bi","room_assignment":["grey","red","blue","green","yellow","purple"],"door_color_assignment":["black","white"],"door_generator_assignment":[0,1],"goal":4,"start":2,"action_noise":0.2,"location_history":"[2,1,0,5,0,5,0,1,2,1,2,1,2,3,2,1,2,3,4]","action_history":"[0,1,1,0,0,0,1,1,1,0,0,0,1,1,0,0,1,1]","door_history":"[0,1,1,0,0,0,1,1,1,0,0,0,1,1,0,0,1,1]","location_rts":"[720,1295,471,1020,345,406,921,474,516,815,261,561,863,525,841,636,697,399]","trial_type":"two-door-navigation","trial_index":33,"time_elapsed":2465082,"internal_node_id":"0.0-2.0-31.0"},{"group":"hexagon_bi","room_assignment":["grey","red","blue","green","yellow","purple"],"door_color_assignment":["black","white"],"door_generator_assignment":[0,1],"goal":1,"start":4,"action_noise":0.2,"location_history":"[4,5,0,1]","action_history":"[1,0,1]","door_history":"[1,0,1]","location_rts":"[13042,907,1555]","trial_type":"two-door-navigation","trial_index":34,"time_elapsed":2487100,"internal_node_id":"0.0-2.0-32.0"},{"group":"hexagon_bi","room_assignment":["grey","red","blue","green","yellow","purple"],"door_color_assignment":["black","white"],"door_generator_assignment":[0,1],"goal":3,"start":1,"action_noise":0.2,"location_history":"[1,2,3]","action_history":"[0,1]","door_history":"[0,1]","location_rts":"[6261,919]","trial_type":"two-door-navigation","trial_index":35,"time_elapsed":2499790,"internal_node_id":"0.0-2.0-33.0"},{"group":"hexagon_bi","room_assignment":["grey","red","blue","green","yellow","purple"],"door_color_assignment":["black","white"],"door_generator_assignment":[0,1],"goal":5,"start":3,"action_noise":0.2,"location_history":"[3,4,5]","action_history":"[0,1]","door_history":"[0,1]","location_rts":"[2293,1024]","trial_type":"two-door-navigation","trial_index":36,"time_elapsed":2508612,"internal_node_id":"0.0-2.0-34.0"},{"group":"hexagon_bi","room_assignment":["grey","red","blue","green","yellow","purple"],"door_color_assignment":["black","white"],"door_generator_assignment":[0,1],"goal":2,"start":5,"action_noise":0.2,"location_history":"[5,4,5,4,5,0,5,4,5,0,1,0,1,0,1,2]","action_history":"[0,0,1,1,1,0,1,1,0,0,0,1,1,1,1]","door_history":"[0,0,1,1,1,0,1,1,0,0,0,1,1,1,1]","location_rts":"[10827,1146,516,1113,2029,838,774,471,859,270,391,647,305,485,531]","trial_type":"two-door-navigation","trial_index":37,"time_elapsed":2548461,"internal_node_id":"0.0-2.0-35.0"},{"group":"hexagon_bi","room_assignment":["grey","red","blue","green","yellow","purple"],"door_color_assignment":["black","white"],"door_generator_assignment":[0,1],"goal":0,"start":2,"action_noise":0.2,"location_history":"[2,1,2,1,2,3,2,1,2,1,0]","action_history":"[1,0,0,1,1,1,0,0,0,1]","door_history":"[1,0,0,1,1,1,0,0,0,1]","location_rts":"[20468,1518,542,797,426,604,361,479,486,457]","trial_type":"two-door-navigation","trial_index":38,"time_elapsed":2588161,"internal_node_id":"0.0-2.0-36.0"},{"group":"hexagon_bi","room_assignment":["grey","red","blue","green","yellow","purple"],"door_color_assignment":["black","white"],"door_generator_assignment":[0,1],"goal":4,"start":0,"action_noise":0.2,"location_history":"[0,5,4]","action_history":"[0,1]","door_history":"[0,1]","location_rts":"[1717,645]","trial_type":"two-door-navigation","trial_index":39,"time_elapsed":2596030,"internal_node_id":"0.0-2.0-37.0"},{"group":"hexagon_bi","room_assignment":["grey","red","blue","green","yellow","purple"],"door_color_assignment":["black","white"],"door_generator_assignment":[0,1],"goal":5,"start":4,"action_noise":0.2,"location_history":"[4,5]","action_history":"[1]","door_history":"[1]","location_rts":"[490]","trial_type":"two-door-navigation","trial_index":40,"time_elapsed":2601022,"internal_node_id":"0.0-2.0-38.0"},{"group":"hexagon_bi","room_assignment":["grey","red","blue","green","yellow","purple"],"door_color_assignment":["black","white"],"door_generator_assignment":[0,1],"goal":1,"start":5,"action_noise":0.2,"location_history":"[5,0,1]","action_history":"[0,1]","door_history":"[0,1]","location_rts":"[1490,780]","trial_type":"two-door-navigation","trial_index":41,"time_elapsed":2608800,"internal_node_id":"0.0-2.0-39.0"},{"group":"hexagon_bi","room_assignment":["grey","red","blue","green","yellow","purple"],"door_color_assignment":["black","white"],"door_generator_assignment":[0,1],"goal":3,"start":1,"action_noise":0.2,"location_history":"[1,0,5,4,3]","action_history":"[1,0,1,0]","door_history":"[1,0,1,0]","location_rts":"[1013,595,1511,829]","trial_type":"two-door-navigation","trial_index":42,"time_elapsed":2620270,"internal_node_id":"0.0-2.0-40.0"},{"group":"hexagon_bi","room_assignment":["grey","red","blue","green","yellow","purple"],"door_color_assignment":["black","white"],"door_generator_assignment":[0,1],"goal":1,"start":3,"action_noise":0.2,"location_history":"[3,2,1]","action_history":"[1,0]","door_history":"[1,0]","location_rts":"[1194,532]","trial_type":"two-door-navigation","trial_index":43,"time_elapsed":2627506,"internal_node_id":"0.0-2.0-41.0"},{"group":"hexagon_bi","room_assignment":["grey","red","blue","green","yellow","purple"],"door_color_assignment":["black","white"],"door_generator_assignment":[0,1],"goal":0,"start":1,"action_noise":0.2,"location_history":"[1,2,1,0]","action_history":"[0,1,1]","door_history":"[0,1,1]","location_rts":"[693,453,739]","trial_type":"two-door-navigation","trial_index":44,"time_elapsed":2635911,"internal_node_id":"0.0-2.0-42.0"},{"group":"hexagon_bi","room_assignment":["grey","red","blue","green","yellow","purple"],"door_color_assignment":["black","white"],"door_generator_assignment":[0,1],"goal":4,"start":0,"action_noise":0.2,"location_history":"[0,1,2,3,4]","action_history":"[0,0,1,0]","door_history":"[0,0,1,0]","location_rts":"[656,907,369,1189]","trial_type":"two-door-navigation","trial_index":45,"time_elapsed":2646565,"internal_node_id":"0.0-2.0-43.0"},{"group":"hexagon_bi","room_assignment":["grey","red","blue","green","yellow","purple"],"door_color_assignment":["black","white"],"door_generator_assignment":[0,1],"goal":2,"start":4,"action_noise":0.2,"location_history":"[4,3,2]","action_history":"[0,1]","door_history":"[0,1]","location_rts":"[1618,628]","trial_type":"two-door-navigation","trial_index":46,"time_elapsed":2654317,"internal_node_id":"0.0-2.0-44.0"},{"group":"hexagon_bi","room_assignment":["grey","red","blue","green","yellow","purple"],"door_color_assignment":["black","white"],"door_generator_assignment":[0,1],"goal":3,"start":2,"action_noise":0.2,"location_history":"[2,3]","action_history":"[1]","door_history":"[1]","location_rts":"[584]","trial_type":"two-door-navigation","trial_index":47,"time_elapsed":2659414,"internal_node_id":"0.0-2.0-45.0"},{"group":"hexagon_bi","room_assignment":["grey","red","blue","green","yellow","purple"],"door_color_assignment":["black","white"],"door_generator_assignment":[0,1],"goal":5,"start":3,"action_noise":0.2,"location_history":"[3,4,5]","action_history":"[0,1]","door_history":"[0,1]","location_rts":"[625,1500]","trial_type":"two-door-navigation","trial_index":48,"time_elapsed":2667043,"internal_node_id":"0.0-2.0-46.0"},{"group":"hexagon_bi","room_assignment":["grey","red","blue","green","yellow","purple"],"door_color_assignment":["black","white"],"door_generator_assignment":[0,1],"goal":4,"start":5,"action_noise":0.2,"location_history":"[5,0,1,2,1,2,3,4]","action_history":"[0,1,0,0,0,1,0]","door_history":"[0,1,0,0,0,1,0]","location_rts":"[1283,1259,642,206,526,990,507]","trial_type":"two-door-navigation","trial_index":49,"time_elapsed":2682986,"internal_node_id":"0.0-2.0-47.0"},{"group":"hexagon_bi","room_assignment":["grey","red","blue","green","yellow","purple"],"door_color_assignment":["black","white"],"door_generator_assignment":[0,1],"goal":3,"start":4,"action_noise":0.2,"location_history":"[4,5,0,5,4,5,4,3]","action_history":"[1,0,0,1,1,1,0]","door_history":"[1,0,0,1,1,1,0]","location_rts":"[1652,826,210,286,1292,579,364]","trial_type":"two-door-navigation","trial_index":50,"time_elapsed":2698727,"internal_node_id":"0.0-2.0-48.0"},{"group":"hexagon_bi","room_assignment":["grey","red","blue","green","yellow","purple"],"door_color_assignment":["black","white"],"door_generator_assignment":[0,1],"goal":1,"start":3,"action_noise":0.2,"location_history":"[3,4,3,2,3,2,3,4,3,2,3,2,1]","action_history":"[0,1,1,0,1,1,1,0,1,1,1,0]","door_history":"[0,1,1,0,1,1,1,0,1,1,1,0]","location_rts":"[1695,516,606,1253,457,191,1007,2054,614,156,168,786]","trial_type":"two-door-navigation","trial_index":51,"time_elapsed":2723787,"internal_node_id":"0.0-2.0-49.0"},{"group":"hexagon_bi","room_assignment":["grey","red","blue","green","yellow","purple"],"door_color_assignment":["black","white"],"door_generator_assignment":[0,1],"goal":2,"start":1,"action_noise":0.2,"location_history":"[1,2]","action_history":"[0]","door_history":"[0]","location_rts":"[747]","trial_type":"two-door-navigation","trial_index":52,"time_elapsed":2729038,"internal_node_id":"0.0-2.0-50.0"},{"group":"hexagon_bi","room_assignment":["grey","red","blue","green","yellow","purple"],"door_color_assignment":["black","white"],"door_generator_assignment":[0,1],"goal":0,"start":2,"action_noise":0.2,"location_history":"[2,3,2,1,2,3,2,1,2,3,4,5,0]","action_history":"[1,1,0,0,1,1,0,0,1,1,1,0]","door_history":"[1,1,0,0,1,1,0,0,1,1,1,0]","location_rts":"[1659,1600,378,685,315,420,242,280,202,445,205,829]","trial_type":"two-door-navigation","trial_index":53,"time_elapsed":2751841,"internal_node_id":"0.0-2.0-51.0"},{"group":"hexagon_bi","room_assignment":["grey","red","blue","green","yellow","purple"],"door_color_assignment":["black","white"],"door_generator_assignment":[0,1],"goal":5,"start":0,"action_noise":0.2,"location_history":"[0,1,0,1,2,1,2,3,2,1,2,3,2,1,0,5]","action_history":"[0,1,1,0,0,1,1,1,0,0,1,1,0,1,0]","door_history":"[0,1,1,0,0,1,1,1,0,0,1,1,0,1,0]","location_rts":"[1412,1012,402,947,735,984,362,410,262,503,235,370,845,1100,671]","trial_type":"two-door-navigation","trial_index":54,"time_elapsed":2780650,"internal_node_id":"0.0-2.0-52.0"},{"group":"hexagon_bi","room_assignment":["grey","red","blue","green","yellow","purple"],"door_color_assignment":["black","white"],"door_generator_assignment":[0,1],"goal":1,"start":5,"action_noise":0.2,"location_history":"[5,4,3,2,3,4,3,4,5,4,3,2,3,4,3,4,3,2,3,4,5,4,3,4,5,4,5,4,3,2,1]","action_history":"[1,0,0,1,0,0,0,1,1,0,1,1,0,0,0,1,1,1,0,0,1,1,0,1,1,1,1,0,1,0]","door_history":"[1,0,0,1,0,0,0,1,1,0,1,1,0,0,0,1,1,1,0,0,1,1,0,1,1,1,1,0,1,0]","location_rts":"[2063,654,658,774,673,204,1859,238,502,874,586,300,564,203,436,488,370,423,627,195,408,557,499,593,334,529,646,570,988,554]","trial_type":"two-door-navigation","trial_index":55,"time_elapsed":2832635,"internal_node_id":"0.0-2.0-53.0"},{"group":"hexagon_bi","room_assignment":["grey","red","blue","green","yellow","purple"],"door_color_assignment":["black","white"],"door_generator_assignment":[0,1],"goal":3,"start":1,"action_noise":0.2,"location_history":"[1,2,1,0,1,2,1,0,1,0,5,4,3]","action_history":"[0,1,1,0,0,0,1,1,0,0,1,0]","door_history":"[0,1,1,0,0,0,1,1,0,0,1,0]","location_rts":"[3038,719,1154,556,495,454,464,397,381,242,671,915]","trial_type":"two-door-navigation","trial_index":56,"time_elapsed":2857681,"internal_node_id":"0.0-2.0-54.0"},{"group":"hexagon_bi","room_assignment":["grey","red","blue","green","yellow","purple"],"door_color_assignment":["black","white"],"door_generator_assignment":[0,1],"goal":5,"start":3,"action_noise":0.2,"location_history":"[3,4,5]","action_history":"[0,1]","door_history":"[0,1]","location_rts":"[2054,477]","trial_type":"two-door-navigation","trial_index":57,"time_elapsed":2865722,"internal_node_id":"0.0-2.0-55.0"},{"group":"hexagon_bi","room_assignment":["grey","red","blue","green","yellow","purple"],"door_color_assignment":["black","white"],"door_generator_assignment":[0,1],"goal":4,"start":5,"action_noise":0.2,"location_history":"[5,0,1,2,3,2,1,2,3,4]","action_history":"[0,1,0,1,1,0,0,1,0]","door_history":"[0,1,0,1,1,0,0,1,0]","location_rts":"[653,984,883,436,232,815,448,298,421]","trial_type":"two-door-navigation","trial_index":58,"time_elapsed":2883423,"internal_node_id":"0.0-2.0-56.0"},{"group":"hexagon_bi","room_assignment":["grey","red","blue","green","yellow","purple"],"door_color_assignment":["black","white"],"door_generator_assignment":[0,1],"goal":0,"start":4,"action_noise":0.2,"location_history":"[4,3,2,3,2,3,2,3,4,5,0]","action_history":"[0,1,0,1,1,0,0,1,1,0]","door_history":"[0,1,0,1,1,0,0,1,1,0]","location_rts":"[1480,502,625,806,384,425,230,617,122,328]","trial_type":"two-door-navigation","trial_index":59,"time_elapsed":2902469,"internal_node_id":"0.0-2.0-57.0"},{"group":"hexagon_bi","room_assignment":["grey","red","blue","green","yellow","purple"],"door_color_assignment":["black","white"],"door_generator_assignment":[0,1],"goal":2,"start":0,"action_noise":0.2,"location_history":"[0,5,4,3,4,3,2]","action_history":"[0,1,0,0,0,1]","door_history":"[0,1,0,0,0,1]","location_rts":"[371,441,558,422,580,211]","trial_type":"two-door-navigation","trial_index":60,"time_elapsed":2914572,"internal_node_id":"0.0-2.0-58.0"},{"group":"hexagon_bi","room_assignment":["grey","red","blue","green","yellow","purple"],"door_color_assignment":["black","white"],"door_generator_assignment":[0,1],"goal":4,"start":2,"action_noise":0.2,"location_history":"[2,3,2,3,2,1,0,1,0,5,0,1,2,1,0,5,0,1,0,1,2,1,2,1,0,1,0,5,4]","action_history":"[1,0,1,1,0,1,1,0,0,0,1,0,0,1,1,0,1,0,0,0,1,1,0,1,1,1,0,1]","door_history":"[1,0,1,1,0,1,1,0,0,0,1,0,0,1,1,0,1,0,0,0,1,1,0,1,1,1,0,1]","location_rts":"[810,1068,1050,645,374,570,380,430,296,351,513,379,420,1130,385,220,1163,530,639,415,205,395,261,489,368,925,415,1289]","trial_type":"two-door-navigation","trial_index":61,"time_elapsed":2962294,"internal_node_id":"0.0-2.0-59.0"},{"group":"hexagon_bi","room_assignment":["grey","red","blue","green","yellow","purple"],"door_color_assignment":["black","white"],"door_generator_assignment":[0,1],"goal":2,"start":4,"action_noise":0.2,"location_history":"[4,5,0,5,4,3,4,5,4,5,0,1,0,1,0,1,2]","action_history":"[1,0,0,1,0,0,1,1,1,0,0,1,0,1,1,0]","door_history":"[1,0,0,1,0,0,1,1,1,0,0,1,0,1,1,0]","location_rts":"[487,935,955,597,659,478,878,477,485,464,677,631,1141,485,390,1084]","trial_type":"two-door-navigation","trial_index":62,"time_elapsed":2992704,"internal_node_id":"0.0-2.0-60.0"},{"group":"hexagon_bi","room_assignment":["grey","red","blue","green","yellow","purple"],"door_color_assignment":["black","white"],"door_generator_assignment":[0,1],"goal":3,"start":2,"action_noise":0.2,"location_history":"[2,1,0,1,0,5,4,3]","action_history":"[0,1,1,0,0,1,0]","door_history":"[0,1,1,0,0,1,0]","location_rts":"[2860,626,378,266,246,204,1051]","trial_type":"two-door-navigation","trial_index":63,"time_elapsed":3008874,"internal_node_id":"0.0-2.0-61.0"},{"group":"hexagon_bi","room_assignment":["grey","red","blue","green","yellow","purple"],"door_color_assignment":["black","white"],"door_generator_assignment":[0,1],"goal":0,"start":3,"action_noise":0.2,"location_history":"[3,2,3,2,3,4,3,2,1,2,3,2,1,2,1,0]","action_history":"[1,0,1,1,0,0,1,0,1,1,1,0,1,0,0]","door_history":"[1,0,1,1,0,0,1,0,1,1,1,0,1,0,0]","location_rts":"[1279,575,651,228,636,379,877,323,1,788,953,261,837,512,516]","trial_type":"two-door-navigation","trial_index":64,"time_elapsed":3036260,"internal_node_id":"0.0-2.0-62.0"},{"group":"hexagon_bi","room_assignment":["grey","red","blue","green","yellow","purple"],"door_color_assignment":["black","white"],"door_generator_assignment":[0,1],"goal":5,"start":0,"action_noise":0.2,"location_history":"[0,1,2,3,2,3,2,1,2,3,2,1,2,3,2,1,2,3,4,5]","action_history":"[1,0,0,1,1,1,0,0,1,1,0,1,1,0,0,0,1,0,1]","door_history":"[1,0,0,1,1,1,0,0,1,1,0,1,1,0,0,0,1,0,1]","location_rts":"[1511,852,1815,715,279,853,311,729,711,655,634,846,462,227,477,496,603,898,374]","trial_type":"two-door-navigation","trial_index":65,"time_elapsed":3072278,"internal_node_id":"0.0-2.0-63.0"},{"group":"hexagon_bi","room_assignment":["grey","red","blue","green","yellow","purple"],"door_color_assignment":["black","white"],"door_generator_assignment":[0,1],"goal":1,"start":5,"action_noise":0.2,"location_history":"[5,0,5,4,5,0,5,0,1]","action_history":"[1,0,1,1,0,0,1,1]","door_history":"[1,0,1,1,0,0,1,1]","location_rts":"[2046,581,924,1735,720,399,688,820]","trial_type":"two-door-navigation","trial_index":66,"time_elapsed":3091718,"internal_node_id":"0.0-2.0-64.0"},{"group":"hexagon_bi","room_assignment":["grey","red","blue","green","yellow","purple"],"door_color_assignment":["black","white"],"door_generator_assignment":[0,1],"goal":5,"start":1,"action_noise":0.2,"location_history":"[1,2,3,4,5]","action_history":"[0,1,0,1]","door_history":"[0,1,0,1]","location_rts":"[2011,695,4385,1356]","trial_type":"two-door-navigation","trial_index":67,"time_elapsed":3107686,"internal_node_id":"0.0-2.0-65.0"},{"group":"hexagon_bi","room_assignment":["grey","red","blue","green","yellow","purple"],"door_color_assignment":["black","white"],"door_generator_assignment":[0,1],"goal":3,"start":5,"action_noise":0.2,"location_history":"[5,4,3]","action_history":"[1,0]","door_history":"[1,0]","location_rts":"[2595,753]","trial_type":"two-door-navigation","trial_index":68,"time_elapsed":3116542,"internal_node_id":"0.0-2.0-66.0"},{"group":"hexagon_bi","room_assignment":["grey","red","blue","green","yellow","purple"],"door_color_assignment":["black","white"],"door_generator_assignment":[0,1],"goal":2,"start":3,"action_noise":0.2,"location_history":"[3,2]","action_history":"[1]","door_history":"[1]","location_rts":"[3954]","trial_type":"two-door-navigation","trial_index":69,"time_elapsed":3124999,"internal_node_id":"0.0-2.0-67.0"},{"group":"hexagon_bi","room_assignment":["grey","red","blue","green","yellow","purple"],"door_color_assignment":["black","white"],"door_generator_assignment":[0,1],"goal":1,"start":2,"action_noise":0.2,"location_history":"[2,3,2,1]","action_history":"[1,0,0]","door_history":"[1,0,0]","location_rts":"[4401,803,757]","trial_type":"two-door-navigation","trial_index":70,"time_elapsed":3137478,"internal_node_id":"0.0-2.0-68.0"},{"group":"hexagon_bi","room_assignment":["grey","red","blue","green","yellow","purple"],"door_color_assignment":["black","white"],"door_generator_assignment":[0,1],"goal":4,"start":1,"action_noise":0.2,"location_history":"[1,0,5,4]","action_history":"[0,1,1]","door_history":"[0,1,1]","location_rts":"[4666,1108,933]","trial_type":"two-door-navigation","trial_index":71,"time_elapsed":3150702,"internal_node_id":"0.0-2.0-69.0"},{"group":"hexagon_bi","room_assignment":["grey","red","blue","green","yellow","purple"],"door_color_assignment":["black","white"],"door_generator_assignment":[0,1],"goal":0,"start":4,"action_noise":0.2,"location_history":"[4,5,0]","action_history":"[1,0]","door_history":"[1,0]","location_rts":"[4065,925]","trial_type":"two-door-navigation","trial_index":72,"time_elapsed":3161198,"internal_node_id":"0.0-2.0-70.0"},{"group":"hexagon_bi","room_assignment":["grey","red","blue","green","yellow","purple"],"door_color_assignment":["black","white"],"door_generator_assignment":[0,1],"goal":3,"start":0,"action_noise":0.2,"location_history":"[0,5,0,5,0,5,0,1,2,3]","action_history":"[0,1,0,0,1,1,1,0,1]","door_history":"[0,1,0,0,1,1,1,0,1]","location_rts":"[2858,646,981,214,407,550,642,745,919]","trial_type":"two-door-navigation","trial_index":73,"time_elapsed":3181692,"internal_node_id":"0.0-2.0-71.0"},{"group":"hexagon_bi","room_assignment":["grey","red","blue","green","yellow","purple"],"door_color_assignment":["black","white"],"door_generator_assignment":[0,1],"goal":1,"start":3,"action_noise":0.2,"location_history":"[3,2,1]","action_history":"[1,0]","door_history":"[1,0]","location_rts":"[618,468]","trial_type":"two-door-navigation","trial_index":74,"time_elapsed":3188288,"internal_node_id":"0.0-2.0-72.0"},{"group":"hexagon_bi","room_assignment":["grey","red","blue","green","yellow","purple"],"door_color_assignment":["black","white"],"door_generator_assignment":[0,1],"goal":0,"start":1,"action_noise":0.2,"location_history":"[1,0]","action_history":"[0]","door_history":"[0]","location_rts":"[4680]","trial_type":"two-door-navigation","trial_index":75,"time_elapsed":3197469,"internal_node_id":"0.0-2.0-73.0"},{"group":"hexagon_bi","room_assignment":["grey","red","blue","green","yellow","purple"],"door_color_assignment":["black","white"],"door_generator_assignment":[0,1],"goal":2,"start":0,"action_noise":0.2,"location_history":"[0,5,0,1,0,1,0,1,2]","action_history":"[1,0,0,1,1,1,1,0]","door_history":"[1,0,0,1,1,1,1,0]","location_rts":"[4304,1014,1546,930,1353,1388,1103,253]","trial_type":"two-door-navigation","trial_index":76,"time_elapsed":3220896,"internal_node_id":"0.0-2.0-74.0"},{"group":"hexagon_bi","room_assignment":["grey","red","blue","green","yellow","purple"],"door_color_assignment":["black","white"],"door_generator_assignment":[0,1],"goal":4,"start":2,"action_noise":0.2,"location_history":"[2,1,0,1,0,1,0,1,0,1,2,3,2,1,2,3,4]","action_history":"[0,1,1,0,1,1,1,0,1,0,0,1,0,1,1,0]","door_history":"[0,1,1,0,1,1,1,0,1,0,0,1,0,1,1,0]","location_rts":"[3567,740,488,407,1192,426,653,694,372,379,187,382,813,681,822,541]","trial_type":"two-door-navigation","trial_index":77,"time_elapsed":3252809,"internal_node_id":"0.0-2.0-75.0"},{"group":"hexagon_bi","room_assignment":["grey","red","blue","green","yellow","purple"],"door_color_assignment":["black","white"],"door_generator_assignment":[0,1],"goal":5,"start":4,"action_noise":0.2,"location_history":"[4,5]","action_history":"[1]","door_history":"[1]","location_rts":"[596]","trial_type":"two-door-navigation","trial_index":78,"time_elapsed":3257910,"internal_node_id":"0.0-2.0-76.0"},{"group":"hexagon_bi","room_assignment":["grey","red","blue","green","yellow","purple"],"door_color_assignment":["black","white"],"door_generator_assignment":[0,1],"goal":2,"start":5,"action_noise":0.2,"location_history":"[5,4,3,2]","action_history":"[1,0,1]","door_history":"[1,0,1]","location_rts":"[474,921,1117]","trial_type":"two-door-navigation","trial_index":79,"time_elapsed":3266932,"internal_node_id":"0.0-2.0-77.0"},{"group":"hexagon_bi","room_assignment":["grey","red","blue","green","yellow","purple"],"door_color_assignment":["black","white"],"door_generator_assignment":[0,1],"goal":3,"start":2,"action_noise":0.2,"location_history":"[2,3]","action_history":"[1]","door_history":"[1]","location_rts":"[1313]","trial_type":"two-door-navigation","trial_index":80,"time_elapsed":3272748,"internal_node_id":"0.0-2.0-78.0"},{"group":"hexagon_bi","room_assignment":["grey","red","blue","green","yellow","purple"],"door_color_assignment":["black","white"],"door_generator_assignment":[0,1],"goal":1,"start":3,"action_noise":0.2,"location_history":"[3,4,5,4,3,2,3,4,5,0,1]","action_history":"[0,1,1,0,0,1,0,1,1,1]","door_history":"[0,1,1,0,0,1,0,1,1,1]","location_rts":"[896,755,520,591,232,250,676,809,1040,902]","trial_type":"two-door-navigation","trial_index":81,"time_elapsed":3292957,"internal_node_id":"0.0-2.0-79.0"},{"group":"hexagon_bi","room_assignment":["grey","red","blue","green","yellow","purple"],"door_color_assignment":["black","white"],"door_generator_assignment":[0,1],"goal":4,"start":1,"action_noise":0.2,"location_history":"[1,0,5,0,1,0,1,2,3,4]","action_history":"[1,0,0,1,1,0,0,1,0]","door_history":"[1,0,0,1,1,0,0,1,0]","location_rts":"[318,536,333,424,324,534,2059,867,1077]","trial_type":"two-door-navigation","trial_index":82,"time_elapsed":3311956,"internal_node_id":"0.0-2.0-80.0"},{"group":"hexagon_bi","room_assignment":["grey","red","blue","green","yellow","purple"],"door_color_assignment":["black","white"],"door_generator_assignment":[0,1],"goal":5,"start":4,"action_noise":0.2,"location_history":"[4,5]","action_history":"[1]","door_history":"[1]","location_rts":"[926]","trial_type":"two-door-navigation","trial_index":83,"time_elapsed":3317385,"internal_node_id":"0.0-2.0-81.0"},{"group":"hexagon_bi","room_assignment":["grey","red","blue","green","yellow","purple"],"door_color_assignment":["black","white"],"door_generator_assignment":[0,1],"goal":0,"start":5,"action_noise":0.2,"location_history":"[5,4,5,4,3,4,5,0]","action_history":"[0,1,1,0,0,1,1]","door_history":"[0,1,1,0,0,1,1]","location_rts":"[866,1199,278,1022,605,427,563]","trial_type":"two-door-navigation","trial_index":84,"time_elapsed":3332873,"internal_node_id":"0.0-2.0-82.0"},{"group":"hexagon_bi","room_assignment":["grey","red","blue","green","yellow","purple"],"door_color_assignment":["black","white"],"door_generator_assignment":[0,1],"goal":2,"start":0,"action_noise":0.2,"location_history":"[0,5,0,1,0,1,0,5,0,1,2]","action_history":"[0,1,1,0,1,1,0,0,1,0]","door_history":"[0,1,1,0,1,1,0,0,1,0]","location_rts":"[1552,470,426,319,875,693,291,583,266,464]","trial_type":"two-door-navigation","trial_index":85,"time_elapsed":3352353,"internal_node_id":"0.0-2.0-83.0"},{"group":"hexagon_bi","room_assignment":["grey","red","blue","green","yellow","purple"],"door_color_assignment":["black","white"],"door_generator_assignment":[0,1],"goal":0,"start":2,"action_noise":0.2,"location_history":"[2,3,2,1,2,1,0]","action_history":"[0,1,0,0,1,1]","door_history":"[0,1,0,0,1,1]","location_rts":"[418,430,389,426,704,727]","trial_type":"two-door-navigation","trial_index":86,"time_elapsed":3364974,"internal_node_id":"0.0-2.0-84.0"},{"group":"hexagon_bi","room_assignment":["grey","red","blue","green","yellow","purple"],"door_color_assignment":["black","white"],"door_generator_assignment":[0,1],"goal":5,"start":0,"action_noise":0.2,"location_history":"[0,1,0,5]","action_history":"[0,1,1]","door_history":"[0,1,1]","location_rts":"[1687,760,218]","trial_type":"two-door-navigation","trial_index":87,"time_elapsed":3374174,"internal_node_id":"0.0-2.0-85.0"},{"group":"hexagon_bi","room_assignment":["grey","red","blue","green","yellow","purple"],"door_color_assignment":["black","white"],"door_generator_assignment":[0,1],"goal":1,"start":5,"action_noise":0.2,"location_history":"[5,4,3,4,3,2,1]","action_history":"[1,0,0,1,1,0]","door_history":"[1,0,0,1,1,0]","location_rts":"[451,918,208,444,214,277]","trial_type":"two-door-navigation","trial_index":88,"time_elapsed":3386203,"internal_node_id":"0.0-2.0-86.0"},{"group":"hexagon_bi","room_assignment":["grey","red","blue","green","yellow","purple"],"door_color_assignment":["black","white"],"door_generator_assignment":[0,1],"goal":4,"start":1,"action_noise":0.2,"location_history":"[1,2,3,2,1,0,1,0,5,4]","action_history":"[0,1,1,0,0,1,1,0,0]","door_history":"[0,1,1,0,0,1,1,0,0]","location_rts":"[696,335,381,558,1044,410,339,273,499]","trial_type":"two-door-navigation","trial_index":89,"time_elapsed":3403274,"internal_node_id":"0.0-2.0-87.0"},{"group":"hexagon_bi","room_assignment":["grey","red","blue","green","yellow","purple"],"door_color_assignment":["black","white"],"door_generator_assignment":[0,1],"goal":3,"start":4,"action_noise":0.2,"location_history":"[4,5,0,1,0,5,0,1,0,5,4,3]","action_history":"[1,0,0,1,1,0,1,1,0,1,0]","door_history":"[1,0,0,1,1,0,1,1,0,1,0]","location_rts":"[605,886,430,401,597,437,832,412,243,197,927]","trial_type":"two-door-navigation","trial_index":90,"time_elapsed":3423800,"internal_node_id":"0.0-2.0-88.0"},{"group":"hexagon_bi","room_assignment":["grey","red","blue","green","yellow","purple"],"door_color_assignment":["black","white"],"door_generator_assignment":[0,1],"goal":5,"start":3,"action_noise":0.2,"location_history":"[3,2,1,2,1,0,1,0,5]","action_history":"[0,1,0,0,1,1,0,0]","door_history":"[0,1,0,0,1,1,0,0]","location_rts":"[1064,532,541,356,285,196,735,488]","trial_type":"two-door-navigation","trial_index":91,"time_elapsed":3439527,"internal_node_id":"0.0-2.0-89.0"},{"group":"hexagon_bi","room_assignment":["grey","red","blue","green","yellow","purple"],"door_color_assignment":["black","white"],"door_generator_assignment":[0,1],"goal":1,"start":5,"action_noise":0.2,"location_history":"[5,4,5,4,5,0,1]","action_history":"[1,0,1,1,0,0]","door_history":"[1,0,1,1,0,0]","location_rts":"[2010,1184,445,213,198,225]","trial_type":"two-door-navigation","trial_index":92,"time_elapsed":3453327,"internal_node_id":"0.0-2.0-90.0"},{"group":"hexagon_bi","room_assignment":["grey","red","blue","green","yellow","purple"],"door_color_assignment":["black","white"],"door_generator_assignment":[0,1],"goal":2,"start":1,"action_noise":0.2,"location_history":"[1,0,5,0,5,4,3,2]","action_history":"[1,0,0,1,1,0,0]","door_history":"[1,0,0,1,1,0,0]","location_rts":"[485,876,219,461,419,372,351]","trial_type":"two-door-navigation","trial_index":93,"time_elapsed":3467055,"internal_node_id":"0.0-2.0-91.0"},{"group":"hexagon_bi","room_assignment":["grey","red","blue","green","yellow","purple"],"door_color_assignment":["black","white"],"door_generator_assignment":[0,1],"goal":4,"start":2,"action_noise":0.2,"location_history":"[2,1,2,1,0,1,2,1,0,5,0,1,0,5,0,1,2,1,0,5,0,1,0,1,0,5,4]","action_history":"[1,0,0,1,1,0,0,1,1,0,1,1,0,0,1,0,0,1,0,0,0,1,1,0,1,1]","door_history":"[1,0,0,1,1,0,0,1,1,0,1,1,0,0,1,0,0,1,0,0,0,1,1,0,1,1]","location_rts":"[761,459,222,249,222,206,354,291,157,178,388,349,467,225,218,284,181,233,219,109,205,131,62,221,244,197]","trial_type":"two-door-navigation","trial_index":94,"time_elapsed":3503544,"internal_node_id":"0.0-2.0-92.0"},{"group":"hexagon_bi","room_assignment":["grey","red","blue","green","yellow","purple"],"door_color_assignment":["black","white"],"door_generator_assignment":[0,1],"goal":0,"start":4,"action_noise":0.2,"location_history":"[4,3,2,1,2,3,4,3,2,1,2,3,2,3,2,3,4,5,4,3,4,5,0]","action_history":"[0,1,1,0,0,0,0,1,0,0,1,1,0,1,1,0,0,1,0,0,1,0]","door_history":"[0,1,1,0,0,0,0,1,0,0,1,1,0,1,1,0,0,1,0,0,1,0]","location_rts":"[278,601,287,123,143,254,53,1790,403,300,100,194,195,273,203,22,381,529,766,436,298,571]","trial_type":"two-door-navigation","trial_index":95,"time_elapsed":3537397,"internal_node_id":"0.0-2.0-93.0"},{"group":"hexagon_bi","room_assignment":["grey","red","blue","green","yellow","purple"],"door_color_assignment":["black","white"],"door_generator_assignment":[0,1],"goal":3,"start":0,"action_noise":0.2,"location_history":"[0,5,4,5,0,5,4,3]","action_history":"[0,1,1,0,0,1,0]","door_history":"[0,1,1,0,0,1,0]","location_rts":"[898,739,399,373,375,427,372]","trial_type":"two-door-navigation","trial_index":96,"time_elapsed":3551508,"internal_node_id":"0.0-2.0-94.0"},{"group":"hexagon_bi","room_assignment":["grey","red","blue","green","yellow","purple"],"door_color_assignment":["black","white"],"door_generator_assignment":[0,1],"goal":0,"start":3,"action_noise":0.2,"location_history":"[3,2,3,2,1,2,3,4,5,0]","action_history":"[0,1,1,0,0,1,1,1,0]","door_history":"[0,1,1,0,0,1,1,1,0]","location_rts":"[18281,582,251,250,459,294,320,483,1083]","trial_type":"two-door-navigation","trial_index":97,"time_elapsed":3586069,"internal_node_id":"0.0-2.0-95.0"},{"group":"hexagon_bi","room_assignment":["grey","red","blue","green","yellow","purple"],"door_color_assignment":["black","white"],"door_generator_assignment":[0,1],"goal":4,"start":0,"action_noise":0.2,"location_history":"[0,1,2,1,0,1,2,1,0,5,0,1,2,1,2,1,2,3,4]","action_history":"[1,0,0,1,1,0,0,1,0,1,1,0,0,0,1,0,1,1]","door_history":"[1,0,0,1,1,0,0,1,0,1,1,0,0,0,1,0,1,1]","location_rts":"[1181,483,286,5,262,106,211,85,174,202,244,216,198,199,197,335,205,183]","trial_type":"two-door-navigation","trial_index":98,"time_elapsed":3612427,"internal_node_id":"0.0-2.0-96.0"},{"group":"hexagon_bi","room_assignment":["grey","red","blue","green","yellow","purple"],"door_color_assignment":["black","white"],"door_generator_assignment":[0,1],"goal":5,"start":4,"action_noise":0.2,"location_history":"[4,3,2,1,2,3,4,3,2,1,2,3,4,5]","action_history":"[0,1,0,0,1,0,0,1,0,0,1,1,1]","door_history":"[0,1,0,0,1,0,0,1,0,0,1,1,1]","location_rts":"[542,489,385,236,165,109,297,509,852,453,584,288,362]","trial_type":"two-door-navigation","trial_index":99,"time_elapsed":3634247,"internal_node_id":"0.0-2.0-97.0"},{"group":"hexagon_bi","room_assignment":["grey","red","blue","green","yellow","purple"],"door_color_assignment":["black","white"],"door_generator_assignment":[0,1],"goal":2,"start":5,"action_noise":0.2,"location_history":"[5,4,3,4,5,0,5,0,5,0,1,2]","action_history":"[1,0,0,1,1,0,1,0,1,1,0]","door_history":"[1,0,0,1,1,0,1,0,1,1,0]","location_rts":"[1121,516,259,208,611,224,816,599,352,236,515]","trial_type":"two-door-navigation","trial_index":100,"time_elapsed":3654248,"internal_node_id":"0.0-2.0-98.0"},{"group":"hexagon_bi","room_assignment":["grey","red","blue","green","yellow","purple"],"door_color_assignment":["black","white"],"door_generator_assignment":[0,1],"goal":1,"start":2,"action_noise":0.2,"location_history":"[2,1]","action_history":"[0]","door_history":"[0]","location_rts":"[736]","trial_type":"two-door-navigation","trial_index":101,"time_elapsed":3659488,"internal_node_id":"0.0-2.0-99.0"},{"view_history":"[{\"page_index\":0,\"viewing_time\":1512}]","rt":1512,"trial_type":"instructions","trial_index":102,"time_elapsed":3662000,"internal_node_id":"0.0-3.0"},{"view_history":"[{\"page_index\":0,\"viewing_time\":2576},{\"page_index\":1,\"viewing_time\":3176}]","rt":5752,"trial_type":"instructions","trial_index":103,"time_elapsed":3668752,"internal_node_id":"0.0-4.0"},{"group":"hexagon_tri","fractal_assignment":["../images/ylw_slt.png","../images/gry_blk.png","../images/pnk_blu.png","../images/cyn_red.png","../images/blu_wht.png","../images/org_blu.png"],"mutagen_generator_assignment":[1,0],"goal":2,"start":1,"action_noise":0.2,"location_history":"[1,3,2]","action_history":"[1,0]","mutagen_history":"[0,1]","location_rts":"[8461,914]","trial_type":"fractal-mutation","trial_index":104,"time_elapsed":3683873,"internal_node_id":"0.0-5.0-0.0"},{"group":"hexagon_tri","fractal_assignment":["../images/ylw_slt.png","../images/gry_blk.png","../images/pnk_blu.png","../images/cyn_red.png","../images/blu_wht.png","../images/org_blu.png"],"mutagen_generator_assignment":[1,0],"goal":0,"start":2,"action_noise":0.2,"location_history":"[2,3,2,1,3,4,2,1,5,0]","action_history":"[1,0,0,0,1,1,0,1,1]","mutagen_history":"[0,1,1,1,0,0,1,0,0]","location_rts":"[2058,730,238,800,591,643,499,376,825]","trial_type":"fractal-mutation","trial_index":105,"time_elapsed":3704491,"internal_node_id":"0.0-5.0-1.0"},{"group":"hexagon_tri","fractal_assignment":["../images/ylw_slt.png","../images/gry_blk.png","../images/pnk_blu.png","../images/cyn_red.png","../images/blu_wht.png","../images/org_blu.png"],"mutagen_generator_assignment":[1,0],"goal":5,"start":0,"action_noise":0.2,"location_history":"[0,5]","action_history":"[0]","mutagen_history":"[1]","location_rts":"[1164]","trial_type":"fractal-mutation","trial_index":106,"time_elapsed":3710367,"internal_node_id":"0.0-5.0-2.0"},{"group":"hexagon_tri","fractal_assignment":["../images/ylw_slt.png","../images/gry_blk.png","../images/pnk_blu.png","../images/cyn_red.png","../images/blu_wht.png","../images/org_blu.png"],"mutagen_generator_assignment":[1,0],"goal":3,"start":5,"action_noise":0.2,"location_history":"[5,4,2,1,5,0,5,4,2,1,5,0,1,5,4,2,3]","action_history":"[0,1,0,1,1,0,0,0,0,1,0,1,1,1,0,0]","mutagen_history":"[1,0,1,0,0,1,1,1,1,0,1,0,0,0,1,1]","location_rts":"[1021,311,994,511,838,422,533,724,786,417,407,343,579,905,273,495]","trial_type":"fractal-mutation","trial_index":107,"time_elapsed":3742102,"internal_node_id":"0.0-5.0-3.0"},{"group":"hexagon_tri","fractal_assignment":["../images/ylw_slt.png","../images/gry_blk.png","../images/pnk_blu.png","../images/cyn_red.png","../images/blu_wht.png","../images/org_blu.png"],"mutagen_generator_assignment":[1,0],"goal":4,"start":3,"action_noise":0.2,"location_history":"[3,4]","action_history":"[1]","mutagen_history":"[0]","location_rts":"[404]","trial_type":"fractal-mutation","trial_index":108,"time_elapsed":3747041,"internal_node_id":"0.0-5.0-4.0"},{"group":"hexagon_tri","fractal_assignment":["../images/ylw_slt.png","../images/gry_blk.png","../images/pnk_blu.png","../images/cyn_red.png","../images/blu_wht.png","../images/org_blu.png"],"mutagen_generator_assignment":[1,0],"goal":0,"start":4,"action_noise":0.2,"location_history":"[4,2,3,4,0]","action_history":"[1,0,1,0]","mutagen_history":"[0,1,0,1]","location_rts":"[887,206,544,827]","trial_type":"fractal-mutation","trial_index":109,"time_elapsed":3757637,"internal_node_id":"0.0-5.0-5.0"},{"group":"hexagon_tri","fractal_assignment":["../images/ylw_slt.png","../images/gry_blk.png","../images/pnk_blu.png","../images/cyn_red.png","../images/blu_wht.png","../images/org_blu.png"],"mutagen_generator_assignment":[1,0],"goal":4,"start":0,"action_noise":0.2,"location_history":"[0,5,4]","action_history":"[0,1]","mutagen_history":"[1,0]","location_rts":"[450,548]","trial_type":"fractal-mutation","trial_index":110,"time_elapsed":3764445,"internal_node_id":"0.0-5.0-6.0"},{"group":"hexagon_tri","fractal_assignment":["../images/ylw_slt.png","../images/gry_blk.png","../images/pnk_blu.png","../images/cyn_red.png","../images/blu_wht.png","../images/org_blu.png"],"mutagen_generator_assignment":[1,0],"goal":3,"start":4,"action_noise":0.2,"location_history":"[4,2,1,5,4,0,1,3]","action_history":"[0,1,1,0,1,0,0]","mutagen_history":"[1,0,0,1,0,1,1]","location_rts":"[299,1223,549,1125,1272,957,531]","trial_type":"fractal-mutation","trial_index":111,"time_elapsed":3782026,"internal_node_id":"0.0-5.0-7.0"},{"group":"hexagon_tri","fractal_assignment":["../images/ylw_slt.png","../images/gry_blk.png","../images/pnk_blu.png","../images/cyn_red.png","../images/blu_wht.png","../images/org_blu.png"],"mutagen_generator_assignment":[1,0],"goal":2,"start":3,"action_noise":0.2,"location_history":"[3,4,0,5,0,5,0,1,3,4,2]","action_history":"[1,0,0,1,0,1,1,0,0,1]","mutagen_history":"[0,1,1,0,1,0,0,1,1,0]","location_rts":"[685,1136,709,536,434,963,345,731,899,569]","trial_type":"fractal-mutation","trial_index":112,"time_elapsed":3803938,"internal_node_id":"0.0-5.0-8.0"},{"group":"hexagon_tri","fractal_assignment":["../images/ylw_slt.png","../images/gry_blk.png","../images/pnk_blu.png","../images/cyn_red.png","../images/blu_wht.png","../images/org_blu.png"],"mutagen_generator_assignment":[1,0],"goal":1,"start":2,"action_noise":0.2,"location_history":"[2,3,2,1]","action_history":"[1,0,0]","mutagen_history":"[0,1,1]","location_rts":"[898,582,454]","trial_type":"fractal-mutation","trial_index":113,"time_elapsed":3812860,"internal_node_id":"0.0-5.0-9.0"},{"group":"hexagon_tri","fractal_assignment":["../images/ylw_slt.png","../images/gry_blk.png","../images/pnk_blu.png","../images/cyn_red.png","../images/blu_wht.png","../images/org_blu.png"],"mutagen_generator_assignment":[1,0],"goal":5,"start":1,"action_noise":0.2,"location_history":"[1,3,4,2,1,3,2,3,4,0,5]","action_history":"[0,1,1,0,0,0,1,1,1,0]","mutagen_history":"[1,0,0,1,1,1,0,0,0,1]","location_rts":"[698,415,865,395,431,925,427,884,757,1414]","trial_type":"fractal-mutation","trial_index":114,"time_elapsed":3835247,"internal_node_id":"0.0-5.0-10.0"},{"group":"hexagon_tri","fractal_assignment":["../images/ylw_slt.png","../images/gry_blk.png","../images/pnk_blu.png","../images/cyn_red.png","../images/blu_wht.png","../images/org_blu.png"],"mutagen_generator_assignment":[1,0],"goal":0,"start":5,"action_noise":0.2,"location_history":"[5,0]","action_history":"[0]","mutagen_history":"[1]","location_rts":"[712]","trial_type":"fractal-mutation","trial_index":115,"time_elapsed":3840672,"internal_node_id":"0.0-5.0-11.0"},{"group":"hexagon_tri","fractal_assignment":["../images/ylw_slt.png","../images/gry_blk.png","../images/pnk_blu.png","../images/cyn_red.png","../images/blu_wht.png","../images/org_blu.png"],"mutagen_generator_assignment":[1,0],"goal":4,"start":0,"action_noise":0.2,"location_history":"[0,1,3,4]","action_history":"[1,0,1]","mutagen_history":"[0,1,0]","location_rts":"[285,378,267]","trial_type":"fractal-mutation","trial_index":116,"time_elapsed":3848504,"internal_node_id":"0.0-5.0-12.0"},{"group":"hexagon_tri","fractal_assignment":["../images/ylw_slt.png","../images/gry_blk.png","../images/pnk_blu.png","../images/cyn_red.png","../images/blu_wht.png","../images/org_blu.png"],"mutagen_generator_assignment":[1,0],"goal":2,"start":4,"action_noise":0.2,"location_history":"[4,2]","action_history":"[1]","mutagen_history":"[0]","location_rts":"[2781]","trial_type":"fractal-mutation","trial_index":117,"time_elapsed":3855799,"internal_node_id":"0.0-5.0-13.0"},{"group":"hexagon_tri","fractal_assignment":["../images/ylw_slt.png","../images/gry_blk.png","../images/pnk_blu.png","../images/cyn_red.png","../images/blu_wht.png","../images/org_blu.png"],"mutagen_generator_assignment":[1,0],"goal":1,"start":2,"action_noise":0.2,"location_history":"[2,1]","action_history":"[0]","mutagen_history":"[1]","location_rts":"[285]","trial_type":"fractal-mutation","trial_index":118,"time_elapsed":3860801,"internal_node_id":"0.0-5.0-14.0"},{"group":"hexagon_tri","fractal_assignment":["../images/ylw_slt.png","../images/gry_blk.png","../images/pnk_blu.png","../images/cyn_red.png","../images/blu_wht.png","../images/org_blu.png"],"mutagen_generator_assignment":[1,0],"goal":3,"start":1,"action_noise":0.2,"location_history":"[1,3]","action_history":"[0]","mutagen_history":"[1]","location_rts":"[1732]","trial_type":"fractal-mutation","trial_index":119,"time_elapsed":3867241,"internal_node_id":"0.0-5.0-15.0"},{"group":"hexagon_tri","fractal_assignment":["../images/ylw_slt.png","../images/gry_blk.png","../images/pnk_blu.png","../images/cyn_red.png","../images/blu_wht.png","../images/org_blu.png"],"mutagen_generator_assignment":[1,0],"goal":5,"start":3,"action_noise":0.2,"location_history":"[3,4,0,1,3,2,1,5]","action_history":"[1,0,1,0,0,1,1]","mutagen_history":"[0,1,0,1,1,0,0]","location_rts":"[1625,1503,519,1170,710,500,548]","trial_type":"fractal-mutation","trial_index":120,"time_elapsed":3885536,"internal_node_id":"0.0-5.0-16.0"},{"group":"hexagon_tri","fractal_assignment":["../images/ylw_slt.png","../images/gry_blk.png","../images/pnk_blu.png","../images/cyn_red.png","../images/blu_wht.png","../images/org_blu.png"],"mutagen_generator_assignment":[1,0],"goal":0,"start":5,"action_noise":0.2,"location_history":"[5,4,2,1,3,4,2,3,4,2,3,4,2,1,5,0]","action_history":"[0,1,0,0,0,1,1,0,1,1,1,1,0,1,1]","mutagen_history":"[1,0,1,1,1,0,0,1,0,0,0,0,1,0,0]","location_rts":"[836,515,559,634,884,406,308,313,399,465,621,896,536,684,869]","trial_type":"fractal-mutation","trial_index":121,"time_elapsed":3915276,"internal_node_id":"0.0-5.0-17.0"},{"group":"hexagon_tri","fractal_assignment":["../images/ylw_slt.png","../images/gry_blk.png","../images/pnk_blu.png","../images/cyn_red.png","../images/blu_wht.png","../images/org_blu.png"],"mutagen_generator_assignment":[1,0],"goal":5,"start":0,"action_noise":0.2,"location_history":"[0,5]","action_history":"[1]","mutagen_history":"[0]","location_rts":"[934]","trial_type":"fractal-mutation","trial_index":122,"time_elapsed":3920723,"internal_node_id":"0.0-5.0-18.0"},{"group":"hexagon_tri","fractal_assignment":["../images/ylw_slt.png","../images/gry_blk.png","../images/pnk_blu.png","../images/cyn_red.png","../images/blu_wht.png","../images/org_blu.png"],"mutagen_generator_assignment":[1,0],"goal":3,"start":5,"action_noise":0.2,"location_history":"[5,4,2,3]","action_history":"[0,0,1]","mutagen_history":"[1,1,0]","location_rts":"[2754,945,545]","trial_type":"fractal-mutation","trial_index":123,"time_elapsed":3931970,"internal_node_id":"0.0-5.0-19.0"},{"group":"hexagon_tri","fractal_assignment":["../images/ylw_slt.png","../images/gry_blk.png","../images/pnk_blu.png","../images/cyn_red.png","../images/blu_wht.png","../images/org_blu.png"],"mutagen_generator_assignment":[1,0],"goal":4,"start":3,"action_noise":0.2,"location_history":"[3,2,1,5,4]","action_history":"[0,0,1,0]","mutagen_history":"[1,1,0,1]","location_rts":"[768,2075,786,792]","trial_type":"fractal-mutation","trial_index":124,"time_elapsed":3944664,"internal_node_id":"0.0-5.0-20.0"},{"group":"hexagon_tri","fractal_assignment":["../images/ylw_slt.png","../images/gry_blk.png","../images/pnk_blu.png","../images/cyn_red.png","../images/blu_wht.png","../images/org_blu.png"],"mutagen_generator_assignment":[1,0],"goal":1,"start":4,"action_noise":0.2,"location_history":"[4,2,1]","action_history":"[1,0]","mutagen_history":"[0,1]","location_rts":"[1834,730]","trial_type":"fractal-mutation","trial_index":125,"time_elapsed":3952992,"internal_node_id":"0.0-5.0-21.0"},{"group":"hexagon_tri","fractal_assignment":["../images/ylw_slt.png","../images/gry_blk.png","../images/pnk_blu.png","../images/cyn_red.png","../images/blu_wht.png","../images/org_blu.png"],"mutagen_generator_assignment":[1,0],"goal":2,"start":1,"action_noise":0.2,"location_history":"[1,5,4,0,5,4,0,5,4,0,1,3,2]","action_history":"[1,0,0,1,1,0,0,1,0,1,1,0]","mutagen_history":"[0,1,1,0,0,1,1,0,1,0,0,1]","location_rts":"[451,385,921,613,576,487,422,581,807,827,639,453]","trial_type":"fractal-mutation","trial_index":126,"time_elapsed":3977491,"internal_node_id":"0.0-5.0-22.0"},{"group":"hexagon_tri","fractal_assignment":["../images/ylw_slt.png","../images/gry_blk.png","../images/pnk_blu.png","../images/cyn_red.png","../images/blu_wht.png","../images/org_blu.png"],"mutagen_generator_assignment":[1,0],"goal":3,"start":2,"action_noise":0.2,"location_history":"[2,1,5,4,0,5,4,0,1,5,4,2,3]","action_history":"[0,1,0,1,0,0,0,1,1,0,1,0]","mutagen_history":"[1,0,1,0,1,1,1,0,0,1,0,1]","location_rts":"[1086,452,905,420,415,663,481,417,494,473,405,438]","trial_type":"fractal-mutation","trial_index":127,"time_elapsed":4001689,"internal_node_id":"0.0-5.0-23.0"},{"group":"hexagon_tri","fractal_assignment":["../images/ylw_slt.png","../images/gry_blk.png","../images/pnk_blu.png","../images/cyn_red.png","../images/blu_wht.png","../images/org_blu.png"],"mutagen_generator_assignment":[1,0],"goal":5,"start":3,"action_noise":0.2,"location_history":"[3,2,3,2,1,5]","action_history":"[0,1,0,0,1]","mutagen_history":"[1,0,1,1,0]","location_rts":"[806,416,737,551,494]","trial_type":"fractal-mutation","trial_index":128,"time_elapsed":4014091,"internal_node_id":"0.0-5.0-24.0"},{"group":"hexagon_tri","fractal_assignment":["../images/ylw_slt.png","../images/gry_blk.png","../images/pnk_blu.png","../images/cyn_red.png","../images/blu_wht.png","../images/org_blu.png"],"mutagen_generator_assignment":[1,0],"goal":4,"start":5,"action_noise":0.2,"location_history":"[5,4]","action_history":"[0]","mutagen_history":"[1]","location_rts":"[358]","trial_type":"fractal-mutation","trial_index":129,"time_elapsed":4019212,"internal_node_id":"0.0-5.0-25.0"},{"group":"hexagon_tri","fractal_assignment":["../images/ylw_slt.png","../images/gry_blk.png","../images/pnk_blu.png","../images/cyn_red.png","../images/blu_wht.png","../images/org_blu.png"],"mutagen_generator_assignment":[1,0],"goal":0,"start":4,"action_noise":0.2,"location_history":"[4,2,1,3,4,0]","action_history":"[1,0,0,1,0]","mutagen_history":"[0,1,1,0,1]","location_rts":"[2372,1162,444,1347,806]","trial_type":"fractal-mutation","trial_index":130,"time_elapsed":4034729,"internal_node_id":"0.0-5.0-26.0"},{"group":"hexagon_tri","fractal_assignment":["../images/ylw_slt.png","../images/gry_blk.png","../images/pnk_blu.png","../images/cyn_red.png","../images/blu_wht.png","../images/org_blu.png"],"mutagen_generator_assignment":[1,0],"goal":2,"start":0,"action_noise":0.2,"location_history":"[0,1,3,2]","action_history":"[1,0,0]","mutagen_history":"[0,1,1]","location_rts":"[579,540,775]","trial_type":"fractal-mutation","trial_index":131,"time_elapsed":4043627,"internal_node_id":"0.0-5.0-27.0"},{"group":"hexagon_tri","fractal_assignment":["../images/ylw_slt.png","../images/gry_blk.png","../images/pnk_blu.png","../images/cyn_red.png","../images/blu_wht.png","../images/org_blu.png"],"mutagen_generator_assignment":[1,0],"goal":1,"start":2,"action_noise":0.2,"location_history":"[2,3,2,1]","action_history":"[1,0,0]","mutagen_history":"[0,1,1]","location_rts":"[498,346,519]","trial_type":"fractal-mutation","trial_index":132,"time_elapsed":4051917,"internal_node_id":"0.0-5.0-28.0"},{"group":"hexagon_tri","fractal_assignment":["../images/ylw_slt.png","../images/gry_blk.png","../images/pnk_blu.png","../images/cyn_red.png","../images/blu_wht.png","../images/org_blu.png"],"mutagen_generator_assignment":[1,0],"goal":0,"start":1,"action_noise":0.2,"location_history":"[1,5,4,0]","action_history":"[1,0,0]","mutagen_history":"[0,1,1]","location_rts":"[3185,1523,536]","trial_type":"fractal-mutation","trial_index":133,"time_elapsed":4064140,"internal_node_id":"0.0-5.0-29.0"},{"group":"hexagon_tri","fractal_assignment":["../images/ylw_slt.png","../images/gry_blk.png","../images/pnk_blu.png","../images/cyn_red.png","../images/blu_wht.png","../images/org_blu.png"],"mutagen_generator_assignment":[1,0],"goal":2,"start":0,"action_noise":0.2,"location_history":"[0,1,3,4,2]","action_history":"[1,0,0,1]","mutagen_history":"[0,1,1,0]","location_rts":"[2066,416,448,840]","trial_type":"fractal-mutation","trial_index":134,"time_elapsed":4076004,"internal_node_id":"0.0-5.0-30.0"},{"group":"hexagon_tri","fractal_assignment":["../images/ylw_slt.png","../images/gry_blk.png","../images/pnk_blu.png","../images/cyn_red.png","../images/blu_wht.png","../images/org_blu.png"],"mutagen_generator_assignment":[1,0],"goal":4,"start":2,"action_noise":0.2,"location_history":"[2,3,4]","action_history":"[0,1]","mutagen_history":"[1,0]","location_rts":"[538,379]","trial_type":"fractal-mutation","trial_index":135,"time_elapsed":4082753,"internal_node_id":"0.0-5.0-31.0"},{"group":"hexagon_tri","fractal_assignment":["../images/ylw_slt.png","../images/gry_blk.png","../images/pnk_blu.png","../images/cyn_red.png","../images/blu_wht.png","../images/org_blu.png"],"mutagen_generator_assignment":[1,0],"goal":1,"start":4,"action_noise":0.2,"location_history":"[4,0,1]","action_history":"[0,1]","mutagen_history":"[1,0]","location_rts":"[317,494]","trial_type":"fractal-mutation","trial_index":136,"time_elapsed":4089440,"internal_node_id":"0.0-5.0-32.0"},{"group":"hexagon_tri","fractal_assignment":["../images/ylw_slt.png","../images/gry_blk.png","../images/pnk_blu.png","../images/cyn_red.png","../images/blu_wht.png","../images/org_blu.png"],"mutagen_generator_assignment":[1,0],"goal":3,"start":1,"action_noise":0.2,"location_history":"[1,5,4,2,3]","action_history":"[0,1,1,0]","mutagen_history":"[1,0,0,1]","location_rts":"[333,425,431,631]","trial_type":"fractal-mutation","trial_index":137,"time_elapsed":4099438,"internal_node_id":"0.0-5.0-33.0"},{"group":"hexagon_tri","fractal_assignment":["../images/ylw_slt.png","../images/gry_blk.png","../images/pnk_blu.png","../images/cyn_red.png","../images/blu_wht.png","../images/org_blu.png"],"mutagen_generator_assignment":[1,0],"goal":5,"start":3,"action_noise":0.2,"location_history":"[3,2,3,2,1,3,4,2,1,3,2,1,5]","action_history":"[0,1,1,0,0,1,1,0,0,0,1,1]","mutagen_history":"[1,0,0,1,1,0,0,1,1,1,0,0]","location_rts":"[272,664,1593,415,258,415,434,374,630,637,412,554]","trial_type":"fractal-mutation","trial_index":138,"time_elapsed":4123586,"internal_node_id":"0.0-5.0-34.0"},{"group":"hexagon_tri","fractal_assignment":["../images/ylw_slt.png","../images/gry_blk.png","../images/pnk_blu.png","../images/cyn_red.png","../images/blu_wht.png","../images/org_blu.png"],"mutagen_generator_assignment":[1,0],"goal":2,"start":5,"action_noise":0.2,"location_history":"[5,0,5,0,5,4,2]","action_history":"[0,0,1,0,1,1]","mutagen_history":"[1,1,0,1,0,0]","location_rts":"[1483,313,872,311,407,316]","trial_type":"fractal-mutation","trial_index":139,"time_elapsed":4137667,"internal_node_id":"0.0-5.0-35.0"},{"group":"hexagon_tri","fractal_assignment":["../images/ylw_slt.png","../images/gry_blk.png","../images/pnk_blu.png","../images/cyn_red.png","../images/blu_wht.png","../images/org_blu.png"],"mutagen_generator_assignment":[1,0],"goal":0,"start":2,"action_noise":0.2,"location_history":"[2,1,5,0]","action_history":"[0,1,1]","mutagen_history":"[1,0,0]","location_rts":"[313,498,614]","trial_type":"fractal-mutation","trial_index":140,"time_elapsed":4146073,"internal_node_id":"0.0-5.0-36.0"},{"group":"hexagon_tri","fractal_assignment":["../images/ylw_slt.png","../images/gry_blk.png","../images/pnk_blu.png","../images/cyn_red.png","../images/blu_wht.png","../images/org_blu.png"],"mutagen_generator_assignment":[1,0],"goal":4,"start":0,"action_noise":0.2,"location_history":"[0,5,4]","action_history":"[0,0]","mutagen_history":"[1,1]","location_rts":"[441,372]","trial_type":"fractal-mutation","trial_index":141,"time_elapsed":4152833,"internal_node_id":"0.0-5.0-37.0"},{"group":"hexagon_tri","fractal_assignment":["../images/ylw_slt.png","../images/gry_blk.png","../images/pnk_blu.png","../images/cyn_red.png","../images/blu_wht.png","../images/org_blu.png"],"mutagen_generator_assignment":[1,0],"goal":5,"start":4,"action_noise":0.2,"location_history":"[4,2,1,3,2,1,5]","action_history":"[1,0,1,0,0,1]","mutagen_history":"[0,1,0,1,1,0]","location_rts":"[491,508,261,625,353,475]","trial_type":"fractal-mutation","trial_index":142,"time_elapsed":4165862,"internal_node_id":"0.0-5.0-38.0"},{"group":"hexagon_tri","fractal_assignment":["../images/ylw_slt.png","../images/gry_blk.png","../images/pnk_blu.png","../images/cyn_red.png","../images/blu_wht.png","../images/org_blu.png"],"mutagen_generator_assignment":[1,0],"goal":1,"start":5,"action_noise":0.2,"location_history":"[5,0,5,0,1]","action_history":"[1,0,1,1]","mutagen_history":"[0,1,0,0]","location_rts":"[404,345,845,780]","trial_type":"fractal-mutation","trial_index":143,"time_elapsed":4176188,"internal_node_id":"0.0-5.0-39.0"},{"group":"hexagon_tri","fractal_assignment":["../images/ylw_slt.png","../images/gry_blk.png","../images/pnk_blu.png","../images/cyn_red.png","../images/blu_wht.png","../images/org_blu.png"],"mutagen_generator_assignment":[1,0],"goal":3,"start":1,"action_noise":0.2,"location_history":"[1,3]","action_history":"[0]","mutagen_history":"[1]","location_rts":"[382]","trial_type":"fractal-mutation","trial_index":144,"time_elapsed":4181284,"internal_node_id":"0.0-5.0-40.0"},{"group":"hexagon_tri","fractal_assignment":["../images/ylw_slt.png","../images/gry_blk.png","../images/pnk_blu.png","../images/cyn_red.png","../images/blu_wht.png","../images/org_blu.png"],"mutagen_generator_assignment":[1,0],"goal":1,"start":3,"action_noise":0.2,"location_history":"[3,4,0,1]","action_history":"[1,0,0]","mutagen_history":"[0,1,1]","location_rts":"[1272,508,612]","trial_type":"fractal-mutation","trial_index":145,"time_elapsed":4190662,"internal_node_id":"0.0-5.0-41.0"},{"group":"hexagon_tri","fractal_assignment":["../images/ylw_slt.png","../images/gry_blk.png","../images/pnk_blu.png","../images/cyn_red.png","../images/blu_wht.png","../images/org_blu.png"],"mutagen_generator_assignment":[1,0],"goal":0,"start":1,"action_noise":0.2,"location_history":"[1,5,4,2,1,5,4,2,1,5,0]","action_history":"[1,0,0,1,1,0,0,0,1,1]","mutagen_history":"[0,1,1,0,0,1,1,1,0,0]","location_rts":"[580,869,579,353,348,735,769,671,370,1725]","trial_type":"fractal-mutation","trial_index":146,"time_elapsed":4212761,"internal_node_id":"0.0-5.0-42.0"},{"group":"hexagon_tri","fractal_assignment":["../images/ylw_slt.png","../images/gry_blk.png","../images/pnk_blu.png","../images/cyn_red.png","../images/blu_wht.png","../images/org_blu.png"],"mutagen_generator_assignment":[1,0],"goal":4,"start":0,"action_noise":0.2,"location_history":"[0,5,4]","action_history":"[0,1]","mutagen_history":"[1,0]","location_rts":"[449,334]","trial_type":"fractal-mutation","trial_index":147,"time_elapsed":4219419,"internal_node_id":"0.0-5.0-43.0"},{"group":"hexagon_tri","fractal_assignment":["../images/ylw_slt.png","../images/gry_blk.png","../images/pnk_blu.png","../images/cyn_red.png","../images/blu_wht.png","../images/org_blu.png"],"mutagen_generator_assignment":[1,0],"goal":2,"start":4,"action_noise":0.2,"location_history":"[4,2]","action_history":"[1]","mutagen_history":"[0]","location_rts":"[526]","trial_type":"fractal-mutation","trial_index":148,"time_elapsed":4224475,"internal_node_id":"0.0-5.0-44.0"},{"group":"hexagon_tri","fractal_assignment":["../images/ylw_slt.png","../images/gry_blk.png","../images/pnk_blu.png","../images/cyn_red.png","../images/blu_wht.png","../images/org_blu.png"],"mutagen_generator_assignment":[1,0],"goal":3,"start":2,"action_noise":0.2,"location_history":"[2,1,5,0,5,4,2,3]","action_history":"[0,1,1,0,0,0,0]","mutagen_history":"[1,0,0,1,1,1,1]","location_rts":"[1778,653,578,588,948,529,789]","trial_type":"fractal-mutation","trial_index":149,"time_elapsed":4242133,"internal_node_id":"0.0-5.0-45.0"},{"group":"hexagon_tri","fractal_assignment":["../images/ylw_slt.png","../images/gry_blk.png","../images/pnk_blu.png","../images/cyn_red.png","../images/blu_wht.png","../images/org_blu.png"],"mutagen_generator_assignment":[1,0],"goal":5,"start":3,"action_noise":0.2,"location_history":"[3,4,2,1,5]","action_history":"[1,1,0,1]","mutagen_history":"[0,0,1,0]","location_rts":"[290,1023,518,249]","trial_type":"fractal-mutation","trial_index":150,"time_elapsed":4252084,"internal_node_id":"0.0-5.0-46.0"},{"group":"hexagon_tri","fractal_assignment":["../images/ylw_slt.png","../images/gry_blk.png","../images/pnk_blu.png","../images/cyn_red.png","../images/blu_wht.png","../images/org_blu.png"],"mutagen_generator_assignment":[1,0],"goal":4,"start":5,"action_noise":0.2,"location_history":"[5,0,5,0,1,3,4]","action_history":"[0,1,1,1,0,1]","mutagen_history":"[1,0,0,0,1,0]","location_rts":"[900,400,364,609,472,909]","trial_type":"fractal-mutation","trial_index":151,"time_elapsed":4266066,"internal_node_id":"0.0-5.0-47.0"},{"group":"hexagon_tri","fractal_assignment":["../images/ylw_slt.png","../images/gry_blk.png","../images/pnk_blu.png","../images/cyn_red.png","../images/blu_wht.png","../images/org_blu.png"],"mutagen_generator_assignment":[1,0],"goal":3,"start":4,"action_noise":0.2,"location_history":"[4,2,3]","action_history":"[0,1]","mutagen_history":"[1,0]","location_rts":"[1479,1061]","trial_type":"fractal-mutation","trial_index":152,"time_elapsed":4274544,"internal_node_id":"0.0-5.0-48.0"},{"group":"hexagon_tri","fractal_assignment":["../images/ylw_slt.png","../images/gry_blk.png","../images/pnk_blu.png","../images/cyn_red.png","../images/blu_wht.png","../images/org_blu.png"],"mutagen_generator_assignment":[1,0],"goal":1,"start":3,"action_noise":0.2,"location_history":"[3,4,0,5,0,5,0,5,0,5,0,1]","action_history":"[1,0,0,1,0,1,1,1,0,1,0]","mutagen_history":"[0,1,1,0,1,0,0,0,1,0,1]","location_rts":"[471,908,471,834,1672,619,381,560,256,640,226]","trial_type":"fractal-mutation","trial_index":153,"time_elapsed":4297799,"internal_node_id":"0.0-5.0-49.0"},{"group":"hexagon_tri","fractal_assignment":["../images/ylw_slt.png","../images/gry_blk.png","../images/pnk_blu.png","../images/cyn_red.png","../images/blu_wht.png","../images/org_blu.png"],"mutagen_generator_assignment":[1,0],"goal":2,"start":1,"action_noise":0.2,"location_history":"[1,5,4,0,1,3,2]","action_history":"[1,0,0,1,0,0]","mutagen_history":"[0,1,1,0,1,1]","location_rts":"[353,705,901,341,144,423]","trial_type":"fractal-mutation","trial_index":154,"time_elapsed":4311052,"internal_node_id":"0.0-5.0-50.0"},{"group":"hexagon_tri","fractal_assignment":["../images/ylw_slt.png","../images/gry_blk.png","../images/pnk_blu.png","../images/cyn_red.png","../images/blu_wht.png","../images/org_blu.png"],"mutagen_generator_assignment":[1,0],"goal":0,"start":2,"action_noise":0.2,"location_history":"[2,3,4,2,3,4,2,1,5,0]","action_history":"[1,0,0,1,1,1,0,1,1]","mutagen_history":"[0,1,1,0,0,0,1,0,0]","location_rts":"[330,620,413,254,405,411,371,219,586]","trial_type":"fractal-mutation","trial_index":155,"time_elapsed":4328418,"internal_node_id":"0.0-5.0-51.0"},{"group":"hexagon_tri","fractal_assignment":["../images/ylw_slt.png","../images/gry_blk.png","../images/pnk_blu.png","../images/cyn_red.png","../images/blu_wht.png","../images/org_blu.png"],"mutagen_generator_assignment":[1,0],"goal":5,"start":0,"action_noise":0.2,"location_history":"[0,5]","action_history":"[1]","mutagen_history":"[0]","location_rts":"[276]","trial_type":"fractal-mutation","trial_index":156,"time_elapsed":4333204,"internal_node_id":"0.0-5.0-52.0"},{"group":"hexagon_tri","fractal_assignment":["../images/ylw_slt.png","../images/gry_blk.png","../images/pnk_blu.png","../images/cyn_red.png","../images/blu_wht.png","../images/org_blu.png"],"mutagen_generator_assignment":[1,0],"goal":1,"start":5,"action_noise":0.2,"location_history":"[5,0,5,0,1]","action_history":"[1,0,1,1]","mutagen_history":"[0,1,0,0]","location_rts":"[1954,471,651,356]","trial_type":"fractal-mutation","trial_index":157,"time_elapsed":4344610,"internal_node_id":"0.0-5.0-53.0"},{"group":"hexagon_tri","fractal_assignment":["../images/ylw_slt.png","../images/gry_blk.png","../images/pnk_blu.png","../images/cyn_red.png","../images/blu_wht.png","../images/org_blu.png"],"mutagen_generator_assignment":[1,0],"goal":3,"start":1,"action_noise":0.2,"location_history":"[1,5,4,0,1,3]","action_history":"[1,0,0,1,0]","mutagen_history":"[0,1,1,0,1]","location_rts":"[1031,296,631,431,272]","trial_type":"fractal-mutation","trial_index":158,"time_elapsed":4356470,"internal_node_id":"0.0-5.0-54.0"},{"group":"hexagon_tri","fractal_assignment":["../images/ylw_slt.png","../images/gry_blk.png","../images/pnk_blu.png","../images/cyn_red.png","../images/blu_wht.png","../images/org_blu.png"],"mutagen_generator_assignment":[1,0],"goal":5,"start":3,"action_noise":0.2,"location_history":"[3,2,1,5]","action_history":"[1,0,0]","mutagen_history":"[0,1,1]","location_rts":"[273,424,405]","trial_type":"fractal-mutation","trial_index":159,"time_elapsed":4364523,"internal_node_id":"0.0-5.0-55.0"},{"group":"hexagon_tri","fractal_assignment":["../images/ylw_slt.png","../images/gry_blk.png","../images/pnk_blu.png","../images/cyn_red.png","../images/blu_wht.png","../images/org_blu.png"],"mutagen_generator_assignment":[1,0],"goal":4,"start":5,"action_noise":0.2,"location_history":"[5,0,1,3,4]","action_history":"[1,0,0,1]","mutagen_history":"[0,1,1,0]","location_rts":"[282,448,454,1159]","trial_type":"fractal-mutation","trial_index":160,"time_elapsed":4374837,"internal_node_id":"0.0-5.0-56.0"},{"group":"hexagon_tri","fractal_assignment":["../images/ylw_slt.png","../images/gry_blk.png","../images/pnk_blu.png","../images/cyn_red.png","../images/blu_wht.png","../images/org_blu.png"],"mutagen_generator_assignment":[1,0],"goal":0,"start":4,"action_noise":0.2,"location_history":"[4,2,3,2,3,4,2,3,4,0]","action_history":"[0,1,0,1,0,0,0,1,1]","mutagen_history":"[1,0,1,0,1,1,1,0,0]","location_rts":"[591,577,768,498,458,218,455,513,349]","trial_type":"fractal-mutation","trial_index":161,"time_elapsed":4393384,"internal_node_id":"0.0-5.0-57.0"},{"group":"hexagon_tri","fractal_assignment":["../images/ylw_slt.png","../images/gry_blk.png","../images/pnk_blu.png","../images/cyn_red.png","../images/blu_wht.png","../images/org_blu.png"],"mutagen_generator_assignment":[1,0],"goal":2,"start":0,"action_noise":0.2,"location_history":"[0,1,5,4,0,1,5,4,0,1,3,2]","action_history":"[0,1,0,0,1,1,0,0,1,1,1]","mutagen_history":"[1,0,1,1,0,0,1,1,0,0,0]","location_rts":"[473,285,407,372,317,446,259,445,558,375,268]","trial_type":"fractal-mutation","trial_index":162,"time_elapsed":4413981,"internal_node_id":"0.0-5.0-58.0"},{"group":"hexagon_tri","fractal_assignment":["../images/ylw_slt.png","../images/gry_blk.png","../images/pnk_blu.png","../images/cyn_red.png","../images/blu_wht.png","../images/org_blu.png"],"mutagen_generator_assignment":[1,0],"goal":4,"start":2,"action_noise":0.2,"location_history":"[2,1,3,2,1,5,4]","action_history":"[0,0,0,0,1,0]","mutagen_history":"[1,1,1,1,0,1]","location_rts":"[311,236,271,414,249,339]","trial_type":"fractal-mutation","trial_index":163,"time_elapsed":4426635,"internal_node_id":"0.0-5.0-59.0"},{"group":"hexagon_tri","fractal_assignment":["../images/ylw_slt.png","../images/gry_blk.png","../images/pnk_blu.png","../images/cyn_red.png","../images/blu_wht.png","../images/org_blu.png"],"mutagen_generator_assignment":[1,0],"goal":2,"start":4,"action_noise":0.2,"location_history":"[4,2]","action_history":"[1]","mutagen_history":"[0]","location_rts":"[297]","trial_type":"fractal-mutation","trial_index":164,"time_elapsed":4431438,"internal_node_id":"0.0-5.0-60.0"},{"group":"hexagon_tri","fractal_assignment":["../images/ylw_slt.png","../images/gry_blk.png","../images/pnk_blu.png","../images/cyn_red.png","../images/blu_wht.png","../images/org_blu.png"],"mutagen_generator_assignment":[1,0],"goal":3,"start":2,"action_noise":0.2,"location_history":"[2,3]","action_history":"[0]","mutagen_history":"[1]","location_rts":"[309]","trial_type":"fractal-mutation","trial_index":165,"time_elapsed":4436441,"internal_node_id":"0.0-5.0-61.0"},{"group":"hexagon_tri","fractal_assignment":["../images/ylw_slt.png","../images/gry_blk.png","../images/pnk_blu.png","../images/cyn_red.png","../images/blu_wht.png","../images/org_blu.png"],"mutagen_generator_assignment":[1,0],"goal":0,"start":3,"action_noise":0.2,"location_history":"[3,2,3,4,0]","action_history":"[0,1,1,0]","mutagen_history":"[1,0,0,1]","location_rts":"[2574,250,495,568]","trial_type":"fractal-mutation","trial_index":166,"time_elapsed":4448566,"internal_node_id":"0.0-5.0-62.0"},{"group":"hexagon_tri","fractal_assignment":["../images/ylw_slt.png","../images/gry_blk.png","../images/pnk_blu.png","../images/cyn_red.png","../images/blu_wht.png","../images/org_blu.png"],"mutagen_generator_assignment":[1,0],"goal":5,"start":0,"action_noise":0.2,"location_history":"[0,1,3,4,2,1,5]","action_history":"[1,0,1,0,0,1]","mutagen_history":"[0,1,0,1,1,0]","location_rts":"[430,286,712,525,236,420]","trial_type":"fractal-mutation","trial_index":167,"time_elapsed":4461451,"internal_node_id":"0.0-5.0-63.0"},{"group":"hexagon_tri","fractal_assignment":["../images/ylw_slt.png","../images/gry_blk.png","../images/pnk_blu.png","../images/cyn_red.png","../images/blu_wht.png","../images/org_blu.png"],"mutagen_generator_assignment":[1,0],"goal":1,"start":5,"action_noise":0.2,"location_history":"[5,4,2,1]","action_history":"[0,1,1]","mutagen_history":"[1,0,0]","location_rts":"[392,525,547]","trial_type":"fractal-mutation","trial_index":168,"time_elapsed":4469856,"internal_node_id":"0.0-5.0-64.0"},{"group":"hexagon_tri","fractal_assignment":["../images/ylw_slt.png","../images/gry_blk.png","../images/pnk_blu.png","../images/cyn_red.png","../images/blu_wht.png","../images/org_blu.png"],"mutagen_generator_assignment":[1,0],"goal":5,"start":1,"action_noise":0.2,"location_history":"[1,3,4,0,5]","action_history":"[0,1,0,0]","mutagen_history":"[1,0,1,1]","location_rts":"[482,402,557,274]","trial_type":"fractal-mutation","trial_index":169,"time_elapsed":4479814,"internal_node_id":"0.0-5.0-65.0"},{"group":"hexagon_tri","fractal_assignment":["../images/ylw_slt.png","../images/gry_blk.png","../images/pnk_blu.png","../images/cyn_red.png","../images/blu_wht.png","../images/org_blu.png"],"mutagen_generator_assignment":[1,0],"goal":3,"start":5,"action_noise":0.2,"location_history":"[5,4,0,5,0,5,4,2,1,3]","action_history":"[1,0,0,1,0,1,1,1,0]","mutagen_history":"[0,1,1,0,1,0,0,0,1]","location_rts":"[306,296,352,913,601,426,296,463,385]","trial_type":"fractal-mutation","trial_index":170,"time_elapsed":4497540,"internal_node_id":"0.0-5.0-66.0"},{"group":"hexagon_tri","fractal_assignment":["../images/ylw_slt.png","../images/gry_blk.png","../images/pnk_blu.png","../images/cyn_red.png","../images/blu_wht.png","../images/org_blu.png"],"mutagen_generator_assignment":[1,0],"goal":2,"start":3,"action_noise":0.2,"location_history":"[3,4,2]","action_history":"[1,1]","mutagen_history":"[0,0]","location_rts":"[1744,1627]","trial_type":"fractal-mutation","trial_index":171,"time_elapsed":4506432,"internal_node_id":"0.0-5.0-67.0"},{"group":"hexagon_tri","fractal_assignment":["../images/ylw_slt.png","../images/gry_blk.png","../images/pnk_blu.png","../images/cyn_red.png","../images/blu_wht.png","../images/org_blu.png"],"mutagen_generator_assignment":[1,0],"goal":1,"start":2,"action_noise":0.2,"location_history":"[2,3,2,1]","action_history":"[0,1,0]","mutagen_history":"[1,0,1]","location_rts":"[606,397,1167]","trial_type":"fractal-mutation","trial_index":172,"time_elapsed":4515641,"internal_node_id":"0.0-5.0-68.0"},{"group":"hexagon_tri","fractal_assignment":["../images/ylw_slt.png","../images/gry_blk.png","../images/pnk_blu.png","../images/cyn_red.png","../images/blu_wht.png","../images/org_blu.png"],"mutagen_generator_assignment":[1,0],"goal":4,"start":1,"action_noise":0.2,"location_history":"[1,3,2,3,4]","action_history":"[0,1,1,0]","mutagen_history":"[1,0,0,1]","location_rts":"[2232,479,962,576]","trial_type":"fractal-mutation","trial_index":173,"time_elapsed":4527958,"internal_node_id":"0.0-5.0-69.0"},{"group":"hexagon_tri","fractal_assignment":["../images/ylw_slt.png","../images/gry_blk.png","../images/pnk_blu.png","../images/cyn_red.png","../images/blu_wht.png","../images/org_blu.png"],"mutagen_generator_assignment":[1,0],"goal":0,"start":4,"action_noise":0.2,"location_history":"[4,2,1,5,4,0]","action_history":"[1,0,0,1,0]","mutagen_history":"[0,1,1,0,1]","location_rts":"[474,563,249,824,561]","trial_type":"fractal-mutation","trial_index":174,"time_elapsed":4539967,"internal_node_id":"0.0-5.0-70.0"},{"group":"hexagon_tri","fractal_assignment":["../images/ylw_slt.png","../images/gry_blk.png","../images/pnk_blu.png","../images/cyn_red.png","../images/blu_wht.png","../images/org_blu.png"],"mutagen_generator_assignment":[1,0],"goal":3,"start":0,"action_noise":0.2,"location_history":"[0,5,0,5,4,2,1,3]","action_history":"[0,1,0,0,1,1,1]","mutagen_history":"[1,0,1,1,0,0,0]","location_rts":"[351,1025,393,391,438,621,553]","trial_type":"fractal-mutation","trial_index":175,"time_elapsed":4555360,"internal_node_id":"0.0-5.0-71.0"},{"group":"hexagon_tri","fractal_assignment":["../images/ylw_slt.png","../images/gry_blk.png","../images/pnk_blu.png","../images/cyn_red.png","../images/blu_wht.png","../images/org_blu.png"],"mutagen_generator_assignment":[1,0],"goal":1,"start":3,"action_noise":0.2,"location_history":"[3,4,2,3,4,0,5,0,1]","action_history":"[1,0,1,1,1,0,1,1]","mutagen_history":"[0,1,0,0,0,1,0,0]","location_rts":"[496,334,486,442,443,356,822,487]","trial_type":"fractal-mutation","trial_index":176,"time_elapsed":4571776,"internal_node_id":"0.0-5.0-72.0"},{"group":"hexagon_tri","fractal_assignment":["../images/ylw_slt.png","../images/gry_blk.png","../images/pnk_blu.png","../images/cyn_red.png","../images/blu_wht.png","../images/org_blu.png"],"mutagen_generator_assignment":[1,0],"goal":0,"start":1,"action_noise":0.2,"location_history":"[1,5,4,0]","action_history":"[1,0,1]","mutagen_history":"[0,1,0]","location_rts":"[1502,753,635]","trial_type":"fractal-mutation","trial_index":177,"time_elapsed":4581576,"internal_node_id":"0.0-5.0-73.0"},{"group":"hexagon_tri","fractal_assignment":["../images/ylw_slt.png","../images/gry_blk.png","../images/pnk_blu.png","../images/cyn_red.png","../images/blu_wht.png","../images/org_blu.png"],"mutagen_generator_assignment":[1,0],"goal":2,"start":0,"action_noise":0.2,"location_history":"[0,1,5,0,1,3,2]","action_history":"[1,0,0,1,0,0]","mutagen_history":"[0,1,1,0,1,1]","location_rts":"[295,238,348,958,272,256]","trial_type":"fractal-mutation","trial_index":178,"time_elapsed":4594358,"internal_node_id":"0.0-5.0-74.0"},{"group":"hexagon_tri","fractal_assignment":["../images/ylw_slt.png","../images/gry_blk.png","../images/pnk_blu.png","../images/cyn_red.png","../images/blu_wht.png","../images/org_blu.png"],"mutagen_generator_assignment":[1,0],"goal":4,"start":2,"action_noise":0.2,"location_history":"[2,1,5,4]","action_history":"[0,1,1]","mutagen_history":"[1,0,0]","location_rts":"[265,367,650]","trial_type":"fractal-mutation","trial_index":179,"time_elapsed":4602566,"internal_node_id":"0.0-5.0-75.0"},{"group":"hexagon_tri","fractal_assignment":["../images/ylw_slt.png","../images/gry_blk.png","../images/pnk_blu.png","../images/cyn_red.png","../images/blu_wht.png","../images/org_blu.png"],"mutagen_generator_assignment":[1,0],"goal":5,"start":4,"action_noise":0.2,"location_history":"[4,2,3,2,1,3,2,3,2,1,5]","action_history":"[0,1,0,0,1,1,1,0,0,1]","mutagen_history":"[1,0,1,1,0,0,0,1,1,0]","location_rts":"[296,741,517,886,377,371,280,808,404,433]","trial_type":"fractal-mutation","trial_index":180,"time_elapsed":4622941,"internal_node_id":"0.0-5.0-76.0"},{"group":"hexagon_tri","fractal_assignment":["../images/ylw_slt.png","../images/gry_blk.png","../images/pnk_blu.png","../images/cyn_red.png","../images/blu_wht.png","../images/org_blu.png"],"mutagen_generator_assignment":[1,0],"goal":2,"start":5,"action_noise":0.2,"location_history":"[5,0,1,5,4,0,5,0,5,4,0,1,3,2]","action_history":"[0,1,1,1,0,0,1,0,0,0,1,0,0]","mutagen_history":"[1,0,0,0,1,1,0,1,1,1,0,1,1]","location_rts":"[321,315,414,547,292,616,470,246,332,423,501,225,797]","trial_type":"fractal-mutation","trial_index":181,"time_elapsed":4647139,"internal_node_id":"0.0-5.0-77.0"},{"group":"hexagon_tri","fractal_assignment":["../images/ylw_slt.png","../images/gry_blk.png","../images/pnk_blu.png","../images/cyn_red.png","../images/blu_wht.png","../images/org_blu.png"],"mutagen_generator_assignment":[1,0],"goal":3,"start":2,"action_noise":0.2,"location_history":"[2,3]","action_history":"[0]","mutagen_history":"[1]","location_rts":"[775]","trial_type":"fractal-mutation","trial_index":182,"time_elapsed":4652678,"internal_node_id":"0.0-5.0-78.0"},{"group":"hexagon_tri","fractal_assignment":["../images/ylw_slt.png","../images/gry_blk.png","../images/pnk_blu.png","../images/cyn_red.png","../images/blu_wht.png","../images/org_blu.png"],"mutagen_generator_assignment":[1,0],"goal":1,"start":3,"action_noise":0.2,"location_history":"[3,4,2,1]","action_history":"[1,1,1]","mutagen_history":"[0,0,0]","location_rts":"[310,1002,399]","trial_type":"fractal-mutation","trial_index":183,"time_elapsed":4660930,"internal_node_id":"0.0-5.0-79.0"},{"group":"hexagon_tri","fractal_assignment":["../images/ylw_slt.png","../images/gry_blk.png","../images/pnk_blu.png","../images/cyn_red.png","../images/blu_wht.png","../images/org_blu.png"],"mutagen_generator_assignment":[1,0],"goal":4,"start":1,"action_noise":0.2,"location_history":"[1,5,4]","action_history":"[1,0]","mutagen_history":"[0,1]","location_rts":"[5195,522]","trial_type":"fractal-mutation","trial_index":184,"time_elapsed":4672403,"internal_node_id":"0.0-5.0-80.0"},{"group":"hexagon_tri","fractal_assignment":["../images/ylw_slt.png","../images/gry_blk.png","../images/pnk_blu.png","../images/cyn_red.png","../images/blu_wht.png","../images/org_blu.png"],"mutagen_generator_assignment":[1,0],"goal":5,"start":4,"action_noise":0.2,"location_history":"[4,0,1,3,2,1,3,4,2,3,2,1,5]","action_history":"[0,1,1,0,0,1,1,1,1,1,0,0]","mutagen_history":"[1,0,0,1,1,0,0,0,0,0,1,1]","location_rts":"[297,498,360,453,339,420,388,372,294,313,1126,209]","trial_type":"fractal-mutation","trial_index":185,"time_elapsed":4695097,"internal_node_id":"0.0-5.0-81.0"},{"group":"hexagon_tri","fractal_assignment":["../images/ylw_slt.png","../images/gry_blk.png","../images/pnk_blu.png","../images/cyn_red.png","../images/blu_wht.png","../images/org_blu.png"],"mutagen_generator_assignment":[1,0],"goal":0,"start":5,"action_noise":0.2,"location_history":"[5,4,0]","action_history":"[0,0]","mutagen_history":"[1,1]","location_rts":"[607,462]","trial_type":"fractal-mutation","trial_index":186,"time_elapsed":4702085,"internal_node_id":"0.0-5.0-82.0"},{"group":"hexagon_tri","fractal_assignment":["../images/ylw_slt.png","../images/gry_blk.png","../images/pnk_blu.png","../images/cyn_red.png","../images/blu_wht.png","../images/org_blu.png"],"mutagen_generator_assignment":[1,0],"goal":2,"start":0,"action_noise":0.2,"location_history":"[0,5,0,1,5,0,5,4,0,5,4,0,5,4,2]","action_history":"[0,0,1,1,1,0,0,0,0,0,1,0,0,1]","mutagen_history":"[1,1,0,0,0,1,1,1,1,1,0,1,1,0]","location_rts":"[358,392,918,526,725,378,300,229,413,548,260,585,560,265]","trial_type":"fractal-mutation","trial_index":187,"time_elapsed":4728690,"internal_node_id":"0.0-5.0-83.0"},{"group":"hexagon_tri","fractal_assignment":["../images/ylw_slt.png","../images/gry_blk.png","../images/pnk_blu.png","../images/cyn_red.png","../images/blu_wht.png","../images/org_blu.png"],"mutagen_generator_assignment":[1,0],"goal":0,"start":2,"action_noise":0.2,"location_history":"[2,3,4,0]","action_history":"[0,1,0]","mutagen_history":"[1,0,1]","location_rts":"[345,290,477]","trial_type":"fractal-mutation","trial_index":188,"time_elapsed":4736871,"internal_node_id":"0.0-5.0-84.0"},{"group":"hexagon_tri","fractal_assignment":["../images/ylw_slt.png","../images/gry_blk.png","../images/pnk_blu.png","../images/cyn_red.png","../images/blu_wht.png","../images/org_blu.png"],"mutagen_generator_assignment":[1,0],"goal":5,"start":0,"action_noise":0.2,"location_history":"[0,5]","action_history":"[0]","mutagen_history":"[1]","location_rts":"[307]","trial_type":"fractal-mutation","trial_index":189,"time_elapsed":4741922,"internal_node_id":"0.0-5.0-85.0"},{"group":"hexagon_tri","fractal_assignment":["../images/ylw_slt.png","../images/gry_blk.png","../images/pnk_blu.png","../images/cyn_red.png","../images/blu_wht.png","../images/org_blu.png"],"mutagen_generator_assignment":[1,0],"goal":1,"start":5,"action_noise":0.2,"location_history":"[5,4,2,3,2,1]","action_history":"[0,1,1,0,0]","mutagen_history":"[1,0,0,1,1]","location_rts":"[298,430,508,264,403]","trial_type":"fractal-mutation","trial_index":190,"time_elapsed":4753189,"internal_node_id":"0.0-5.0-86.0"},{"group":"hexagon_tri","fractal_assignment":["../images/ylw_slt.png","../images/gry_blk.png","../images/pnk_blu.png","../images/cyn_red.png","../images/blu_wht.png","../images/org_blu.png"],"mutagen_generator_assignment":[1,0],"goal":4,"start":1,"action_noise":0.2,"location_history":"[1,5,4]","action_history":"[1,0]","mutagen_history":"[0,1]","location_rts":"[867,311]","trial_type":"fractal-mutation","trial_index":191,"time_elapsed":4760059,"internal_node_id":"0.0-5.0-87.0"},{"group":"hexagon_tri","fractal_assignment":["../images/ylw_slt.png","../images/gry_blk.png","../images/pnk_blu.png","../images/cyn_red.png","../images/blu_wht.png","../images/org_blu.png"],"mutagen_generator_assignment":[1,0],"goal":3,"start":4,"action_noise":0.2,"location_history":"[4,2,1,3]","action_history":"[1,0,0]","mutagen_history":"[0,1,1]","location_rts":"[269,408,346]","trial_type":"fractal-mutation","trial_index":192,"time_elapsed":4767932,"internal_node_id":"0.0-5.0-88.0"},{"group":"hexagon_tri","fractal_assignment":["../images/ylw_slt.png","../images/gry_blk.png","../images/pnk_blu.png","../images/cyn_red.png","../images/blu_wht.png","../images/org_blu.png"],"mutagen_generator_assignment":[1,0],"goal":5,"start":3,"action_noise":0.2,"location_history":"[3,4,2,3,2,1,3,2,1,5]","action_history":"[1,0,0,1,1,0,0,1,1]","mutagen_history":"[0,1,1,0,0,1,1,0,0]","location_rts":"[269,402,323,274,406,402,314,531,491]","trial_type":"fractal-mutation","trial_index":193,"time_elapsed":4785037,"internal_node_id":"0.0-5.0-89.0"},{"group":"hexagon_tri","fractal_assignment":["../images/ylw_slt.png","../images/gry_blk.png","../images/pnk_blu.png","../images/cyn_red.png","../images/blu_wht.png","../images/org_blu.png"],"mutagen_generator_assignment":[1,0],"goal":1,"start":5,"action_noise":0.2,"location_history":"[5,4,2,1]","action_history":"[0,0,1]","mutagen_history":"[1,1,0]","location_rts":"[284,249,324]","trial_type":"fractal-mutation","trial_index":194,"time_elapsed":4792930,"internal_node_id":"0.0-5.0-90.0"},{"group":"hexagon_tri","fractal_assignment":["../images/ylw_slt.png","../images/gry_blk.png","../images/pnk_blu.png","../images/cyn_red.png","../images/blu_wht.png","../images/org_blu.png"],"mutagen_generator_assignment":[1,0],"goal":2,"start":1,"action_noise":0.2,"location_history":"[1,5,0,5,4,0,5,0,1,3,4,0,5,0,5,4,2]","action_history":"[0,1,0,0,0,0,1,0,0,1,0,0,0,0,1,1]","mutagen_history":"[1,0,1,1,1,1,0,1,1,0,1,1,1,1,0,0]","location_rts":"[561,349,423,316,641,488,312,382,283,683,971,403,477,261,232,365]","trial_type":"fractal-mutation","trial_index":195,"time_elapsed":4822661,"internal_node_id":"0.0-5.0-91.0"},{"group":"hexagon_tri","fractal_assignment":["../images/ylw_slt.png","../images/gry_blk.png","../images/pnk_blu.png","../images/cyn_red.png","../images/blu_wht.png","../images/org_blu.png"],"mutagen_generator_assignment":[1,0],"goal":4,"start":2,"action_noise":0.2,"location_history":"[2,1,5,4]","action_history":"[0,1,0]","mutagen_history":"[1,0,1]","location_rts":"[259,285,479]","trial_type":"fractal-mutation","trial_index":196,"time_elapsed":4830729,"internal_node_id":"0.0-5.0-92.0"},{"group":"hexagon_tri","fractal_assignment":["../images/ylw_slt.png","../images/gry_blk.png","../images/pnk_blu.png","../images/cyn_red.png","../images/blu_wht.png","../images/org_blu.png"],"mutagen_generator_assignment":[1,0],"goal":0,"start":4,"action_noise":0.2,"location_history":"[4,2,3,4,2,1,5,0]","action_history":"[0,0,1,0,0,1,1]","mutagen_history":"[1,1,0,1,1,0,0]","location_rts":"[283,525,339,386,645,400,1415]","trial_type":"fractal-mutation","trial_index":197,"time_elapsed":4846416,"internal_node_id":"0.0-5.0-93.0"},{"group":"hexagon_tri","fractal_assignment":["../images/ylw_slt.png","../images/gry_blk.png","../images/pnk_blu.png","../images/cyn_red.png","../images/blu_wht.png","../images/org_blu.png"],"mutagen_generator_assignment":[1,0],"goal":3,"start":0,"action_noise":0.2,"location_history":"[0,5,0,1,5,0,5,0,5,4,2,1,3]","action_history":"[0,1,1,1,1,0,1,0,0,0,1,0]","mutagen_history":"[1,0,0,0,0,1,0,1,1,1,0,1]","location_rts":"[1291,227,359,705,474,288,282,287,258,315,445,413]","trial_type":"fractal-mutation","trial_index":198,"time_elapsed":4869454,"internal_node_id":"0.0-5.0-94.0"},{"group":"hexagon_tri","fractal_assignment":["../images/ylw_slt.png","../images/gry_blk.png","../images/pnk_blu.png","../images/cyn_red.png","../images/blu_wht.png","../images/org_blu.png"],"mutagen_generator_assignment":[1,0],"goal":0,"start":3,"action_noise":0.2,"location_history":"[3,2,1,3,2,3,4,2,3,4,2,1,5,0]","action_history":"[1,0,0,1,1,0,0,0,1,0,0,1,1]","mutagen_history":"[0,1,1,0,0,1,1,1,0,1,1,0,0]","location_rts":"[585,418,402,449,401,415,502,391,424,461,403,293,1047]","trial_type":"fractal-mutation","trial_index":199,"time_elapsed":4894322,"internal_node_id":"0.0-5.0-95.0"},{"group":"hexagon_tri","fractal_assignment":["../images/ylw_slt.png","../images/gry_blk.png","../images/pnk_blu.png","../images/cyn_red.png","../images/blu_wht.png","../images/org_blu.png"],"mutagen_generator_assignment":[1,0],"goal":4,"start":0,"action_noise":0.2,"location_history":"[0,1,5,4]","action_history":"[1,0,0]","mutagen_history":"[0,1,1]","location_rts":"[294,416,323]","trial_type":"fractal-mutation","trial_index":200,"time_elapsed":4902244,"internal_node_id":"0.0-5.0-96.0"},{"group":"hexagon_tri","fractal_assignment":["../images/ylw_slt.png","../images/gry_blk.png","../images/pnk_blu.png","../images/cyn_red.png","../images/blu_wht.png","../images/org_blu.png"],"mutagen_generator_assignment":[1,0],"goal":5,"start":4,"action_noise":0.2,"location_history":"[4,0,5]","action_history":"[0,1]","mutagen_history":"[1,0]","location_rts":"[1506,348]","trial_type":"fractal-mutation","trial_index":201,"time_elapsed":4909975,"internal_node_id":"0.0-5.0-97.0"},{"group":"hexagon_tri","fractal_assignment":["../images/ylw_slt.png","../images/gry_blk.png","../images/pnk_blu.png","../images/cyn_red.png","../images/blu_wht.png","../images/org_blu.png"],"mutagen_generator_assignment":[1,0],"goal":2,"start":5,"action_noise":0.2,"location_history":"[5,4,0,1,5,4,2]","action_history":"[0,0,1,1,0,1]","mutagen_history":"[1,1,0,0,1,0]","location_rts":"[766,984,414,768,390,361]","trial_type":"fractal-mutation","trial_index":202,"time_elapsed":4924511,"internal_node_id":"0.0-5.0-98.0"},{"group":"hexagon_tri","fractal_assignment":["../images/ylw_slt.png","../images/gry_blk.png","../images/pnk_blu.png","../images/cyn_red.png","../images/blu_wht.png","../images/org_blu.png"],"mutagen_generator_assignment":[1,0],"goal":1,"start":2,"action_noise":0.2,"location_history":"[2,1]","action_history":"[1]","mutagen_history":"[0]","location_rts":"[917]","trial_type":"fractal-mutation","trial_index":203,"time_elapsed":4929938,"internal_node_id":"0.0-5.0-99.0"},{"view_history":"[{\"page_index\":0,\"viewing_time\":7419}]","rt":7420,"trial_type":"instructions","trial_index":204,"time_elapsed":4938358,"internal_node_id":"0.0-6.0"},{"rt":98178,"responses":"{\"Q0\":\"It seemed like a type of memory test, although very tricky since things changed at random times. For me, there were too many combinations of results in both tests to remember, although I did find that some associations were consistent to a large degree and could be exploited.\"}","trial_type":"survey-text","trial_index":205,"time_elapsed":5037547,"internal_node_id":"0.0-7.0-0.0"},{"rt":64253,"responses":"{\"Q0\":\"I think it was a test of the memory's ability to remember abstract shapes. I found it quite difficult to learn any combination which could get my to the goal as quickly as I would have liked.\"}","trial_type":"survey-text","trial_index":206,"time_elapsed":5102803,"internal_node_id":"0.0-7.0-1.0"},{"rt":19304,"responses":"{\"Q0\":\"<img src='../images/diagrams/hexagon_tri.png'>\"}","trial_type":"survey