[{"view_history":"[{\"page_index\":0,\"viewing_time\":1307},{\"page_index\":1,\"viewing_time\":1122}]","rt":2430,"trial_type":"instructions","trial_index":0,"time_elapsed":2431,"internal_node_id":"0.0-0.0"},{"view_history":"[{\"page_index\":0,\"viewing_time\":39585},{\"page_index\":1,\"viewing_time\":11392}]","rt":50977,"trial_type":"instructions","trial_index":1,"time_elapsed":54410,"internal_node_id":"0.0-1.0"},{"group":"hexagon_bi","room_assignment":["purple","yellow","green","grey","red","blue"],"door_color_assignment":["white","black"],"door_generator_assignment":[0,1],"goal":2,"start":1,"action_noise":0.2,"location_history":"[1,2]","action_history":"[1]","door_history":"[1]","location_rts":"[4611]","trial_type":"two-door-navigation","trial_index":2,"time_elapsed":63555,"internal_node_id":"0.0-2.0-0.0"},{"group":"hexagon_bi","room_assignment":["purple","yellow","green","grey","red","blue"],"door_color_assignment":["white","black"],"door_generator_assignment":[0,1],"goal":0,"start":2,"action_noise":0.2,"location_history":"[2,1,0]","action_history":"[0,1]","door_history":"[0,1]","location_rts":"[1410,981]","trial_type":"two-door-navigation","trial_index":3,"time_elapsed":71502,"internal_node_id":"0.0-2.0-1.0"},{"group":"hexagon_bi","room_assignment":["purple","yellow","green","grey","red","blue"],"door_color_assignment":["white","black"],"door_generator_assignment":[0,1],"goal":5,"start":0,"action_noise":0.2,"location_history":"[0,1,0,5]","action_history":"[1,1,0]","door_history":"[1,1,0]","location_rts":"[2244,430,1101]","trial_type":"two-door-navigation","trial_index":4,"time_elapsed":81857,"internal_node_id":"0.0-2.0-2.0"},{"group":"hexagon_bi","room_assignment":["purple","yellow","green","grey","red","blue"],"door_color_assignment":["white","black"],"door_generator_assignment":[0,1],"goal":3,"start":5,"action_noise":0.2,"location_history":"[5,4,5,0,5,0,1,0,5,0,1,2,3]","action_history":"[1,1,0,0,0,1,1,1,0,0,0,1]","door_history":"[1,1,0,0,0,1,1,1,0,0,0,1]","location_rts":"[1876,351,1177,818,930,254,460,420,1314,650,625,878]","trial_type":"two-door-navigation","trial_index":5,"time_elapsed":107418,"internal_node_id":"0.0-2.0-3.0"},{"group":"hexagon_bi","room_assignment":["purple","yellow","green","grey","red","blue"],"door_color_assignment":["white","black"],"door_generator_assignment":[0,1],"goal":4,"start":3,"action_noise":0.2,"location_history":"[3,2,1,0,1,2,3,2,3,4]","action_history":"[1,0,1,1,0,1,1,1,0]","door_history":"[1,0,1,1,0,1,1,1,0]","location_rts":"[2139,1166,367,781,846,843,412,429,330]","trial_type":"two-door-navigation","trial_index":6,"time_elapsed":127474,"internal_node_id":"0.0-2.0-4.0"},{"group":"hexagon_bi","room_assignment":["purple","yellow","green","grey","red","blue"],"door_color_assignment":["white","black"],"door_generator_assignment":[0,1],"goal":0,"start":4,"action_noise":0.2,"location_history":"[4,3,2,3,4,5,0]","action_history":"[0,1,1,0,1,1]","door_history":"[0,1,1,0,1,1]","location_rts":"[2327,333,539,872,553,566]","trial_type":"two-door-navigation","trial_index":7,"time_elapsed":142308,"internal_node_id":"0.0-2.0-5.0"},{"group":"hexagon_bi","room_assignment":["purple","yellow","green","grey","red","blue"],"door_color_assignment":["white","black"],"door_generator_assignment":[0,1],"goal":4,"start":0,"action_noise":0.2,"location_history":"[0,1,2,3,4]","action_history":"[1,1,1,1]","door_history":"[1,1,1,1]","location_rts":"[1267,413,431,621]","trial_type":"two-door-navigation","trial_index":8,"time_elapsed":152651,"internal_node_id":"0.0-2.0-6.0"},{"group":"hexagon_bi","room_assignment":["purple","yellow","green","grey","red","blue"],"door_color_assignment":["white","black"],"door_generator_assignment":[0,1],"goal":3,"start":4,"action_noise":0.2,"location_history":"[4,5,0,1,2,1,0,5,0,1,2,1,0,1,2,1,0,5,4,5,0,1,2,3]","action_history":"[1,0,0,0,0,1,0,0,0,0,0,0,1,0,0,0,0,1,1,0,1,1,1]","door_history":"[1,0,0,0,0,1,0,0,0,0,0,0,1,0,0,0,0,1,1,0,1,1,1]","location_rts":"[1699,296,743,524,581,417,826,423,426,466,673,486,577,621,482,528,1152,713,512,629,1217,1300,398]","trial_type":"two-door-navigation","trial_index":9,"time_elapsed":195411,"internal_node_id":"0.0-2.0-7.0"},{"group":"hexagon_bi","room_assignment":["purple","yellow","green","grey","red","blue"],"door_color_assignment":["white","black"],"door_generator_assignment":[0,1],"goal":2,"start":3,"action_noise":0.2,"location_history":"[3,2]","action_history":"[1]","door_history":"[1]","location_rts":"[1604]","trial_type":"two-door-navigation","trial_index":10,"time_elapsed":201545,"internal_node_id":"0.0-2.0-8.0"},{"group":"hexagon_bi","room_assignment":["purple","yellow","green","grey","red","blue"],"door_color_assignment":["white","black"],"door_generator_assignment":[0,1],"goal":1,"start":2,"action_noise":0.2,"location_history":"[2,3,4,5,4,3,2,1]","action_history":"[0,0,1,1,0,1,0]","door_history":"[0,0,1,1,0,1,0]","location_rts":"[1768,976,666,744,975,14648,1244]","trial_type":"two-door-navigation","trial_index":11,"time_elapsed":233216,"internal_node_id":"0.0-2.0-9.0"},{"group":"hexagon_bi","room_assignment":["purple","yellow","green","grey","red","blue"],"door_color_assignment":["white","black"],"door_generator_assignment":[0,1],"goal":5,"start":1,"action_noise":0.2,"location_history":"[1,0,1,2,3,2,3,4,5]","action_history":"[1,0,1,1,1,0,0,1]","door_history":"[1,0,1,1,1,0,0,1]","location_rts":"[1489,901,526,423,539,985,318,1699]","trial_type":"two-door-navigation","trial_index":12,"time_elapsed":251807,"internal_node_id":"0.0-2.0-10.0"},{"group":"hexagon_bi","room_assignment":["purple","yellow","green","grey","red","blue"],"door_color_assignment":["white","black"],"door_generator_assignment":[0,1],"goal":0,"start":5,"action_noise":0.2,"location_history":"[5,4,3,4,3,2,1,0]","action_history":"[1,1,0,0,1,0,0]","door_history":"[1,1,0,0,1,0,0]","location_rts":"[2829,515,1053,1174,852,622,1090]","trial_type":"two-door-navigation","trial_index":13,"time_elapsed":270610,"internal_node_id":"0.0-2.0-11.0"},{"group":"hexagon_bi","room_assignment":["purple","yellow","green","grey","red","blue"],"door_color_assignment":["white","black"],"door_generator_assignment":[0,1],"goal":4,"start":0,"action_noise":0.2,"location_history":"[0,5,0,5,4]","action_history":"[0,0,0,1]","door_history":"[0,0,0,1]","location_rts":"[2901,440,403,470]","trial_type":"two-door-navigation","trial_index":14,"time_elapsed":282415,"internal_node_id":"0.0-2.0-12.0"},{"group":"hexagon_bi","room_assignment":["purple","yellow","green","grey","red","blue"],"door_color_assignment":["white","black"],"door_generator_assignment":[0,1],"goal":2,"start":4,"action_noise":0.2,"location_history":"[4,3,4,5,0,5,0,1,2]","action_history":"[0,1,0,0,1,0,0,0]","door_history":"[0,1,0,0,1,0,0,0]","location_rts":"[1456,632,727,1365,2035,1199,685,581]","trial_type":"two-door-navigation","trial_index":15,"time_elapsed":302778,"internal_node_id":"0.0-2.0-13.0"},{"group":"hexagon_bi","room_assignment":["purple","yellow","green","grey","red","blue"],"door_color_assignment":["white","black"],"door_generator_assignment":[0,1],"goal":1,"start":2,"action_noise":0.2,"location_history":"[2,3,2,1]","action_history":"[0,1,0]","door_history":"[0,1,0]","location_rts":"[9246,735,583]","trial_type":"two-door-navigation","trial_index":16,"time_elapsed":319920,"internal_node_id":"0.0-2.0-14.0"},{"group":"hexagon_bi","room_assignment":["purple","yellow","green","grey","red","blue"],"door_color_assignment":["white","black"],"door_generator_assignment":[0,1],"goal":3,"start":1,"action_noise":0.2,"location_history":"[1,2,3]","action_history":"[0,0]","door_history":"[0,0]","location_rts":"[3468,587]","trial_type":"two-door-navigation","trial_index":17,"time_elapsed":329532,"internal_node_id":"0.0-2.0-15.0"},{"group":"hexagon_bi","room_assignment":["purple","yellow","green","grey","red","blue"],"door_color_assignment":["white","black"],"door_generator_assignment":[0,1],"goal":5,"start":3,"action_noise":0.2,"location_history":"[3,2,3,2,1,2,1,2,1,2,3,2,1,0,5]","action_history":"[1,1,1,0,0,1,0,0,0,1,1,0,0,1]","door_history":"[1,1,1,0,0,1,0,0,0,1,1,0,0,1]","location_rts":"[5143,555,583,760,681,385,585,342,665,723,726,756,3381,844]","trial_type":"two-door-navigation","trial_index":18,"time_elapsed":363466,"internal_node_id":"0.0-2.0-16.0"},{"group":"hexagon_bi","room_assignment":["purple","yellow","green","grey","red","blue"],"door_color_assignment":["white","black"],"door_generator_assignment":[0,1],"goal":0,"start":5,"action_noise":0.2,"location_history":"[5,0]","action_history":"[0]","door_history":"[0]","location_rts":"[1541]","trial_type":"two-door-navigation","trial_index":19,"time_elapsed":369530,"internal_node_id":"0.0-2.0-17.0"},{"group":"hexagon_bi","room_assignment":["purple","yellow","green","grey","red","blue"],"door_color_assignment":["white","black"],"door_generator_assignment":[0,1],"goal":5,"start":0,"action_noise":0.2,"location_history":"[0,5]","action_history":"[0]","door_history":"[0]","location_rts":"[866]","trial_type":"two-door-navigation","trial_index":20,"time_elapsed":374918,"internal_node_id":"0.0-2.0-18.0"},{"group":"hexagon_bi","room_assignment":["purple","yellow","green","grey","red","blue"],"door_color_assignment":["white","black"],"door_generator_assignment":[0,1],"goal":3,"start":5,"action_noise":0.2,"location_history":"[5,0,5,4,5,4,5,0,1,2,3]","action_history":"[0,1,0,0,1,1,0,0,0,1]","door_history":"[0,1,0,0,1,1,0,0,0,1]","location_rts":"[2241,1238,1033,1121,789,687,660,525,537,1323]","trial_type":"two-door-navigation","trial_index":21,"time_elapsed":398820,"internal_node_id":"0.0-2.0-19.0"},{"group":"hexagon_bi","room_assignment":["purple","yellow","green","grey","red","blue"],"door_color_assignment":["white","black"],"door_generator_assignment":[0,1],"goal":4,"start":3,"action_noise":0.2,"location_history":"[3,2,3,2,3,4]","action_history":"[1,1,1,0,0]","door_history":"[1,1,1,0,0]","location_rts":"[1630,670,585,269,639]","trial_type":"two-door-navigation","trial_index":22,"time_elapsed":411227,"internal_node_id":"0.0-2.0-20.0"},{"group":"hexagon_bi","room_assignment":["purple","yellow","green","grey","red","blue"],"door_color_assignment":["white","black"],"door_generator_assignment":[0,1],"goal":1,"start":4,"action_noise":0.2,"location_history":"[4,3,4,5,0,5,0,1]","action_history":"[0,0,1,0,0,1,1]","door_history":"[0,0,1,0,0,1,1]","location_rts":"[2490,1133,869,945,665,843,751]","trial_type":"two-door-navigation","trial_index":23,"time_elapsed":429584,"internal_node_id":"0.0-2.0-21.0"},{"group":"hexagon_bi","room_assignment":["purple","yellow","green","grey","red","blue"],"door_color_assignment":["white","black"],"door_generator_assignment":[0,1],"goal":2,"start":1,"action_noise":0.2,"location_history":"[1,0,5,4,3,2]","action_history":"[1,0,0,0,1]","door_history":"[1,0,0,0,1]","location_rts":"[1447,9321,495,541,610]","trial_type":"two-door-navigation","trial_index":24,"time_elapsed":450608,"internal_node_id":"0.0-2.0-22.0"},{"group":"hexagon_bi","room_assignment":["purple","yellow","green","grey","red","blue"],"door_color_assignment":["white","black"],"door_generator_assignment":[0,1],"goal":3,"start":2,"action_noise":0.2,"location_history":"[2,3]","action_history":"[0]","door_history":"[0]","location_rts":"[1051]","trial_type":"two-door-navigation","trial_index":25,"time_elapsed":456184,"internal_node_id":"0.0-2.0-23.0"},{"group":"hexagon_bi","room_assignment":["purple","yellow","green","grey","red","blue"],"door_color_assignment":["white","black"],"door_generator_assignment":[0,1],"goal":5,"start":3,"action_noise":0.2,"location_history":"[3,4,5]","action_history":"[1,1]","door_history":"[1,1]","location_rts":"[3950,709]","trial_type":"two-door-navigation","trial_index":26,"time_elapsed":466390,"internal_node_id":"0.0-2.0-24.0"},{"group":"hexagon_bi","room_assignment":["purple","yellow","green","grey","red","blue"],"door_color_assignment":["white","black"],"door_generator_assignment":[0,1],"goal":4,"start":5,"action_noise":0.2,"location_history":"[5,4]","action_history":"[1]","door_history":"[1]","location_rts":"[998]","trial_type":"two-door-navigation","trial_index":27,"time_elapsed":471914,"internal_node_id":"0.0-2.0-25.0"},{"group":"hexagon_bi","room_assignment":["purple","yellow","green","grey","red","blue"],"door_color_assignment":["white","black"],"door_generator_assignment":[0,1],"goal":0,"start":4,"action_noise":0.2,"location_history":"[4,5,0]","action_history":"[0,0]","door_history":"[0,0]","location_rts":"[1143,705]","trial_type":"two-door-navigation","trial_index":28,"time_elapsed":479322,"internal_node_id":"0.0-2.0-26.0"},{"group":"hexagon_bi","room_assignment":["purple","yellow","green","grey","red","blue"],"door_color_assignment":["white","black"],"door_generator_assignment":[0,1],"goal":2,"start":0,"action_noise":0.2,"location_history":"[0,5,4,3,4,3,2]","action_history":"[0,1,0,0,0,1]","door_history":"[0,1,0,0,0,1]","location_rts":"[1586,606,327,818,458,672]","trial_type":"two-door-navigation","trial_index":29,"time_elapsed":493414,"internal_node_id":"0.0-2.0-27.0"},{"group":"hexagon_bi","room_assignment":["purple","yellow","green","grey","red","blue"],"door_color_assignment":["white","black"],"door_generator_assignment":[0,1],"goal":1,"start":2,"action_noise":0.2,"location_history":"[2,1]","action_history":"[1]","door_history":"[1]","location_rts":"[985]","trial_type":"two-door-navigation","trial_index":30,"time_elapsed":498927,"internal_node_id":"0.0-2.0-28.0"},{"group":"hexagon_bi","room_assignment":["purple","yellow","green","grey","red","blue"],"door_color_assignment":["white","black"],"door_generator_assignment":[0,1],"goal":0,"start":1,"action_noise":0.2,"location_history":"[1,2,3,4,3,2,3,2,3,4,3,2,3,2,1,0]","action_history":"[0,1,0,0,1,1,1,0,0,0,0,1,1,0,1]","door_history":"[0,1,0,0,1,1,1,0,0,0,0,1,1,0,1]","location_rts":"[8030,747,1424,524,730,483,574,281,604,534,701,1148,1470,728,937]","trial_type":"two-door-navigation","trial_index":31,"time_elapsed":536690,"internal_node_id":"0.0-2.0-29.0"},{"group":"hexagon_bi","room_assignment":["purple","yellow","green","grey","red","blue"],"door_color_assignment":["white","black"],"door_generator_assignment":[0,1],"goal":2,"start":0,"action_noise":0.2,"location_history":"[0,1,2]","action_history":"[1,0]","door_history":"[1,0]","location_rts":"[4775,1013]","trial_type":"two-door-navigation","trial_index":32,"time_elapsed":548029,"internal_node_id":"0.0-2.0-30.0"},{"group":"hexagon_bi","room_assignment":["purple","yellow","green","grey","red","blue"],"door_color_assignment":["white","black"],"door_generator_assignment":[0,1],"goal":4,"start":2,"action_noise":0.2,"location_history":"[2,3,2,1,2,3,2,1,2,1,0,1,2,3,2,3,4]","action_history":"[1,1,1,0,1,1,1,0,0,1,1,1,1,1,1,0]","door_history":"[1,1,1,0,1,1,1,0,0,1,1,1,1,1,1,0]","location_rts":"[3213,696,589,1770,834,706,922,2785,394,748,1032,620,666,613,538,303]","trial_type":"two-door-navigation","trial_index":33,"time_elapsed":584314,"internal_node_id":"0.0-2.0-31.0"},{"group":"hexagon_bi","room_assignment":["purple","yellow","green","grey","red","blue"],"door_color_assignment":["white","black"],"door_generator_assignment":[0,1],"goal":1,"start":4,"action_noise":0.2,"location_history":"[4,3,4,5,4,5,4,3,2,1]","action_history":"[0,0,1,1,1,0,0,1,0]","door_history":"[0,0,1,1,1,0,0,1,0]","location_rts":"[1794,1872,747,890,700,674,745,1017,789]","trial_type":"two-door-navigation","trial_index":34,"time_elapsed":606255,"internal_node_id":"0.0-2.0-32.0"},{"group":"hexagon_bi","room_assignment":["purple","yellow","green","grey","red","blue"],"door_color_assignment":["white","black"],"door_generator_assignment":[0,1],"goal":3,"start":1,"action_noise":0.2,"location_history":"[1,2,3]","action_history":"[0,1]","door_history":"[0,1]","location_rts":"[2083,1272]","trial_type":"two-door-navigation","trial_index":35,"time_elapsed":615154,"internal_node_id":"0.0-2.0-33.0"},{"group":"hexagon_bi","room_assignment":["purple","yellow","green","grey","red","blue"],"door_color_assignment":["white","black"],"door_generator_assignment":[0,1],"goal":5,"start":3,"action_noise":0.2,"location_history":"[3,4,5]","action_history":"[0,1]","door_history":"[0,1]","location_rts":"[2385,784]","trial_type":"two-door-navigation","trial_index":36,"time_elapsed":623869,"internal_node_id":"0.0-2.0-34.0"},{"group":"hexagon_bi","room_assignment":["purple","yellow","green","grey","red","blue"],"door_color_assignment":["white","black"],"door_generator_assignment":[0,1],"goal":2,"start":5,"action_noise":0.2,"location_history":"[5,0,1,0,1,2]","action_history":"[0,1,1,0,0]","door_history":"[0,1,1,0,0]","location_rts":"[7850,1768,735,1095,508]","trial_type":"two-door-navigation","trial_index":37,"time_elapsed":644441,"internal_node_id":"0.0-2.0-35.0"},{"group":"hexagon_bi","room_assignment":["purple","yellow","green","grey","red","blue"],"door_color_assignment":["white","black"],"door_generator_assignment":[0,1],"goal":0,"start":2,"action_noise":0.2,"location_history":"[2,1,2,1,0]","action_history":"[1,0,0,0]","door_history":"[1,0,0,0]","location_rts":"[1882,742,378,570]","trial_type":"two-door-navigation","trial_index":38,"time_elapsed":655608,"internal_node_id":"0.0-2.0-36.0"},{"group":"hexagon_bi","room_assignment":["purple","yellow","green","grey","red","blue"],"door_color_assignment":["white","black"],"door_generator_assignment":[0,1],"goal":4,"start":0,"action_noise":0.2,"location_history":"[0,5,4]","action_history":"[0,1]","door_history":"[0,1]","location_rts":"[29808,331]","trial_type":"two-door-navigation","trial_index":39,"time_elapsed":691294,"internal_node_id":"0.0-2.0-37.0"},{"group":"hexagon_bi","room_assignment":["purple","yellow","green","grey","red","blue"],"door_color_assignment":["white","black"],"door_generator_assignment":[0,1],"goal":5,"start":4,"action_noise":0.2,"location_history":"[4,5]","action_history":"[1]","door_history":"[1]","location_rts":"[3816]","trial_type":"two-door-navigation","trial_index":40,"time_elapsed":699635,"internal_node_id":"0.0-2.0-38.0"},{"group":"hexagon_bi","room_assignment":["purple","yellow","green","grey","red","blue"],"door_color_assignment":["white","black"],"door_generator_assignment":[0,1],"goal":1,"start":5,"action_noise":0.2,"location_history":"[5,0,1]","action_history":"[0,1]","door_history":"[0,1]","location_rts":"[2247,699]","trial_type":"two-door-navigation","trial_index":41,"time_elapsed":708128,"internal_node_id":"0.0-2.0-39.0"},{"group":"hexagon_bi","room_assignment":["purple","yellow","green","grey","red","blue"],"door_color_assignment":["white","black"],"door_generator_assignment":[0,1],"goal":3,"start":1,"action_noise":0.2,"location_history":"[1,0,5,4,3]","action_history":"[0,0,0,0]","door_history":"[0,0,0,0]","location_rts":"[1831,1061,476,457]","trial_type":"two-door-navigation","trial_index":42,"time_elapsed":719545,"internal_node_id":"0.0-2.0-40.0"},{"group":"hexagon_bi","room_assignment":["purple","yellow","green","grey","red","blue"],"door_color_assignment":["white","black"],"door_generator_assignment":[0,1],"goal":1,"start":3,"action_noise":0.2,"location_history":"[3,2,3,4,5,0,5,0,5,0,1]","action_history":"[1,0,0,1,0,0,0,0,0,0]","door_history":"[1,0,0,1,0,0,0,0,0,0]","location_rts":"[1252,752,945,504,369,1009,615,616,642,1089]","trial_type":"two-door-navigation","trial_index":43,"time_elapsed":741061,"internal_node_id":"0.0-2.0-41.0"},{"group":"hexagon_bi","room_assignment":["purple","yellow","green","grey","red","blue"],"door_color_assignment":["white","black"],"door_generator_assignment":[0,1],"goal":0,"start":1,"action_noise":0.2,"location_history":"[1,0]","action_history":"[1]","door_history":"[1]","location_rts":"[6202]","trial_type":"two-door-navigation","trial_index":44,"time_elapsed":751790,"internal_node_id":"0.0-2.0-42.0"},{"group":"hexagon_bi","room_assignment":["purple","yellow","green","grey","red","blue"],"door_color_assignment":["white","black"],"door_generator_assignment":[0,1],"goal":4,"start":0,"action_noise":0.2,"location_history":"[0,1,0,5,0,5,0,1,0,5,4]","action_history":"[1,1,0,0,0,1,1,1,0,1]","door_history":"[1,1,0,0,0,1,1,1,0,1]","location_rts":"[3433,707,771,933,730,962,880,596,937,533]","trial_type":"two-door-navigation","trial_index":45,"time_elapsed":776013,"internal_node_id":"0.0-2.0-43.0"},{"group":"hexagon_bi","room_assignment":["purple","yellow","green","grey","red","blue"],"door_color_assignment":["white","black"],"door_generator_assignment":[0,1],"goal":2,"start":4,"action_noise":0.2,"location_history":"[4,3,2]","action_history":"[0,1]","door_history":"[0,1]","location_rts":"[2448,834]","trial_type":"two-door-navigation","trial_index":46,"time_elapsed":784838,"internal_node_id":"0.0-2.0-44.0"},{"group":"hexagon_bi","room_assignment":["purple","yellow","green","grey","red","blue"],"door_color_assignment":["white","black"],"door_generator_assignment":[0,1],"goal":3,"start":2,"action_noise":0.2,"location_history":"[2,1,2,1,0,5,4,3]","action_history":"[0,0,0,1,0,0,0]","door_history":"[0,0,0,1,0,0,0]","location_rts":"[7954,1478,670,480,373,743,635]","trial_type":"two-door-navigation","trial_index":47,"time_elapsed":807830,"internal_node_id":"0.0-2.0-45.0"},{"group":"hexagon_bi","room_assignment":["purple","yellow","green","grey","red","blue"],"door_color_assignment":["white","black"],"door_generator_assignment":[0,1],"goal":5,"start":3,"action_noise":0.2,"location_history":"[3,2,3,4,5]","action_history":"[0,1,1,1]","door_history":"[0,1,1,1]","location_rts":"[4520,635,675,597]","trial_type":"two-door-navigation","trial_index":48,"time_elapsed":821848,"internal_node_id":"0.0-2.0-46.0"},{"group":"hexagon_bi","room_assignment":["purple","yellow","green","grey","red","blue"],"door_color_assignment":["white","black"],"door_generator_assignment":[0,1],"goal":4,"start":5,"action_noise":0.2,"location_history":"[5,0,5,4]","action_history":"[0,0,1]","door_history":"[0,0,1]","location_rts":"[1208,2045,675]","trial_type":"two-door-navigation","trial_index":49,"time_elapsed":832336,"internal_node_id":"0.0-2.0-47.0"},{"group":"hexagon_bi","room_assignment":["purple","yellow","green","grey","red","blue"],"door_color_assignment":["white","black"],"door_generator_assignment":[0,1],"goal":3,"start":4,"action_noise":0.2,"location_history":"[4,3]","action_history":"[0]","door_history":"[0]","location_rts":"[1053]","trial_type":"two-door-navigation","trial_index":50,"time_elapsed":837910,"internal_node_id":"0.0-2.0-48.0"},{"group":"hexagon_bi","room_assignment":["purple","yellow","green","grey","red","blue"],"door_color_assignment":["white","black"],"door_generator_assignment":[0,1],"goal":1,"start":3,"action_noise":0.2,"location_history":"[3,4,5,0,5,0,1]","action_history":"[0,1,0,0,0,0]","door_history":"[0,1,0,0,0,0]","location_rts":"[1162,466,266,836,643,1009]","trial_type":"two-door-navigation","trial_index":51,"time_elapsed":851933,"internal_node_id":"0.0-2.0-49.0"},{"group":"hexagon_bi","room_assignment":["purple","yellow","green","grey","red","blue"],"door_color_assignment":["white","black"],"door_generator_assignment":[0,1],"goal":2,"start":1,"action_noise":0.2,"location_history":"[1,2]","action_history":"[0]","door_history":"[0]","location_rts":"[2172]","trial_type":"two-door-navigation","trial_index":52,"time_elapsed":858636,"internal_node_id":"0.0-2.0-50.0"},{"group":"hexagon_bi","room_assignment":["purple","yellow","green","grey","red","blue"],"door_color_assignment":["white","black"],"door_generator_assignment":[0,1],"goal":0,"start":2,"action_noise":0.2,"location_history":"[2,1,0]","action_history":"[0,1]","door_history":"[0,1]","location_rts":"[9857,1060]","trial_type":"two-door-navigation","trial_index":53,"time_elapsed":875103,"internal_node_id":"0.0-2.0-51.0"},{"group":"hexagon_bi","room_assignment":["purple","yellow","green","grey","red","blue"],"door_color_assignment":["white","black"],"door_generator_assignment":[0,1],"goal":5,"start":0,"action_noise":0.2,"location_history":"[0,5]","action_history":"[0]","door_history":"[0]","location_rts":"[1122]","trial_type":"two-door-navigation","trial_index":54,"time_elapsed":880750,"internal_node_id":"0.0-2.0-52.0"},{"group":"hexagon_bi","room_assignment":["purple","yellow","green","grey","red","blue"],"door_color_assignment":["white","black"],"door_generator_assignment":[0,1],"goal":1,"start":5,"action_noise":0.2,"location_history":"[5,0,1]","action_history":"[0,1]","door_history":"[0,1]","location_rts":"[2052,891]","trial_type":"two-door-navigation","trial_index":55,"time_elapsed":889236,"internal_node_id":"0.0-2.0-53.0"},{"group":"hexagon_bi","room_assignment":["purple","yellow","green","grey","red","blue"],"door_color_assignment":["white","black"],"door_generator_assignment":[0,1],"goal":3,"start":1,"action_noise":0.2,"location_history":"[1,2,3]","action_history":"[0,0]","door_history":"[0,0]","location_rts":"[991,1712]","trial_type":"two-door-navigation","trial_index":56,"time_elapsed":897482,"internal_node_id":"0.0-2.0-54.0"},{"group":"hexagon_bi","room_assignment":["purple","yellow","green","grey","red","blue"],"door_color_assignment":["white","black"],"door_generator_assignment":[0,1],"goal":5,"start":3,"action_noise":0.2,"location_history":"[3,4,5]","action_history":"[0,1]","door_history":"[0,1]","location_rts":"[982,878]","trial_type":"two-door-navigation","trial_index":57,"time_elapsed":904887,"internal_node_id":"0.0-2.0-55.0"},{"group":"hexagon_bi","room_assignment":["purple","yellow","green","grey","red","blue"],"door_color_assignment":["white","black"],"door_generator_assignment":[0,1],"goal":4,"start":5,"action_noise":0.2,"location_history":"[5,4]","action_history":"[1]","door_history":"[1]","location_rts":"[1204]","trial_type":"two-door-navigation","trial_index":58,"time_elapsed":910626,"internal_node_id":"0.0-2.0-56.0"},{"group":"hexagon_bi","room_assignment":["purple","yellow","green","grey","red","blue"],"door_color_assignment":["white","black"],"door_generator_assignment":[0,1],"goal":0,"start":4,"action_noise":0.2,"location_history":"[4,3,4,3,2,3,4,3,2,1,0]","action_history":"[0,0,0,0,1,0,1,1,0,0]","door_history":"[0,0,0,0,1,0,1,1,0,0]","location_rts":"[1539,5917,801,935,1040,745,636,794,601,916]","trial_type":"two-door-navigation","trial_index":59,"time_elapsed":938267,"internal_node_id":"0.0-2.0-57.0"},{"group":"hexagon_bi","room_assignment":["purple","yellow","green","grey","red","blue"],"door_color_assignment":["white","black"],"door_generator_assignment":[0,1],"goal":2,"start":0,"action_noise":0.2,"location_history":"[0,5,4,5,0,5,0,5,0,5,0,1,0,5,0,5,4,5,4,5,4,5,0,1,0,1,2]","action_history":"[0,1,1,0,1,0,0,0,0,0,1,1,0,0,0,1,1,1,1,0,1,0,1,1,0,0]","door_history":"[0,1,1,0,1,0,0,0,0,0,1,1,0,0,0,1,1,1,1,0,1,0,1,1,0,0]","location_rts":"[1395,1511,352,518,1000,681,484,939,733,592,637,738,567,999,406,586,361,476,401,591,331,399,1444,1812,997,770]","trial_type":"two-door-navigation","trial_index":60,"time_elapsed":988062,"internal_node_id":"0.0-2.0-58.0"},{"group":"hexagon_bi","room_assignment":["purple","yellow","green","grey","red","blue"],"door_color_assignment":["white","black"],"door_generator_assignment":[0,1],"goal":4,"start":2,"action_noise":0.2,"location_history":"[2,1,0,1,0,1,2,1,2,1,0,1,0,5,0,1,2,1,2,1,0,5,4]","action_history":"[0,1,1,1,1,0,1,0,0,1,0,1,1,1,1,0,0,1,1,1,0,1]","door_history":"[0,1,1,1,1,0,1,0,0,1,0,1,1,1,1,0,0,1,1,1,0,1]","location_rts":"[3126,1936,901,577,304,273,1060,1078,477,1151,1370,678,384,700,1351,1182,1275,717,795,414,581,1152]","trial_type":"two-door-navigation","trial_index":61,"time_elapsed":1035569,"internal_node_id":"0.0-2.0-59.0"},{"group":"hexagon_bi","room_assignment":["purple","yellow","green","grey","red","blue"],"door_color_assignment":["white","black"],"door_generator_assignment":[0,1],"goal":2,"start":4,"action_noise":0.2,"location_history":"[4,3,2]","action_history":"[0,1]","door_history":"[0,1]","location_rts":"[2194,33533]","trial_type":"two-door-navigation","trial_index":62,"time_elapsed":1076838,"internal_node_id":"0.0-2.0-60.0"},{"group":"hexagon_bi","room_assignment":["purple","yellow","green","grey","red","blue"],"door_color_assignment":["white","black"],"door_generator_assignment":[0,1],"goal":3,"start":2,"action_noise":0.2,"location_history":"[2,1,2,3]","action_history":"[0,0,1]","door_history":"[0,0,1]","location_rts":"[969,721,1004]","trial_type":"two-door-navigation","trial_index":63,"time_elapsed":1086106,"internal_node_id":"0.0-2.0-61.0"},{"group":"hexagon_bi","room_assignment":["purple","yellow","green","grey","red","blue"],"door_color_assignment":["white","black"],"door_generator_assignment":[0,1],"goal":0,"start":3,"action_noise":0.2,"location_history":"[3,4,5,4,3,4,3,2,3,4,3,4,3,4,3,4,5,0]","action_history":"[0,1,0,0,0,0,1,1,0,0,1,1,0,0,0,1,0]","door_history":"[0,1,0,0,0,0,1,1,0,0,1,1,0,0,0,1,0]","location_rts":"[5193,927,722,684,806,646,1054,1558,642,528,710,692,630,781,403,539,1422]","trial_type":"two-door-navigation","trial_index":64,"time_elapsed":1124950,"internal_node_id":"0.0-2.0-62.0"},{"group":"hexagon_bi","room_assignment":["purple","yellow","green","grey","red","blue"],"door_color_assignment":["white","black"],"door_generator_assignment":[0,1],"goal":5,"start":0,"action_noise":0.2,"location_history":"[0,1,2,1,0,1,0,1,2,1,0,1,2,3,4,3,4,3,4,5]","action_history":"[1,1,0,1,1,1,1,0,0,1,1,0,0,0,1,1,0,0,1]","door_history":"[1,1,0,1,1,1,1,0,0,1,1,0,0,0,1,1,0,0,1]","location_rts":"[1952,1081,689,375,472,795,518,200,276,240,449,361,756,5352,3265,1040,1026,3048,849]","trial_type":"two-door-navigation","trial_index":65,"time_elapsed":1170617,"internal_node_id":"0.0-2.0-63.0"},{"group":"hexagon_bi","room_assignment":["purple","yellow","green","grey","red","blue"],"door_color_assignment":["white","black"],"door_generator_assignment":[0,1],"goal":1,"start":5,"action_noise":0.2,"location_history":"[5,4,5,4,3,2,3,2,3,2,1]","action_history":"[1,0,0,0,1,1,0,0,0,0]","door_history":"[1,0,0,0,1,1,0,0,0,0]","location_rts":"[5373,493,777,1076,538,3934,418,595,388,446]","trial_type":"two-door-navigation","trial_index":66,"time_elapsed":1198390,"internal_node_id":"0.0-2.0-64.0"},{"group":"hexagon_bi","room_assignment":["purple","yellow","green","grey","red","blue"],"door_color_assignment":["white","black"],"door_generator_assignment":[0,1],"goal":5,"start":1,"action_noise":0.2,"location_history":"[1,0,5]","action_history":"[1,0]","door_history":"[1,0]","location_rts":"[5087,1161]","trial_type":"two-door-navigation","trial_index":67,"time_elapsed":1210184,"internal_node_id":"0.0-2.0-65.0"},{"group":"hexagon_bi","room_assignment":["purple","yellow","green","grey","red","blue"],"door_color_assignment":["white","black"],"door_generator_assignment":[0,1],"goal":3,"start":5,"action_noise":0.2,"location_history":"[5,0,5,0,1,2,1,2,3]","action_history":"[0,0,0,1,1,0,0,1]","door_history":"[0,0,0,1,1,0,0,1]","location_rts":"[4118,5999,947,749,647,654,812,624]","trial_type":"two-door-navigation","trial_index":68,"time_elapsed":1236421,"internal_node_id":"0.0-2.0-66.0"},{"group":"hexagon_bi","room_assignment":["purple","yellow","green","grey","red","blue"],"door_color_assignment":["white","black"],"door_generator_assignment":[0,1],"goal":2,"start":3,"action_noise":0.2,"location_history":"[3,4,3,2]","action_history":"[0,0,1]","door_history":"[0,0,1]","location_rts":"[3877,1887,693]","trial_type":"two-door-navigation","trial_index":69,"time_elapsed":1249447,"internal_node_id":"0.0-2.0-67.0"},{"group":"hexagon_bi","room_assignment":["purple","yellow","green","grey","red","blue"],"door_color_assignment":["white","black"],"door_generator_assignment":[0,1],"goal":1,"start":2,"action_noise":0.2,"location_history":"[2,3,4,3,2,1]","action_history":"[0,0,1,1,0]","door_history":"[0,0,1,1,0]","location_rts":"[1465,7393,625,758,585]","trial_type":"two-door-navigation","trial_index":70,"time_elapsed":1268882,"internal_node_id":"0.0-2.0-68.0"},{"group":"hexagon_bi","room_assignment":["purple","yellow","green","grey","red","blue"],"door_color_assignment":["white","black"],"door_generator_assignment":[0,1],"goal":4,"start":1,"action_noise":0.2,"location_history":"[1,0,5,4]","action_history":"[1,0,1]","door_history":"[1,0,1]","location_rts":"[1635,1325,722]","trial_type":"two-door-navigation","trial_index":71,"time_elapsed":1279132,"internal_node_id":"0.0-2.0-69.0"},{"group":"hexagon_bi","room_assignment":["purple","yellow","green","grey","red","blue"],"door_color_assignment":["white","black"],"door_generator_assignment":[0,1],"goal":0,"start":4,"action_noise":0.2,"location_history":"[4,3,4,3,2,3,4,5,0]","action_history":"[0,0,0,1,1,0,0,0]","door_history":"[0,0,0,1,1,0,0,0]","location_rts":"[1648,1044,1793,306,1298,706,951,1445]","trial_type":"two-door-navigation","trial_index":72,"time_elapsed":1300008,"internal_node_id":"0.0-2.0-70.0"},{"group":"hexagon_bi","room_assignment":["purple","yellow","green","grey","red","blue"],"door_color_assignment":["white","black"],"door_generator_assignment":[0,1],"goal":3,"start":0,"action_noise":0.2,"location_history":"[0,1,2,3]","action_history":"[0,0,1]","door_history":"[0,0,1]","location_rts":"[2438,745,451]","trial_type":"two-door-navigation","trial_index":73,"time_elapsed":1310212,"internal_node_id":"0.0-2.0-71.0"},{"group":"hexagon_bi","room_assignment":["purple","yellow","green","grey","red","blue"],"door_color_assignment":["white","black"],"door_generator_assignment":[0,1],"goal":1,"start":3,"action_noise":0.2,"location_history":"[3,4,5,0,5,0,1]","action_history":"[0,1,0,0,0,1]","door_history":"[0,1,0,0,0,1]","location_rts":"[1461,860,948,767,755,920]","trial_type":"two-door-navigation","trial_index":74,"time_elapsed":1325551,"internal_node_id":"0.0-2.0-72.0"},{"group":"hexagon_bi","room_assignment":["purple","yellow","green","grey","red","blue"],"door_color_assignment":["white","black"],"door_generator_assignment":[0,1],"goal":0,"start":1,"action_noise":0.2,"location_history":"[1,2,1,2,3,2,3,4,3,4,3,2,3,4,5,0]","action_history":"[0,0,0,1,1,1,0,0,0,0,1,1,0,0,0]","door_history":"[0,0,0,1,1,1,0,0,0,0,1,1,0,0,0]","location_rts":"[1909,1038,819,575,1962,846,373,929,846,659,674,994,1013,578,650]","trial_type":"two-door-navigation","trial_index":75,"time_elapsed":1358254,"internal_node_id":"0.0-2.0-73.0"},{"group":"hexagon_bi","room_assignment":["purple","yellow","green","grey","red","blue"],"door_color_assignment":["white","black"],"door_generator_assignment":[0,1],"goal":2,"start":0,"action_noise":0.2,"location_history":"[0,1,0,1,0,1,0,5,0,1,0,1,0,5,4,3,4,3,2]","action_history":"[0,0,1,1,0,0,0,0,0,1,1,1,0,1,0,0,0,1]","door_history":"[0,0,1,1,0,0,0,0,0,1,1,1,0,1,0,0,0,1]","location_rts":"[14234,1257,589,1250,1162,638,432,1457,571,16,890,831,693,1432,331,839,861,785]","trial_type":"two-door-navigation","trial_index":76,"time_elapsed":1408435,"internal_node_id":"0.0-2.0-74.0"},{"group":"hexagon_bi","room_assignment":["purple","yellow","green","grey","red","blue"],"door_color_assignment":["white","black"],"door_generator_assignment":[0,1],"goal":4,"start":2,"action_noise":0.2,"location_history":"[2,3,4]","action_history":"[0,0]","door_history":"[0,0]","location_rts":"[1983,896]","trial_type":"two-door-navigation","trial_index":77,"time_elapsed":1416866,"internal_node_id":"0.0-2.0-75.0"},{"group":"hexagon_bi","room_assignment":["purple","yellow","green","grey","red","blue"],"door_color_assignment":["white","black"],"door_generator_assignment":[0,1],"goal":5,"start":4,"action_noise":0.2,"location_history":"[4,5]","action_history":"[0]","door_history":"[0]","location_rts":"[24279]","trial_type":"two-door-navigation","trial_index":78,"time_elapsed":1445666,"internal_node_id":"0.0-2.0-76.0"},{"group":"hexagon_bi","room_assignment":["purple","yellow","green","grey","red","blue"],"door_color_assignment":["white","black"],"door_generator_assignment":[0,1],"goal":2,"start":5,"action_noise":0.2,"location_history":"[5,0,5,4,3,4,3,2]","action_history":"[0,0,0,0,1,0,0]","door_history":"[0,0,0,0,1,0,0]","location_rts":"[6658,6378,1775,680,1053,370,484]","trial_type":"two-door-navigation","trial_index":79,"time_elapsed":1473714,"internal_node_id":"0.0-2.0-77.0"},{"group":"hexagon_bi","room_assignment":["purple","yellow","green","grey","red","blue"],"door_color_assignment":["white","black"],"door_generator_assignment":[0,1],"goal":3,"start":2,"action_noise":0.2,"location_history":"[2,1,2,1,2,3]","action_history":"[0,0,0,0,1]","door_history":"[0,0,0,0,1]","location_rts":"[540,440,368,485,221]","trial_type":"two-door-navigation","trial_index":80,"time_elapsed":1484374,"internal_node_id":"0.0-2.0-78.0"},{"group":"hexagon_bi","room_assignment":["purple","yellow","green","grey","red","blue"],"door_color_assignment":["white","black"],"door_generator_assignment":[0,1],"goal":1,"start":3,"action_noise":0.2,"location_history":"[3,4,3,4,5,0,5,0,5,4,5,0,5,0,1]","action_history":"[0,0,1,0,0,1,0,0,1,1,0,0,1,1]","door_history":"[0,0,1,0,0,1,0,0,1,1,0,0,1,1]","location_rts":"[1754,856,1420,338,898,1851,364,601,820,642,714,711,993,508]","trial_type":"two-door-navigation","trial_index":81,"time_elapsed":1514672,"internal_node_id":"0.0-2.0-79.0"},{"group":"hexagon_bi","room_assignment":["purple","yellow","green","grey","red","blue"],"door_color_assignment":["white","black"],"door_generator_assignment":[0,1],"goal":4,"start":1,"action_noise":0.2,"location_history":"[1,2,3,2,1,0,5,0,1,0,1,0,5,0,1,0,1,0,1,2,1,0,1,0,5,4]","action_history":"[0,1,1,0,1,1,1,1,1,1,1,0,1,0,1,1,1,1,0,0,1,0,1,0,1]","door_history":"[0,1,1,0,1,1,1,1,1,1,1,0,1,0,1,1,1,1,0,0,1,0,1,0,1]","location_rts":"[1711,1127,754,808,1394,667,823,570,546,464,386,676,671,1158,1671,433,501,363,286,369,768,576,626,919,964]","trial_type":"two-door-navigation","trial_index":82,"time_elapsed":1562961,"internal_node_id":"0.0-2.0-80.0"},{"group":"hexagon_bi","room_assignment":["purple","yellow","green","grey","red","blue"],"door_color_assignment":["white","black"],"door_generator_assignment":[0,1],"goal":5,"start":4,"action_noise":0.2,"location_history":"[4,3,2,1,0,1,0,5]","action_history":"[1,0,0,1,0,0,0]","door_history":"[1,0,0,1,0,0,0]","location_rts":"[1703,1118,1078,1012,804,981,621]","trial_type":"two-door-navigation","trial_index":83,"time_elapsed":1580945,"internal_node_id":"0.0-2.0-81.0"},{"group":"hexagon_bi","room_assignment":["purple","yellow","green","grey","red","blue"],"door_color_assignment":["white","black"],"door_generator_assignment":[0,1],"goal":0,"start":5,"action_noise":0.2,"location_history":"[5,0]","action_history":"[0]","door_history":"[0]","location_rts":"[1682]","trial_type":"two-door-navigation","trial_index":84,"time_elapsed":1587153,"internal_node_id":"0.0-2.0-82.0"},{"group":"hexagon_bi","room_assignment":["purple","yellow","green","grey","red","blue"],"door_color_assignment":["white","black"],"door_generator_assignment":[0,1],"goal":2,"start":0,"action_noise":0.2,"location_history":"[0,1,0,5,4,3,4,5,4,5,4,3,4,3,2]","action_history":"[1,0,0,1,0,0,0,1,1,1,0,0,0,1]","door_history":"[1,0,0,1,0,0,0,1,1,1,0,0,0,1]","location_rts":"[2782,903,366,703,1111,691,517,353,699,692,499,527,629,1439]","trial_type":"two-door-navigation","trial_index":85,"time_elapsed":1616875,"internal_node_id":"0.0-2.0-83.0"},{"group":"hexagon_bi","room_assignment":["purple","yellow","green","grey","red","blue"],"door_color_assignment":["white","black"],"door_generator_assignment":[0,1],"goal":0,"start":2,"action_noise":0.2,"location_history":"[2,3,4,3,4,5,0]","action_history":"[1,0,0,0,1,0]","door_history":"[1,0,0,0,1,0]","location_rts":"[3462,495,537,492,352,405]","trial_type":"two-door-navigation","trial_index":86,"time_elapsed":1632269,"internal_node_id":"0.0-2.0-84.0"},{"group":"hexagon_bi","room_assignment":["purple","yellow","green","grey","red","blue"],"door_color_assignment":["white","black"],"door_generator_assignment":[0,1],"goal":5,"start":0,"action_noise":0.2,"location_history":"[0,5]","action_history":"[1]","door_history":"[1]","location_rts":"[1699]","trial_type":"two-door-navigation","trial_index":87,"time_elapsed":1638494,"internal_node_id":"0.0-2.0-85.0"},{"group":"hexagon_bi","room_assignment":["purple","yellow","green","grey","red","blue"],"door_color_assignment":["white","black"],"door_generator_assignment":[0,1],"goal":1,"start":5,"action_noise":0.2,"location_history":"[5,0,5,0,5,4,5,4,3,2,3,4,5,0,5,0,1]","action_history":"[0,0,0,0,1,1,1,0,0,1,1,0,0,0,0,1]","door_history":"[0,0,0,0,1,1,1,0,0,1,1,0,0,0,0,1]","location_rts":"[2199,796,438,323,285,604,1427,249,787,1875,5991,383,333,365,631,75]","trial_type":"two-door-navigation","trial_index":88,"time_elapsed":1675113,"internal_node_id":"0.0-2.0-86.0"},{"group":"hexagon_bi","room_assignment":["purple","yellow","green","grey","red","blue"],"door_color_assignment":["white","black"],"door_generator_assignment":[0,1],"goal":4,"start":1,"action_noise":0.2,"location_history":"[1,2,1,0,1,2,1,0,1,2,3,4]","action_history":"[0,0,1,0,1,1,1,1,0,0,1]","door_history":"[0,0,1,0,1,1,1,1,0,0,1]","location_rts":"[1578,471,476,1138,528,382,576,524,198,538,1718]","trial_type":"two-door-navigation","trial_index":89,"time_elapsed":1698014,"internal_node_id":"0.0-2.0-87.0"},{"group":"hexagon_bi","room_assignment":["purple","yellow","green","grey","red","blue"],"door_color_assignment":["white","black"],"door_generator_assignment":[0,1],"goal":3,"start":4,"action_noise":0.2,"location_history":"[4,3]","action_history":"[0]","door_history":"[0]","location_rts":"[9623]","trial_type":"two-door-navigation","trial_index":90,"time_elapsed":1712160,"internal_node_id":"0.0-2.0-88.0"},{"group":"hexagon_bi","room_assignment":["purple","yellow","green","grey","red","blue"],"door_color_assignment":["white","black"],"door_generator_assignment":[0,1],"goal":5,"start":3,"action_noise":0.2,"location_history":"[3,2,3,4,5]","action_history":"[1,1,0,1]","door_history":"[1,1,0,1]","location_rts":"[1577,609,544,1126]","trial_type":"two-door-navigation","trial_index":91,"time_elapsed":1723615,"internal_node_id":"0.0-2.0-89.0"},{"group":"hexagon_bi","room_assignment":["purple","yellow","green","grey","red","blue"],"door_color_assignment":["white","black"],"door_generator_assignment":[0,1],"goal":1,"start":5,"action_noise":0.2,"location_history":"[5,0,5,0,1]","action_history":"[0,0,1,1]","door_history":"[0,0,1,1]","location_rts":"[1543,670,365,631]","trial_type":"two-door-navigation","trial_index":92,"time_elapsed":1734421,"internal_node_id":"0.0-2.0-90.0"},{"group":"hexagon_bi","room_assignment":["purple","yellow","green","grey","red","blue"],"door_color_assignment":["white","black"],"door_generator_assignment":[0,1],"goal":2,"start":1,"action_noise":0.2,"location_history":"[1,2]","action_history":"[0]","door_history":"[0]","location_rts":"[1313]","trial_type":"two-door-navigation","trial_index":93,"time_elapsed":1740253,"internal_node_id":"0.0-2.0-91.0"},{"group":"hexagon_bi","room_assignment":["purple","yellow","green","grey","red","blue"],"door_color_assignment":["white","black"],"door_generator_assignment":[0,1],"goal":4,"start":2,"action_noise":0.2,"location_history":"[2,3,4]","action_history":"[0,1]","door_history":"[0,1]","location_rts":"[1284,747]","trial_type":"two-door-navigation","trial_index":94,"time_elapsed":1747837,"internal_node_id":"0.0-2.0-92.0"},{"group":"hexagon_bi","room_assignment":["purple","yellow","green","grey","red","blue"],"door_color_assignment":["white","black"],"door_generator_assignment":[0,1],"goal":0,"start":4,"action_noise":0.2,"location_history":"[4,5,4,5,4,3,2,3,4,3,4,5,0]","action_history":"[0,1,1,1,0,0,1,0,0,1,1,0]","door_history":"[0,1,1,1,0,0,1,0,0,1,1,0]","location_rts":"[1814,1487,348,653,414,388,932,655,643,637,611,724]","trial_type":"two-door-navigation","trial_index":95,"time_elapsed":1772894,"internal_node_id":"0.0-2.0-93.0"},{"group":"hexagon_bi","room_assignment":["purple","yellow","green","grey","red","blue"],"door_color_assignment":["white","black"],"door_generator_assignment":[0,1],"goal":3,"start":0,"action_noise":0.2,"location_history":"[0,5,4,3]","action_history":"[0,0,0]","door_history":"[0,0,0]","location_rts":"[1167,1106,2464]","trial_type":"two-door-navigation","trial_index":96,"time_elapsed":1784207,"internal_node_id":"0.0-2.0-94.0"},{"group":"hexagon_bi","room_assignment":["purple","yellow","green","grey","red","blue"],"door_color_assignment":["white","black"],"door_generator_assignment":[0,1],"goal":0,"start":3,"action_noise":0.2,"location_history":"[3,4,3,4,3,2,3,4,5,0]","action_history":"[1,1,0,0,1,1,1,1,0]","door_history":"[1,1,0,0,1,1,1,1,0]","location_rts":"[953,729,1362,408,909,784,941,834,735]","trial_type":"two-door-navigation","trial_index":97,"time_elapsed":1804587,"internal_node_id":"0.0-2.0-95.0"},{"group":"hexagon_bi","room_assignment":["purple","yellow","green","grey","red","blue"],"door_color_assignment":["white","black"],"door_generator_assignment":[0,1],"goal":4,"start":0,"action_noise":0.2,"location_history":"[0,1,0,1,2,3,4]","action_history":"[1,1,1,0,1,1]","door_history":"[1,1,1,0,1,1]","location_rts":"[2064,638,1001,297,715,979]","trial_type":"two-door-navigation","trial_index":98,"time_elapsed":1819932,"internal_node_id":"0.0-2.0-96.0"},{"group":"hexagon_bi","room_assignment":["purple","yellow","green","grey","red","blue"],"door_color_assignment":["white","black"],"door_generator_assignment":[0,1],"goal":5,"start":4,"action_noise":0.2,"location_history":"[4,5]","action_history":"[1]","door_history":"[1]","location_rts":"[2095]","trial_type":"two-door-navigation","trial_index":99,"time_elapsed":1826552,"internal_node_id":"0.0-2.0-97.0"},{"group":"hexagon_bi","room_assignment":["purple","yellow","green","grey","red","blue"],"door_color_assignment":["white","black"],"door_generator_assignment":[0,1],"goal":2,"start":5,"action_noise":0.2,"location_history":"[5,0,1,2]","action_history":"[0,1,0]","door_history":"[0,1,0]","location_rts":"[3005,1705,836]","trial_type":"two-door-navigation","trial_index":100,"time_elapsed":1838665,"internal_node_id":"0.0-2.0-98.0"},{"group":"hexagon_bi","room_assignment":["purple","yellow","green","grey","red","blue"],"door_color_assignment":["white","black"],"door_generator_assignment":[0,1],"goal":1,"start":2,"action_noise":0.2,"location_history":"[2,1]","action_history":"[0]","door_history":"[0]","location_rts":"[1336]","trial_type":"two-door-navigation","trial_index":101,"time_elapsed":1844527,"internal_node_id":"0.0-2.0-99.0"},{"view_history":"[{\"page_index\":0,\"viewing_time\":2773}]","rt":2773,"trial_type":"instructions","trial_index":102,"time_elapsed":1848302,"internal_node_id":"0.0-3.0"},{"view_history":"[{\"page_index\":0,\"viewing_time\":1968},{\"page_index\":1,\"viewing_time\":13404}]","rt":15372,"trial_type":"instructions","trial_index":103,"time_elapsed":1864675,"internal_node_id":"0.0-4.0"},{"group":"hexagon_bi","fractal_assignment":["../images/pnk_blu.png","../images/ylw_slt.png","../images/cyn_red.png","../images/blu_wht.png","../images/org_blu.png","../images/gry_blk.png"],"mutagen_generator_assignment":[0,1],"goal":2,"start":1,"action_noise":0.2,"location_history":"[1,2]","action_history":"[0]","mutagen_history":"[0]","location_rts":"[2839]","trial_type":"fractal-mutation","trial_index":104,"time_elapsed":1872053,"internal_node_id":"0.0-5.0-0.0"},{"group":"hexagon_bi","fractal_assignment":["../images/pnk_blu.png","../images/ylw_slt.png","../images/cyn_red.png","../images/blu_wht.png","../images/org_blu.png","../images/gry_blk.png"],"mutagen_generator_assignment":[0,1],"goal":0,"start":2,"action_noise":0.2,"location_history":"[2,3,4,5,4,5,0]","action_history":"[1,0,1,1,0,0]","mutagen_history":"[1,0,1,1,0,0]","location_rts":"[3027,1259,1826,904,348,1307]","trial_type":"fractal-mutation","trial_index":105,"time_elapsed":1890439,"internal_node_id":"0.0-5.0-1.0"},{"group":"hexagon_bi","fractal_assignment":["../images/pnk_blu.png","../images/ylw_slt.png","../images/cyn_red.png","../images/blu_wht.png","../images/org_blu.png","../images/gry_blk.png"],"mutagen_generator_assignment":[0,1],"goal":5,"start":0,"action_noise":0.2,"location_history":"[0,1,0,5]","action_history":"[0,1,0]","mutagen_history":"[0,1,0]","location_rts":"[2655,1102,632]","trial_type":"fractal-mutation","trial_index":106,"time_elapsed":1901428,"internal_node_id":"0.0-5.0-2.0"},{"group":"hexagon_bi","fractal_assignment":["../images/pnk_blu.png","../images/ylw_slt.png","../images/cyn_red.png","../images/blu_wht.png","../images/org_blu.png","../images/gry_blk.png"],"mutagen_generator_assignment":[0,1],"goal":3,"start":5,"action_noise":0.2,"location_history":"[5,4,5,0,1,2,1,2,1,2,3]","action_history":"[1,0,0,1,0,0,0,1,1,1]","mutagen_history":"[1,0,0,1,0,0,0,1,1,1]","location_rts":"[3722,364,624,697,494,567,383,688,841,794]","trial_type":"fractal-mutation","trial_index":107,"time_elapsed":1924453,"internal_node_id":"0.0-5.0-3.0"},{"group":"hexagon_bi","fractal_assignment":["../images/pnk_blu.png","../images/ylw_slt.png","../images/cyn_red.png","../images/blu_wht.png","../images/org_blu.png","../images/gry_blk.png"],"mutagen_generator_assignment":[0,1],"goal":4,"start":3,"action_noise":0.2,"location_history":"[3,2,1,0,1,0,1,0,1,2,1,0,1,0,5,4]","action_history":"[1,0,1,0,0,0,1,1,0,1,1,0,0,0,1]","mutagen_history":"[1,0,1,0,0,0,1,1,0,1,1,0,0,0,1]","location_rts":"[1355,292,1024,685,826,569,315,807,954,1268,1091,1255,839,1127,2265]","trial_type":"fractal-mutation","trial_index":108,"time_elapsed":1958180,"internal_node_id":"0.0-5.0-4.0"},{"group":"hexagon_bi","fractal_assignment":["../images/pnk_blu.png","../images/ylw_slt.png","../images/cyn_red.png","../images/blu_wht.png","../images/org_blu.png","../images/gry_blk.png"],"mutagen_generator_assignment":[0,1],"goal":0,"start":4,"action_noise":0.2,"location_history":"[4,3,2,3,2,3,4,3,4,3,2,1,2,1,0]","action_history":"[1,0,0,0,0,1,0,0,0,1,1,0,0,1]","mutagen_history":"[1,0,0,0,0,1,0,0,0,1,1,0,0,1]","location_rts":"[1464,680,1541,556,396,291,896,970,736,785,646,912,481,305]","trial_type":"fractal-mutation","trial_index":109,"time_elapsed":1986812,"internal_node_id":"0.0-5.0-5.0"},{"group":"hexagon_bi","fractal_assignment":["../images/pnk_blu.png","../images/ylw_slt.png","../images/cyn_red.png","../images/blu_wht.png","../images/org_blu.png","../images/gry_blk.png"],"mutagen_generator_assignment":[0,1],"goal":4,"start":0,"action_noise":0.2,"location_history":"[0,1,2,3,4]","action_history":"[1,0,1,0]","mutagen_history":"[1,0,1,0]","location_rts":"[2050,463,2021,568]","trial_type":"fractal-mutation","trial_index":110,"time_elapsed":1999553,"internal_node_id":"0.0-5.0-6.0"},{"group":"hexagon_bi","fractal_assignment":["../images/pnk_blu.png","../images/ylw_slt.png","../images/cyn_red.png","../images/blu_wht.png","../images/org_blu.png","../images/gry_blk.png"],"mutagen_generator_assignment":[0,1],"goal":3,"start":4,"action_noise":0.2,"location_history":"[4,3]","action_history":"[0]","mutagen_history":"[0]","location_rts":"[4254]","trial_type":"fractal-mutation","trial_index":111,"time_elapsed":2008346,"internal_node_id":"0.0-5.0-7.0"},{"group":"hexagon_bi","fractal_assignment":["../images/pnk_blu.png","../images/ylw_slt.png","../images/cyn_red.png","../images/blu_wht.png","../images/org_blu.png","../images/gry_blk.png"],"mutagen_generator_assignment":[0,1],"goal":2,"start":3,"action_noise":0.2,"location_history":"[3,2]","action_history":"[1]","mutagen_history":"[1]","location_rts":"[2581]","trial_type":"fractal-mutation","trial_index":112,"time_elapsed":2015472,"internal_node_id":"0.0-5.0-8.0"},{"group":"hexagon_bi","fractal_assignment":["../images/pnk_blu.png","../images/ylw_slt.png","../images/cyn_red.png","../images/blu_wht.png","../images/org_blu.png","../images/gry_blk.png"],"mutagen_generator_assignment":[0,1],"goal":1,"start":2,"action_noise":0.2,"location_history":"[2,3,4,3,4,3,2,3,4,3,2,3,4,5,0,1]","action_history":"[1,0,1,0,0,1,0,0,0,1,1,0,0,1,0]","mutagen_history":"[1,0,1,0,0,1,0,0,0,1,1,0,0,1,0]","location_rts":"[2645,449,1134,302,838,1085,1105,1096,517,526,650,763,1752,1039,1267]","trial_type":"fractal-mutation","trial_index":113,"time_elapsed":2049638,"internal_node_id":"0.0-5.0-9.0"},{"group":"hexagon_bi","fractal_assignment":["../images/pnk_blu.png","../images/ylw_slt.png","../images/cyn_red.png","../images/blu_wht.png","../images/org_blu.png","../images/gry_blk.png"],"mutagen_generator_assignment":[0,1],"goal":5,"start":1,"action_noise":0.2,"location_history":"[1,0,1,2,3,2,1,2,3,4,3,4,5]","action_history":"[1,1,0,1,1,1,0,0,0,0,0,1]","mutagen_history":"[1,1,0,1,1,1,0,0,0,0,0,1]","location_rts":"[4201,708,279,1338,1240,325,334,692,1030,335,384,277]","trial_type":"fractal-mutation","trial_index":114,"time_elapsed":2076694,"internal_node_id":"0.0-5.0-10.0"},{"group":"hexagon_bi","fractal_assignment":["../images/pnk_blu.png","../images/ylw_slt.png","../images/cyn_red.png","../images/blu_wht.png","../images/org_blu.png","../images/gry_blk.png"],"mutagen_generator_assignment":[0,1],"goal":0,"start":5,"action_noise":0.2,"location_history":"[5,0]","action_history":"[0]","mutagen_history":"[0]","location_rts":"[1117]","trial_type":"fractal-mutation","trial_index":115,"time_elapsed":2082350,"internal_node_id":"0.0-5.0-11.0"},{"group":"hexagon_bi","fractal_assignment":["../images/pnk_blu.png","../images/ylw_slt.png","../images/cyn_red.png","../images/blu_wht.png","../images/org_blu.png","../images/gry_blk.png"],"mutagen_generator_assignment":[0,1],"goal":4,"start":0,"action_noise":0.2,"location_history":"[0,5,0,5,4]","action_history":"[0,1,0,1]","mutagen_history":"[0,1,0,1]","location_rts":"[2331,759,1927,537]","trial_type":"fractal-mutation","trial_index":116,"time_elapsed":2095545,"internal_node_id":"0.0-5.0-12.0"},{"group":"hexagon_bi","fractal_assignment":["../images/pnk_blu.png","../images/ylw_slt.png","../images/cyn_red.png","../images/blu_wht.png","../images/org_blu.png","../images/gry_blk.png"],"mutagen_generator_assignment":[0,1],"goal":2,"start":4,"action_noise":0.2,"location_history":"[4,5,0,5,0,5,0,5,4,3,4,5,4,5,0,1,0,1,0,5,4,5,4,3,2]","action_history":"[1,0,1,1,0,0,1,1,0,1,1,1,0,0,0,0,1,1,0,1,1,0,0,0]","mutagen_history":"[1,0,1,1,0,0,1,1,0,1,1,1,0,0,0,0,1,1,0,1,1,0,0,0]","location_rts":"[2461,309,1309,1153,616,643,1157,458,1443,1082,1075,1397,547,907,941,602,610,986,1062,988,946,1221,2726,1408]","trial_type":"fractal-mutation","trial_index":117,"time_elapsed":2149885,"internal_node_id":"0.0-5.0-13.0"},{"group":"hexagon_bi","fractal_assignment":["../images/pnk_blu.png","../images/ylw_slt.png","../images/cyn_red.png","../images/blu_wht.png","../images/org_blu.png","../images/gry_blk.png"],"mutagen_generator_assignment":[0,1],"goal":1,"start":2,"action_noise":0.2,"location_history":"[2,1]","action_history":"[0]","mutagen_history":"[0]","location_rts":"[3474]","trial_type":"fractal-mutation","trial_index":118,"time_elapsed":2157901,"internal_node_id":"0.0-5.0-14.0"},{"group":"hexagon_bi","fractal_assignment":["../images/pnk_blu.png","../images/ylw_slt.png","../images/cyn_red.png","../images/blu_wht.png","../images/org_blu.png","../images/gry_blk.png"],"mutagen_generator_assignment":[0,1],"goal":3,"start":1,"action_noise":0.2,"location_history":"[1,0,5,0,1,0,5,4,3]","action_history":"[0,1,0,1,1,1,0,0]","mutagen_history":"[0,1,0,1,1,1,0,0]","location_rts":"[2553,1700,2667,1117,1231,403,266,2152]","trial_type":"fractal-mutation","trial_index":119,"time_elapsed":2181750,"internal_node_id":"0.0-5.0-15.0"},{"group":"hexagon_bi","fractal_assignment":["../images/pnk_blu.png","../images/ylw_slt.png","../images/cyn_red.png","../images/blu_wht.png","../images/org_blu.png","../images/gry_blk.png"],"mutagen_generator_assignment":[0,1],"goal":5,"start":3,"action_noise":0.2,"location_history":"[3,4,5]","action_history":"[0,1]","mutagen_history":"[0,1]","location_rts":"[1607,883]","trial_type":"fractal-mutation","trial_index":120,"time_elapsed":2189815,"internal_node_id":"0.0-5.0-16.0"},{"group":"hexagon_bi","fractal_assignment":["../images/pnk_blu.png","../images/ylw_slt.png","../images/cyn_red.png","../images/blu_wht.png","../images/org_blu.png","../images/gry_blk.png"],"mutagen_generator_assignment":[0,1],"goal":0,"start":5,"action_noise":0.2,"location_history":"[5,4,5,0]","action_history":"[0,1,1]","mutagen_history":"[0,1,1]","location_rts":"[1713,548,827]","trial_type":"fractal-mutation","trial_index":121,"time_elapsed":2199518,"internal_node_id":"0.0-5.0-17.0"},{"group":"hexagon_bi","fractal_assignment":["../images/pnk_blu.png","../images/ylw_slt.png","../images/cyn_red.png","../images/blu_wht.png","../images/org_blu.png","../images/gry_blk.png"],"mutagen_generator_assignment":[0,1],"goal":5,"start":0,"action_noise":0.2,"location_history":"[0,5]","action_history":"[0]","mutagen_history":"[0]","location_rts":"[1224]","trial_type":"fractal-mutation","trial_index":122,"time_elapsed":2205274,"internal_node_id":"0.0-5.0-18.0"},{"group":"hexagon_bi","fractal_assignment":["../images/pnk_blu.png","../images/ylw_slt.png","../images/cyn_red.png","../images/blu_wht.png","../images/org_blu.png","../images/gry_blk.png"],"mutagen_generator_assignment":[0,1],"goal":3,"start":5,"action_noise":0.2,"location_history":"[5,0,1,2,1,0,1,0,5,0,5,0,1,0,1,2,3]","action_history":"[0,1,0,1,1,0,1,1,0,0,0,1,1,1,0,1]","mutagen_history":"[0,1,0,1,1,0,1,1,0,0,0,1,1,1,0,1]","location_rts":"[5204,772,2519,537,765,1462,685,772,1793,1237,1022,268,446,479,374,1050]","trial_type":"fractal-mutation","trial_index":123,"time_elapsed":2244683,"internal_node_id":"0.0-5.0-19.0"},{"group":"hexagon_bi","fractal_assignment":["../images/pnk_blu.png","../images/ylw_slt.png","../images/cyn_red.png","../images/blu_wht.png","../images/org_blu.png","../images/gry_blk.png"],"mutagen_generator_assignment":[0,1],"goal":4,"start":3,"action_noise":0.2,"location_history":"[3,2,1,0,1,2,3,4]","action_history":"[1,0,0,0,1,1,1]","mutagen_history":"[1,0,0,0,1,1,1]","location_rts":"[1091,768,1472,672,357,907,709]","trial_type":"fractal-mutation","trial_index":124,"time_elapsed":2261392,"internal_node_id":"0.0-5.0-20.0"},{"group":"hexagon_bi","fractal_assignment":["../images/pnk_blu.png","../images/ylw_slt.png","../images/cyn_red.png","../images/blu_wht.png","../images/org_blu.png","../images/gry_blk.png"],"mutagen_generator_assignment":[0,1],"goal":1,"start":4,"action_noise":0.2,"location_history":"[4,5,0,1]","action_history":"[0,1,0]","mutagen_history":"[0,1,0]","location_rts":"[2344,1063,1251]","trial_type":"fractal-mutation","trial_index":125,"time_elapsed":2272657,"internal_node_id":"0.0-5.0-21.0"},{"group":"hexagon_bi","fractal_assignment":["../images/pnk_blu.png","../images/ylw_slt.png","../images/cyn_red.png","../images/blu_wht.png","../images/org_blu.png","../images/gry_blk.png"],"mutagen_generator_assignment":[0,1],"goal":2,"start":1,"action_noise":0.2,"location_history":"[1,0,1,0,5,4,3,2]","action_history":"[0,1,1,0,1,0,1]","mutagen_history":"[0,1,1,0,1,0,1]","location_rts":"[822,510,853,1024,752,921,619]","trial_type":"fractal-mutation","trial_index":126,"time_elapsed":2288894,"internal_node_id":"0.0-5.0-22.0"},{"group":"hexagon_bi","fractal_assignment":["../images/pnk_blu.png","../images/ylw_slt.png","../images/cyn_red.png","../images/blu_wht.png","../images/org_blu.png","../images/gry_blk.png"],"mutagen_generator_assignment":[0,1],"goal":3,"start":2,"action_noise":0.2,"location_history":"[2,3]","action_history":"[1]","mutagen_history":"[1]","location_rts":"[5910]","trial_type":"fractal-mutation","trial_index":127,"time_elapsed":2299350,"internal_node_id":"0.0-5.0-23.0"},{"group":"hexagon_bi","fractal_assignment":["../images/pnk_blu.png","../images/ylw_slt.png","../images/cyn_red.png","../images/blu_wht.png","../images/org_blu.png","../images/gry_blk.png"],"mutagen_generator_assignment":[0,1],"goal":5,"start":3,"action_noise":0.2,"location_history":"[3,2,3,4,5]","action_history":"[0,1,0,1]","mutagen_history":"[0,1,0,1]","location_rts":"[1393,4313,1334,11493]","trial_type":"fractal-mutation","trial_index":128,"time_elapsed":2325512,"internal_node_id":"0.0-5.0-24.0"},{"group":"hexagon_bi","fractal_assignment":["../images/pnk_blu.png","../images/ylw_slt.png","../images/cyn_red.png","../images/blu_wht.png","../images/org_blu.png","../images/gry_blk.png"],"mutagen_generator_assignment":[0,1],"goal":4,"start":5,"action_noise":0.2,"location_history":"[5,4]","action_history":"[1]","mutagen_history":"[1]","location_rts":"[15979]","trial_type":"fractal-mutation","trial_index":129,"time_elapsed":2346029,"internal_node_id":"0.0-5.0-25.0"},{"group":"hexagon_bi","fractal_assignment":["../images/pnk_blu.png","../images/ylw_slt.png","../images/cyn_red.png","../images/blu_wht.png","../images/org_blu.png","../images/gry_blk.png"],"mutagen_generator_assignment":[0,1],"goal":0,"start":4,"action_noise":0.2,"location_history":"[4,5,4,5,0]","action_history":"[0,1,1,0]","mutagen_history":"[0,1,1,0]","location_rts":"[1709,392,1180,1173]","trial_type":"fractal-mutation","trial_index":130,"time_elapsed":2358118,"internal_node_id":"0.0-5.0-26.0"},{"group":"hexagon_bi","fractal_assignment":["../images/pnk_blu.png","../images/ylw_slt.png","../images/cyn_red.png","../images/blu_wht.png","../images/org_blu.png","../images/gry_blk.png"],"mutagen_generator_assignment":[0,1],"goal":2,"start":0,"action_noise":0.2,"location_history":"[0,1,0,5,0,1,2]","action_history":"[1,0,0,1,1,0]","mutagen_history":"[1,0,0,1,1,0]","location_rts":"[1538,520,531,464,634,332]","trial_type":"fractal-mutation","trial_index":131,"time_elapsed":2371839,"internal_node_id":"0.0-5.0-27.0"},{"group":"hexagon_bi","fractal_assignment":["../images/pnk_blu.png","../images/ylw_slt.png","../images/cyn_red.png","../images/blu_wht.png","../images/org_blu.png","../images/gry_blk.png"],"mutagen_generator_assignment":[0,1],"goal":1,"start":2,"action_noise":0.2,"location_history":"[2,1]","action_history":"[0]","mutagen_history":"[0]","location_rts":"[1667]","trial_type":"fractal-mutation","trial_index":132,"time_elapsed":2378041,"internal_node_id":"0.0-5.0-28.0"},{"group":"hexagon_bi","fractal_assignment":["../images/pnk_blu.png","../images/ylw_slt.png","../images/cyn_red.png","../images/blu_wht.png","../images/org_blu.png","../images/gry_blk.png"],"mutagen_generator_assignment":[0,1],"goal":0,"start":1,"action_noise":0.2,"location_history":"[1,2,1,2,1,2,3,2,3,4,3,2,1,0]","action_history":"[1,0,0,1,0,1,1,1,0,1,0,0,1]","mutagen_history":"[1,0,0,1,0,1,1,1,0,1,0,0,1]","location_rts":"[1326,528,792,465,431,482,350,524,273,886,548,975,1087]","trial_type":"fractal-mutation","trial_index":133,"time_elapsed":2403647,"internal_node_id":"0.0-5.0-29.0"},{"group":"hexagon_bi","fractal_assignment":["../images/pnk_blu.png","../images/ylw_slt.png","../images/cyn_red.png","../images/blu_wht.png","../images/org_blu.png","../images/gry_blk.png"],"mutagen_generator_assignment":[0,1],"goal":2,"start":0,"action_noise":0.2,"location_history":"[0,1,2]","action_history":"[1,0]","mutagen_history":"[1,0]","location_rts":"[1924,418]","trial_type":"fractal-mutation","trial_index":134,"time_elapsed":2411557,"internal_node_id":"0.0-5.0-30.0"},{"group":"hexagon_bi","fractal_assignment":["../images/pnk_blu.png","../images/ylw_slt.png","../images/cyn_red.png","../images/blu_wht.png","../images/org_blu.png","../images/gry_blk.png"],"mutagen_generator_assignment":[0,1],"goal":4,"start":2,"action_noise":0.2,"location_history":"[2,1,0,1,2,1,2,1,0,5,0,5,4]","action_history":"[0,1,1,0,0,0,0,1,0,1,1,0]","mutagen_history":"[0,1,1,0,0,0,0,1,0,1,1,0]","location_rts":"[9745,870,725,377,279,421,319,297,493,1045,874,164]","trial_type":"fractal-mutation","trial_index":135,"time_elapsed":2443041,"internal_node_id":"0.0-5.0-31.0"},{"group":"hexagon_bi","fractal_assignment":["../images/pnk_blu.png","../images/ylw_slt.png","../images/cyn_red.png","../images/blu_wht.png","../images/org_blu.png","../images/gry_blk.png"],"mutagen_generator_assignment":[0,1],"goal":1,"start":4,"action_noise":0.2,"location_history":"[4,3,2,1]","action_history":"[0,1,0]","mutagen_history":"[0,1,0]","location_rts":"[2107,452,1218]","trial_type":"fractal-mutation","trial_index":136,"time_elapsed":2453415,"internal_node_id":"0.0-5.0-32.0"},{"group":"hexagon_bi","fractal_assignment":["../images/pnk_blu.png","../images/ylw_slt.png","../images/cyn_red.png","../images/blu_wht.png","../images/org_blu.png","../images/gry_blk.png"],"mutagen_generator_assignment":[0,1],"goal":3,"start":1,"action_noise":0.2,"location_history":"[1,2,3]","action_history":"[0,1]","mutagen_history":"[0,1]","location_rts":"[10417,975]","trial_type":"fractal-mutation","trial_index":137,"time_elapsed":2470377,"internal_node_id":"0.0-5.0-33.0"},{"group":"hexagon_bi","fractal_assignment":["../images/pnk_blu.png","../images/ylw_slt.png","../images/cyn_red.png","../images/blu_wht.png","../images/org_blu.png","../images/gry_blk.png"],"mutagen_generator_assignment":[0,1],"goal":5,"start":3,"action_noise":0.2,"location_history":"[3,4,5]","action_history":"[0,1]","mutagen_history":"[0,1]","location_rts":"[937,913]","trial_type":"fractal-mutation","trial_index":138,"time_elapsed":2477807,"internal_node_id":"0.0-5.0-34.0"},{"group":"hexagon_bi","fractal_assignment":["../images/pnk_blu.png","../images/ylw_slt.png","../images/cyn_red.png","../images/blu_wht.png","../images/org_blu.png","../images/gry_blk.png"],"mutagen_generator_assignment":[0,1],"goal":2,"start":5,"action_noise":0.2,"location_history":"[5,0,5,0,1,0,5,4,3,4,3,2]","action_history":"[1,0,0,1,0,0,1,0,0,0,1]","mutagen_history":"[1,0,0,1,0,0,1,0,0,0,1]","location_rts":"[1500,376,1896,588,1593,1154,859,453,943,704,436]","trial_type":"fractal-mutation","trial_index":139,"time_elapsed":2503181,"internal_node_id":"0.0-5.0-35.0"},{"group":"hexagon_bi","fractal_assignment":["../images/pnk_blu.png","../images/ylw_slt.png","../images/cyn_red.png","../images/blu_wht.png","../images/org_blu.png","../images/gry_blk.png"],"mutagen_generator_assignment":[0,1],"goal":0,"start":2,"action_noise":0.2,"location_history":"[2,1,0]","action_history":"[0,1]","mutagen_history":"[0,1]","location_rts":"[1822,782]","trial_type":"fractal-mutation","trial_index":140,"time_elapsed":2511356,"internal_node_id":"0.0-5.0-36.0"},{"group":"hexagon_bi","fractal_assignment":["../images/pnk_blu.png","../images/ylw_slt.png","../images/cyn_red.png","../images/blu_wht.png","../images/org_blu.png","../images/gry_blk.png"],"mutagen_generator_assignment":[0,1],"goal":4,"start":0,"action_noise":0.2,"location_history":"[0,5,4]","action_history":"[0,1]","mutagen_history":"[0,1]","location_rts":"[6234,1299]","trial_type":"fractal-mutation","trial_index":141,"time_elapsed":2524460,"internal_node_id":"0.0-5.0-37.0"},{"group":"hexagon_bi","fractal_assignment":["../images/pnk_blu.png","../images/ylw_slt.png","../images/cyn_red.png","../images/blu_wht.png","../images/org_blu.png","../images/gry_blk.png"],"mutagen_generator_assignment":[0,1],"goal":5,"start":4,"action_noise":0.2,"location_history":"[4,5]","action_history":"[1]","mutagen_history":"[1]","location_rts":"[1117]","trial_type":"fractal-mutation","trial_index":142,"time_elapsed":2530113,"internal_node_id":"0.0-5.0-38.0"},{"group":"hexagon_bi","fractal_assignment":["../images/pnk_blu.png","../images/ylw_slt.png","../images/cyn_red.png","../images/blu_wht.png","../images/org_blu.png","../images/gry_blk.png"],"mutagen_generator_assignment":[0,1],"goal":1,"start":5,"action_noise":0.2,"location_history":"[5,0,1]","action_history":"[0,1]","mutagen_history":"[0,1]","location_rts":"[6575,938]","trial_type":"fractal-mutation","trial_index":143,"time_elapsed":2543200,"internal_node_id":"0.0-5.0-39.0"},{"group":"hexagon_bi","fractal_assignment":["../images/pnk_blu.png","../images/ylw_slt.png","../images/cyn_red.png","../images/blu_wht.png","../images/org_blu.png","../images/gry_blk.png"],"mutagen_generator_assignment":[0,1],"goal":3,"start":1,"action_noise":0.2,"location_history":"[1,0,5,0,1,0,5,0,5,0,1,2,1,2,3]","action_history":"[1,0,1,1,1,0,0,0,0,1,1,0,0,1]","mutagen_history":"[1,0,1,1,1,0,0,0,0,1,1,0,0,1]","location_rts":"[2457,908,854,687,655,331,4151,915,871,296,547,681,676,433]","trial_type":"fractal-mutation","trial_index":144,"time_elapsed":2575636,"internal_node_id":"0.0-5.0-40.0"},{"group":"hexagon_bi","fractal_assignment":["../images/pnk_blu.png","../images/ylw_slt.png","../images/cyn_red.png","../images/blu_wht.png","../images/org_blu.png","../images/gry_blk.png"],"mutagen_generator_assignment":[0,1],"goal":1,"start":3,"action_noise":0.2,"location_history":"[3,2,1]","action_history":"[1,0]","mutagen_history":"[1,0]","location_rts":"[4305,878]","trial_type":"fractal-mutation","trial_index":145,"time_elapsed":2586393,"internal_node_id":"0.0-5.0-41.0"},{"group":"hexagon_bi","fractal_assignment":["../images/pnk_blu.png","../images/ylw_slt.png","../images/cyn_red.png","../images/blu_wht.png","../images/org_blu.png","../images/gry_blk.png"],"mutagen_generator_assignment":[0,1],"goal":0,"start":1,"action_noise":0.2,"location_history":"[1,2,3,4,5,0]","action_history":"[0,1,0,1,0]","mutagen_history":"[0,1,0,1,0]","location_rts":"[2088,524,1336,602,282]","trial_type":"fractal-mutation","trial_index":146,"time_elapsed":2599895,"internal_node_id":"0.0-5.0-42.0"},{"group":"hexagon_bi","fractal_assignment":["../images/pnk_blu.png","../images/ylw_slt.png","../images/cyn_red.png","../images/blu_wht.png","../images/org_blu.png","../images/gry_blk.png"],"mutagen_generator_assignment":[0,1],"goal":4,"start":0,"action_noise":0.2,"location_history":"[0,1,2,3,4]","action_history":"[1,0,1,0]","mutagen_history":"[1,0,1,0]","location_rts":"[4404,445,486,807]","trial_type":"fractal-mutation","trial_index":147,"time_elapsed":2613673,"internal_node_id":"0.0-5.0-43.0"},{"group":"hexagon_bi","fractal_assignment":["../images/pnk_blu.png","../images/ylw_slt.png","../images/cyn_red.png","../images/blu_wht.png","../images/org_blu.png","../images/gry_blk.png"],"mutagen_generator_assignment":[0,1],"goal":2,"start":4,"action_noise":0.2,"location_history":"[4,3,2]","action_history":"[0,1]","mutagen_history":"[0,1]","location_rts":"[2994,643]","trial_type":"fractal-mutation","trial_index":148,"time_elapsed":2622885,"internal_node_id":"0.0-5.0-44.0"},{"group":"hexagon_bi","fractal_assignment":["../images/pnk_blu.png","../images/ylw_slt.png","../images/cyn_red.png","../images/blu_wht.png","../images/org_blu.png","../images/gry_blk.png"],"mutagen_generator_assignment":[0,1],"goal":3,"start":2,"action_noise":0.2,"location_history":"[2,3]","action_history":"[1]","mutagen_history":"[1]","location_rts":"[1010]","trial_type":"fractal-mutation","trial_index":149,"time_elapsed":2628433,"internal_node_id":"0.0-5.0-45.0"},{"group":"hexagon_bi","fractal_assignment":["../images/pnk_blu.png","../images/ylw_slt.png","../images/cyn_red.png","../images/blu_wht.png","../images/org_blu.png","../images/gry_blk.png"],"mutagen_generator_assignment":[0,1],"goal":5,"start":3,"action_noise":0.2,"location_history":"[3,4,5]","action_history":"[0,1]","mutagen_history":"[0,1]","location_rts":"[2462,919]","trial_type":"fractal-mutation","trial_index":150,"time_elapsed":2637388,"internal_node_id":"0.0-5.0-46.0"},{"group":"hexagon_bi","fractal_assignment":["../images/pnk_blu.png","../images/ylw_slt.png","../images/cyn_red.png","../images/blu_wht.png","../images/org_blu.png","../images/gry_blk.png"],"mutagen_generator_assignment":[0,1],"goal":4,"start":5,"action_noise":0.2,"location_history":"[5,4]","action_history":"[1]","mutagen_history":"[1]","location_rts":"[1416]","trial_type":"fractal-mutation","trial_index":151,"time_elapsed":2643351,"internal_node_id":"0.0-5.0-47.0"},{"group":"hexagon_bi","fractal_assignment":["../images/pnk_blu.png","../images/ylw_slt.png","../images/cyn_red.png","../images/blu_wht.png","../images/org_blu.png","../images/gry_blk.png"],"mutagen_generator_assignment":[0,1],"goal":3,"start":4,"action_noise":0.2,"location_history":"[4,3]","action_history":"[0]","mutagen_history":"[0]","location_rts":"[2889]","trial_type":"fractal-mutation","trial_index":152,"time_elapsed":2650777,"internal_node_id":"0.0-5.0-48.0"},{"group":"hexagon_bi","fractal_assignment":["../images/pnk_blu.png","../images/ylw_slt.png","../images/cyn_red.png","../images/blu_wht.png","../images/org_blu.png","../images/gry_blk.png"],"mutagen_generator_assignment":[0,1],"goal":1,"start":3,"action_noise":0.2,"location_history":"[3,2,1]","action_history":"[1,0]","mutagen_history":"[1,0]","location_rts":"[3125,810]","trial_type":"fractal-mutation","trial_index":153,"time_elapsed":2660287,"internal_node_id":"0.0-5.0-49.0"},{"group":"hexagon_bi","fractal_assignment":["../images/pnk_blu.png","../images/ylw_slt.png","../images/cyn_red.png","../images/blu_wht.png","../images/org_blu.png","../images/gry_blk.png"],"mutagen_generator_assignment":[0,1],"goal":2,"start":1,"action_noise":0.2,"location_history":"[1,2]","action_history":"[0]","mutagen_history":"[0]","location_rts":"[979]","trial_type":"fractal-mutation","trial_index":154,"time_elapsed":2665799,"internal_node_id":"0.0-5.0-50.0"},{"group":"hexagon_bi","fractal_assignment":["../images/pnk_blu.png","../images/ylw_slt.png","../images/cyn_red.png","../images/blu_wht.png","../images/org_blu.png","../images/gry_blk.png"],"mutagen_generator_assignment":[0,1],"goal":0,"start":2,"action_noise":0.2,"location_history":"[2,3,4,5,0]","action_history":"[1,0,1,0]","mutagen_history":"[1,0,1,0]","location_rts":"[2888,931,961,354]","trial_type":"fractal-mutation","trial_index":155,"time_elapsed":2678559,"internal_node_id":"0.0-5.0-51.0"},{"group":"hexagon_bi","fractal_assignment":["../images/pnk_blu.png","../images/ylw_slt.png","../images/cyn_red.png","../images/blu_wht.png","../images/org_blu.png","../images/gry_blk.png"],"mutagen_generator_assignment":[0,1],"goal":5,"start":0,"action_noise":0.2,"location_history":"[0,5]","action_history":"[0]","mutagen_history":"[0]","location_rts":"[1809]","trial_type":"fractal-mutation","trial_index":156,"time_elapsed":2684903,"internal_node_id":"0.0-5.0-52.0"},{"group":"hexagon_bi","fractal_assignment":["../images/pnk_blu.png","../images/ylw_slt.png","../images/cyn_red.png","../images/blu_wht.png","../images/org_blu.png","../images/gry_blk.png"],"mutagen_generator_assignment":[0,1],"goal":1,"start":5,"action_noise":0.2,"location_history":"[5,4,5,4,3,2,1]","action_history":"[1,0,1,0,1,0]","mutagen_history":"[1,0,1,0,1,0]","location_rts":"[2244,1219,1834,510,1083,621]","trial_type":"fractal-mutation","trial_index":157,"time_elapsed":2702126,"internal_node_id":"0.0-5.0-53.0"},{"group":"hexagon_bi","fractal_assignment":["../images/pnk_blu.png","../images/ylw_slt.png","../images/cyn_red.png","../images/blu_wht.png","../images/org_blu.png","../images/gry_blk.png"],"mutagen_generator_assignment":[0,1],"goal":3,"start":1,"action_noise":0.2,"location_history":"[1,0,5,0,1,0,5,4,3]","action_history":"[0,1,0,1,1,0,1,0]","mutagen_history":"[0,1,0,1,1,0,1,0]","location_rts":"[1189,739,517,488,911,468,407,710]","trial_type":"fractal-mutation","trial_index":158,"time_elapsed":2719329,"internal_node_id":"0.0-5.0-54.0"},{"group":"hexagon_bi","fractal_assignment":["../images/pnk_blu.png","../images/ylw_slt.png","../images/cyn_red.png","../images/blu_wht.png","../images/org_blu.png","../images/gry_blk.png"],"mutagen_generator_assignment":[0,1],"goal":5,"start":3,"action_noise":0.2,"location_history":"[3,4,5]","action_history":"[0,1]","mutagen_history":"[0,1]","location_rts":"[1677,540]","trial_type":"fractal-mutation","trial_index":159,"time_elapsed":2727117,"internal_node_id":"0.0-5.0-55.0"},{"group":"hexagon_bi","fractal_assignment":["../images/pnk_blu.png","../images/ylw_slt.png","../images/cyn_red.png","../images/blu_wht.png","../images/org_blu.png","../images/gry_blk.png"],"mutagen_generator_assignment":[0,1],"goal":4,"start":5,"action_noise":0.2,"location_history":"[5,4]","action_history":"[1]","mutagen_history":"[1]","location_rts":"[1348]","trial_type":"fractal-mutation","trial_index":160,"time_elapsed":2733005,"internal_node_id":"0.0-5.0-56.0"},{"group":"hexagon_bi","fractal_assignment":["../images/pnk_blu.png","../images/ylw_slt.png","../images/cyn_red.png","../images/blu_wht.png","../images/org_blu.png","../images/gry_blk.png"],"mutagen_generator_assignment":[0,1],"goal":0,"start":4,"action_noise":0.2,"location_history":"[4,5,0]","action_history":"[1,0]","mutagen_history":"[1,0]","location_rts":"[2665,430]","trial_type":"fractal-mutation","trial_index":161,"time_elapsed":2741665,"internal_node_id":"0.0-5.0-57.0"},{"group":"hexagon_bi","fractal_assignment":["../images/pnk_blu.png","../images/ylw_slt.png","../images/cyn_red.png","../images/blu_wht.png","../images/org_blu.png","../images/gry_blk.png"],"mutagen_generator_assignment":[0,1],"goal":2,"start":0,"action_noise":0.2,"location_history":"[0,1,2]","action_history":"[0,1]","mutagen_history":"[0,1]","location_rts":"[2233,391]","trial_type":"fractal-mutation","trial_index":162,"time_elapsed":2749858,"internal_node_id":"0.0-5.0-58.0"},{"group":"hexagon_bi","fractal_assignment":["../images/pnk_blu.png","../images/ylw_slt.png","../images/cyn_red.png","../images/blu_wht.png","../images/org_blu.png","../images/gry_blk.png"],"mutagen_generator_assignment":[0,1],"goal":4,"start":2,"action_noise":0.2,"location_history":"[2,3,2,1,0,5,4]","action_history":"[1,0,0,1,0,1]","mutagen_history":"[1,0,0,1,0,1]","location_rts":"[2393,771,629,854,754,1206]","trial_type":"fractal-mutation","trial_index":163,"time_elapsed":2766161,"internal_node_id":"0.0-5.0-59.0"},{"group":"hexagon_bi","fractal_assignment":["../images/pnk_blu.png","../images/ylw_slt.png","../images/cyn_red.png","../images/blu_wht.png","../images/org_blu.png","../images/gry_blk.png"],"mutagen_generator_assignment":[0,1],"goal":2,"start":4,"action_noise":0.2,"location_history":"[4,5,4,3,2]","action_history":"[0,1,0,1]","mutagen_history":"[0,1,0,1]","location_rts":"[4133,581,713,934]","trial_type":"fractal-mutation","trial_index":164,"time_elapsed":2780165,"internal_node_id":"0.0-5.0-60.0"},{"group":"hexagon_bi","fractal_assignment":["../images/pnk_blu.png","../images/ylw_slt.png","../images/cyn_red.png","../images/blu_wht.png","../images/org_blu.png","../images/gry_blk.png"],"mutagen_generator_assignment":[0,1],"goal":3,"start":2,"action_noise":0.2,"location_history":"[2,3]","action_history":"[0]","mutagen_history":"[0]","location_rts":"[1102]","trial_type":"fractal-mutation","trial_index":165,"time_elapsed":2785808,"internal_node_id":"0.0-5.0-61.0"},{"group":"hexagon_bi","fractal_assignment":["../images/pnk_blu.png","../images/ylw_slt.png","../images/cyn_red.png","../images/blu_wht.png","../images/org_blu.png","../images/gry_blk.png"],"mutagen_generator_assignment":[0,1],"goal":0,"start":3,"action_noise":0.2,"location_history":"[3,2,3,4,3,4,3,4,5,0]","action_history":"[1,0,1,0,1,0,0,1,0]","mutagen_history":"[1,0,1,0,1,0,0,1,0]","location_rts":"[4283,1060,437,473,410,514,1254,335,728]","trial_type":"fractal-mutation","trial_index":166,"time_elapsed":2808075,"internal_node_id":"0.0-5.0-62.0"},{"group":"hexagon_bi","fractal_assignment":["../images/pnk_blu.png","../images/ylw_slt.png","../images/cyn_red.png","../images/blu_wht.png","../images/org_blu.png","../images/gry_blk.png"],"mutagen_generator_assignment":[0,1],"goal":5,"start":0,"action_noise":0.2,"location_history":"[0,5]","action_history":"[0]","mutagen_history":"[0]","location_rts":"[1672]","trial_type":"fractal-mutation","trial_index":167,"time_elapsed":2814283,"internal_node_id":"0.0-5.0-63.0"},{"group":"hexagon_bi","fractal_assignment":["../images/pnk_blu.png","../images/ylw_slt.png","../images/cyn_red.png","../images/blu_wht.png","../images/org_blu.png","../images/gry_blk.png"],"mutagen_generator_assignment":[0,1],"goal":1,"start":5,"action_noise":0.2,"location_history":"[5,4,5,4,3,4,3,4,5,0,5,0,5,0,5,0,1]","action_history":"[1,0,1,0,1,0,0,1,0,1,0,1,0,0,0,1]","mutagen_history":"[1,0,1,0,1,0,0,1,0,1,0,1,0,0,0,1]","location_rts":"[11386,418,602,554,988,396,441,377,394,924,858,1214,987,883,862,678]","trial_type":"fractal-mutation","trial_index":168,"time_elapsed":2856281,"internal_node_id":"0.0-5.0-64.0"},{"group":"hexagon_bi","fractal_assignment":["../images/pnk_blu.png","../images/ylw_slt.png","../images/cyn_red.png","../images/blu_wht.png","../images/org_blu.png","../images/gry_blk.png"],"mutagen_generator_assignment":[0,1],"goal":5,"start":1,"action_noise":0.2,"location_history":"[1,2,3,4,5]","action_history":"[0,1,0,1]","mutagen_history":"[0,1,0,1]","location_rts":"[1535,814,1067,615]","trial_type":"fractal-mutation","trial_index":169,"time_elapsed":2867955,"internal_node_id":"0.0-5.0-65.0"},{"group":"hexagon_bi","fractal_assignment":["../images/pnk_blu.png","../images/ylw_slt.png","../images/cyn_red.png","../images/blu_wht.png","../images/org_blu.png","../images/gry_blk.png"],"mutagen_generator_assignment":[0,1],"goal":3,"start":5,"action_noise":0.2,"location_history":"[5,0,1,2,3]","action_history":"[0,1,0,1]","mutagen_history":"[0,1,0,1]","location_rts":"[3039,1449,672,826]","trial_type":"fractal-mutation","trial_index":170,"time_elapsed":2881585,"internal_node_id":"0.0-5.0-66.0"},{"group":"hexagon_bi","fractal_assignment":["../images/pnk_blu.png","../images/ylw_slt.png","../images/cyn_red.png","../images/blu_wht.png","../images/org_blu.png","../images/gry_blk.png"],"mutagen_generator_assignment":[0,1],"goal":2,"start":3,"action_noise":0.2,"location_history":"[3,4,5,4,5,0,1,2]","action_history":"[0,1,0,1,0,1,0]","mutagen_history":"[0,1,0,1,0,1,0]","location_rts":"[2574,1005,516,771,432,1192,528]","trial_type":"fractal-mutation","trial_index":171,"time_elapsed":2899340,"internal_node_id":"0.0-5.0-67.0"},{"group":"hexagon_bi","fractal_assignment":["../images/pnk_blu.png","../images/ylw_slt.png","../images/cyn_red.png","../images/blu_wht.png","../images/org_blu.png","../images/gry_blk.png"],"mutagen_generator_assignment":[0,1],"goal":1,"start":2,"action_noise":0.2,"location_history":"[2,1]","action_history":"[0]","mutagen_history":"[0]","location_rts":"[1241]","trial_type":"fractal-mutation","trial_index":172,"time_elapsed":2905117,"internal_node_id":"0.0-5.0-68.0"},{"group":"hexagon_bi","fractal_assignment":["../images/pnk_blu.png","../images/ylw_slt.png","../images/cyn_red.png","../images/blu_wht.png","../images/org_blu.png","../images/gry_blk.png"],"mutagen_generator_assignment":[0,1],"goal":4,"start":1,"action_noise":0.2,"location_history":"[1,0,1,0,5,4]","action_history":"[1,0,1,0,1]","mutagen_history":"[1,0,1,0,1]","location_rts":"[2222,704,689,887,1045]","trial_type":"fractal-mutation","trial_index":173,"time_elapsed":2919320,"internal_node_id":"0.0-5.0-69.0"},{"group":"hexagon_bi","fractal_assignment":["../images/pnk_blu.png","../images/ylw_slt.png","../images/cyn_red.png","../images/blu_wht.png","../images/org_blu.png","../images/gry_blk.png"],"mutagen_generator_assignment":[0,1],"goal":0,"start":4,"action_noise":0.2,"location_history":"[4,3,2,3,4,5,0]","action_history":"[0,1,0,0,1,0]","mutagen_history":"[0,1,0,0,1,0]","location_rts":"[1288,627,731,761,349,1023]","trial_type":"fractal-mutation","trial_index":174,"time_elapsed":2933808,"internal_node_id":"0.0-5.0-70.0"},{"group":"hexagon_bi","fractal_assignment":["../images/pnk_blu.png","../images/ylw_slt.png","../images/cyn_red.png","../images/blu_wht.png","../images/org_blu.png","../images/gry_blk.png"],"mutagen_generator_assignment":[0,1],"goal":3,"start":0,"action_noise":0.2,"location_history":"[0,5,4,3]","action_history":"[0,1,0]","mutagen_history":"[0,1,0]","location_rts":"[1310,455,470]","trial_type":"fractal-mutation","trial_index":175,"time_elapsed":2942655,"internal_node_id":"0.0-5.0-71.0"},{"group":"hexagon_bi","fractal_assignment":["../images/pnk_blu.png","../images/ylw_slt.png","../images/cyn_red.png","../images/blu_wht.png","../images/org_blu.png","../images/gry_blk.png"],"mutagen_generator_assignment":[0,1],"goal":1,"start":3,"action_noise":0.2,"location_history":"[3,4,5,4,3,4,5,0,1]","action_history":"[0,1,0,0,1,0,0,1]","mutagen_history":"[0,1,0,0,1,0,0,1]","location_rts":"[1223,1046,247,863,690,719,426,1029]","trial_type":"fractal-mutation","trial_index":176,"time_elapsed":2960661,"internal_node_id":"0.0-5.0-72.0"},{"group":"hexagon_bi","fractal_assignment":["../images/pnk_blu.png","../images/ylw_slt.png","../images/cyn_red.png","../images/blu_wht.png","../images/org_blu.png","../images/gry_blk.png"],"mutagen_generator_assignment":[0,1],"goal":0,"start":1,"action_noise":0.2,"location_history":"[1,2,3,4,5,0]","action_history":"[0,1,0,1,0]","mutagen_history":"[0,1,0,1,0]","location_rts":"[797,1555,789,681,294]","trial_type":"fractal-mutation","trial_index":177,"time_elapsed":2973456,"internal_node_id":"0.0-5.0-73.0"},{"group":"hexagon_bi","fractal_assignment":["../images/pnk_blu.png","../images/ylw_slt.png","../images/cyn_red.png","../images/blu_wht.png","../images/org_blu.png","../images/gry_blk.png"],"mutagen_generator_assignment":[0,1],"goal":2,"start":0,"action_noise":0.2,"location_history":"[0,5,4,3,2]","action_history":"[0,1,0,1]","mutagen_history":"[0,1,0,1]","location_rts":"[3899,1335,328,440]","trial_type":"fractal-mutation","trial_index":178,"time_elapsed":2987096,"internal_node_id":"0.0-5.0-74.0"},{"group":"hexagon_bi","fractal_assignment":["../images/pnk_blu.png","../images/ylw_slt.png","../images/cyn_red.png","../images/blu_wht.png","../images/org_blu.png","../images/gry_blk.png"],"mutagen_generator_assignment":[0,1],"goal":4,"start":2,"action_noise":0.2,"location_history":"[2,3,2,3,2,3,4]","action_history":"[0,1,0,1,1,0]","mutagen_history":"[0,1,0,1,1,0]","location_rts":"[3209,625,922,2132,1121,564]","trial_type":"fractal-mutation","trial_index":179,"time_elapsed":3005370,"internal_node_id":"0.0-5.0-75.0"},{"group":"hexagon_bi","fractal_assignment":["../images/pnk_blu.png","../images/ylw_slt.png","../images/cyn_red.png","../images/blu_wht.png","../images/org_blu.png","../images/gry_blk.png"],"mutagen_generator_assignment":[0,1],"goal":5,"start":4,"action_noise":0.2,"location_history":"[4,3,4,5]","action_history":"[1,0,1]","mutagen_history":"[1,0,1]","location_rts":"[1511,1397,492]","trial_type":"fractal-mutation","trial_index":180,"time_elapsed":3015375,"internal_node_id":"0.0-5.0-76.0"},{"group":"hexagon_bi","fractal_assignment":["../images/pnk_blu.png","../images/ylw_slt.png","../images/cyn_red.png","../images/blu_wht.png","../images/org_blu.png","../images/gry_blk.png"],"mutagen_generator_assignment":[0,1],"goal":2,"start":5,"action_noise":0.2,"location_history":"[5,4,5,0,5,4,3,4,5,0,5,4,5,0,1,0,1,2]","action_history":"[0,1,0,0,1,0,1,1,0,0,0,1,0,0,1,1,0]","mutagen_history":"[0,1,0,0,1,0,1,1,0,0,0,1,0,0,1,1,0]","location_rts":"[2364,1007,558,520,473,512,971,1040,381,561,770,754,645,1839,823,947,660]","trial_type":"fractal-mutation","trial_index":181,"time_elapsed":3051254,"internal_node_id":"0.0-5.0-77.0"},{"group":"hexagon_bi","fractal_assignment":["../images/pnk_blu.png","../images/ylw_slt.png","../images/cyn_red.png","../images/blu_wht.png","../images/org_blu.png","../images/gry_blk.png"],"mutagen_generator_assignment":[0,1],"goal":3,"start":2,"action_noise":0.2,"location_history":"[2,3]","action_history":"[1]","mutagen_history":"[1]","location_rts":"[19461]","trial_type":"fractal-mutation","trial_index":182,"time_elapsed":3075258,"internal_node_id":"0.0-5.0-78.0"},{"group":"hexagon_bi","fractal_assignment":["../images/pnk_blu.png","../images/ylw_slt.png","../images/cyn_red.png","../images/blu_wht.png","../images/org_blu.png","../images/gry_blk.png"],"mutagen_generator_assignment":[0,1],"goal":1,"start":3,"action_noise":0.2,"location_history":"[3,4,5,4,3,4,5,4,3,4,5,0,5,0,5,4,5,0,1]","action_history":"[0,0,1,0,0,1,1,0,0,1,1,0,0,0,1,1,1,0]","mutagen_history":"[0,0,1,0,0,1,1,0,0,1,1,0,0,0,1,1,1,0]","location_rts":"[1285,553,71,586,968,1587,754,388,656,694,1278,961,588,1070,452,829,337,282]","trial_type":"fractal-mutation","trial_index":183,"time_elapsed":3110697,"internal_node_id":"0.0-5.0-79.0"},{"group":"hexagon_bi","fractal_assignment":["../images/pnk_blu.png","../images/ylw_slt.png","../images/cyn_red.png","../images/blu_wht.png","../images/org_blu.png","../images/gry_blk.png"],"mutagen_generator_assignment":[0,1],"goal":4,"start":1,"action_noise":0.2,"location_history":"[1,0,1,2,3,4]","action_history":"[0,1,0,1,0]","mutagen_history":"[0,1,0,1,0]","location_rts":"[1883,694,376,1032,544]","trial_type":"fractal-mutation","trial_index":184,"time_elapsed":3123896,"internal_node_id":"0.0-5.0-80.0"},{"group":"hexagon_bi","fractal_assignment":["../images/pnk_blu.png","../images/ylw_slt.png","../images/cyn_red.png","../images/blu_wht.png","../images/org_blu.png","../images/gry_blk.png"],"mutagen_generator_assignment":[0,1],"goal":5,"start":4,"action_noise":0.2,"location_history":"[4,5]","action_history":"[1]","mutagen_history":"[1]","location_rts":"[1080]","trial_type":"fractal-mutation","trial_index":185,"time_elapsed":3129515,"internal_node_id":"0.0-5.0-81.0"},{"group":"hexagon_bi","fractal_assignment":["../images/pnk_blu.png","../images/ylw_slt.png","../images/cyn_red.png","../images/blu_wht.png","../images/org_blu.png","../images/gry_blk.png"],"mutagen_generator_assignment":[0,1],"goal":0,"start":5,"action_noise":0.2,"location_history":"[5,0]","action_history":"[0]","mutagen_history":"[0]","location_rts":"[3213]","trial_type":"fractal-mutation","trial_index":186,"time_elapsed":3137266,"internal_node_id":"0.0-5.0-82.0"},{"group":"hexagon_bi","fractal_assignment":["../images/pnk_blu.png","../images/ylw_slt.png","../images/cyn_red.png","../images/blu_wht.png","../images/org_blu.png","../images/gry_blk.png"],"mutagen_generator_assignment":[0,1],"goal":2,"start":0,"action_noise":0.2,"location_history":"[0,1,2]","action_history":"[1,0]","mutagen_history":"[1,0]","location_rts":"[2250,870]","trial_type":"fractal-mutation","trial_index":187,"time_elapsed":3145964,"internal_node_id":"0.0-5.0-83.0"},{"group":"hexagon_bi","fractal_assignment":["../images/pnk_blu.png","../images/ylw_slt.png","../images/cyn_red.png","../images/blu_wht.png","../images/org_blu.png","../images/gry_blk.png"],"mutagen_generator_assignment":[0,1],"goal":0,"start":2,"action_noise":0.2,"location_history":"[2,3,4,3,4,5,0]","action_history":"[1,0,1,0,1,0]","mutagen_history":"[1,0,1,0,1,0]","location_rts":"[1819,772,768,760,792,1678]","trial_type":"fractal-mutation","trial_index":188,"time_elapsed":3162273,"internal_node_id":"0.0-5.0-84.0"},{"group":"hexagon_bi","fractal_assignment":["../images/pnk_blu.png","../images/ylw_slt.png","../images/cyn_red.png","../images/blu_wht.png","../images/org_blu.png","../images/gry_blk.png"],"mutagen_generator_assignment":[0,1],"goal":5,"start":0,"action_noise":0.2,"location_history":"[0,1,2,3,4,5]","action_history":"[1,0,1,0,1]","mutagen_history":"[1,0,1,0,1]","location_rts":"[847,477,720,813,645]","trial_type":"fractal-mutation","trial_index":189,"time_elapsed":3174450,"internal_node_id":"0.0-5.0-85.0"},{"group":"hexagon_bi","fractal_assignment":["../images/pnk_blu.png","../images/ylw_slt.png","../images/cyn_red.png","../images/blu_wht.png","../images/org_blu.png","../images/gry_blk.png"],"mutagen_generator_assignment":[0,1],"goal":1,"start":5,"action_noise":0.2,"location_history":"[5,0,1]","action_history":"[1,0]","mutagen_history":"[1,0]","location_rts":"[2775,643]","trial_type":"fractal-mutation","trial_index":190,"time_elapsed":3183438,"internal_node_id":"0.0-5.0-86.0"},{"group":"hexagon_bi","fractal_assignment":["../images/pnk_blu.png","../images/ylw_slt.png","../images/cyn_red.png","../images/blu_wht.png","../images/org_blu.png","../images/gry_blk.png"],"mutagen_generator_assignment":[0,1],"goal":4,"start":1,"action_noise":0.2,"location_history":"[1,0,1,2,3,4]","action_history":"[0,1,0,1,0]","mutagen_history":"[0,1,0,1,0]","location_rts":"[1330,402,559,660,826]","trial_type":"fractal-mutation","trial_index":191,"time_elapsed":3195908,"internal_node_id":"0.0-5.0-87.0"},{"group":"hexagon_bi","fractal_assignment":["../images/pnk_blu.png","../images/ylw_slt.png","../images/cyn_red.png","../images/blu_wht.png","../images/org_blu.png","../images/gry_blk.png"],"mutagen_generator_assignment":[0,1],"goal":3,"start":4,"action_noise":0.2,"location_history":"[4,3]","action_history":"[0]","mutagen_history":"[0]","location_rts":"[4335]","trial_type":"fractal-mutation","trial_index":192,"time_elapsed":3204779,"internal_node_id":"0.0-5.0-88.0"},{"group":"hexagon_bi","fractal_assignment":["../images/pnk_blu.png","../images/ylw_slt.png","../images/cyn_red.png","../images/blu_wht.png","../images/org_blu.png","../images/gry_blk.png"],"mutagen_generator_assignment":[0,1],"goal":5,"start":3,"action_noise":0.2,"location_history":"[3,2,1,0,1,0,5]","action_history":"[1,0,1,0,1,0]","mutagen_history":"[1,0,1,0,1,0]","location_rts":"[855,499,495,796,541,574]","trial_type":"fractal-mutation","trial_index":193,"time_elapsed":3218249,"internal_node_id":"0.0-5.0-89.0"},{"group":"hexagon_bi","fractal_assignment":["../images/pnk_blu.png","../images/ylw_slt.png","../images/cyn_red.png","../images/blu_wht.png","../images/org_blu.png","../images/gry_blk.png"],"mutagen_generator_assignment":[0,1],"goal":1,"start":5,"action_noise":0.2,"location_history":"[5,0,1]","action_history":"[0,1]","mutagen_history":"[0,1]","location_rts":"[12857,605]","trial_type":"fractal-mutation","trial_index":194,"time_elapsed":3237283,"internal_node_id":"0.0-5.0-90.0"},{"group":"hexagon_bi","fractal_assignment":["../images/pnk_blu.png","../images/ylw_slt.png","../images/cyn_red.png","../images/blu_wht.png","../images/org_blu.png","../images/gry_blk.png"],"mutagen_generator_assignment":[0,1],"goal":2,"start":1,"action_noise":0.2,"location_history":"[1,0,5,0,5,0,5,4,3,2]","action_history":"[0,1,0,1,0,0,1,0,1]","mutagen_history":"[0,1,0,1,0,0,1,0,1]","location_rts":"[2677,793,882,722,582,751,1435,798,830]","trial_type":"fractal-mutation","trial_index":195,"time_elapsed":3259557,"internal_node_id":"0.0-5.0-91.0"},{"group":"hexagon_bi","fractal_assignment":["../images/pnk_blu.png","../images/ylw_slt.png","../images/cyn_red.png","../images/blu_wht.png","../images/org_blu.png","../images/gry_blk.png"],"mutagen_generator_assignment":[0,1],"goal":4,"start":2,"action_noise":0.2,"location_history":"[2,3,4]","action_history":"[1,0]","mutagen_history":"[1,0]","location_rts":"[4428,2959]","trial_type":"fractal-mutation","trial_index":196,"time_elapsed":3272516,"internal_node_id":"0.0-5.0-92.0"},{"group":"hexagon_bi","fractal_assignment":["../images/pnk_blu.png","../images/ylw_slt.png","../images/cyn_red.png","../images/blu_wht.png","../images/org_blu.png","../images/gry_blk.png"],"mutagen_generator_assignment":[0,1],"goal":0,"start":4,"action_noise":0.2,"location_history":"[4,5,0]","action_history":"[1,0]","mutagen_history":"[1,0]","location_rts":"[6537,648]","trial_type":"fractal-mutation","trial_index":197,"time_elapsed":3285272,"internal_node_id":"0.0-5.0-93.0"},{"group":"hexagon_bi","fractal_assignment":["../images/pnk_blu.png","../images/ylw_slt.png","../images/cyn_red.png","../images/blu_wht.png","../images/org_blu.png","../images/gry_blk.png"],"mutagen_generator_assignment":[0,1],"goal":3,"start":0,"action_noise":0.2,"location_history":"[0,5,0,5,4,3]","action_history":"[1,0,0,1,0]","mutagen_history":"[1,0,0,1,0]","location_rts":"[962,481,851,234,339]","trial_type":"fractal-mutation","trial_index":198,"time_elapsed":3296813,"internal_node_id":"0.0-5.0-94.0"},{"group":"hexagon_bi","fractal_assignment":["../images/pnk_blu.png","../images/ylw_slt.png","../images/cyn_red.png","../images/blu_wht.png","../images/org_blu.png","../images/gry_blk.png"],"mutagen_generator_assignment":[0,1],"goal":0,"start":3,"action_noise":0.2,"location_history":"[3,4,5,0]","action_history":"[0,1,0]","mutagen_history":"[0,1,0]","location_rts":"[1290,471,829]","trial_type":"fractal-mutation","trial_index":199,"time_elapsed":3306010,"internal_node_id":"0.0-5.0-95.0"},{"group":"hexagon_bi","fractal_assignment":["../images/pnk_blu.png","../images/ylw_slt.png","../images/cyn_red.png","../images/blu_wht.png","../images/org_blu.png","../images/gry_blk.png"],"mutagen_generator_assignment":[0,1],"goal":4,"start":0,"action_noise":0.2,"location_history":"[0,5,0,5,4]","action_history":"[0,1,0,1]","mutagen_history":"[0,1,0,1]","location_rts":"[894,341,795,402]","trial_type":"fractal-mutation","trial_index":200,"time_elapsed":3316079,"internal_node_id":"0.0-5.0-96.0"},{"group":"hexagon_bi","fractal_assignment":["../images/pnk_blu.png","../images/ylw_slt.png","../images/cyn_red.png","../images/blu_wht.png","../images/org_blu.png","../images/gry_blk.png"],"mutagen_generator_assignment":[0,1],"goal":5,"start":4,"action_noise":0.2,"location_history":"[4,3,4,5]","action_history":"[1,0,1]","mutagen_history":"[1,0,1]","location_rts":"[7081,931,356]","trial_type":"fractal-mutation","trial_index":201,"time_elapsed":3331055,"internal_node_id":"0.0-5.0-97.0"},{"group":"hexagon_bi","fractal_assignment":["../images/pnk_blu.png","../images/ylw_slt.png","../images/cyn_red.png","../images/blu_wht.png","../images/org_blu.png","../images/gry_blk.png"],"mutagen_generator_assignment":[0,1],"goal":2,"start":5,"action_noise":0.2,"location_history":"[5,0,1,2]","action_history":"[0,1,0]","mutagen_history":"[0,1,0]","location_rts":"[1057,489,464]","trial_type":"fractal-mutation","trial_index":202,"time_elapsed":3339668,"internal_node_id":"0.0-5.0-98.0"},{"group":"hexagon_bi","fractal_assignment":["../images/pnk_blu.png","../images/ylw_slt.png","../images/cyn_red.png","../images/blu_wht.png","../images/org_blu.png","../images/gry_blk.png"],"mutagen_generator_assignment":[0,1],"goal":1,"start":2,"action_noise":0.2,"location_history":"[2,1]","action_history":"[0]","mutagen_history":"[0]","location_rts":"[3395]","trial_type":"fractal-mutation","trial_index":203,"time_elapsed":3347597,"internal_node_id":"0.0-5.0-99.0"},{"view_history":"[{\"page_index\":0,\"viewing_time\":2872}]","rt":2872,"trial_type":"instructions","trial_index":204,"time_elapsed":3351469,"internal_node_id":"0.0-6.0"},{"rt":14502,"responses":"{\"Q0\":\"remember a pattern\"}","trial_type":"survey-text","trial_index":205,"time_elapsed":3366978,"internal_node_id":"0.0-7.0-0.0"},{"rt":23702,"responses":"{\"Q0\":\"pattern, memory\"}","trial_type":"survey-text","trial_index":206,"time_elapsed":3391683,"internal_node_id":"0.0-7.0-1.0"},{"rt":54272,"responses":"{\"Q0\":\"<img src='../images/diagrams/hexagon_bi.png'>\"}","trial_type":"survey-multi-choice","trial_index":207,"time_elapsed":3446962,"internal_node_id":"0.0-7.0-2.0"},{"rt":40083,"assignments":["../images/pnk_blu.png","../images/gry_blk.png","../images/org_blu.png","../images/cyn_red.png","../images/ylw_slt.png","../images/blu_wht.png"],"trial_type":"drag-drop-on-image","trial_index":208,"time_elapsed":3488049,"internal_node_id":"0.0-7.0-3.0"},{"rt":6897,"responses":"{\"Q0\":\"2\"}","trial_type":"survey-likert","trial_index":209,"time_elapsed":3495948,"internal_node_id":"0.0-7.0-4.0"},{"rt":38371,"responses":"{\"Q0\":\"The first one was much harder for me.  THe second one I found a pattern and found myself counting left right left right.\"}","trial_type":"survey-text","trial_index":210,"time_elapsed":3535322,"internal_node_id":"0.0-7.0-5.0"},{"rt":8217,"responses":"{\"Q0\":\"Yes\"}","trial_type":"survey-multi-choice","trial_index":211,"time_elapsed":3544542,"internal_node_id":"0.0-7.0-6.0"},{"rt":10562,"responses":"{\"Q0\":\"During session 1\"}","trial_type":"survey-multi-choice","trial_index":212,"time_elapsed":3556108,"internal_node_id":"0.0-7.0-7.0"},{"rt":48672,"responses":"{\"Q0\":\"each picture or door pattern/color had the same next to it\"}","trial_type":"survey-text","trial_index":213,"time_elapsed":3605782,"internal_node_id":"0.0-7.0-8.0"},{"rt":9534,"responses":"{\"Q0\":\"0\"}","trial_type":"survey-likert","trial_index":214,"time_elapsed":3616319,"internal_node_id":"0.0-7.0-9.0"},{"rt":13097,"responses":"{\"Q0\":\"Different structure\"}","trial_type":"survey-multi-choice","trial_index":215,"time_elapsed":3630419,"internal_node_id":"0.0-7.0-10.0"},{"rt":60691,"responses":"{\"Q0\":\"left (white) door = acid, right (black) door = ray\",\"Q1\":\"Moderately confident\"}","trial_type":"survey-multi-choice","trial_index":216,"time_elapsed":3692117,"internal_