[{"view_history":"[{\"page_index\":0,\"viewing_time\":3101},{\"page_index\":1,\"viewing_time\":6674}]","rt":9776,"trial_type":"instructions","trial_index":0,"time_elapsed":9777,"internal_node_id":"0.0-0.0"},{"view_history":"[{\"page_index\":0,\"viewing_time\":1800},{\"page_index\":1,\"viewing_time\":1252}]","rt":3052,"trial_type":"instructions","trial_index":1,"time_elapsed":13836,"internal_node_id":"0.0-1.0"},{"group":"hexagon_bi","room_assignment":["red","blue","yellow","grey","purple","green"],"door_color_assignment":["black","white"],"door_generator_assignment":[1,0],"goal":2,"start":1,"action_noise":0.2,"location_history":"[1,0,5,4,3,2]","action_history":"[1,1,1,1,1]","door_history":"[0,0,0,0,0]","location_rts":"[3066,446,408,411,582]","trial_type":"two-door-navigation","trial_index":2,"time_elapsed":27531,"internal_node_id":"0.0-2.0-0.0"},{"group":"hexagon_bi","room_assignment":["red","blue","yellow","grey","purple","green"],"door_color_assignment":["black","white"],"door_generator_assignment":[1,0],"goal":0,"start":2,"action_noise":0.2,"location_history":"[2,3,4,3,4,3,2,3,2,3,4,5,4,5,0]","action_history":"[1,0,1,0,1,1,1,1,0,1,1,0,1,0]","door_history":"[0,1,0,1,0,0,0,0,1,0,0,1,0,1]","location_rts":"[2759,644,1271,229,388,661,772,1055,387,1779,869,520,1448,369]","trial_type":"two-door-navigation","trial_index":3,"time_elapsed":58849,"internal_node_id":"0.0-2.0-1.0"},{"group":"hexagon_bi","room_assignment":["red","blue","yellow","grey","purple","green"],"door_color_assignment":["black","white"],"door_generator_assignment":[1,0],"goal":5,"start":0,"action_noise":0.2,"location_history":"[0,5]","action_history":"[0]","door_history":"[1]","location_rts":"[2369]","trial_type":"two-door-navigation","trial_index":4,"time_elapsed":65784,"internal_node_id":"0.0-2.0-2.0"},{"group":"hexagon_bi","room_assignment":["red","blue","yellow","grey","purple","green"],"door_color_assignment":["black","white"],"door_generator_assignment":[1,0],"goal":3,"start":5,"action_noise":0.2,"location_history":"[5,4,5,0,5,4,3]","action_history":"[1,1,1,1,1,0]","door_history":"[0,0,0,0,0,1]","location_rts":"[1811,116,116,829,775,500]","trial_type":"two-door-navigation","trial_index":5,"time_elapsed":79743,"internal_node_id":"0.0-2.0-3.0"},{"group":"hexagon_bi","room_assignment":["red","blue","yellow","grey","purple","green"],"door_color_assignment":["black","white"],"door_generator_assignment":[1,0],"goal":4,"start":3,"action_noise":0.2,"location_history":"[3,2,3,4]","action_history":"[1,1,0]","door_history":"[0,0,1]","location_rts":"[1637,1024,262]","trial_type":"two-door-navigation","trial_index":6,"time_elapsed":89313,"internal_node_id":"0.0-2.0-4.0"},{"group":"hexagon_bi","room_assignment":["red","blue","yellow","grey","purple","green"],"door_color_assignment":["black","white"],"door_generator_assignment":[1,0],"goal":0,"start":4,"action_noise":0.2,"location_history":"[4,5,0]","action_history":"[1,0]","door_history":"[0,1]","location_rts":"[1024,245]","trial_type":"two-door-navigation","trial_index":7,"time_elapsed":96177,"internal_node_id":"0.0-2.0-5.0"},{"group":"hexagon_bi","room_assignment":["red","blue","yellow","grey","purple","green"],"door_color_assignment":["black","white"],"door_generator_assignment":[1,0],"goal":4,"start":0,"action_noise":0.2,"location_history":"[0,5,4]","action_history":"[0,1]","door_history":"[1,0]","location_rts":"[1540,192]","trial_type":"two-door-navigation","trial_index":8,"time_elapsed":103509,"internal_node_id":"0.0-2.0-6.0"},{"group":"hexagon_bi","room_assignment":["red","blue","yellow","grey","purple","green"],"door_color_assignment":["black","white"],"door_generator_assignment":[1,0],"goal":3,"start":4,"action_noise":0.2,"location_history":"[4,5,4,3]","action_history":"[1,1,0]","door_history":"[0,0,1]","location_rts":"[1113,1199,362]","trial_type":"two-door-navigation","trial_index":9,"time_elapsed":112829,"internal_node_id":"0.0-2.0-7.0"},{"group":"hexagon_bi","room_assignment":["red","blue","yellow","grey","purple","green"],"door_color_assignment":["black","white"],"door_generator_assignment":[1,0],"goal":2,"start":3,"action_noise":0.2,"location_history":"[3,2]","action_history":"[1]","door_history":"[0]","location_rts":"[1804]","trial_type":"two-door-navigation","trial_index":10,"time_elapsed":119198,"internal_node_id":"0.0-2.0-8.0"},{"group":"hexagon_bi","room_assignment":["red","blue","yellow","grey","purple","green"],"door_color_assignment":["black","white"],"door_generator_assignment":[1,0],"goal":1,"start":2,"action_noise":0.2,"location_history":"[2,3,2,3,2,1]","action_history":"[1,1,0,1,1]","door_history":"[0,0,1,0,0]","location_rts":"[924,1205,429,305,981]","trial_type":"two-door-navigation","trial_index":11,"time_elapsed":131803,"internal_node_id":"0.0-2.0-9.0"},{"group":"hexagon_bi","room_assignment":["red","blue","yellow","grey","purple","green"],"door_color_assignment":["black","white"],"door_generator_assignment":[1,0],"goal":5,"start":1,"action_noise":0.2,"location_history":"[1,2,3,2,1,0,1,0,1,2,1,2,1,2,3,2,1,0,1,0,1,0,5]","action_history":"[1,1,1,0,1,1,1,0,1,1,1,0,1,1,1,0,1,1,1,0,1,0]","door_history":"[0,0,0,1,0,0,0,1,0,0,0,1,0,0,0,1,0,0,0,1,0,1]","location_rts":"[1330,564,417,1037,280,263,612,336,1591,898,450,1180,426,456,2041,875,376,67,422,750,1172,357]","trial_type":"two-door-navigation","trial_index":12,"time_elapsed":174276,"internal_node_id":"0.0-2.0-10.0"},{"group":"hexagon_bi","room_assignment":["red","blue","yellow","grey","purple","green"],"door_color_assignment":["black","white"],"door_generator_assignment":[1,0],"goal":0,"start":5,"action_noise":0.2,"location_history":"[5,0]","action_history":"[0]","door_history":"[1]","location_rts":"[2229]","trial_type":"two-door-navigation","trial_index":13,"time_elapsed":181057,"internal_node_id":"0.0-2.0-11.0"},{"group":"hexagon_bi","room_assignment":["red","blue","yellow","grey","purple","green"],"door_color_assignment":["black","white"],"door_generator_assignment":[1,0],"goal":4,"start":0,"action_noise":0.2,"location_history":"[0,5,4]","action_history":"[0,1]","door_history":"[1,0]","location_rts":"[1851,271]","trial_type":"two-door-navigation","trial_index":14,"time_elapsed":188777,"internal_node_id":"0.0-2.0-12.0"},{"group":"hexagon_bi","room_assignment":["red","blue","yellow","grey","purple","green"],"door_color_assignment":["black","white"],"door_generator_assignment":[1,0],"goal":2,"start":4,"action_noise":0.2,"location_history":"[4,5,0,1,0,5,4,5,4,5,4,5,0,5,4,5,0,5,0,1,0,5,4,5,4,5,4,5,4,5,0,1,2]","action_history":"[1,0,1,1,1,1,1,1,1,1,1,0,1,1,1,0,0,0,1,0,1,1,1,1,1,1,0,1,1,0,1,1]","door_history":"[0,1,0,0,0,0,0,0,0,0,0,1,0,0,0,1,1,1,0,1,0,0,0,0,0,0,1,0,0,1,0,0]","location_rts":"[3389,320,219,93,325,250,93,75,59,34,117,316,353,60,1439,263,609,1246,522,469,2472,676,264,369,156,175,150,155,222,286,128,586]","trial_type":"two-door-navigation","trial_index":15,"time_elapsed":241661,"internal_node_id":"0.0-2.0-13.0"},{"group":"hexagon_bi","room_assignment":["red","blue","yellow","grey","purple","green"],"door_color_assignment":["black","white"],"door_generator_assignment":[1,0],"goal":1,"start":2,"action_noise":0.2,"location_history":"[2,3,2,1]","action_history":"[1,1,0]","door_history":"[0,0,1]","location_rts":"[2375,388,1088]","trial_type":"two-door-navigation","trial_index":16,"time_elapsed":252146,"internal_node_id":"0.0-2.0-14.0"},{"group":"hexagon_bi","room_assignment":["red","blue","yellow","grey","purple","green"],"door_color_assignment":["black","white"],"door_generator_assignment":[1,0],"goal":3,"start":1,"action_noise":0.2,"location_history":"[1,0,5,4,5,4,3]","action_history":"[1,0,1,1,1,0]","door_history":"[0,1,0,0,0,1]","location_rts":"[1731,1034,193,108,397,258]","trial_type":"two-door-navigation","trial_index":17,"time_elapsed":265693,"internal_node_id":"0.0-2.0-15.0"},{"group":"hexagon_bi","room_assignment":["red","blue","yellow","grey","purple","green"],"door_color_assignment":["black","white"],"door_generator_assignment":[1,0],"goal":5,"start":3,"action_noise":0.2,"location_history":"[3,2,3,4,5]","action_history":"[1,1,0,1]","door_history":"[0,0,1,0]","location_rts":"[1950,1541,823,395]","trial_type":"two-door-navigation","trial_index":18,"time_elapsed":278118,"internal_node_id":"0.0-2.0-16.0"},{"group":"hexagon_bi","room_assignment":["red","blue","yellow","grey","purple","green"],"door_color_assignment":["black","white"],"door_generator_assignment":[1,0],"goal":0,"start":5,"action_noise":0.2,"location_history":"[5,4,3,2,3,2,3,2,3,2,3,2,1,2,3,2,1,0]","action_history":"[0,1,0,1,1,0,1,1,0,1,1,1,0,1,1,0,1]","door_history":"[1,0,1,0,0,1,0,0,1,0,0,0,1,0,0,1,0]","location_rts":"[1818,1417,267,4677,6455,400,1001,584,242,530,383,72,227,620,440,569,980]","trial_type":"two-door-navigation","trial_index":19,"time_elapsed":320154,"internal_node_id":"0.0-2.0-17.0"},{"group":"hexagon_bi","room_assignment":["red","blue","yellow","grey","purple","green"],"door_color_assignment":["black","white"],"door_generator_assignment":[1,0],"goal":5,"start":0,"action_noise":0.2,"location_history":"[0,5]","action_history":"[0]","door_history":"[1]","location_rts":"[2117]","trial_type":"two-door-navigation","trial_index":20,"time_elapsed":326825,"internal_node_id":"0.0-2.0-18.0"},{"group":"hexagon_bi","room_assignment":["red","blue","yellow","grey","purple","green"],"door_color_assignment":["black","white"],"door_generator_assignment":[1,0],"goal":3,"start":5,"action_noise":0.2,"location_history":"[5,4,3]","action_history":"[1,0]","door_history":"[0,1]","location_rts":"[2027,259]","trial_type":"two-door-navigation","trial_index":21,"time_elapsed":334720,"internal_node_id":"0.0-2.0-19.0"},{"group":"hexagon_bi","room_assignment":["red","blue","yellow","grey","purple","green"],"door_color_assignment":["black","white"],"door_generator_assignment":[1,0],"goal":4,"start":3,"action_noise":0.2,"location_history":"[3,4]","action_history":"[0]","door_history":"[1]","location_rts":"[2390]","trial_type":"two-door-navigation","trial_index":22,"time_elapsed":341674,"internal_node_id":"0.0-2.0-20.0"},{"group":"hexagon_bi","room_assignment":["red","blue","yellow","grey","purple","green"],"door_color_assignment":["black","white"],"door_generator_assignment":[1,0],"goal":1,"start":4,"action_noise":0.2,"location_history":"[4,3,4,5,0,5,0,1]","action_history":"[1,0,1,0,1,1,1]","door_history":"[0,1,0,1,0,0,0]","location_rts":"[1860,1352,555,372,248,356,2040]","trial_type":"two-door-navigation","trial_index":23,"time_elapsed":359285,"internal_node_id":"0.0-2.0-21.0"},{"group":"hexagon_bi","room_assignment":["red","blue","yellow","grey","purple","green"],"door_color_assignment":["black","white"],"door_generator_assignment":[1,0],"goal":2,"start":1,"action_noise":0.2,"location_history":"[1,2]","action_history":"[0]","door_history":"[1]","location_rts":"[2311]","trial_type":"two-door-navigation","trial_index":24,"time_elapsed":366161,"internal_node_id":"0.0-2.0-22.0"},{"group":"hexagon_bi","room_assignment":["red","blue","yellow","grey","purple","green"],"door_color_assignment":["black","white"],"door_generator_assignment":[1,0],"goal":3,"start":2,"action_noise":0.2,"location_history":"[2,3]","action_history":"[1]","door_history":"[0]","location_rts":"[1342]","trial_type":"two-door-navigation","trial_index":25,"time_elapsed":372070,"internal_node_id":"0.0-2.0-23.0"},{"group":"hexagon_bi","room_assignment":["red","blue","yellow","grey","purple","green"],"door_color_assignment":["black","white"],"door_generator_assignment":[1,0],"goal":5,"start":3,"action_noise":0.2,"location_history":"[3,2,3,4,5]","action_history":"[1,1,0,1]","door_history":"[0,0,1,0]","location_rts":"[1446,433,104,720]","trial_type":"two-door-navigation","trial_index":26,"time_elapsed":382499,"internal_node_id":"0.0-2.0-24.0"},{"group":"hexagon_bi","room_assignment":["red","blue","yellow","grey","purple","green"],"door_color_assignment":["black","white"],"door_generator_assignment":[1,0],"goal":4,"start":5,"action_noise":0.2,"location_history":"[5,4]","action_history":"[1]","door_history":"[0]","location_rts":"[1401]","trial_type":"two-door-navigation","trial_index":27,"time_elapsed":388441,"internal_node_id":"0.0-2.0-25.0"},{"group":"hexagon_bi","room_assignment":["red","blue","yellow","grey","purple","green"],"door_color_assignment":["black","white"],"door_generator_assignment":[1,0],"goal":0,"start":4,"action_noise":0.2,"location_history":"[4,3,4,5,0]","action_history":"[1,0,1,0]","door_history":"[0,1,0,1]","location_rts":"[2076,209,140,322]","trial_type":"two-door-navigation","trial_index":28,"time_elapsed":398899,"internal_node_id":"0.0-2.0-26.0"},{"group":"hexagon_bi","room_assignment":["red","blue","yellow","grey","purple","green"],"door_color_assignment":["black","white"],"door_generator_assignment":[1,0],"goal":2,"start":0,"action_noise":0.2,"location_history":"[0,1,0,1,2]","action_history":"[1,0,1,0]","door_history":"[0,1,0,1]","location_rts":"[2622,385,1493,332]","trial_type":"two-door-navigation","trial_index":29,"time_elapsed":411442,"internal_node_id":"0.0-2.0-27.0"},{"group":"hexagon_bi","room_assignment":["red","blue","yellow","grey","purple","green"],"door_color_assignment":["black","white"],"door_generator_assignment":[1,0],"goal":1,"start":2,"action_noise":0.2,"location_history":"[2,3,2,1]","action_history":"[0,0,0]","door_history":"[1,1,1]","location_rts":"[2385,1803,1078]","trial_type":"two-door-navigation","trial_index":30,"time_elapsed":423325,"internal_node_id":"0.0-2.0-28.0"},{"group":"hexagon_bi","room_assignment":["red","blue","yellow","grey","purple","green"],"door_color_assignment":["black","white"],"door_generator_assignment":[1,0],"goal":0,"start":1,"action_noise":0.2,"location_history":"[1,0]","action_history":"[1]","door_history":"[0]","location_rts":"[1901]","trial_type":"two-door-navigation","trial_index":31,"time_elapsed":429796,"internal_node_id":"0.0-2.0-29.0"},{"group":"hexagon_bi","room_assignment":["red","blue","yellow","grey","purple","green"],"door_color_assignment":["black","white"],"door_generator_assignment":[1,0],"goal":2,"start":0,"action_noise":0.2,"location_history":"[0,1,2]","action_history":"[1,0]","door_history":"[0,1]","location_rts":"[3990,385]","trial_type":"two-door-navigation","trial_index":32,"time_elapsed":439778,"internal_node_id":"0.0-2.0-30.0"},{"group":"hexagon_bi","room_assignment":["red","blue","yellow","grey","purple","green"],"door_color_assignment":["black","white"],"door_generator_assignment":[1,0],"goal":4,"start":2,"action_noise":0.2,"location_history":"[2,1,2,3,2,1,0,5,4]","action_history":"[0,1,0,1,0,1,0,1]","door_history":"[1,0,1,0,1,0,1,0]","location_rts":"[5310,303,2107,157,702,287,910,341]","trial_type":"two-door-navigation","trial_index":33,"time_elapsed":461783,"internal_node_id":"0.0-2.0-31.0"},{"group":"hexagon_bi","room_assignment":["red","blue","yellow","grey","purple","green"],"door_color_assignment":["black","white"],"door_generator_assignment":[1,0],"goal":1,"start":4,"action_noise":0.2,"location_history":"[4,5,0,1]","action_history":"[1,0,1]","door_history":"[0,1,0]","location_rts":"[1290,357,964]","trial_type":"two-door-navigation","trial_index":34,"time_elapsed":471089,"internal_node_id":"0.0-2.0-32.0"},{"group":"hexagon_bi","room_assignment":["red","blue","yellow","grey","purple","green"],"door_color_assignment":["black","white"],"door_generator_assignment":[1,0],"goal":3,"start":1,"action_noise":0.2,"location_history":"[1,2,3]","action_history":"[0,1]","door_history":"[1,0]","location_rts":"[3954,274]","trial_type":"two-door-navigation","trial_index":35,"time_elapsed":480917,"internal_node_id":"0.0-2.0-33.0"},{"group":"hexagon_bi","room_assignment":["red","blue","yellow","grey","purple","green"],"door_color_assignment":["black","white"],"door_generator_assignment":[1,0],"goal":5,"start":3,"action_noise":0.2,"location_history":"[3,2,1,0,5]","action_history":"[1,1,0,0]","door_history":"[0,0,1,1]","location_rts":"[1524,3974,317,1488]","trial_type":"two-door-navigation","trial_index":36,"time_elapsed":495937,"internal_node_id":"0.0-2.0-34.0"},{"group":"hexagon_bi","room_assignment":["red","blue","yellow","grey","purple","green"],"door_color_assignment":["black","white"],"door_generator_assignment":[1,0],"goal":2,"start":5,"action_noise":0.2,"location_history":"[5,0,5,0,1,0,1,0,1,2]","action_history":"[0,1,1,0,1,1,1,1,0]","door_history":"[1,0,0,1,0,0,0,0,1]","location_rts":"[2411,182,53,799,828,377,454,279,249]","trial_type":"two-door-navigation","trial_index":37,"time_elapsed":514489,"internal_node_id":"0.0-2.0-35.0"},{"group":"hexagon_bi","room_assignment":["red","blue","yellow","grey","purple","green"],"door_color_assignment":["black","white"],"door_generator_assignment":[1,0],"goal":0,"start":2,"action_noise":0.2,"location_history":"[2,1,0]","action_history":"[0,1]","door_history":"[1,0]","location_rts":"[2844,115]","trial_type":"two-door-navigation","trial_index":38,"time_elapsed":523044,"internal_node_id":"0.0-2.0-36.0"},{"group":"hexagon_bi","room_assignment":["red","blue","yellow","grey","purple","green"],"door_color_assignment":["black","white"],"door_generator_assignment":[1,0],"goal":4,"start":0,"action_noise":0.2,"location_history":"[0,1,0,5,4]","action_history":"[0,1,0,1]","door_history":"[1,0,1,0]","location_rts":"[1791,205,617,329]","trial_type":"two-door-navigation","trial_index":39,"time_elapsed":533671,"internal_node_id":"0.0-2.0-37.0"},{"group":"hexagon_bi","room_assignment":["red","blue","yellow","grey","purple","green"],"door_color_assignment":["black","white"],"door_generator_assignment":[1,0],"goal":5,"start":4,"action_noise":0.2,"location_history":"[4,5]","action_history":"[1]","door_history":"[0]","location_rts":"[1451]","trial_type":"two-door-navigation","trial_index":40,"time_elapsed":539672,"internal_node_id":"0.0-2.0-38.0"},{"group":"hexagon_bi","room_assignment":["red","blue","yellow","grey","purple","green"],"door_color_assignment":["black","white"],"door_generator_assignment":[1,0],"goal":1,"start":5,"action_noise":0.2,"location_history":"[5,0,1]","action_history":"[0,1]","door_history":"[1,0]","location_rts":"[8457,244]","trial_type":"two-door-navigation","trial_index":41,"time_elapsed":553978,"internal_node_id":"0.0-2.0-39.0"},{"group":"hexagon_bi","room_assignment":["red","blue","yellow","grey","purple","green"],"door_color_assignment":["black","white"],"door_generator_assignment":[1,0],"goal":3,"start":1,"action_noise":0.2,"location_history":"[1,2,3]","action_history":"[0,1]","door_history":"[1,0]","location_rts":"[3329,286]","trial_type":"two-door-navigation","trial_index":42,"time_elapsed":563202,"internal_node_id":"0.0-2.0-40.0"},{"group":"hexagon_bi","room_assignment":["red","blue","yellow","grey","purple","green"],"door_color_assignment":["black","white"],"door_generator_assignment":[1,0],"goal":1,"start":3,"action_noise":0.2,"location_history":"[3,2,3,2,1]","action_history":"[1,0,1,0]","door_history":"[0,1,0,1]","location_rts":"[1495,464,2533,614]","trial_type":"two-door-navigation","trial_index":43,"time_elapsed":576024,"internal_node_id":"0.0-2.0-41.0"},{"group":"hexagon_bi","room_assignment":["red","blue","yellow","grey","purple","green"],"door_color_assignment":["black","white"],"door_generator_assignment":[1,0],"goal":0,"start":1,"action_noise":0.2,"location_history":"[1,2,1,0]","action_history":"[1,0,1]","door_history":"[0,1,0]","location_rts":"[3213,13495,287]","trial_type":"two-door-navigation","trial_index":44,"time_elapsed":599672,"internal_node_id":"0.0-2.0-42.0"},{"group":"hexagon_bi","room_assignment":["red","blue","yellow","grey","purple","green"],"door_color_assignment":["black","white"],"door_generator_assignment":[1,0],"goal":4,"start":0,"action_noise":0.2,"location_history":"[0,5,4]","action_history":"[0,1]","door_history":"[1,0]","location_rts":"[10851,706]","trial_type":"two-door-navigation","trial_index":45,"time_elapsed":616833,"internal_node_id":"0.0-2.0-43.0"},{"group":"hexagon_bi","room_assignment":["red","blue","yellow","grey","purple","green"],"door_color_assignment":["black","white"],"door_generator_assignment":[1,0],"goal":2,"start":4,"action_noise":0.2,"location_history":"[4,5,0,5,0,1,0,1,0,1,2]","action_history":"[1,0,1,0,1,0,1,0,1,0]","door_history":"[0,1,0,1,0,1,0,1,0,1]","location_rts":"[2958,1571,983,1330,727,351,2325,388,1544,316]","trial_type":"two-door-navigation","trial_index":46,"time_elapsed":643310,"internal_node_id":"0.0-2.0-44.0"},{"group":"hexagon_bi","room_assignment":["red","blue","yellow","grey","purple","green"],"door_color_assignment":["black","white"],"door_generator_assignment":[1,0],"goal":3,"start":2,"action_noise":0.2,"location_history":"[2,1,0,1,0,1,2,1,0,1,2,3]","action_history":"[1,1,1,0,1,0,1,1,1,0,1]","door_history":"[0,0,0,1,0,1,0,0,0,1,0]","location_rts":"[1206,904,1871,354,998,331,481,3158,536,329,328]","trial_type":"two-door-navigation","trial_index":47,"time_elapsed":668823,"internal_node_id":"0.0-2.0-45.0"},{"group":"hexagon_bi","room_assignment":["red","blue","yellow","grey","purple","green"],"door_color_assignment":["black","white"],"door_generator_assignment":[1,0],"goal":5,"start":3,"action_noise":0.2,"location_history":"[3,2,1,0,5]","action_history":"[1,0,1,0]","door_history":"[0,1,0,1]","location_rts":"[1552,2982,393,539]","trial_type":"two-door-navigation","trial_index":48,"time_elapsed":681983,"internal_node_id":"0.0-2.0-46.0"},{"group":"hexagon_bi","room_assignment":["red","blue","yellow","grey","purple","green"],"door_color_assignment":["black","white"],"door_generator_assignment":[1,0],"goal":4,"start":5,"action_noise":0.2,"location_history":"[5,4]","action_history":"[1]","door_history":"[0]","location_rts":"[1133]","trial_type":"two-door-navigation","trial_index":49,"time_elapsed":687680,"internal_node_id":"0.0-2.0-47.0"},{"group":"hexagon_bi","room_assignment":["red","blue","yellow","grey","purple","green"],"door_color_assignment":["black","white"],"door_generator_assignment":[1,0],"goal":3,"start":4,"action_noise":0.2,"location_history":"[4,3]","action_history":"[1]","door_history":"[0]","location_rts":"[1423]","trial_type":"two-door-navigation","trial_index":50,"time_elapsed":693664,"internal_node_id":"0.0-2.0-48.0"},{"group":"hexagon_bi","room_assignment":["red","blue","yellow","grey","purple","green"],"door_color_assignment":["black","white"],"door_generator_assignment":[1,0],"goal":1,"start":3,"action_noise":0.2,"location_history":"[3,2,1]","action_history":"[1,0]","door_history":"[0,1]","location_rts":"[1450,324]","trial_type":"two-door-navigation","trial_index":51,"time_elapsed":701059,"internal_node_id":"0.0-2.0-49.0"},{"group":"hexagon_bi","room_assignment":["red","blue","yellow","grey","purple","green"],"door_color_assignment":["black","white"],"door_generator_assignment":[1,0],"goal":2,"start":1,"action_noise":0.2,"location_history":"[1,2]","action_history":"[0]","door_history":"[1]","location_rts":"[2237]","trial_type":"two-door-navigation","trial_index":52,"time_elapsed":707874,"internal_node_id":"0.0-2.0-50.0"},{"group":"hexagon_bi","room_assignment":["red","blue","yellow","grey","purple","green"],"door_color_assignment":["black","white"],"door_generator_assignment":[1,0],"goal":0,"start":2,"action_noise":0.2,"location_history":"[2,1,0]","action_history":"[0,1]","door_history":"[1,0]","location_rts":"[2676,329]","trial_type":"two-door-navigation","trial_index":53,"time_elapsed":716486,"internal_node_id":"0.0-2.0-51.0"},{"group":"hexagon_bi","room_assignment":["red","blue","yellow","grey","purple","green"],"door_color_assignment":["black","white"],"door_generator_assignment":[1,0],"goal":5,"start":0,"action_noise":0.2,"location_history":"[0,1,2,1,0,5]","action_history":"[0,1,0,1,0]","door_history":"[1,0,1,0,1]","location_rts":"[1800,1182,247,990,349]","trial_type":"two-door-navigation","trial_index":54,"time_elapsed":729792,"internal_node_id":"0.0-2.0-52.0"},{"group":"hexagon_bi","room_assignment":["red","blue","yellow","grey","purple","green"],"door_color_assignment":["black","white"],"door_generator_assignment":[1,0],"goal":1,"start":5,"action_noise":0.2,"location_history":"[5,0,5,0,1]","action_history":"[0,1,0,1]","door_history":"[1,0,1,0]","location_rts":"[1709,411,743,107]","trial_type":"two-door-navigation","trial_index":55,"time_elapsed":740453,"internal_node_id":"0.0-2.0-53.0"},{"group":"hexagon_bi","room_assignment":["red","blue","yellow","grey","purple","green"],"door_color_assignment":["black","white"],"door_generator_assignment":[1,0],"goal":3,"start":1,"action_noise":0.2,"location_history":"[1,2,3]","action_history":"[0,1]","door_history":"[1,0]","location_rts":"[1846,227]","trial_type":"two-door-navigation","trial_index":56,"time_elapsed":748116,"internal_node_id":"0.0-2.0-54.0"},{"group":"hexagon_bi","room_assignment":["red","blue","yellow","grey","purple","green"],"door_color_assignment":["black","white"],"door_generator_assignment":[1,0],"goal":5,"start":3,"action_noise":0.2,"location_history":"[3,2,3,4,3,2,1,0,1,0,5]","action_history":"[1,0,1,0,1,0,1,0,1,0]","door_history":"[0,1,0,1,0,1,0,1,0,1]","location_rts":"[1206,673,1368,261,1250,1120,398,368,781,207]","trial_type":"two-door-navigation","trial_index":57,"time_elapsed":769676,"internal_node_id":"0.0-2.0-55.0"},{"group":"hexagon_bi","room_assignment":["red","blue","yellow","grey","purple","green"],"door_color_assignment":["black","white"],"door_generator_assignment":[1,0],"goal":4,"start":5,"action_noise":0.2,"location_history":"[5,4]","action_history":"[1]","door_history":"[0]","location_rts":"[2345]","trial_type":"two-door-navigation","trial_index":58,"time_elapsed":776596,"internal_node_id":"0.0-2.0-56.0"},{"group":"hexagon_bi","room_assignment":["red","blue","yellow","grey","purple","green"],"door_color_assignment":["black","white"],"door_generator_assignment":[1,0],"goal":0,"start":4,"action_noise":0.2,"location_history":"[4,3,4,5,0]","action_history":"[1,0,1,0]","door_history":"[0,1,0,1]","location_rts":"[1831,256,488,616]","trial_type":"two-door-navigation","trial_index":59,"time_elapsed":787472,"internal_node_id":"0.0-2.0-57.0"},{"group":"hexagon_bi","room_assignment":["red","blue","yellow","grey","purple","green"],"door_color_assignment":["black","white"],"door_generator_assignment":[1,0],"goal":2,"start":0,"action_noise":0.2,"location_history":"[0,5,0,5,0,1,2]","action_history":"[0,0,1,0,1,0]","door_history":"[1,1,0,1,0,1]","location_rts":"[2190,2136,381,1396,843,499]","trial_type":"two-door-navigation","trial_index":60,"time_elapsed":804673,"internal_node_id":"0.0-2.0-58.0"},{"group":"hexagon_bi","room_assignment":["red","blue","yellow","grey","purple","green"],"door_color_assignment":["black","white"],"door_generator_assignment":[1,0],"goal":4,"start":2,"action_noise":0.2,"location_history":"[2,1,0,5,4]","action_history":"[1,1,0,1]","door_history":"[0,0,1,0]","location_rts":"[2002,2813,1187,724]","trial_type":"two-door-navigation","trial_index":61,"time_elapsed":819086,"internal_node_id":"0.0-2.0-59.0"},{"group":"hexagon_bi","room_assignment":["red","blue","yellow","grey","purple","green"],"door_color_assignment":["black","white"],"door_generator_assignment":[1,0],"goal":2,"start":4,"action_noise":0.2,"location_history":"[4,5,4,5,4,5,0,1,2]","action_history":"[1,0,1,0,1,0,1,0]","door_history":"[0,1,0,1,0,1,0,1]","location_rts":"[15894,1489,836,342,370,376,670,737]","trial_type":"two-door-navigation","trial_index":62,"time_elapsed":851733,"internal_node_id":"0.0-2.0-60.0"},{"group":"hexagon_bi","room_assignment":["red","blue","yellow","grey","purple","green"],"door_color_assignment":["black","white"],"door_generator_assignment":[1,0],"goal":3,"start":2,"action_noise":0.2,"location_history":"[2,3]","action_history":"[1]","door_history":"[0]","location_rts":"[1988]","trial_type":"two-door-navigation","trial_index":63,"time_elapsed":858302,"internal_node_id":"0.0-2.0-61.0"},{"group":"hexagon_bi","room_assignment":["red","blue","yellow","grey","purple","green"],"door_color_assignment":["black","white"],"door_generator_assignment":[1,0],"goal":0,"start":3,"action_noise":0.2,"location_history":"[3,2,1,2,3,2,3,2,3,2,3,2,1,0]","action_history":"[1,0,1,1,1,0,1,0,1,0,1,0,1]","door_history":"[0,1,0,0,0,1,0,1,0,1,0,1,0]","location_rts":"[1690,2232,328,1013,777,222,144,572,1783,155,694,225,339]","trial_type":"two-door-navigation","trial_index":64,"time_elapsed":885584,"internal_node_id":"0.0-2.0-62.0"},{"group":"hexagon_bi","room_assignment":["red","blue","yellow","grey","purple","green"],"door_color_assignment":["black","white"],"door_generator_assignment":[1,0],"goal":5,"start":0,"action_noise":0.2,"location_history":"[0,5]","action_history":"[0]","door_history":"[1]","location_rts":"[1595]","trial_type":"two-door-navigation","trial_index":65,"time_elapsed":891746,"internal_node_id":"0.0-2.0-63.0"},{"group":"hexagon_bi","room_assignment":["red","blue","yellow","grey","purple","green"],"door_color_assignment":["black","white"],"door_generator_assignment":[1,0],"goal":1,"start":5,"action_noise":0.2,"location_history":"[5,0,1]","action_history":"[0,1]","door_history":"[1,0]","location_rts":"[2363,332]","trial_type":"two-door-navigation","trial_index":66,"time_elapsed":900037,"internal_node_id":"0.0-2.0-64.0"},{"group":"hexagon_bi","room_assignment":["red","blue","yellow","grey","purple","green"],"door_color_assignment":["black","white"],"door_generator_assignment":[1,0],"goal":5,"start":1,"action_noise":0.2,"location_history":"[1,2,3,2,1,0,5]","action_history":"[0,0,1,0,1,0]","door_history":"[1,1,0,1,0,1]","location_rts":"[1462,1387,1601,265,423,996]","trial_type":"two-door-navigation","trial_index":67,"time_elapsed":915944,"internal_node_id":"0.0-2.0-65.0"},{"group":"hexagon_bi","room_assignment":["red","blue","yellow","grey","purple","green"],"door_color_assignment":["black","white"],"door_generator_assignment":[1,0],"goal":3,"start":5,"action_noise":0.2,"location_history":"[5,4,5,4,5,0,5,4,5,4,3]","action_history":"[1,1,1,1,1,0,1,0,1,0]","door_history":"[0,0,0,0,0,1,0,1,0,1]","location_rts":"[1957,425,498,248,202,308,780,367,702,354]","trial_type":"two-door-navigation","trial_index":68,"time_elapsed":935784,"internal_node_id":"0.0-2.0-66.0"},{"group":"hexagon_bi","room_assignment":["red","blue","yellow","grey","purple","green"],"door_color_assignment":["black","white"],"door_generator_assignment":[1,0],"goal":2,"start":3,"action_noise":0.2,"location_history":"[3,2]","action_history":"[1]","door_history":"[0]","location_rts":"[1910]","trial_type":"two-door-navigation","trial_index":69,"time_elapsed":942265,"internal_node_id":"0.0-2.0-67.0"},{"group":"hexagon_bi","room_assignment":["red","blue","yellow","grey","purple","green"],"door_color_assignment":["black","white"],"door_generator_assignment":[1,0],"goal":1,"start":2,"action_noise":0.2,"location_history":"[2,1]","action_history":"[0]","door_history":"[1]","location_rts":"[1465]","trial_type":"two-door-navigation","trial_index":70,"time_elapsed":948285,"internal_node_id":"0.0-2.0-68.0"},{"group":"hexagon_bi","room_assignment":["red","blue","yellow","grey","purple","green"],"door_color_assignment":["black","white"],"door_generator_assignment":[1,0],"goal":4,"start":1,"action_noise":0.2,"location_history":"[1,2,3,2,1,2,1,0,5,0,1,0,5,4]","action_history":"[1,1,1,0,1,0,1,0,1,1,1,0,1]","door_history":"[0,0,0,1,0,1,0,1,0,0,0,1,0]","location_rts":"[4983,1446,799,311,373,680,142,952,377,1247,1140,377,348]","trial_type":"two-door-navigation","trial_index":71,"time_elapsed":978619,"internal_node_id":"0.0-2.0-69.0"},{"group":"hexagon_bi","room_assignment":["red","blue","yellow","grey","purple","green"],"door_color_assignment":["black","white"],"door_generator_assignment":[1,0],"goal":0,"start":4,"action_noise":0.2,"location_history":"[4,5,0]","action_history":"[1,0]","door_history":"[0,1]","location_rts":"[1602,297]","trial_type":"two-door-navigation","trial_index":72,"time_elapsed":986125,"internal_node_id":"0.0-2.0-70.0"},{"group":"hexagon_bi","room_assignment":["red","blue","yellow","grey","purple","green"],"door_color_assignment":["black","white"],"door_generator_assignment":[1,0],"goal":3,"start":0,"action_noise":0.2,"location_history":"[0,1,0,5,4,3]","action_history":"[0,1,0,1,0]","door_history":"[1,0,1,0,1]","location_rts":"[5567,1290,334,355,327]","trial_type":"two-door-navigation","trial_index":73,"time_elapsed":1002741,"internal_node_id":"0.0-2.0-71.0"},{"group":"hexagon_bi","room_assignment":["red","blue","yellow","grey","purple","green"],"door_color_assignment":["black","white"],"door_generator_assignment":[1,0],"goal":1,"start":3,"action_noise":0.2,"location_history":"[3,2,1]","action_history":"[1,0]","door_history":"[0,1]","location_rts":"[1210,309]","trial_type":"two-door-navigation","trial_index":74,"time_elapsed":1009853,"internal_node_id":"0.0-2.0-72.0"},{"group":"hexagon_bi","room_assignment":["red","blue","yellow","grey","purple","green"],"door_color_assignment":["black","white"],"door_generator_assignment":[1,0],"goal":0,"start":1,"action_noise":0.2,"location_history":"[1,0]","action_history":"[1]","door_history":"[0]","location_rts":"[2002]","trial_type":"two-door-navigation","trial_index":75,"time_elapsed":1016424,"internal_node_id":"0.0-2.0-73.0"},{"group":"hexagon_bi","room_assignment":["red","blue","yellow","grey","purple","green"],"door_color_assignment":["black","white"],"door_generator_assignment":[1,0],"goal":2,"start":0,"action_noise":0.2,"location_history":"[0,5,0,5,4,3,4,5,0,5,0,5,0,1,2]","action_history":"[1,0,1,1,1,1,1,0,1,0,1,0,1,0]","door_history":"[0,1,0,0,0,0,0,1,0,1,0,1,0,1]","location_rts":"[3235,1077,283,1402,1001,2521,660,1288,1361,2789,523,1375,343,338]","trial_type":"two-door-navigation","trial_index":76,"time_elapsed":1052732,"internal_node_id":"0.0-2.0-74.0"},{"group":"hexagon_bi","room_assignment":["red","blue","yellow","grey","purple","green"],"door_color_assignment":["black","white"],"door_generator_assignment":[1,0],"goal":4,"start":2,"action_noise":0.2,"location_history":"[2,1,0,5,4]","action_history":"[0,1,0,1]","door_history":"[1,0,1,0]","location_rts":"[7121,368,560,386]","trial_type":"two-door-navigation","trial_index":77,"time_elapsed":1068872,"internal_node_id":"0.0-2.0-75.0"},{"group":"hexagon_bi","room_assignment":["red","blue","yellow","grey","purple","green"],"door_color_assignment":["black","white"],"door_generator_assignment":[1,0],"goal":5,"start":4,"action_noise":0.2,"location_history":"[4,5]","action_history":"[1]","door_history":"[0]","location_rts":"[1221]","trial_type":"two-door-navigation","trial_index":78,"time_elapsed":1074664,"internal_node_id":"0.0-2.0-76.0"},{"group":"hexagon_bi","room_assignment":["red","blue","yellow","grey","purple","green"],"door_color_assignment":["black","white"],"door_generator_assignment":[1,0],"goal":2,"start":5,"action_noise":0.2,"location_history":"[5,0,1,2]","action_history":"[0,1,0]","door_history":"[1,0,1]","location_rts":"[3004,542,435]","trial_type":"two-door-navigation","trial_index":79,"time_elapsed":1085294,"internal_node_id":"0.0-2.0-77.0"},{"group":"hexagon_bi","room_assignment":["red","blue","yellow","grey","purple","green"],"door_color_assignment":["black","white"],"door_generator_assignment":[1,0],"goal":3,"start":2,"action_noise":0.2,"location_history":"[2,1,0,5,4,3]","action_history":"[1,1,0,1,0]","door_history":"[0,0,1,0,1]","location_rts":"[2478,2946,568,439,384]","trial_type":"two-door-navigation","trial_index":80,"time_elapsed":1100852,"internal_node_id":"0.0-2.0-78.0"},{"group":"hexagon_bi","room_assignment":["red","blue","yellow","grey","purple","green"],"door_color_assignment":["black","white"],"door_generator_assignment":[1,0],"goal":1,"start":3,"action_noise":0.2,"location_history":"[3,2,3,2,1]","action_history":"[1,0,1,0]","door_history":"[0,1,0,1]","location_rts":"[1321,313,2211,410]","trial_type":"two-door-navigation","trial_index":81,"time_elapsed":1112833,"internal_node_id":"0.0-2.0-79.0"},{"group":"hexagon_bi","room_assignment":["red","blue","yellow","grey","purple","green"],"door_color_assignment":["black","white"],"door_generator_assignment":[1,0],"goal":4,"start":1,"action_noise":0.2,"location_history":"[1,0,5,4]","action_history":"[1,0,1]","door_history":"[0,1,0]","location_rts":"[1853,308,313]","trial_type":"two-door-navigation","trial_index":82,"time_elapsed":1121948,"internal_node_id":"0.0-2.0-80.0"},{"group":"hexagon_bi","room_assignment":["red","blue","yellow","grey","purple","green"],"door_color_assignment":["black","white"],"door_generator_assignment":[1,0],"goal":5,"start":4,"action_noise":0.2,"location_history":"[4,5]","action_history":"[1]","door_history":"[0]","location_rts":"[1040]","trial_type":"two-door-navigation","trial_index":83,"time_elapsed":1127562,"internal_node_id":"0.0-2.0-81.0"},{"group":"hexagon_bi","room_assignment":["red","blue","yellow","grey","purple","green"],"door_color_assignment":["black","white"],"door_generator_assignment":[1,0],"goal":0,"start":5,"action_noise":0.2,"location_history":"[5,0]","action_history":"[0]","door_history":"[1]","location_rts":"[1551]","trial_type":"two-door-navigation","trial_index":84,"time_elapsed":1133672,"internal_node_id":"0.0-2.0-82.0"},{"group":"hexagon_bi","room_assignment":["red","blue","yellow","grey","purple","green"],"door_color_assignment":["black","white"],"door_generator_assignment":[1,0],"goal":2,"start":0,"action_noise":0.2,"location_history":"[0,1,2]","action_history":"[1,0]","door_history":"[0,1]","location_rts":"[2338,274]","trial_type":"two-door-navigation","trial_index":85,"time_elapsed":1141879,"internal_node_id":"0.0-2.0-83.0"},{"group":"hexagon_bi","room_assignment":["red","blue","yellow","grey","purple","green"],"door_color_assignment":["black","white"],"door_generator_assignment":[1,0],"goal":0,"start":2,"action_noise":0.2,"location_history":"[2,1,0]","action_history":"[0,1]","door_history":"[1,0]","location_rts":"[3060,306]","trial_type":"two-door-navigation","trial_index":86,"time_elapsed":1150849,"internal_node_id":"0.0-2.0-84.0"},{"group":"hexagon_bi","room_assignment":["red","blue","yellow","grey","purple","green"],"door_color_assignment":["black","white"],"door_generator_assignment":[1,0],"goal":5,"start":0,"action_noise":0.2,"location_history":"[0,5]","action_history":"[0]","door_history":"[1]","location_rts":"[32983]","trial_type":"two-door-navigation","trial_index":87,"time_elapsed":1189007,"internal_node_id":"0.0-2.0-85.0"},{"group":"hexagon_bi","room_assignment":["red","blue","yellow","grey","purple","green"],"door_color_assignment":["black","white"],"door_generator_assignment":[1,0],"goal":1,"start":5,"action_noise":0.2,"location_history":"[5,0,1]","action_history":"[0,1]","door_history":"[1,0]","location_rts":"[1990,319]","trial_type":"two-door-navigation","trial_index":88,"time_elapsed":1196912,"internal_node_id":"0.0-2.0-86.0"},{"group":"hexagon_bi","room_assignment":["red","blue","yellow","grey","purple","green"],"door_color_assignment":["black","white"],"door_generator_assignment":[1,0],"goal":4,"start":1,"action_noise":0.2,"location_history":"[1,2,1,0,5,4]","action_history":"[1,1,1,0,1]","door_history":"[0,0,0,1,0]","location_rts":"[2995,1842,1041,498,320]","trial_type":"two-door-navigation","trial_index":89,"time_elapsed":1212370,"internal_node_id":"0.0-2.0-87.0"},{"group":"hexagon_bi","room_assignment":["red","blue","yellow","grey","purple","green"],"door_color_assignment":["black","white"],"door_generator_assignment":[1,0],"goal":3,"start":4,"action_noise":0.2,"location_history":"[4,5,4,3]","action_history":"[0,1,0]","door_history":"[1,0,1]","location_rts":"[2232,1003,291]","trial_type":"two-door-navigation","trial_index":90,"time_elapsed":1222560,"internal_node_id":"0.0-2.0-88.0"},{"group":"hexagon_bi","room_assignment":["red","blue","yellow","grey","purple","green"],"door_color_assignment":["black","white"],"door_generator_assignment":[1,0],"goal":5,"start":3,"action_noise":0.2,"location_history":"[3,2,3,2,1,2,3,2,3,2,1,0,5]","action_history":"[1,0,1,0,1,1,1,0,1,0,1,0]","door_history":"[0,1,0,1,0,0,0,1,0,1,0,1]","location_rts":"[1638,978,1029,189,628,1124,583,298,1177,321,637,355]","trial_type":"two-door-navigation","trial_index":91,"time_elapsed":1247529,"internal_node_id":"0.0-2.0-89.0"},{"group":"hexagon_bi","room_assignment":["red","blue","yellow","grey","purple","green"],"door_color_assignment":["black","white"],"door_generator_assignment":[1,0],"goal":1,"start":5,"action_noise":0.2,"location_history":"[5,0,1]","action_history":"[0,1]","door_history":"[1,0]","location_rts":"[2023,304]","trial_type":"two-door-navigation","trial_index":92,"time_elapsed":1255439,"internal_node_id":"0.0-2.0-90.0"},{"group":"hexagon_bi","room_assignment":["red","blue","yellow","grey","purple","green"],"door_color_assignment":["black","white"],"door_generator_assignment":[1,0],"goal":2,"start":1,"action_noise":0.2,"location_history":"[1,2]","action_history":"[0]","door_history":"[1]","location_rts":"[1481]","trial_type":"two-door-navigation","trial_index":93,"time_elapsed":1261470,"internal_node_id":"0.0-2.0-91.0"},{"group":"hexagon_bi","room_assignment":["red","blue","yellow","grey","purple","green"],"door_color_assignment":["black","white"],"door_generator_assignment":[1,0],"goal":4,"start":2,"action_noise":0.2,"location_history":"[2,3,2,1,0,5,4]","action_history":"[0,1,0,1,0,1]","door_history":"[1,0,1,0,1,0]","location_rts":"[2274,916,119,426,266,336]","trial_type":"two-door-navigation","trial_index":94,"time_elapsed":1275570,"internal_node_id":"0.0-2.0-92.0"},{"group":"hexagon_bi","room_assignment":["red","blue","yellow","grey","purple","green"],"door_color_assignment":["black","white"],"door_generator_assignment":[1,0],"goal":0,"start":4,"action_noise":0.2,"location_history":"[4,3,4,5,0]","action_history":"[1,0,1,0]","door_history":"[0,1,0,1]","location_rts":"[1660,294,2428,966]","trial_type":"two-door-navigation","trial_index":95,"time_elapsed":1288580,"internal_node_id":"0.0-2.0-93.0"},{"group":"hexagon_bi","room_assignment":["red","blue","yellow","grey","purple","green"],"door_color_assignment":["black","white"],"door_generator_assignment":[1,0],"goal":3,"start":0,"action_noise":0.2,"location_history":"[0,1,2,3]","action_history":"[1,0,1]","door_history":"[0,1,0]","location_rts":"[2897,440,348]","trial_type":"two-door-navigation","trial_index":96,"time_elapsed":1298921,"internal_node_id":"0.0-2.0-94.0"},{"group":"hexagon_bi","room_assignment":["red","blue","yellow","grey","purple","green"],"door_color_assignment":["black","white"],"door_generator_assignment":[1,0],"goal":0,"start":3,"action_noise":0.2,"location_history":"[3,4,5,0]","action_history":"[1,1,0]","door_history":"[0,0,1]","location_rts":"[1852,1538,276]","trial_type":"two-door-navigation","trial_index":97,"time_elapsed":1309239,"internal_node_id":"0.0-2.0-95.0"},{"group":"hexagon_bi","room_assignment":["red","blue","yellow","grey","purple","green"],"door_color_assignment":["black","white"],"door_generator_assignment":[1,0],"goal":4,"start":0,"action_noise":0.2,"location_history":"[0,5,0,5,4]","action_history":"[0,1,0,1]","door_history":"[1,0,1,0]","location_rts":"[2036,296,993,331]","trial_type":"two-door-navigation","trial_index":98,"time_elapsed":1320602,"internal_node_id":"0.0-2.0-96.0"},{"group":"hexagon_bi","room_assignment":["red","blue","yellow","grey","purple","green"],"door_color_assignment":["black","white"],"door_generator_assignment":[1,0],"goal":5,"start":4,"action_noise":0.2,"location_history":"[4,3,2,3,2,1,0,5]","action_history":"[1,1,0,1,0,1,0]","door_history":"[0,0,1,0,1,0,1]","location_rts":"[1119,891,3120,832,616,700,333]","trial_type":"two-door-navigation","trial_index":99,"time_elapsed":1339092,"internal_node_id":"0.0-2.0-97.0"},{"group":"hexagon_bi","room_assignment":["red","blue","yellow","grey","purple","green"],"door_color_assignment":["black","white"],"door_generator_assignment":[1,0],"goal":2,"start":5,"action_noise":0.2,"location_history":"[5,4,5,0,1,2]","action_history":"[0,1,0,1,0]","door_history":"[1,0,1,0,1]","location_rts":"[2096,1679,368,419,548]","trial_type":"two-door-navigation","trial_index":100,"time_elapsed":1352938,"internal_node_id":"0.0-2.0-98.0"},{"group":"hexagon_bi","room_assignment":["red","blue","yellow","grey","purple","green"],"door_color_assignment":["black","white"],"door_generator_assignment":[1,0],"goal":1,"start":2,"action_noise":0.2,"location_history":"[2,1]","action_history":"[0]","door_history":"[1]","location_rts":"[1601]","trial_type":"two-door-navigation","trial_index":101,"time_elapsed":1359087,"internal_node_id":"0.0-2.0-99.0"},{"view_history":"[{\"page_index\":0,\"viewing_time\":73327}]","rt":73327,"trial_type":"instructions","trial_index":102,"time_elapsed":1433415,"internal_node_id":"0.0-3.0"},{"view_history":"[{\"page_index\":0,\"viewing_time\":4167},{\"page_index\":1,\"viewing_time\":1286}]","rt":5453,"trial_type":"instructions","trial_index":103,"time_elapsed":1439870,"internal_node_id":"0.0-4.0"},{"group":"hexagon_tri","fractal_assignment":["../images/org_blu.png","../images/ylw_slt.png","../images/pnk_blu.png","../images/gry_blk.png","../images/cyn_red.png","../images/blu_wht.png"],"mutagen_generator_assignment":[0,1],"goal":2,"start":1,"action_noise":0.2,"location_history":"[1,3,2]","action_history":"[0,0]","mutagen_history":"[0,0]","location_rts":"[3418,705]","trial_type":"fractal-mutation","trial_index":104,"time_elapsed":1449639,"internal_node_id":"0.0-5.0-0.0"},{"group":"hexagon_tri","fractal_assignment":["../images/org_blu.png","../images/ylw_slt.png","../images/pnk_blu.png","../images/gry_blk.png","../images/cyn_red.png","../images/blu_wht.png"],"mutagen_generator_assignment":[0,1],"goal":0,"start":2,"action_noise":0.2,"location_history":"[2,3,4,0]","action_history":"[1,0,0]","mutagen_history":"[1,0,0]","location_rts":"[1658,261,990]","trial_type":"fractal-mutation","trial_index":105,"time_elapsed":1459211,"internal_node_id":"0.0-5.0-1.0"},{"group":"hexagon_tri","fractal_assignment":["../images/org_blu.png","../images/ylw_slt.png","../images/pnk_blu.png","../images/gry_blk.png","../images/cyn_red.png","../images/blu_wht.png"],"mutagen_generator_assignment":[0,1],"goal":5,"start":0,"action_noise":0.2,"location_history":"[0,5]","action_history":"[0]","mutagen_history":"[0]","location_rts":"[1079]","trial_type":"fractal-mutation","trial_index":106,"time_elapsed":1464855,"internal_node_id":"0.0-5.0-2.0"},{"group":"hexagon_tri","fractal_assignment":["../images/org_blu.png","../images/ylw_slt.png","../images/pnk_blu.png","../images/gry_blk.png","../images/cyn_red.png","../images/blu_wht.png"],"mutagen_generator_assignment":[0,1],"goal":3,"start":5,"action_noise":0.2,"location_history":"[5,4,2,1,5,0,5,4,0,5,4,2,3]","action_history":"[0,1,0,0,0,0,0,0,0,0,0,1]","mutagen_history":"[0,1,0,0,0,0,0,0,0,0,0,1]","location_rts":"[2110,792,222,286,439,81,334,189,382,341,165,267]","trial_type":"fractal-mutation","trial_index":107,"time_elapsed":1486734,"internal_node_id":"0.0-5.0-3.0"},{"group":"hexagon_tri","fractal_assignment":["../images/org_blu.png","../images/ylw_slt.png","../images/pnk_blu.png","../images/gry_blk.png","../images/cyn_red.png","../images/blu_wht.png"],"mutagen_generator_assignment":[0,1],"goal":4,"start":3,"action_noise":0.2,"location_history":"[3,2,3,2,3,4]","action_history":"[0,1,0,0,1]","mutagen_history":"[0,1,0,0,1]","location_rts":"[2262,1394,708,762,905]","trial_type":"fractal-mutation","trial_index":108,"time_elapsed":1501607,"internal_node_id":"0.0-5.0-4.0"},{"group":"hexagon_tri","fractal_assignment":["../images/org_blu.png","../images/ylw_slt.png","../images/pnk_blu.png","../images/gry_blk.png","../images/cyn_red.png","../images/blu_wht.png"],"mutagen_generator_assignment":[0,1],"goal":0,"start":4,"action_noise":0.2,"location_history":"[4,2,1,5,0]","action_history":"[0,1,0,0]","mutagen_history":"[0,1,0,0]","location_rts":"[1347,1597,235,820]","trial_type":"fractal-mutation","trial_index":109,"time_elapsed":1513385,"internal_node_id":"0.0-5.0-5.0"},{"group":"hexagon_tri","fractal_assignment":["../images/org_blu.png","../images/ylw_slt.png","../images/pnk_blu.png","../images/gry_blk.png","../images/cyn_red.png","../images/blu_wht.png"],"mutagen_generator_assignment":[0,1],"goal":4,"start":0,"action_noise":0.2,"location_history":"[0,5,4]","action_history":"[0,0]","mutagen_history":"[0,0]","location_rts":"[1995,434]","trial_type":"fractal-mutation","trial_index":110,"time_elapsed":1521459,"internal_node_id":"0.0-5.0-6.0"},{"group":"hexagon_tri","fractal_assignment":["../images/org_blu.png","../images/ylw_slt.png","../images/pnk_blu.png","../images/gry_blk.png","../images/cyn_red.png","../images/blu_wht.png"],"mutagen_generator_assignment":[0,1],"goal":3,"start":4,"action_noise":0.2,"location_history":"[4,0,5,0,5,4,0,1,3]","action_history":"[0,0,1,1,0,1,1,0]","mutagen_history":"[0,0,1,1,0,1,1,0]","location_rts":"[2150,1017,812,1082,842,1125,1070,914]","trial_type":"fractal-mutation","trial_index":111,"time_elapsed":1542464,"internal_node_id":"0.0-5.0-7.0"},{"group":"hexagon_tri","fractal_assignment":["../images/org_blu.png","../images/ylw_slt.png","../images/pnk_blu.png","../images/gry_blk.png","../images/cyn_red.png","../images/blu_wht.png"],"mutagen_generator_assignment":[0,1],"goal":2,"start":3,"action_noise":0.2,"location_history":"[3,2]","action_history":"[0]","mutagen_history":"[0]","location_rts":"[1908]","trial_type":"fractal-mutation","trial_index":112,"time_elapsed":1548957,"internal_node_id":"0.0-5.0-8.0"},{"group":"hexagon_tri","fractal_assignment":["../images/org_blu.png","../images/ylw_slt.png","../images/pnk_blu.png","../images/gry_blk.png","../images/cyn_red.png","../images/blu_wht.png"],"mutagen_generator_assignment":[0,1],"goal":1,"start":2,"action_noise":0.2,"location_history":"[2,1]","action_history":"[0]","mutagen_history":"[0]","location_rts":"[970]","trial_type":"fractal-mutation","trial_index":113,"time_elapsed":1554503,"internal_node_id":"0.0-5.0-9.0"},{"group":"hexagon_tri","fractal_assignment":["../images/org_blu.png","../images/ylw_slt.png","../images/pnk_blu.png","../images/gry_blk.png","../images/cyn_red.png","../images/blu_wht.png"],"mutagen_generator_assignment":[0,1],"goal":5,"start":1,"action_noise":0.2,"location_history":"[1,5]","action_history":"[0]","mutagen_history":"[0]","location_rts":"[1039]","trial_type":"fractal-mutation","trial_index":114,"time_elapsed":1560124,"internal_node_id":"0.0-5.0-10.0"},{"group":"hexagon_tri","fractal_assignment":["../images/org_blu.png","../images/ylw_slt.png","../images/pnk_blu.png","../images/gry_blk.png","../images/cyn_red.png","../images/blu_wht.png"],"mutagen_generator_assignment":[0,1],"goal":0,"start":5,"action_noise":0.2,"location_history":"[5,0]","action_history":"[0]","mutagen_history":"[0]","location_rts":"[1234]","trial_type":"fractal-mutation","trial_index":115,"time_elapsed":1565915,"internal_node_id":"0.0-5.0-11.0"},{"group":"hexagon_tri","fractal_assignment":["../images/org_blu.png","../images/ylw_slt.png","../images/pnk_blu.png","../images/gry_blk.png","../images/cyn_red.png","../images/blu_wht.png"],"mutagen_generator_assignment":[0,1],"goal":4,"start":0,"action_noise":0.2,"location_history":"[0,5,4]","action_history":"[0,0]","mutagen_history":"[0,0]","location_rts":"[1055,340]","trial_type":"fractal-mutation","trial_index":116,"time_elapsed":1572927,"internal_node_id":"0.0-5.0-12.0"},{"group":"hexagon_tri","fractal_assignment":["../images/org_blu.png","../images/ylw_slt.png","../images/pnk_blu.png","../images/gry_blk.png","../images/cyn_red.png","../images/blu_wht.png"],"mutagen_generator_assignment":[0,1],"goal":2,"start":4,"action_noise":0.2,"location_history":"[4,2]","action_history":"[1]","mutagen_history":"[1]","location_rts":"[3574]","trial_type":"fractal-mutation","trial_index":117,"time_elapsed":1581064,"internal_node_id":"0.0-5.0-13.0"},{"group":"hexagon_tri","fractal_assignment":["../images/org_blu.png","../images/ylw_slt.png","../images/pnk_blu.png","../images/gry_blk.png","../images/cyn_red.png","../images/blu_wht.png"],"mutagen_generator_assignment":[0,1],"goal":1,"start":2,"action_noise":0.2,"location_history":"[2,3,2,1]","action_history":"[0,0,0]","mutagen_history":"[0,0,0]","location_rts":"[1181,380,305]","trial_type":"fractal-mutation","trial_index":118,"time_elapsed":1589606,"internal_node_id":"0.0-5.0-14.0"},{"group":"hexagon_tri","fractal_assignment":["../images/org_blu.png","../images/ylw_slt.png","../images/pnk_blu.png","../images/gry_blk.png","../images/cyn_red.png","../images/blu_wht.png"],"mutagen_generator_assignment":[0,1],"goal":3,"start":1,"action_noise":0.2,"location_history":"[1,5,4,0,5,4,2,1,3]","action_history":"[0,0,0,1,0,1,0,0]","mutagen_history":"[0,0,0,1,0,1,0,0]","location_rts":"[1243,270,207,1128,595,1070,357,130]","trial_type":"fractal-mutation","trial_index":119,"time_elapsed":1606586,"internal_node_id":"0.0-5.0-15.0"},{"group":"hexagon_tri","fractal_assignment":["../images/org_blu.png","../images/ylw_slt.png","../images/pnk_blu.png","../images/gry_blk.png","../images/cyn_red.png","../images/blu_wht.png"],"mutagen_generator_assignment":[0,1],"goal":5,"start":3,"action_noise":0.2,"location_history":"[3,4,0,5]","action_history":"[0,0,0]","mutagen_history":"[0,0,0]","location_rts":"[1715,491,66]","trial_type":"fractal-mutation","trial_index":120,"time_elapsed":1615537,"internal_node_id":"0.0-5.0-16.0"},{"group":"hexagon_tri","fractal_assignment":["../images/org_blu.png","../images/ylw_slt.png","../images/pnk_blu.png","../images/gry_blk.png","../images/cyn_red.png","../images/blu_wht.png"],"mutagen_generator_assignment":[0,1],"goal":0,"start":5,"action_noise":0.2,"location_history":"[5,4,0]","action_history":"[0,0]","mutagen_history":"[0,0]","location_rts":"[1399,753]","trial_type":"fractal-mutation","trial_index":121,"time_elapsed":1623313,"internal_node_id":"0.0-5.0-17.0"},{"group":"hexagon_tri","fractal_assignment":["../images/org_blu.png","../images/ylw_slt.png","../images/pnk_blu.png","../images/gry_blk.png","../images/cyn_red.png","../images/blu_wht.png"],"mutagen_generator_assignment":[0,1],"goal":5,"start":0,"action_noise":0.2,"location_history":"[0,5]","action_history":"[0]","mutagen_history":"[0]","location_rts":"[1027]","trial_type":"fractal-mutation","trial_index":122,"time_elapsed":1628901,"internal_node_id":"0.0-5.0-18.0"},{"group":"hexagon_tri","fractal_assignment":["../images/org_blu.png","../images/ylw_slt.png","../images/pnk_blu.png","../images/gry_blk.png","../images/cyn_red.png","../images/blu_wht.png"],"mutagen_generator_assignment":[0,1],"goal":3,"start":5,"action_noise":0.2,"location_history":"[5,0,5,4,2,1,3]","action_history":"[0,0,0,1,0,0]","mutagen_history":"[0,0,0,1,0,0]","location_rts":"[2067,1243,811,535,254,279]","trial_type":"fractal-mutation","trial_index":123,"time_elapsed":1643992,"internal_node_id":"0.0-5.0-19.0"},{"group":"hexagon_tri","fractal_assignment":["../images/org_blu.png","../images/ylw_slt.png","../images/pnk_blu.png","../images/gry_blk.png","../images/cyn_red.png","../images/blu_wht.png"],"mutagen_generator_assignment":[0,1],"goal":4,"start":3,"action_noise":0.2,"location_history":"[3,2,3,4]","action_history":"[0,1,0]","mutagen_history":"[0,1,0]","location_rts":"[1087,1199,738]","trial_type":"fractal-mutation","trial_index":124,"time_elapsed":1653761,"internal_node_id":"0.0-5.0-20.0"},{"group":"hexagon_tri","fractal_assignment":["../images/org_blu.png","../images/ylw_slt.png","../images/pnk_blu.png","../images/gry_blk.png","../images/cyn_red.png","../images/blu_wht.png"],"mutagen_generator_assignment":[0,1],"goal":1,"start":4,"action_noise":0.2,"location_history":"[4,2,1]","action_history":"[1,0]","mutagen_history":"[1,0]","location_rts":"[1348,220]","trial_type":"fractal-mutation","trial_index":125,"time_elapsed":1660970,"internal_node_id":"0.0-5.0-21.0"},{"group":"hexagon_tri","fractal_assignment":["../images/org_blu.png","../images/ylw_slt.png","../images/pnk_blu.png","../images/gry_blk.png","../images/cyn_red.png","../images/blu_wht.png"],"mutagen_generator_assignment":[0,1],"goal":2,"start":1,"action_noise":0.2,"location_history":"[1,3,4,2]","action_history":"[0,0,0]","mutagen_history":"[0,0,0]","location_rts":"[4121,231,399]","trial_type":"fractal-mutation","trial_index":126,"time_elapsed":1672455,"internal_node_id":"0.0-5.0-22.0"},{"group":"hexagon_tri","fractal_assignment":["../images/org_blu.png","../images/ylw_slt.png","../images/pnk_blu.png","../images/gry_blk.png","../images/cyn_red.png","../images/blu_wht.png"],"mutagen_generator_assignment":[0,1],"goal":3,"start":2,"action_noise":0.2,"location_history":"[2,3]","action_history":"[1]","mutagen_history":"[1]","location_rts":"[2162]","trial_type":"fractal-mutation","trial_index":127,"time_elapsed":1679218,"internal_node_id":"0.0-5.0-23.0"},{"group":"hexagon_tri","fractal_assignment":["../images/org_blu.png","../images/ylw_slt.png","../images/pnk_blu.png","../images/gry_blk.png","../images/cyn_red.png","../images/blu_wht.png"],"mutagen_generator_assignment":[0,1],"goal":5,"start":3,"action_noise":0.2,"location_history":"[3,2,1,3,2,3,4,0,5]","action_history":"[0,0,0,0,1,0,0,0]","mutagen_history":"[0,0,0,0,1,0,0,0]","location_rts":"[1385,2247,1119,866,2385,142,826,74]","trial_type":"fractal-mutation","trial_index":128,"time_elapsed":1700277,"internal_node_id":"0.0-5.0-24.0"},{"group":"hexagon_tri","fractal_assignment":["../images/org_blu.png","../images/ylw_slt.png","../images/pnk_blu.png","../images/gry_blk.png","../images/cyn_red.png","../images/blu_wht.png"],"mutagen_generator_assignment":[0,1],"goal":4,"start":5,"action_noise":0.2,"location_history":"[5,4]","action_history":"[0]","mutagen_history":"[0]","location_rts":"[1229]","trial_type":"fractal-mutation","trial_index":129,"time_elapsed":1706077,"internal_node_id":"0.0-5.0-25.0"},{"group":"hexagon_tri","fractal_assignment":["../images/org_blu.png","../images/ylw_slt.png","../images/pnk_blu.png","../images/gry_blk.png","../images/cyn_red.png","../images/blu_wht.png"],"mutagen_generator_assignment":[0,1],"goal":0,"start":4,"action_noise":0.2,"location_history":"[4,0]","action_history":"[0]","mutagen_history":"[0]","location_rts":"[1771]","trial_type":"fractal-mutation","trial_index":130,"time_elapsed":1712417,"internal_node_id":"0.0-5.0-26.0"},{"group":"hexagon_tri","fractal_assignment":["../images/org_blu.png","../images/ylw_slt.png","../images/pnk_blu.png","../images/gry_blk.png","../images/cyn_red.png","../images/blu_wht.png"],"mutagen_generator_assignment":[0,1],"goal":2,"start":0,"action_noise":0.2,"location_history":"[0,5,4,2]","action_history":"[0,0,1]","mutagen_history":"[0,0,1]","location_rts":"[1516,397,228]","trial_type":"fractal-mutation","trial_index":131,"time_elapsed":1721261,"internal_node_id":"0.0-5.0-27.0"},{"group":"hexagon_tri","fractal_assignment":["../images/org_blu.png","../images/ylw_slt.png","../images/pnk_blu.png","../images/gry_blk.png","../images/cyn_red.png","../images/blu_wht.png"],"mutagen_generator_assignment":[0,1],"goal":1,"start":2,"action_noise":0.2,"location_history":"[2,1]","action_history":"[0]","mutagen_history":"[0]","location_rts":"[1255]","trial_type":"fractal-mutation","trial_index":132,"time_elapsed":1727094,"internal_node_id":"0.0-5.0-28.0"},{"group":"hexagon_tri","fractal_assignment":["../images/org_blu.png","../images/ylw_slt.png","../images/pnk_blu.png","../images/gry_blk.png","../images/cyn_red.png","../images/blu_wht.png"],"mutagen_generator_assignment":[0,1],"goal":0,"start":1,"action_noise":0.2,"location_history":"[1,3,2,3,2,1,3,2,1,3,2,1,3,2,1,3,4,2,3,2,3,4,0]","action_history":"[0,0,1,0,0,0,0,1,0,0,1,0,0,0,0,1,0,1,0,0,1,0]","mutagen_history":"[0,0,1,0,0,0,0,1,0,0,1,0,0,0,0,1,0,1,0,0,1,0]","location_rts":"[2176,388,322,142,242,180,475,323,1533,391,277,877,717,926,607,366,1223,1083,481,688,330,823]","trial_type":"fractal-mutation","trial_index":133,"time_elapsed":1768607,"internal_node_id":"0.0-5.0-29.0"},{"group":"hexagon_tri","fractal_assignment":["../images/org_blu.png","../images/ylw_slt.png","../images/pnk_blu.png","../images/gry_blk.png","../images/cyn_red.png","../images/blu_wht.png"],"mutagen_generator_assignment":[0,1],"goal":2,"start":0,"action_noise":0.2,"location_history":"[0,5,0,5,0,1,3,2]","action_history":"[0,0,0,0,1,0,0]","mutagen_history":"[0,0,0,0,1,0,0]","location_rts":"[2532,821,1116,453,387,654,600]","trial_type":"fractal-mutation","trial_index":134,"time_elapsed":1786143,"internal_node_id":"0.0-5.0-30.0"},{"group":"hexagon_tri","fractal_assignment":["../images/org_blu.png","../images/ylw_slt.png","../images/pnk_blu.png","../images/gry_blk.png","../images/cyn_red.png","../images/blu_wht.png"],"mutagen_generator_assignment":[0,1],"goal":4,"start":2,"action_noise":0.2,"location_history":"[2,1,3,4]","action_history":"[1,0,1]","mutagen_history":"[1,0,1]","location_rts":"[1227,1552,836]","trial_type":"fractal-mutation","trial_index":135,"time_elapsed":1796477,"internal_node_id":"0.0-5.0-31.0"},{"group":"hexagon_tri","fractal_assignment":["../images/org_blu.png","../images/ylw_slt.png","../images/pnk_blu.png","../images/gry_blk.png","../images/cyn_red.png","../images/blu_wht.png"],"mutagen_generator_assignment":[0,1],"goal":1,"start":4,"action_noise":0.2,"location_history":"[4,2,1]","action_history":"[1,0]","mutagen_history":"[1,0]","location_rts":"[1674,326]","trial_type":"fractal-mutation","trial_index":136,"time_elapsed":1804126,"internal_node_id":"0.0-5.0-32.0"},{"group":"hexagon_tri","fractal_assignment":["../images/org_blu.png","../images/ylw_slt.png","../images/pnk_blu.png","../images/gry_blk.png","../images/cyn_red.png","../images/blu_wht.png"],"mutagen_generator_assignment":[0,1],"goal":3,"start":1,"action_noise":0.2,"location_history":"[1,3]","action_history":"[0]","mutagen_history":"[0]","location_rts":"[4022]","trial_type":"fractal-mutation","trial_index":137,"time_elapsed":1812719,"internal_node_id":"0.0-5.0-33.0"},{"group":"hexagon_tri","fractal_assignment":["../images/org_blu.png","../images/ylw_slt.png","../images/pnk_blu.png","../images/gry_blk.png","../images/cyn_red.png","../images/blu_wht.png"],"mutagen_generator_assignment":[0,1],"goal":5,"start":3,"action_noise":0.2,"location_history":"[3,2,3,2,1,5]","action_history":"[0,1,1,1,0]","mutagen_history":"[0,1,1,1,0]","location_rts":"[1089,905,521,1241,1547]","trial_type":"fractal-mutation","trial_index":138,"time_elapsed":1826876,"internal_node_id":"0.0-5.0-34.0"},{"group":"hexagon_tri","fractal_assignment":["../images/org_blu.png","../images/ylw_slt.png","../images/pnk_blu.png","../images/gry_blk.png","../images/cyn_red.png","../images/blu_wht.png"],"mutagen_generator_assignment":[0,1],"goal":2,"start":5,"action_noise":0.2,"location_history":"[5,4,2]","action_history":"[0,1]","mutagen_history":"[0,1]","location_rts":"[1401,445]","trial_type":"fractal-mutation","trial_index":139,"time_elapsed":1834361,"internal_node_id":"0.0-5.0-35.0"},{"group":"hexagon_tri","fractal_assignment":["../images/org_blu.png","../images/ylw_slt.png","../images/pnk_blu.png","../images/gry_blk.png","../images/cyn_red.png","../images/blu_wht.png"],"mutagen_generator_assignment":[0,1],"goal":0,"start":2,"action_noise":0.2,"location_history":"[2,1,3,4,0]","action_history":"[0,0,1,0]","mutagen_history":"[0,0,1,0]","location_rts":"[3490,1262,367,724]","trial_type":"fractal-mutation","trial_index":140,"time_elapsed":1848019,"internal_node_id":"0.0-5.0-36.0"},{"group":"hexagon_tri","fractal_assignment":["../images/org_blu.png","../images/ylw_slt.png","../images/pnk_blu.png","../images/gry_blk.png","../images/cyn_red.png","../images/blu_wht.png"],"mutagen_generator_assignment":[0,1],"goal":4,"start":0,"action_noise":0.2,"location_history":"[0,1,3,4]","action_history":"[0,0,1]","mutagen_history":"[0,0,1]","location_rts":"[1167,346,1208]","trial_type":"fractal-mutation","trial_index":141,"time_elapsed":1857454,"internal_node_id":"0.0-5.0-37.0"},{"group":"hexagon_tri","fractal_assignment":["../images/org_blu.png","../images/ylw_slt.png","../images/pnk_blu.png","../images/gry_blk.png","../images/cyn_red.png","../images/blu_wht.png"],"mutagen_generator_assignment":[0,1],"goal":5,"start":4,"action_noise":0.2,"location_history":"[4,0,5]","action_history":"[0,0]","mutagen_history":"[0,0]","location_rts":"[1076,301]","trial_type":"fractal-mutation","trial_index":142,"time_elapsed":1864466,"internal_node_id":"0.0-5.0-38.0"},{"group":"hexagon_tri","fractal_assignment":["../images/org_blu.png","../images/ylw_slt.png","../images/pnk_blu.png","../images/gry_blk.png","../images/cyn_red.png","../images/blu_wht.png"],"mutagen_generator_assignment":[0,1],"goal":1,"start":5,"action_noise":0.2,"location_history":"[5,4,0,5,4,0,5,4,2,1]","action_history":"[0,1,0,0,1,0,0,1,0]","mutagen_history":"[0,1,0,0,1,0,0,1,0]","location_rts":"[1755,781,1778,793,646,1068,158,50,167]","trial_type":"fractal-mutation","trial_index":143,"time_elapsed":1884808,"internal_node_id":"0.0-5.0-39.0"},{"group":"hexagon_tri","fractal_assignment":["../images/org_blu.png","../images/ylw_slt.png","../images/pnk_blu.png","../images/gry_blk.png","../images/cyn_red.png","../images/blu_wht.png"],"mutagen_generator_assignment":[0,1],"goal":3,"start":1,"action_noise":0.2,"location_history":"[1,3]","action_history":"[0]","mutagen_history":"[0]","location_rts":"[1230]","trial_type":"fractal-mutation","trial_index":144,"time_elapsed":1890608,"internal_node_id":"0.0-5.0-40.0"},{"group":"hexagon_tri","fractal_assignment":["../images/org_blu.png","../images/ylw_slt.png","../images/pnk_blu.png","../images/gry_blk.png","../images/cyn_red.png","../images/blu_wht.png"],"mutagen_generator_assignment":[0,1],"goal":1,"start":3,"action_noise":0.2,"location_history":"[3,2,1]","action_history":"[0,0]","mutagen_history":"[0,0]","location_rts":"[972,89]","trial_type":"fractal-mutation","trial_index":145,"time_elapsed":1897297,"internal_node_id":"0.0-5.0-41.0"},{"group":"hexagon_tri","fractal_assignment":["../images/org_blu.png","../images/ylw_slt.png","../images/pnk_blu.png","../images/gry_blk.png","../images/cyn_red.png","../images/blu_wht.png"],"mutagen_generator_assignment":[0,1],"goal":0,"start":1,"action_noise":0.2,"location_history":"[1,3,4,0]","action_history":"[0,1,0]","mutagen_history":"[0,1,0]","location_rts":"[1868,452,580]","trial_type":"fractal-mutation","trial_index":146,"time_elapsed":1906897,"internal_node_id":"0.0-5.0-42.0"},{"group":"hexagon_tri","fractal_assignment":["../images/org_blu.png","../images/ylw_slt.png","../images/pnk_blu.png","../images/gry_blk.png","../images/cyn_red.png","../images/blu_wht.png"],"mutagen_generator_assignment":[0,1],"goal":4,"start":0,"action_noise":0.2,"location_history":"[0,5,0,5,4]","action_history":"[0,0,0,0]","mutagen_history":"[0,0,0,0]","location_rts":"[1287,336,7103,405]","trial_type":"fractal-mutation","trial_index":147,"time_elapsed":1923804,"internal_node_id":"0.0-5.0-43.0"},{"group":"hexagon_tri","fractal_assignment":["../images/org_blu.png","../images/ylw_slt.png","../images/pnk_blu.png","../images/gry_blk.png","../images/cyn_red.png","../images/blu_wht.png"],"mutagen_generator_assignment":[0,1],"goal":2,"start":4,"action_noise":0.2,"location_history":"[4,2]","action_history":"[1]","mutagen_history":"[1]","location_rts":"[1293]","trial_type":"fractal-mutation","trial_index":148,"time_elapsed":1929676,"internal_node_id":"0.0-5.0-44.0"},{"group":"hexagon_tri","fractal_assignment":["../images/org_blu.png","../images/ylw_slt.png","../images/pnk_blu.png","../images/gry_blk.png","../images/cyn_red.png","../images/blu_wht.png"],"mutagen_generator_assignment":[0,1],"goal":3,"start":2,"action_noise":0.2,"location_history":"[2,1,3]","action_history":"[0,0]","mutagen_history":"[0,0]","location_rts":"[1711,652]","trial_type":"fractal-mutation","trial_index":149,"time_elapsed":1937686,"internal_node_id":"0.0-5.0-45.0"},{"group":"hexagon_tri","fractal_assignment":["../images/org_blu.png","../images/ylw_slt.png","../images/pnk_blu.png","../images/gry_blk.png","../images/cyn_red.png","../images/blu_wht.png"],"mutagen_generator_assignment":[0,1],"goal":5,"start":3,"action_noise":0.2,"location_history":"[3,2,3,2,3,4,0,5]","action_history":"[1,1,1,1,1,0,0]","mutagen_history":"[1,1,1,1,1,0,0]","location_rts":"[44651,2137,987,683,124,452,80]","trial_type":"fractal-mutation","trial_index":150,"time_elapsed":1997812,"internal_node_id":"0.0-5.0-46.0"},{"group":"hexagon_tri","fractal_assignment":["../images/org_blu.png","../images/ylw_slt.png","../images/pnk_blu.png","../images/gry_blk.png","../images/cyn_red.png","../images/blu_wht.png"],"mutagen_generator_assignment":[0,1],"goal":4,"start":5,"action_noise":0.2,"location_history":"[5,4]","action_history":"[0]","mutagen_history":"[0]","location_rts":"[1155]","trial_type":"fractal-mutation","trial_index":151,"time_elapsed":2003543,"internal_node_id":"0.0-5.0-47.0"},{"group":"hexagon_tri","fractal_assignment":["../images/org_blu.png","../images/ylw_slt.png","../images/pnk_blu.png","../images/gry_blk.png","../images/cyn_red.png","../images/blu_wht.png"],"mutagen_generator_assignment":[0,1],"goal":3,"start":4,"action_noise":0.2,"location_history":"[4,2,1,3]","action_history":"[1,0,0]","mutagen_history":"[1,0,0]","location_rts":"[1973,288,45]","trial_type":"fractal-mutation","trial_index":152,"time_elapsed":2012577,"internal_node_id":"0.0-5.0-48.0"},{"group":"hexagon_tri","fractal_assignment":["../images/org_blu.png","../images/ylw_slt.png","../images/pnk_blu.png","../images/gry_blk.png","../images/cyn_red.png","../images/blu_wht.png"],"mutagen_generator_assignment":[0,1],"goal":1,"start":3,"action_noise":0.2,"location_history":"[3,2,1]","action_history":"[0,0]","mutagen_history":"[0,0]","location_rts":"[1605,214]","trial_type":"fractal-mutation","trial_index":153,"time_elapsed":2020023,"internal_node_id":"0.0-5.0-49.0"},{"group":"hexagon_tri","fractal_assignment":["../images/org_blu.png","../images/ylw_slt.png","../images/pnk_blu.png","../images/gry_blk.png","../images/cyn_red.png","../images/blu_wht.png"],"mutagen_generator_assignment":[0,1],"goal":2,"start":1,"action_noise":0.2,"location_history":"[1,3,2]","action_history":"[0,0]","mutagen_history":"[0,0]","location_rts":"[1230,3]","trial_type":"fractal-mutation","trial_index":154,"time_elapsed":2026890,"internal_node_id":"0.0-5.0-50.0"},{"group":"hexagon_tri","fractal_assignment":["../images/org_blu.png","../images/ylw_slt.png","../images/pnk_blu.png","../images/gry_blk.png","../images/cyn_red.png","../images/blu_wht.png"],"mutagen_generator_assignment":[0,1],"goal":0,"start":2,"action_noise":0.2,"location_history":"[2,3,4,0]","action_history":"[1,1,0]","mutagen_history":"[1,1,0]","location_rts":"[1191,364,421]","trial_type":"fractal-mutation","trial_index":155,"time_elapsed":2035587,"internal_node_id":"0.0-5.0-51.0"},{"group":"hexagon_tri","fractal_assignment":["../images/org_blu.png","../images/ylw_slt.png","../images/pnk_blu.png","../images/gry_blk.png","../images/cyn_red.png","../images/blu_wht.png"],"mutagen_generator_assignment":[0,1],"goal":5,"start":0,"action_noise":0.2,"location_history":"[0,5]","action_history":"[0]","mutagen_history":"[0]","location_rts":"[1133]","trial_type":"fractal-mutation","trial_index":156,"time_elapsed":2041304,"internal_node_id":"0.0-5.0-52.0"},{"group":"hexagon_tri","fractal_assignment":["../images/org_blu.png","../images/ylw_slt.png","../images/pnk_blu.png","../images/gry_blk.png","../images/cyn_red.png","../images/blu_wht.png"],"mutagen_generator_assignment":[0,1],"goal":1,"start":5,"action_noise":0.2,"location_history":"[5,0,5,0,5,4,2,1]","action_history":"[0,0,0,0,0,1,0]","mutagen_history":"[0,0,0,0,0,1,0]","location_rts":"[932,655,794,399,581,327,213]","trial_type":"fractal-mutation","trial_index":157,"time_elapsed":2056228,"internal_node_id":"0.0-5.0-53.0"},{"group":"hexagon_tri","fractal_assignment":["../images/org_blu.png","../images/ylw_slt.png","../images/pnk_blu.png","../images/gry_blk.png","../images/cyn_red.png","../images/blu_wht.png"],"mutagen_generator_assignment":[0,1],"goal":3,"start":1,"action_noise":0.2,"location_history":"[1,3]","action_history":"[0]","mutagen_history":"[0]","location_rts":"[1294]","trial_type":"fractal-mutation","trial_index":158,"time_elapsed":2062099,"internal_node_id":"0.0-5.0-54.0"},{"group":"hexagon_tri","fractal_assignment":["../images/org_blu.png","../images/ylw_slt.png","../images/pnk_blu.png","../images/gry_blk.png","../images/cyn_red.png","../images/blu_wht.png"],"mutagen_generator_assignment":[0,1],"goal":5,"start":3,"action_noise":0.2,"location_history":"[3,4,0,5]","action_history":"[0,0,0]","mutagen_history":"[0,0,0]","location_rts":"[1097,1379,493]","trial_type":"fractal-mutation","trial_index":159,"time_elapsed":2071762,"internal_node_id":"0.0-5.0-55.0"},{"group":"hexagon_tri","fractal_assignment":["../images/org_blu.png","../images/ylw_slt.png","../images/pnk_blu.png","../images/gry_blk.png","../images/cyn_red.png","../images/blu_wht.png"],"mutagen_generator_assignment":[0,1],"goal":4,"start":5,"action_noise":0.2,"location_history":"[5,0,1,5,4]","action_history":"[0,0,0,0]","mutagen_history":"[0,0,0,0]","location_rts":"[1023,501,220,568]","trial_type":"fractal-mutation","trial_index":160,"time_elapsed":2081820,"internal_node_id":"0.0-5.0-56.0"},{"group":"hexagon_tri","fractal_assignment":["../images/org_blu.png","../images/ylw_slt.png","../images/pnk_blu.png","../images/gry_blk.png","../images/cyn_red.png","../images/blu_wht.png"],"mutagen_generator_assignment":[0,1],"goal":0,"start":4,"action_noise":0.2,"location_history":"[4,0]","action_history":"[0]","mutagen_history":"[0]","location_rts":"[863]","trial_type":"fractal-mutation","trial_index":161,"time_elapsed":2087265,"internal_node_id":"0.0-5.0-57.0"},{"group":"hexagon_tri","fractal_assignment":["../images/org_blu.png","../images/ylw_slt.png","../images/pnk_blu.png","../images/gry_blk.png","../images/cyn_red.png","../images/blu_wht.png"],"mutagen_generator_assignment":[0,1],"goal":2,"start":0,"action_noise":0.2,"location_history":"[0,1,3,2]","action_history":"[1,0,0]","mutagen_history":"[1,0,0]","location_rts":"[1068,710,341]","trial_type":"fractal-mutation","trial_index":162,"time_elapsed":2096101,"internal_node_id":"0.0-5.0-58.0"},{"group":"hexagon_tri","fractal_assignment":["../images/org_blu.png","../images/ylw_slt.png","../images/pnk_blu.png","../images/gry_blk.png","../images/cyn_red.png","../images/blu_wht.png"],"mutagen_generator_assignment":[0,1],"goal":4,"start":2,"action_noise":0.2,"location_history":"[2,1,3,4]","action_history":"[0,0,1]","mutagen_history":"[0,0,1]","location_rts":"[3011,585,481]","trial_type":"fractal-mutation","trial_index":163,"time_elapsed":2106875,"internal_node_id":"0.0-5.0-59.0"},{"group":"hexagon_tri","fractal_assignment":["../images/org_blu.png","../images/ylw_slt.png","../images/pnk_blu.png","../images/gry_blk.png","../images/cyn_red.png","../images/blu_wht.png"],"mutagen_generator_assignment":[0,1],"goal":2,"start":4,"action_noise":0.2,"location_history":"[4,2]","action_history":"[1]","mutagen_history":"[1]","location_rts":"[26767]","trial_type":"fractal-mutation","trial_index":164,"time_elapsed":2138218,"internal_node_id":"0.0-5.0-60.0"},{"group":"hexagon_tri","fractal_assignment":["../images/org_blu.png","../images/ylw_slt.png","../images/pnk_blu.png","../images/gry_blk.png","../images/cyn_red.png","../images/blu_wht.png"],"mutagen_generator_assignment":[0,1],"goal":3,"start":2,"action_noise":0.2,"location_history":"[2,1,3]","action_history":"[0,0]","mutagen_history":"[0,0]","location_rts":"[1635,636]","trial_type":"fractal-mutation","trial_index":165,"time_elapsed":2146114,"internal_node_id":"0.0-5.0-61.0"},{"group":"hexagon_tri","fractal_assignment":["../images/org_blu.png","../images/ylw_slt.png","../images/pnk_blu.png","../images/gry_blk.png","../images/cyn_red.png","../images/blu_wht.png"],"mutagen_generator_assignment":[0,1],"goal":0,"start":3,"action_noise":0.2,"location_history":"[3,4,0]","action_history":"[1,0]","mutagen_history":"[1,0]","location_rts":"[2387,383]","trial_type":"fractal-mutation","trial_index":166,"time_elapsed":2154507,"internal_node_id":"0.0-5.0-62.0"},{"group":"hexagon_tri","fractal_assignment":["../images/org_blu.png","../images/ylw_slt.png","../images/pnk_blu.png","../images/gry_blk.png","../images/cyn_red.png","../images/blu_wht.png"],"mutagen_generator_assignment":[0,1],"goal":5,"start":0,"action_noise":0.2,"location_history":"[0,5]","action_history":"[0]","mutagen_history":"[0]","location_rts":"[1912]","trial_type":"fractal-mutation","trial_index":167,"time_elapsed":2160985,"internal_node_id":"0.0-5.0-63.0"},{"group":"hexagon_tri","fractal_assignment":["../images/org_blu.png","../images/ylw_slt.png","../images/pnk_blu.png","../images/gry_blk.png","../images/cyn_red.png","../images/blu_wht.png"],"mutagen_generator_assignment":[0,1],"goal":1,"start":5,"action_noise":0.2,"location_history":"[5,4,2,3,2,1]","action_history":"[0,1,0,0,0]","mutagen_history":"[0,1,0,0,0]","location_rts":"[2993,883,257,229,514]","trial_type":"fractal-mutation","trial_index":168,"time_elapsed":2174718,"internal_node_id":"0.0-5.0-64.0"},{"group":"hexagon_tri","fractal_assignment":["../images/org_blu.png","../images/ylw_slt.png","../images/pnk_blu.png","../images/gry_blk.png","../images/cyn_red.png","../images/blu_wht.png"],"mutagen_generator_assignment":[0,1],"goal":5,"start":1,"action_noise":0.2,"location_history":"[1,3,4,0,5]","action_history":"[0,1,0,0]","mutagen_history":"[0,1,0,0]","location_rts":"[1527,1561,95,409]","trial_type":"fractal-mutation","trial_index":169,"time_elapsed":2186116,"internal_node_id":"0.0-5.0-65.0"},{"group":"hexagon_tri","fractal_assignment":["../images/org_blu.png","../images/ylw_slt.png","../images/pnk_blu.png","../images/gry_blk.png","../images/cyn_red.png","../images/blu_wht.png"],"mutagen_generator_assignment":[0,1],"goal":3,"start":5,"action_noise":0.2,"location_history":"[5,4,0,5,4,2,1,3]","action_history":"[0,1,0,0,1,0,0]","mutagen_history":"[0,1,0,0,1,0,0]","location_rts":"[1561,395,151,553,358,105,174]","trial_type":"fractal-mutation","trial_index":170,"time_elapsed":2200373,"internal_node_id":"0.0-5.0-66.0"},{"group":"hexagon_tri","fractal_assignment":["../images/org_blu.png","../images/ylw_slt.png","../images/pnk_blu.png","../images/gry_blk.png","../images/cyn_red.png","../images/blu_wht.png"],"mutagen_generator_assignment":[0,1],"goal":2,"start":3,"action_noise":0.2,"location_history":"[3,2]","action_history":"[0]","mutagen_history":"[0]","location_rts":"[1780]","trial_type":"fractal-mutation","trial_index":171,"time_elapsed":2206730,"internal_node_id":"0.0-5.0-67.0"},{"group":"hexagon_tri","fractal_assignment":["../images/org_blu.png","../images/ylw_slt.png","../images/pnk_blu.png","../images/gry_blk.png","../images/cyn_red.png","../images/blu_wht.png"],"mutagen_generator_assignment":[0,1],"goal":1,"start":2,"action_noise":0.2,"location_history":"[2,1]","action_history":"[0]","mutagen_history":"[0]","location_rts":"[1041]","trial_type":"fractal-mutation","trial_index":172,"time_elapsed":2212358,"internal_node_id":"0.0-5.0-68.0"},{"group":"hexagon_tri","fractal_assignment":["../images/org_blu.png","../images/ylw_slt.png","../images/pnk_blu.png","../images/gry_blk.png","../images/cyn_red.png","../images/blu_wht.png"],"mutagen_generator_assignment":[0,1],"goal":4,"start":1,"action_noise":0.2,"location_history":"[1,3,2,1,3,4]","action_history":"[0,0,0,0,1]","mutagen_history":"[0,0,0,0,1]","location_rts":"[1222,441,232,619,477]","trial_type":"fractal-mutation","trial_index":173,"time_elapsed":2224173,"internal_node_id":"0.0-5.0-69.0"},{"group":"hexagon_tri","fractal_assignment":["../images/org_blu.png","../images/ylw_slt.png","../images/pnk_blu.png","../images/gry_blk.png","../images/cyn_red.png","../images/blu_wht.png"],"mutagen_generator_assignment":[0,1],"goal":0,"start":4,"action_noise":0.2,"location_history":"[4,0]","action_history":"[0]","mutagen_history":"[0]","location_rts":"[854]","trial_type":"fractal-mutation","trial_index":174,"time_elapsed":2229593,"internal_node_id":"0.0-5.0-70.0"},{"group":"hexagon_tri","fractal_assignment":["../images/org_blu.png","../images/ylw_slt.png","../images/pnk_blu.png","../images/gry_blk.png","../images/cyn_red.png","../images/blu_wht.png"],"mutagen_generator_assignment":[0,1],"goal":3,"start":0,"action_noise":0.2,"location_history":"[0,5,4,2,1,3]","action_history":"[0,0,1,0,0]","mutagen_history":"[0,0,1,0,0]","location_rts":"[1478,479,548,391,142]","trial_type":"fractal-mutation","trial_index":175,"time_elapsed":2241501,"internal_node_id":"0.0-5.0-71.0"},{"group":"hexagon_tri","fractal_assignment":["../images/org_blu.png","../images/ylw_slt.png","../images/pnk_blu.png","../images/gry_blk.png","../images/cyn_red.png","../images/blu_wht.png"],"mutagen_generator_assignment":[0,1],"goal":1,"start":3,"action_noise":0.2,"location_history":"[3,2,1]","action_history":"[0,0]","mutagen_history":"[0,0]","location_rts":"[843,311]","trial_type":"fractal-mutation","trial_index":176,"time_elapsed":2248289,"internal_node_id":"0.0-5.0-72.0"},{"group":"hexagon_tri","fractal_assignment":["../images/org_blu.png","../images/ylw_slt.png","../images/pnk_blu.png","../images/gry_blk.png","../images/cyn_red.png","../images/blu_wht.png"],"mutagen_generator_assignment":[0,1],"goal":0,"start":1,"action_noise":0.2,"location_history":"[1,5,4,2,1,3,2,1,3,2,1,5,0]","action_history":"[0,0,0,0,0,1,0,0,1,0,0,1]","mutagen_history":"[0,0,0,0,0,1,0,0,1,0,0,1]","location_rts":"[1261,982,1283,1415,722,303,104,615,244,337,500,230]","trial_type":"fractal-mutation","trial_index":177,"time_elapsed":2272614,"internal_node_id":"0.0-5.0-73.0"},{"group":"hexagon_tri","fractal_assignment":["../images/org_blu.png","../images/ylw_slt.png","../images/pnk_blu.png","../images/gry_blk.png","../images/cyn_red.png","../images/blu_wht.png"],"mutagen_generator_assignment":[0,1],"goal":2,"start":0,"action_noise":0.2,"location_history":"[0,5,4,2]","action_history":"[0,0,1]","mutagen_history":"[0,0,1]","location_rts":"[1791,413,392]","trial_type":"fractal-mutation","trial_index":178,"time_elapsed":2281893,"internal_node_id":"0.0-5.0-74.0"},{"group":"hexagon_tri","fractal_assignment":["../images/org_blu.png","../images/ylw_slt.png","../images/pnk_blu.png","../images/gry_blk.png","../images/cyn_red.png","../images/blu_wht.png"],"mutagen_generator_assignment":[0,1],"goal":4,"start":2,"action_noise":0.2,"location_history":"[2,1,3,4]","action_history":"[1,0,1]","mutagen_history":"[1,0,1]","location_rts":"[2584,902,396]","trial_type":"fractal-mutation","trial_index":179,"time_elapsed":2292499,"internal_node_id":"0.0-5.0-75.0"},{"group":"hexagon_tri","fractal_assignment":["../images/org_blu.png","../images/ylw_slt.png","../images/pnk_blu.png","../images/gry_blk.png","../images/cyn_red.png","../images/blu_wht.png"],"mutagen_generator_assignment":[0,1],"goal":5,"start":4,"action_noise":0.2,"location_history":"[4,2,1,3,4,0,5]","action_history":"[0,0,0,1,0,0]","mutagen_history":"[0,0,0,1,0,0]","location_rts":"[1431,179,519,353,156,406]","trial_type":"fractal-mutation","trial_index":180,"time_elapsed":2305476,"internal_node_id":"0.0-5.0-76.0"},{"group":"hexagon_tri","fractal_assignment":["../images/org_blu.png","../images/ylw_slt.png","../images/pnk_blu.png","../images/gry_blk.png","../images/cyn_red.png","../images/blu_wht.png"],"mutagen_generator_assignment":[0,1],"goal":2,"start":5,"action_noise":0.2,"location_history":"[5,4,2]","action_history":"[0,1]","mutagen_history":"[0,1]","location_rts":"[4513,615]","trial_type":"fractal-mutation","trial_index":181,"time_elapsed":2316231,"internal_node_id":"0.0-5.0-77.0"},{"group":"hexagon_tri","fractal_assignment":["../images/org_blu.png","../images/ylw_slt.png","../images/pnk_blu.png","../images/gry_blk.png","../images/cyn_red.png","../images/blu_wht.png"],"mutagen_generator_assignment":[0,1],"goal":3,"start":2,"action_noise":0.2,"location_history":"[2,3]","action_history":"[1]","mutagen_history":"[1]","location_rts":"[4470]","trial_type":"fractal-mutation","trial_index":182,"time_elapsed":2325277,"internal_node_id":"0.0-5.0-78.0"},{"group":"hexagon_tri","fractal_assignment":["../images/org_blu.png","../images/ylw_slt.png","../images/pnk_blu.png","../images/gry_blk.png","../images/cyn_red.png","../images/blu_wht.png"],"mutagen_generator_assignment":[0,1],"goal":1,"start":3,"action_noise":0.2,"location_history":"[3,2,3,2,1]","action_history":"[0,0,0,0]","mutagen_history":"[0,0,0,0]","location_rts":"[1061,379,460,57]","trial_type":"fractal-mutation","trial_index":183,"time_elapsed":2335020,"internal_node_id":"0.0-5.0-79.0"},{"group":"hexagon_tri","fractal_assignment":["../images/org_blu.png","../images/ylw_slt.png","../images/pnk_blu.png","../images/gry_blk.png","../images/cyn_red.png","../images/blu_wht.png"],"mutagen_generator_assignment":[0,1],"goal":4,"start":1,"action_noise":0.2,"location_history":"[1,3,4]","action_history":"[0,1]","mutagen_history":"[0,1]","location_rts":"[1403,497]","trial_type":"fractal-mutation","trial_index":184,"time_elapsed":2342581,"internal_node_id":"0.0-5.0-80.0"},{"group":"hexagon_tri","fractal_assignment":["../images/org_blu.png","../images/ylw_slt.png","../images/pnk_blu.png","../images/gry_blk.png","../images/cyn_red.png","../images/blu_wht.png"],"mutagen_generator_assignment":[0,1],"goal":5,"start":4,"action_noise":0.2,"location_history":"[4,0,1,3,2,1,3,4,0,5]","action_history":"[0,0,0,0,0,0,1,0,0]","mutagen_history":"[0,0,0,0,0,0,1,0,0]","location_rts":"[942,64,657,634,715,215,242,165,118]","trial_type":"fractal-mutation","trial_index":185,"time_elapsed":2359473,"internal_node_id":"0.0-5.0-81.0"},{"group":"hexagon_tri","fractal_assignment":["../images/org_blu.png","../images/ylw_slt.png","../images/pnk_blu.png","../images/gry_blk.png","../images/cyn_red.png","../images/blu_wht.png"],"mutagen_generator_assignment":[0,1],"goal":0,"start":5,"action_noise":0.2,"location_history":"[5,4,0]","action_history":"[0,0]","mutagen_history":"[0,0]","location_rts":"[1120,215]","trial_type":"fractal-mutation","trial_index":186,"time_elapsed":2366449,"internal_node_id":"0.0-5.0-82.0"},{"group":"hexagon_tri","fractal_assignment":["../images/org_blu.png","../images/ylw_slt.png","../images/pnk_blu.png","../images/gry_blk.png","../images/cyn_red.png","../images/blu_wht.png"],"mutagen_generator_assignment":[0,1],"goal":2,"start":0,"action_noise":0.2,"location_history":"[0,1,3,4,2]","action_history":"[0,0,1,1]","mutagen_history":"[0,0,1,1]","location_rts":"[1500,1572,454,961]","trial_type":"fractal-mutation","trial_index":187,"time_elapsed":2378736,"internal_node_id":"0.0-5.0-83.0"},{"group":"hexagon_tri","fractal_assignment":["../images/org_blu.png","../images/ylw_slt.png","../images/pnk_blu.png","../images/gry_blk.png","../images/cyn_red.png","../images/blu_wht.png"],"mutagen_generator_assignment":[0,1],"goal":0,"start":2,"action_noise":0.2,"location_history":"[2,3,4,0]","action_history":"[1,1,0]","mutagen_history":"[1,1,0]","location_rts":"[1634,658,732]","trial_type":"fractal-mutation","trial_index":188,"time_elapsed":2388497,"internal_node_id":"0.0-5.0-84.0"},{"group":"hexagon_tri","fractal_assignment":["../images/org_blu.png","../images/ylw_slt.png","../images/pnk_blu.png","../images/gry_blk.png","../images/cyn_red.png","../images/blu_wht.png"],"mutagen_generator_assignment":[0,1],"goal":5,"start":0,"action_noise":0.2,"location_history":"[0,5]","action_history":"[0]","mutagen_history":"[0]","location_rts":"[960]","trial_type":"fractal-mutation","trial_index":189,"time_elapsed":2394047,"internal_node_id":"0.0-5.0-85.0"},{"group":"hexagon_tri","fractal_assignment":["../images/org_blu.png","../images/ylw_slt.png","../images/pnk_blu.png","../images/gry_blk.png","../images/cyn_red.png","../images/blu_wht.png"],"mutagen_generator_assignment":[0,1],"goal":1,"start":5,"action_noise":0.2,"location_history":"[5,0,5,0,5,4,2,1]","action_history":"[0,0,1,0,0,1,0]","mutagen_history":"[0,0,1,0,0,1,0]","location_rts":"[903,212,106,730,529,301,51]","trial_type":"fractal-mutation","trial_index":190,"time_elapsed":2407833,"internal_node_id":"0.0-5.0-86.0"},{"group":"hexagon_tri","fractal_assignment":["../images/org_blu.png","../images/ylw_slt.png","../images/pnk_blu.png","../images/gry_blk.png","../images/cyn_red.png","../images/blu_wht.png"],"mutagen_generator_assignment":[0,1],"goal":4,"start":1,"action_noise":0.2,"location_history":"[1,3,4]","action_history":"[0,1]","mutagen_history":"[0,1]","location_rts":"[1473,695]","trial_type":"fractal-mutation","trial_index":191,"time_elapsed":2415643,"internal_node_id":"0.0-5.0-87.0"},{"group":"hexagon_tri","fractal_assignment":["../images/org_blu.png","../images/ylw_slt.png","../images/pnk_blu.png","../images/gry_blk.png","../images/cyn_red.png","../images/blu_wht.png"],"mutagen_generator_assignment":[0,1],"goal":3,"start":4,"action_noise":0.2,"location_history":"[4,2,3]","action_history":"[1,0]","mutagen_history":"[1,0]","location_rts":"[2190,280]","trial_type":"fractal-mutation","trial_index":192,"time_elapsed":2423770,"internal_node_id":"0.0-5.0-88.0"},{"group":"hexagon_tri","fractal_assignment":["../images/org_blu.png","../images/ylw_slt.png","../images/pnk_blu.png","../images/gry_blk.png","../images/cyn_red.png","../images/blu_wht.png"],"mutagen_generator_assignment":[0,1],"goal":5,"start":3,"action_noise":0.2,"location_history":"[3,4,0,5]","action_history":"[1,0,0]","mutagen_history":"[1,0,0]","location_rts":"[3903,507,380]","trial_type":"fractal-mutation","trial_index":193,"time_elapsed":2435242,"internal_node_id":"0.0-5.0-89.0"},{"group":"hexagon_tri","fractal_assignment":["../images/org_blu.png","../images/ylw_slt.png","../images/pnk_blu.png","../images/gry_blk.png","../images/cyn_red.png","../images/blu_wht.png"],"mutagen_generator_assignment":[0,1],"goal":1,"start":5,"action_noise":0.2,"location_history":"[5,0,5,0,5,4,2,1]","action_history":"[0,0,1,0,0,1,0]","mutagen_history":"[0,0,1,0,0,1,0]","location_rts":"[1898,293,232,501,404,255,175]","trial_type":"fractal-mutation","trial_index":194,"time_elapsed":2449987,"internal_node_id":"0.0-5.0-90.0"},{"group":"hexagon_tri","fractal_assignment":["../images/org_blu.png","../images/ylw_slt.png","../images/pnk_blu.png","../images/gry_blk.png","../images/cyn_red.png","../images/blu_wht.png"],"mutagen_generator_assignment":[0,1],"goal":2,"start":1,"action_noise":0.2,"location_history":"[1,5,4,2]","action_history":"[0,0,1]","mutagen_history":"[0,0,1]","location_rts":"[1369,382,650]","trial_type":"fractal-mutation","trial_index":195,"time_elapsed":2459088,"internal_node_id":"0.0-5.0-91.0"},{"group":"hexagon_tri","fractal_assignment":["../images/org_blu.png","../images/ylw_slt.png","../images/pnk_blu.png","../images/gry_blk.png","../images/cyn_red.png","../images/blu_wht.png"],"mutagen_generator_assignment":[0,1],"goal":4,"start":2,"action_noise":0.2,"location_history":"[2,3,4]","action_history":"[1,1]","mutagen_history":"[1,1]","location_rts":"[1208,770]","trial_type":"fractal-mutation","trial_index":196,"time_elapsed":2466703,"internal_node_id":"0.0-5.0-92.0"},{"group":"hexagon_tri","fractal_assignment":["../images/org_blu.png","../images/ylw_slt.png","../images/pnk_blu.png","../images/gry_blk.png","../images/cyn_red.png","../images/blu_wht.png"],"mutagen_generator_assignment":[0,1],"goal":0,"start":4,"action_noise":0.2,"location_history":"[4,0]","action_history":"[0]","mutagen_history":"[0]","location_rts":"[1372]","trial_type":"fractal-mutation","trial_index":197,"time_elapsed":2472656,"internal_node_id":"0.0-5.0-93.0"},{"group":"hexagon_tri","fractal_assignment":["../images/org_blu.png","../images/ylw_slt.png","../images/pnk_blu.png","../images/gry_blk.png","../images/cyn_red.png","../images/blu_wht.png"],"mutagen_generator_assignment":[0,1],"goal":3,"start":0,"action_noise":0.2,"location_history":"[0,5,4,0,1,5,4,2,1,3]","action_history":"[0,0,1,1,0,0,1,0,0]","mutagen_history":"[0,0,1,1,0,0,1,0,0]","location_rts":"[1886,1449,329,338,1030,953,865,607,385]","trial_type":"fractal-mutation","trial_index":198,"time_elapsed":2493610,"internal_node_id":"0.0-5.0-94.0"},{"group":"hexagon_tri","fractal_assignment":["../images/org_blu.png","../images/ylw_slt.png","../images/pnk_blu.png","../images/gry_blk.png","../images/cyn_red.png","../images/blu_wht.png"],"mutagen_generator_assignment":[0,1],"goal":0,"start":3,"action_noise":0.2,"location_history":"[3,2,1,5,4,0]","action_history":"[0,0,0,0,0]","mutagen_history":"[0,0,0,0,0]","location_rts":"[1607,599,602,602,1138]","trial_type":"fractal-mutation","trial_index":199,"time_elapsed":2507003,"internal_node_id":"0.0-5.0-95.0"},{"group":"hexagon_tri","fractal_assignment":["../images/org_blu.png","../images/ylw_slt.png","../images/pnk_blu.png","../images/gry_blk.png","../images/cyn_red.png","../images/blu_wht.png"],"mutagen_generator_assignment":[0,1],"goal":4,"start":0,"action_noise":0.2,"location_history":"[0,1,3,2,3,4]","action_history":"[0,0,1,1,1]","mutagen_history":"[0,0,1,1,1]","location_rts":"[1049,86,907,1454,298]","trial_type":"fractal-mutation","trial_index":200,"time_elapsed":2519643,"internal_node_id":"0.0-5.0-96.0"},{"group":"hexagon_tri","fractal_assignment":["../images/org_blu.png","../images/ylw_slt.png","../images/pnk_blu.png","../images/gry_blk.png","../images/cyn_red.png","../images/blu_wht.png"],"mutagen_generator_assignment":[0,1],"goal":5,"start":4,"action_noise":0.2,"location_history":"[4,0,5]","action_history":"[0,0]","mutagen_history":"[0,0]","location_rts":"[983,107]","trial_type":"fractal-mutation","trial_index":201,"time_elapsed":2526376,"internal_node_id":"0.0-5.0-97.0"},{"group":"hexagon_tri","fractal_assignment":["../images/org_blu.png","../images/ylw_slt.png","../images/pnk_blu.png","../images/gry_blk.png","../images/cyn_red.png","../images/blu_wht.png"],"mutagen_generator_assignment":[0,1],"goal":2,"start":5,"action_noise":0.2,"location_history":"[5,4,2]","action_history":"[0,1]","mutagen_history":"[0,1]","location_rts":"[1872,799]","trial_type":"fractal-mutation","trial_index":202,"time_elapsed":2534698,"internal_node_id":"0.0-5.0-98.0"},{"group":"hexagon_tri","fractal_assignment":["../images/org_blu.png","../images/ylw_slt.png","../images/pnk_blu.png","../images/gry_blk.png","../images/cyn_red.png","../images/blu_wht.png"],"mutagen_generator_assignment":[0,1],"goal":1,"start":2,"action_noise":0.2,"location_history":"[2,1]","action_history":"[0]","mutagen_history":"[0]","location_rts":"[1825]","trial_type":"fractal-mutation","trial_index":203,"time_elapsed":2541110,"internal_node_id":"0.0-5.0-99.0"},{"view_history":"[{\"page_index\":0,\"viewing_time\":2239}]","rt":2239,"trial_type":"instructions","trial_index":204,"time_elapsed":2544353,"internal_node_id":"0.0-6.0"},{"rt":19264,"responses":"{\"Q0\":\"How well people memorize likelihoods of patterns\"}","trial_type":"survey-text","trial_index":205,"time_elapsed":2564625,"internal_node_id":"0.0-7.0-0.0"},{"rt":13925,"responses":"{\"Q0\":\"How well people memorize likelihoods of patterns\"}","trial_type":"survey-text","trial_index":206,"time_elapsed":2579551,"internal_node_id":"0.0-7.0-1.0"},{"rt":31181,"responses":"{\"Q0\":\"<img src='../images/diagrams/hexagon_tri.png'>\"}","trial_type":"survey-multi-choice","trial_index":207,"time_elapsed":2611740,"internal_node_id":"0.0-7.0-2.0"},{"rt":66486,"assignments":["../images/org_blu.png","../images/ylw_slt.png","../images/pnk_blu.png","../images/gry_blk.png","../images/cyn_red.png","../images/blu_wht.png"],"trial_type":"drag-drop-on-image","trial_index":208,"time_elapsed":2679229,"internal_node_id":"0.0-7.0-3.0"},{"rt":4227,"responses":"{\"Q0\":\"3\"}","trial_type":"survey-likert","trial_index":209,"time_elapsed":2684464,"internal_node_id":"0.0-7.0-4.0"},{"rt":40169,"responses":"{\"Q0\":\"Both had similarly predictable patterns where one likelihood was more common than the random occurrences \"}","trial_type":"survey-text","trial_index":210,"time_elapsed":2725638,"internal_node_id":"0.0-7.0-5.0"},{"rt":7980,"responses":"{\"Q0\":\"Yes\"}","trial_type":"survey-multi-choice","trial_index":211,"time_elapsed":2734622,"internal_node_id":"0.0-7.0-6.0"},{"rt":8990,"responses":"{\"Q0\":\"During session 1\"}","trial_type":"survey-multi-choice","trial_index":212,"time_elapsed":2744621,"internal_node_id":"0.0-7.0-7.0"},{"rt":24715,"responses":"{\"Q0\":\"Again, both had predictable [more likely] patterns.\"}","trial_type":"survey-text","trial_index":213,"time_elapsed":2770344,"internal_node_id":"0.0-7.0-8.0"},{"rt":4455,"responses":"{\"Q0\":\"1\"}","trial_type":"survey-likert","trial_index":214,"time_elapsed":2775806,"internal_node_id":"0.0-7.0-9.0"},{"rt":6439,"responses":"{\"Q0\":\"Same structure\"}","trial_type":"survey-multi-choice","trial_index":215,"time_elapsed":2783249,"internal_node_id":"0.0-7.0-10.0"},{"rt":19035,"responses":"{\"Q0\":\"left (black) door = acid, right (white) door = ray\",\"Q1\":\"Slightly confident\"}","trial_type":"survey-multi-choice","trial_index":216,"time_elapsed":2803292,"internal_node_id":"0.0-7.0-11.0"},{"rt":7951,"responses":"{\"Q0\":\"25-35\",\"Q1\":\"Bachelor's degree\",\"Q2\":\"Male\",\"Q3\":\"White\"}","trial_type":"survey-multi-choice","trial_index":217,"time_elapsed":2812255,"internal_node_id":"0.0-8.0"},{"rt":3010,"responses":"{\"Q0\":\"\"}","trial_type":"survey-text","trial_index":218,"time_elapsed":2816268,"internal_node_id":"0.0-9.0"}]