[{"view_history":"[{\"page_index\":0,\"viewing_time\":965884},{\"page_index\":1,\"viewing_time\":6667}]","rt":972552,"trial_type":"instructions","trial_index":0,"time_elapsed":972553,"internal_node_id":"0.0-0.0"},{"view_history":"[{\"page_index\":0,\"viewing_time\":5452},{\"page_index\":1,\"viewing_time\":7215}]","rt":12667,"trial_type":"instructions","trial_index":1,"time_elapsed":986222,"internal_node_id":"0.0-1.0"},{"group":"hexagon_tri","room_assignment":["green","grey","purple","blue","yellow","red"],"door_color_assignment":["black","white"],"door_generator_assignment":[1,0],"goal":2,"start":1,"action_noise":0.2,"location_history":"[1,5,4,0,1,5,4,2]","action_history":"[1,1,0,1,1,0,0]","door_history":"[0,0,1,0,0,1,1]","location_rts":"[2734,38493,1149,1587,756,1368,716]","trial_type":"two-door-navigation","trial_index":2,"time_elapsed":1043739,"internal_node_id":"0.0-2.0-0.0"},{"group":"hexagon_tri","room_assignment":["green","grey","purple","blue","yellow","red"],"door_color_assignment":["black","white"],"door_generator_assignment":[1,0],"goal":0,"start":2,"action_noise":0.2,"location_history":"[2,1,3,4,0]","action_history":"[0,0,1,0]","door_history":"[1,1,0,1]","location_rts":"[2365,888,1435,1260]","trial_type":"two-door-navigation","trial_index":3,"time_elapsed":1057277,"internal_node_id":"0.0-2.0-1.0"},{"group":"hexagon_tri","room_assignment":["green","grey","purple","blue","yellow","red"],"door_color_assignment":["black","white"],"door_generator_assignment":[1,0],"goal":5,"start":0,"action_noise":0.2,"location_history":"[0,1,5]","action_history":"[0,1]","door_history":"[1,0]","location_rts":"[2876,1547]","trial_type":"two-door-navigation","trial_index":4,"time_elapsed":1067240,"internal_node_id":"0.0-2.0-2.0"},{"group":"hexagon_tri","room_assignment":["green","grey","purple","blue","yellow","red"],"door_color_assignment":["black","white"],"door_generator_assignment":[1,0],"goal":3,"start":5,"action_noise":0.2,"location_history":"[5,0,5,4,0,5,4,0,5,4,0,1,5,0,5,0,5,4,0,5,0,1,3]","action_history":"[1,0,0,0,1,0,1,1,0,0,0,0,1,1,1,0,0,0,1,1,1,0]","door_history":"[0,1,1,1,0,1,0,0,1,1,1,1,0,0,0,1,1,1,0,0,0,1]","location_rts":"[2972,1290,766,869,1068,1207,1563,820,1391,524,625,512,1594,712,611,1019,519,547,1491,650,683,956]","trial_type":"two-door-navigation","trial_index":5,"time_elapsed":1115587,"internal_node_id":"0.0-2.0-3.0"},{"group":"hexagon_tri","room_assignment":["green","grey","purple","blue","yellow","red"],"door_color_assignment":["black","white"],"door_generator_assignment":[1,0],"goal":4,"start":3,"action_noise":0.2,"location_history":"[3,2,3,2,3,2,3,2,3,4]","action_history":"[0,1,0,0,0,1,1,1,1]","door_history":"[1,0,1,1,1,0,0,0,0]","location_rts":"[2375,1496,1112,690,16916,1431,1331,1237,1122]","trial_type":"two-door-navigation","trial_index":6,"time_elapsed":1155992,"internal_node_id":"0.0-2.0-4.0"},{"group":"hexagon_tri","room_assignment":["green","grey","purple","blue","yellow","red"],"door_color_assignment":["black","white"],"door_generator_assignment":[1,0],"goal":0,"start":4,"action_noise":0.2,"location_history":"[4,0]","action_history":"[0]","door_history":"[1]","location_rts":"[2003]","trial_type":"two-door-navigation","trial_index":7,"time_elapsed":1162514,"internal_node_id":"0.0-2.0-5.0"},{"group":"hexagon_tri","room_assignment":["green","grey","purple","blue","yellow","red"],"door_color_assignment":["black","white"],"door_generator_assignment":[1,0],"goal":4,"start":0,"action_noise":0.2,"location_history":"[0,5,4]","action_history":"[0,0]","door_history":"[1,1]","location_rts":"[1094,720]","trial_type":"two-door-navigation","trial_index":8,"time_elapsed":1169878,"internal_node_id":"0.0-2.0-6.0"},{"group":"hexagon_tri","room_assignment":["green","grey","purple","blue","yellow","red"],"door_color_assignment":["black","white"],"door_generator_assignment":[1,0],"goal":3,"start":4,"action_noise":0.2,"location_history":"[4,0,1,5,0,5,4,0,1,3]","action_history":"[0,1,1,1,0,1,0,1,1]","door_history":"[1,0,0,0,1,0,1,0,0]","location_rts":"[1204,1538,1002,973,992,1302,1177,948,877]","trial_type":"two-door-navigation","trial_index":9,"time_elapsed":1192583,"internal_node_id":"0.0-2.0-7.0"},{"group":"hexagon_tri","room_assignment":["green","grey","purple","blue","yellow","red"],"door_color_assignment":["black","white"],"door_generator_assignment":[1,0],"goal":2,"start":3,"action_noise":0.2,"location_history":"[3,2]","action_history":"[1]","door_history":"[0]","location_rts":"[5146]","trial_type":"two-door-navigation","trial_index":10,"time_elapsed":1202254,"internal_node_id":"0.0-2.0-8.0"},{"group":"hexagon_tri","room_assignment":["green","grey","purple","blue","yellow","red"],"door_color_assignment":["black","white"],"door_generator_assignment":[1,0],"goal":1,"start":2,"action_noise":0.2,"location_history":"[2,1]","action_history":"[0]","door_history":"[1]","location_rts":"[5046]","trial_type":"two-door-navigation","trial_index":11,"time_elapsed":1211826,"internal_node_id":"0.0-2.0-9.0"},{"group":"hexagon_tri","room_assignment":["green","grey","purple","blue","yellow","red"],"door_color_assignment":["black","white"],"door_generator_assignment":[1,0],"goal":5,"start":1,"action_noise":0.2,"location_history":"[1,3,2,1,3,4,2,3,4,2,1,5]","action_history":"[0,1,0,0,1,0,0,1,1,0,0]","door_history":"[1,0,1,1,0,1,1,0,0,1,1]","location_rts":"[3165,1664,2730,699,1527,1974,1685,1697,2119,1395,919]","trial_type":"two-door-navigation","trial_index":12,"time_elapsed":1246133,"internal_node_id":"0.0-2.0-10.0"},{"group":"hexagon_tri","room_assignment":["green","grey","purple","blue","yellow","red"],"door_color_assignment":["black","white"],"door_generator_assignment":[1,0],"goal":0,"start":5,"action_noise":0.2,"location_history":"[5,0]","action_history":"[0]","door_history":"[1]","location_rts":"[2779]","trial_type":"two-door-navigation","trial_index":13,"time_elapsed":1253439,"internal_node_id":"0.0-2.0-11.0"},{"group":"hexagon_tri","room_assignment":["green","grey","purple","blue","yellow","red"],"door_color_assignment":["black","white"],"door_generator_assignment":[1,0],"goal":4,"start":0,"action_noise":0.2,"location_history":"[0,5,4]","action_history":"[0,0]","door_history":"[1,1]","location_rts":"[1270,2046]","trial_type":"two-door-navigation","trial_index":14,"time_elapsed":1262296,"internal_node_id":"0.0-2.0-12.0"},{"group":"hexagon_tri","room_assignment":["green","grey","purple","blue","yellow","red"],"door_color_assignment":["black","white"],"door_generator_assignment":[1,0],"goal":2,"start":4,"action_noise":0.2,"location_history":"[4,2]","action_history":"[1]","door_history":"[0]","location_rts":"[3870]","trial_type":"two-door-navigation","trial_index":15,"time_elapsed":1270684,"internal_node_id":"0.0-2.0-13.0"},{"group":"hexagon_tri","room_assignment":["green","grey","purple","blue","yellow","red"],"door_color_assignment":["black","white"],"door_generator_assignment":[1,0],"goal":1,"start":2,"action_noise":0.2,"location_history":"[2,3,2,3,4,2,3,2,3,4,0,5,4,2,3,4,0,5,0,1]","action_history":"[1,0,1,1,1,1,0,1,1,0,1,0,1,1,1,1,0,0,1]","door_history":"[0,1,0,0,0,0,1,0,0,1,0,1,0,0,0,0,1,1,0]","location_rts":"[3036,1290,1551,542,782,59394,952,1684,29251,852,998,1128,4001,8430,680,3645,777,592,969]","trial_type":"two-door-navigation","trial_index":16,"time_elapsed":1414125,"internal_node_id":"0.0-2.0-14.0"},{"group":"hexagon_tri","room_assignment":["green","grey","purple","blue","yellow","red"],"door_color_assignment":["black","white"],"door_generator_assignment":[1,0],"goal":3,"start":1,"action_noise":0.2,"location_history":"[1,3]","action_history":"[0]","door_history":"[1]","location_rts":"[2462]","trial_type":"two-door-navigation","trial_index":17,"time_elapsed":1421109,"internal_node_id":"0.0-2.0-15.0"},{"group":"hexagon_tri","room_assignment":["green","grey","purple","blue","yellow","red"],"door_color_assignment":["black","white"],"door_generator_assignment":[1,0],"goal":5,"start":3,"action_noise":0.2,"location_history":"[3,2,3,4,0,5]","action_history":"[0,1,1,0,0]","door_history":"[1,0,0,1,1]","location_rts":"[12313,2180,727,1591,498]","trial_type":"two-door-navigation","trial_index":18,"time_elapsed":1447034,"internal_node_id":"0.0-2.0-16.0"},{"group":"hexagon_tri","room_assignment":["green","grey","purple","blue","yellow","red"],"door_color_assignment":["black","white"],"door_generator_assignment":[1,0],"goal":0,"start":5,"action_noise":0.2,"location_history":"[5,4,0]","action_history":"[0,0]","door_history":"[1,1]","location_rts":"[9442,939]","trial_type":"two-door-navigation","trial_index":19,"time_elapsed":1462956,"internal_node_id":"0.0-2.0-17.0"},{"group":"hexagon_tri","room_assignment":["green","grey","purple","blue","yellow","red"],"door_color_assignment":["black","white"],"door_generator_assignment":[1,0],"goal":5,"start":0,"action_noise":0.2,"location_history":"[0,5]","action_history":"[0]","door_history":"[1]","location_rts":"[2071]","trial_type":"two-door-navigation","trial_index":20,"time_elapsed":1469544,"internal_node_id":"0.0-2.0-18.0"},{"group":"hexagon_tri","room_assignment":["green","grey","purple","blue","yellow","red"],"door_color_assignment":["black","white"],"door_generator_assignment":[1,0],"goal":3,"start":5,"action_noise":0.2,"location_history":"[5,4,0,1,3]","action_history":"[0,0,1,0]","door_history":"[1,1,0,1]","location_rts":"[1106,725,1480,1628]","trial_type":"two-door-navigation","trial_index":21,"time_elapsed":1482064,"internal_node_id":"0.0-2.0-19.0"},{"group":"hexagon_tri","room_assignment":["green","grey","purple","blue","yellow","red"],"door_color_assignment":["black","white"],"door_generator_assignment":[1,0],"goal":4,"start":3,"action_noise":0.2,"location_history":"[3,2,1,5,4]","action_history":"[0,0,1,0]","door_history":"[1,1,0,1]","location_rts":"[1498,1048,1215,1123]","trial_type":"two-door-navigation","trial_index":22,"time_elapsed":1494533,"internal_node_id":"0.0-2.0-20.0"},{"group":"hexagon_tri","room_assignment":["green","grey","purple","blue","yellow","red"],"door_color_assignment":["black","white"],"door_generator_assignment":[1,0],"goal":1,"start":4,"action_noise":0.2,"location_history":"[4,2,1]","action_history":"[1,0]","door_history":"[0,1]","location_rts":"[2919,1922]","trial_type":"two-door-navigation","trial_index":23,"time_elapsed":1504926,"internal_node_id":"0.0-2.0-21.0"},{"group":"hexagon_tri","room_assignment":["green","grey","purple","blue","yellow","red"],"door_color_assignment":["black","white"],"door_generator_assignment":[1,0],"goal":2,"start":1,"action_noise":0.2,"location_history":"[1,3,4,0,1,5,0,1,5,0,5,4,0,5,4,0,5,4,2]","action_history":"[0,1,1,1,0,1,1,1,0,0,0,0,1,0,1,0,1,1]","door_history":"[1,0,0,0,1,0,0,0,1,1,1,1,0,1,0,1,0,0]","location_rts":"[1399,1168,743,743,1303,941,704,627,1221,638,1238,776,1152,1311,1165,915,1150,884]","trial_type":"two-door-navigation","trial_index":24,"time_elapsed":1544885,"internal_node_id":"0.0-2.0-22.0"},{"group":"hexagon_tri","room_assignment":["green","grey","purple","blue","yellow","red"],"door_color_assignment":["black","white"],"door_generator_assignment":[1,0],"goal":3,"start":2,"action_noise":0.2,"location_history":"[2,1,5,4,2,1,5,4,0,1,3]","action_history":"[1,0,1,1,0,1,0,1,0,0]","door_history":"[0,1,0,0,1,0,1,0,1,1]","location_rts":"[1968,1171,1672,1398,1175,1156,1301,1137,1033,639]","trial_type":"two-door-navigation","trial_index":25,"time_elapsed":1571243,"internal_node_id":"0.0-2.0-23.0"},{"group":"hexagon_tri","room_assignment":["green","grey","purple","blue","yellow","red"],"door_color_assignment":["black","white"],"door_generator_assignment":[1,0],"goal":5,"start":3,"action_noise":0.2,"location_history":"[3,4,2,1,3,2,1,3,2,3,4,2,1,3,2,3,2,1,5]","action_history":"[0,0,0,1,0,0,0,1,1,1,1,0,0,0,1,0,0,0]","door_history":"[1,1,1,0,1,1,1,0,0,0,0,1,1,1,0,1,1,1]","location_rts":"[3583,1141,758,1188,1214,551,645,1329,725,632,936,918,751,642,2073,1099,1089,949]","trial_type":"two-door-navigation","trial_index":26,"time_elapsed":1613327,"internal_node_id":"0.0-2.0-24.0"},{"group":"hexagon_tri","room_assignment":["green","grey","purple","blue","yellow","red"],"door_color_assignment":["black","white"],"door_generator_assignment":[1,0],"goal":4,"start":5,"action_noise":0.2,"location_history":"[5,4]","action_history":"[0]","door_history":"[1]","location_rts":"[1954]","trial_type":"two-door-navigation","trial_index":27,"time_elapsed":1619811,"internal_node_id":"0.0-2.0-25.0"},{"group":"hexagon_tri","room_assignment":["green","grey","purple","blue","yellow","red"],"door_color_assignment":["black","white"],"door_generator_assignment":[1,0],"goal":0,"start":4,"action_noise":0.2,"location_history":"[4,0]","action_history":"[0]","door_history":"[1]","location_rts":"[2067]","trial_type":"two-door-navigation","trial_index":28,"time_elapsed":1626405,"internal_node_id":"0.0-2.0-26.0"},{"group":"hexagon_tri","room_assignment":["green","grey","purple","blue","yellow","red"],"door_color_assignment":["black","white"],"door_generator_assignment":[1,0],"goal":2,"start":0,"action_noise":0.2,"location_history":"[0,5,0,5,4,0,5,4,2]","action_history":"[1,1,0,0,0,0,1,1]","door_history":"[0,0,1,1,1,1,0,0]","location_rts":"[3041,1293,1151,663,620,590,1053,1159]","trial_type":"two-door-navigation","trial_index":29,"time_elapsed":1647629,"internal_node_id":"0.0-2.0-27.0"},{"group":"hexagon_tri","room_assignment":["green","grey","purple","blue","yellow","red"],"door_color_assignment":["black","white"],"door_generator_assignment":[1,0],"goal":1,"start":2,"action_noise":0.2,"location_history":"[2,3,2,3,4,2,1]","action_history":"[1,0,1,1,1,0]","door_history":"[0,1,0,0,0,1]","location_rts":"[1414,1313,1383,1078,1616,1062]","trial_type":"two-door-navigation","trial_index":30,"time_elapsed":1665125,"internal_node_id":"0.0-2.0-28.0"},{"group":"hexagon_tri","room_assignment":["green","grey","purple","blue","yellow","red"],"door_color_assignment":["black","white"],"door_generator_assignment":[1,0],"goal":0,"start":1,"action_noise":0.2,"location_history":"[1,5,0]","action_history":"[0,1]","door_history":"[1,0]","location_rts":"[1923,1424]","trial_type":"two-door-navigation","trial_index":31,"time_elapsed":1674008,"internal_node_id":"0.0-2.0-29.0"},{"group":"hexagon_tri","room_assignment":["green","grey","purple","blue","yellow","red"],"door_color_assignment":["black","white"],"door_generator_assignment":[1,0],"goal":2,"start":0,"action_noise":0.2,"location_history":"[0,5,0,5,4,0,5,0,5,4,0,5,4,2]","action_history":"[0,1,1,0,0,1,1,0,0,0,0,1,1]","door_history":"[1,0,0,1,1,0,0,1,1,1,1,0,0]","location_rts":"[2712,1311,1629,999,630,1170,567,1338,563,585,648,1137,507]","trial_type":"two-door-navigation","trial_index":32,"time_elapsed":1704559,"internal_node_id":"0.0-2.0-30.0"},{"group":"hexagon_tri","room_assignment":["green","grey","purple","blue","yellow","red"],"door_color_assignment":["black","white"],"door_generator_assignment":[1,0],"goal":4,"start":2,"action_noise":0.2,"location_history":"[2,3,2,1,3,4]","action_history":"[1,0,1,0,1]","door_history":"[0,1,0,1,0]","location_rts":"[2846,853,1412,1207,1232]","trial_type":"two-door-navigation","trial_index":33,"time_elapsed":1720722,"internal_node_id":"0.0-2.0-31.0"},{"group":"hexagon_tri","room_assignment":["green","grey","purple","blue","yellow","red"],"door_color_assignment":["black","white"],"door_generator_assignment":[1,0],"goal":1,"start":4,"action_noise":0.2,"location_history":"[4,2,3,2,3,4,2,3,2,3,2,1]","action_history":"[1,1,0,1,0,1,0,0,1,0,0]","door_history":"[0,0,1,0,1,0,1,1,0,1,1]","location_rts":"[4464,621,1038,1412,1053,1388,1312,756,1250,1155,593]","trial_type":"two-door-navigation","trial_index":34,"time_elapsed":1750514,"internal_node_id":"0.0-2.0-32.0"},{"group":"hexagon_tri","room_assignment":["green","grey","purple","blue","yellow","red"],"door_color_assignment":["black","white"],"door_generator_assignment":[1,0],"goal":3,"start":1,"action_noise":0.2,"location_history":"[1,3]","action_history":"[0]","door_history":"[1]","location_rts":"[1038]","trial_type":"two-door-navigation","trial_index":35,"time_elapsed":1756082,"internal_node_id":"0.0-2.0-33.0"},{"group":"hexagon_tri","room_assignment":["green","grey","purple","blue","yellow","red"],"door_color_assignment":["black","white"],"door_generator_assignment":[1,0],"goal":5,"start":3,"action_noise":0.2,"location_history":"[3,2,3,2,3,4,2,1,5]","action_history":"[0,1,0,0,1,1,0,1]","door_history":"[1,0,1,1,0,0,1,0]","location_rts":"[2016,1409,1102,772,1739,1145,1509,1336]","trial_type":"two-door-navigation","trial_index":36,"time_elapsed":1778760,"internal_node_id":"0.0-2.0-34.0"},{"group":"hexagon_tri","room_assignment":["green","grey","purple","blue","yellow","red"],"door_color_assignment":["black","white"],"door_generator_assignment":[1,0],"goal":2,"start":5,"action_noise":0.2,"location_history":"[5,0,1,3,2]","action_history":"[1,1,0,1]","door_history":"[0,0,1,0]","location_rts":"[909,805,1915,969]","trial_type":"two-door-navigation","trial_index":37,"time_elapsed":1790957,"internal_node_id":"0.0-2.0-35.0"},{"group":"hexagon_tri","room_assignment":["green","grey","purple","blue","yellow","red"],"door_color_assignment":["black","white"],"door_generator_assignment":[1,0],"goal":0,"start":2,"action_noise":0.2,"location_history":"[2,1,5,4,0]","action_history":"[1,0,0,0]","door_history":"[0,1,1,1]","location_rts":"[1022,1150,1696,604]","trial_type":"two-door-navigation","trial_index":38,"time_elapsed":1803011,"internal_node_id":"0.0-2.0-36.0"},{"group":"hexagon_tri","room_assignment":["green","grey","purple","blue","yellow","red"],"door_color_assignment":["black","white"],"door_generator_assignment":[1,0],"goal":4,"start":0,"action_noise":0.2,"location_history":"[0,1,5,4]","action_history":"[1,0,1]","door_history":"[0,1,0]","location_rts":"[3481,1855,1101]","trial_type":"two-door-navigation","trial_index":39,"time_elapsed":1816007,"internal_node_id":"0.0-2.0-37.0"},{"group":"hexagon_tri","room_assignment":["green","grey","purple","blue","yellow","red"],"door_color_assignment":["black","white"],"door_generator_assignment":[1,0],"goal":5,"start":4,"action_noise":0.2,"location_history":"[4,2,1,3,2,3,4,2,3,4,0,5]","action_history":"[1,0,0,0,1,1,0,0,1,0,0]","door_history":"[0,1,1,1,0,0,1,1,0,1,1]","location_rts":"[1172,1254,689,1289,1768,772,1792,620,1295,1347,459]","trial_type":"two-door-navigation","trial_index":40,"time_elapsed":1843199,"internal_node_id":"0.0-2.0-38.0"},{"group":"hexagon_tri","room_assignment":["green","grey","purple","blue","yellow","red"],"door_color_assignment":["black","white"],"door_generator_assignment":[1,0],"goal":1,"start":5,"action_noise":0.2,"location_history":"[5,0,5,0,5,0,1]","action_history":"[0,1,1,0,1,1]","door_history":"[1,0,0,1,0,0]","location_rts":"[1728,1681,778,1044,1213,544]","trial_type":"two-door-navigation","trial_index":41,"time_elapsed":1859825,"internal_node_id":"0.0-2.0-39.0"},{"group":"hexagon_tri","room_assignment":["green","grey","purple","blue","yellow","red"],"door_color_assignment":["black","white"],"door_generator_assignment":[1,0],"goal":3,"start":1,"action_noise":0.2,"location_history":"[1,5,4,0,1,5,0,1,3]","action_history":"[1,0,0,0,1,1,1,0]","door_history":"[0,1,1,1,0,0,0,1]","location_rts":"[1685,1209,746,825,1653,735,648,1991]","trial_type":"two-door-navigation","trial_index":42,"time_elapsed":1881014,"internal_node_id":"0.0-2.0-40.0"},{"group":"hexagon_tri","room_assignment":["green","grey","purple","blue","yellow","red"],"door_color_assignment":["black","white"],"door_generator_assignment":[1,0],"goal":1,"start":3,"action_noise":0.2,"location_history":"[3,4,2,1]","action_history":"[1,1,0]","door_history":"[0,0,1]","location_rts":"[1861,1565,1195]","trial_type":"two-door-navigation","trial_index":43,"time_elapsed":1892195,"internal_node_id":"0.0-2.0-41.0"},{"group":"hexagon_tri","room_assignment":["green","grey","purple","blue","yellow","red"],"door_color_assignment":["black","white"],"door_generator_assignment":[1,0],"goal":0,"start":1,"action_noise":0.2,"location_history":"[1,3,4,0]","action_history":"[0,1,0]","door_history":"[1,0,1]","location_rts":"[1037,1099,1532]","trial_type":"two-door-navigation","trial_index":44,"time_elapsed":1902434,"internal_node_id":"0.0-2.0-42.0"},{"group":"hexagon_tri","room_assignment":["green","grey","purple","blue","yellow","red"],"door_color_assignment":["black","white"],"door_generator_assignment":[1,0],"goal":4,"start":0,"action_noise":0.2,"location_history":"[0,5,4]","action_history":"[0,0]","door_history":"[1,1]","location_rts":"[1978,1623]","trial_type":"two-door-navigation","trial_index":45,"time_elapsed":1911579,"internal_node_id":"0.0-2.0-43.0"},{"group":"hexagon_tri","room_assignment":["green","grey","purple","blue","yellow","red"],"door_color_assignment":["black","white"],"door_generator_assignment":[1,0],"goal":2,"start":4,"action_noise":0.2,"location_history":"[4,2]","action_history":"[1]","door_history":"[0]","location_rts":"[2284]","trial_type":"two-door-navigation","trial_index":46,"time_elapsed":1918386,"internal_node_id":"0.0-2.0-44.0"},{"group":"hexagon_tri","room_assignment":["green","grey","purple","blue","yellow","red"],"door_color_assignment":["black","white"],"door_generator_assignment":[1,0],"goal":3,"start":2,"action_noise":0.2,"location_history":"[2,3]","action_history":"[1]","door_history":"[0]","location_rts":"[1521]","trial_type":"two-door-navigation","trial_index":47,"time_elapsed":1924431,"internal_node_id":"0.0-2.0-45.0"},{"group":"hexagon_tri","room_assignment":["green","grey","purple","blue","yellow","red"],"door_color_assignment":["black","white"],"door_generator_assignment":[1,0],"goal":5,"start":3,"action_noise":0.2,"location_history":"[3,2,3,2,1,3,2,3,2,3,2,3,2,1,5]","action_history":"[0,1,0,1,0,0,0,0,0,0,0,0,0,1]","door_history":"[1,0,1,0,1,1,1,1,1,1,1,1,1,0]","location_rts":"[2194,1849,1569,1282,1327,2434,789,784,612,556,465,504,460,1623]","trial_type":"two-door-navigation","trial_index":48,"time_elapsed":1958638,"internal_node_id":"0.0-2.0-46.0"},{"group":"hexagon_tri","room_assignment":["green","grey","purple","blue","yellow","red"],"door_color_assignment":["black","white"],"door_generator_assignment":[1,0],"goal":4,"start":5,"action_noise":0.2,"location_history":"[5,4]","action_history":"[0]","door_history":"[1]","location_rts":"[3868]","trial_type":"two-door-navigation","trial_index":49,"time_elapsed":1967030,"internal_node_id":"0.0-2.0-47.0"},{"group":"hexagon_tri","room_assignment":["green","grey","purple","blue","yellow","red"],"door_color_assignment":["black","white"],"door_generator_assignment":[1,0],"goal":3,"start":4,"action_noise":0.2,"location_history":"[4,2,3]","action_history":"[1,1]","door_history":"[0,0]","location_rts":"[2024,2180]","trial_type":"two-door-navigation","trial_index":50,"time_elapsed":1976773,"internal_node_id":"0.0-2.0-48.0"},{"group":"hexagon_tri","room_assignment":["green","grey","purple","blue","yellow","red"],"door_color_assignment":["black","white"],"door_generator_assignment":[1,0],"goal":1,"start":3,"action_noise":0.2,"location_history":"[3,2,3,2,3,4,2,1]","action_history":"[0,1,1,1,1,1,0]","door_history":"[1,0,0,0,0,0,1]","location_rts":"[2965,1144,522,681,433,809,1173]","trial_type":"two-door-navigation","trial_index":51,"time_elapsed":1995159,"internal_node_id":"0.0-2.0-49.0"},{"group":"hexagon_tri","room_assignment":["green","grey","purple","blue","yellow","red"],"door_color_assignment":["black","white"],"door_generator_assignment":[1,0],"goal":2,"start":1,"action_noise":0.2,"location_history":"[1,5,0,1,5,0,5,4,2]","action_history":"[1,1,1,0,0,0,0,1]","door_history":"[0,0,0,1,1,1,1,0]","location_rts":"[3399,2089,1428,1477,680,803,644,1443]","trial_type":"two-door-navigation","trial_index":52,"time_elapsed":2018799,"internal_node_id":"0.0-2.0-50.0"},{"group":"hexagon_tri","room_assignment":["green","grey","purple","blue","yellow","red"],"door_color_assignment":["black","white"],"door_generator_assignment":[1,0],"goal":0,"start":2,"action_noise":0.2,"location_history":"[2,3,4,0]","action_history":"[1,1,0]","door_history":"[0,0,1]","location_rts":"[3090,1725,1798]","trial_type":"two-door-navigation","trial_index":53,"time_elapsed":2031979,"internal_node_id":"0.0-2.0-51.0"},{"group":"hexagon_tri","room_assignment":["green","grey","purple","blue","yellow","red"],"door_color_assignment":["black","white"],"door_generator_assignment":[1,0],"goal":5,"start":0,"action_noise":0.2,"location_history":"[0,5]","action_history":"[0]","door_history":"[1]","location_rts":"[2628]","trial_type":"two-door-navigation","trial_index":54,"time_elapsed":2039136,"internal_node_id":"0.0-2.0-52.0"},{"group":"hexagon_tri","room_assignment":["green","grey","purple","blue","yellow","red"],"door_color_assignment":["black","white"],"door_generator_assignment":[1,0],"goal":1,"start":5,"action_noise":0.2,"location_history":"[5,0,1]","action_history":"[1,1]","door_history":"[0,0]","location_rts":"[2215,1031]","trial_type":"two-door-navigation","trial_index":55,"time_elapsed":2047934,"internal_node_id":"0.0-2.0-53.0"},{"group":"hexagon_tri","room_assignment":["green","grey","purple","blue","yellow","red"],"door_color_assignment":["black","white"],"door_generator_assignment":[1,0],"goal":3,"start":1,"action_noise":0.2,"location_history":"[1,3]","action_history":"[1]","door_history":"[0]","location_rts":"[2192]","trial_type":"two-door-navigation","trial_index":56,"time_elapsed":2054648,"internal_node_id":"0.0-2.0-54.0"},{"group":"hexagon_tri","room_assignment":["green","grey","purple","blue","yellow","red"],"door_color_assignment":["black","white"],"door_generator_assignment":[1,0],"goal":5,"start":3,"action_noise":0.2,"location_history":"[3,2,3,2,1,3,2,1,3,2,1,3,4,0,1,3,4,2,1,3,2,1,3,4,2,3,2,3,2,3,4,2,3,4,2,1,3,4,2,1,3,4,0,5]","action_history":"[1,0,0,0,0,0,0,0,0,1,1,1,0,0,0,1,1,0,1,0,0,0,1,0,0,0,0,0,1,1,1,1,1,1,0,0,1,1,0,1,0,0,0]","door_history":"[0,1,1,1,1,1,1,1,1,0,0,0,1,1,1,0,0,1,0,1,1,1,0,1,1,1,1,1,0,0,0,0,0,0,1,1,0,0,1,0,1,1,1]","location_rts":"[983,1151,643,555,526,540,439,471,434,943,898,579,1581,536,616,1618,1382,1006,1211,1619,648,543,1067,2480,1056,548,534,549,951,545,818,600,611,1951,968,1679,1622,825,1066,1036,995,727,788]","trial_type":"two-door-navigation","trial_index":57,"time_elapsed":2142384,"internal_node_id":"0.0-2.0-55.0"},{"group":"hexagon_tri","room_assignment":["green","grey","purple","blue","yellow","red"],"door_color_assignment":["black","white"],"door_generator_assignment":[1,0],"goal":4,"start":5,"action_noise":0.2,"location_history":"[5,4]","action_history":"[0]","door_history":"[1]","location_rts":"[2979]","trial_type":"two-door-navigation","trial_index":58,"time_elapsed":2149886,"internal_node_id":"0.0-2.0-56.0"},{"group":"hexagon_tri","room_assignment":["green","grey","purple","blue","yellow","red"],"door_color_assignment":["black","white"],"door_generator_assignment":[1,0],"goal":0,"start":4,"action_noise":0.2,"location_history":"[4,0]","action_history":"[0]","door_history":"[1]","location_rts":"[2798]","trial_type":"two-door-navigation","trial_index":59,"time_elapsed":2157222,"internal_node_id":"0.0-2.0-57.0"},{"group":"hexagon_tri","room_assignment":["green","grey","purple","blue","yellow","red"],"door_color_assignment":["black","white"],"door_generator_assignment":[1,0],"goal":2,"start":0,"action_noise":0.2,"location_history":"[0,1,5,0,1,3,4,0,1,5,4,2]","action_history":"[1,1,1,1,0,1,0,0,1,0,1]","door_history":"[0,0,0,0,1,0,1,1,0,1,0]","location_rts":"[2559,1001,778,1282,1821,1348,1666,523,3561,1441,1261]","trial_type":"two-door-navigation","trial_index":60,"time_elapsed":2189188,"internal_node_id":"0.0-2.0-58.0"},{"group":"hexagon_tri","room_assignment":["green","grey","purple","blue","yellow","red"],"door_color_assignment":["black","white"],"door_generator_assignment":[1,0],"goal":4,"start":2,"action_noise":0.2,"location_history":"[2,3,2,1,5,4]","action_history":"[1,0,0,1,0]","door_history":"[0,1,1,0,1]","location_rts":"[1647,1165,600,1685,1501]","trial_type":"two-door-navigation","trial_index":61,"time_elapsed":2204383,"internal_node_id":"0.0-2.0-59.0"},{"group":"hexagon_tri","room_assignment":["green","grey","purple","blue","yellow","red"],"door_color_assignment":["black","white"],"door_generator_assignment":[1,0],"goal":2,"start":4,"action_noise":0.2,"location_history":"[4,2]","action_history":"[1]","door_history":"[0]","location_rts":"[1904]","trial_type":"two-door-navigation","trial_index":62,"time_elapsed":2210807,"internal_node_id":"0.0-2.0-60.0"},{"group":"hexagon_tri","room_assignment":["green","grey","purple","blue","yellow","red"],"door_color_assignment":["black","white"],"door_generator_assignment":[1,0],"goal":3,"start":2,"action_noise":0.2,"location_history":"[2,1,5,0,1,3]","action_history":"[0,1,1,1,0]","door_history":"[1,0,0,0,1]","location_rts":"[2177,1404,963,740,1299]","trial_type":"two-door-navigation","trial_index":63,"time_elapsed":2225987,"internal_node_id":"0.0-2.0-61.0"},{"group":"hexagon_tri","room_assignment":["green","grey","purple","blue","yellow","red"],"door_color_assignment":["black","white"],"door_generator_assignment":[1,0],"goal":0,"start":3,"action_noise":0.2,"location_history":"[3,2,3,4,0]","action_history":"[1,1,1,0]","door_history":"[0,0,0,1]","location_rts":"[1664,599,597,1346]","trial_type":"two-door-navigation","trial_index":64,"time_elapsed":2237801,"internal_node_id":"0.0-2.0-62.0"},{"group":"hexagon_tri","room_assignment":["green","grey","purple","blue","yellow","red"],"door_color_assignment":["black","white"],"door_generator_assignment":[1,0],"goal":5,"start":0,"action_noise":0.2,"location_history":"[0,1,3,2,3,4,0,5]","action_history":"[1,0,0,1,1,0,0]","door_history":"[0,1,1,0,0,1,1]","location_rts":"[1762,1144,659,1340,493,1303,500]","trial_type":"two-door-navigation","trial_index":65,"time_elapsed":2255641,"internal_node_id":"0.0-2.0-63.0"},{"group":"hexagon_tri","room_assignment":["green","grey","purple","blue","yellow","red"],"door_color_assignment":["black","white"],"door_generator_assignment":[1,0],"goal":1,"start":5,"action_noise":0.2,"location_history":"[5,0,5,4,2,3,2,3,4,2,3,2,3,2,3,4,0,1]","action_history":"[1,1,0,1,1,0,1,1,1,0,0,1,0,1,1,1,1]","door_history":"[0,0,1,0,0,1,0,0,0,1,1,0,1,0,0,0,0]","location_rts":"[2628,893,1305,1642,612,1231,1127,993,980,1168,637,1300,1070,1085,561,740,598]","trial_type":"two-door-navigation","trial_index":66,"time_elapsed":2295066,"internal_node_id":"0.0-2.0-64.0"},{"group":"hexagon_tri","room_assignment":["green","grey","purple","blue","yellow","red"],"door_color_assignment":["black","white"],"door_generator_assignment":[1,0],"goal":5,"start":1,"action_noise":0.2,"location_history":"[1,3,2,3,2,3,2,3,4,0,5]","action_history":"[0,0,0,0,0,1,1,0,0,0]","door_history":"[1,1,1,1,1,0,0,1,1,1]","location_rts":"[2388,1237,719,807,511,1156,533,1382,1403,526]","trial_type":"two-door-navigation","trial_index":67,"time_elapsed":2319432,"internal_node_id":"0.0-2.0-65.0"},{"group":"hexagon_tri","room_assignment":["green","grey","purple","blue","yellow","red"],"door_color_assignment":["black","white"],"door_generator_assignment":[1,0],"goal":3,"start":5,"action_noise":0.2,"location_history":"[5,4,0,1,3]","action_history":"[0,1,1,1]","door_history":"[1,0,0,0]","location_rts":"[1699,1726,667,799]","trial_type":"two-door-navigation","trial_index":68,"time_elapsed":2331905,"internal_node_id":"0.0-2.0-66.0"},{"group":"hexagon_tri","room_assignment":["green","grey","purple","blue","yellow","red"],"door_color_assignment":["black","white"],"door_generator_assignment":[1,0],"goal":2,"start":3,"action_noise":0.2,"location_history":"[3,4,2]","action_history":"[1,1]","door_history":"[0,0]","location_rts":"[2731,1075]","trial_type":"two-door-navigation","trial_index":69,"time_elapsed":2341264,"internal_node_id":"0.0-2.0-67.0"},{"group":"hexagon_tri","room_assignment":["green","grey","purple","blue","yellow","red"],"door_color_assignment":["black","white"],"door_generator_assignment":[1,0],"goal":1,"start":2,"action_noise":0.2,"location_history":"[2,3,4,0,5,4,0,5,0,1]","action_history":"[1,1,0,0,0,1,0,1,1]","door_history":"[0,0,1,1,1,0,1,0,0]","location_rts":"[2646,1661,1804,745,639,1113,996,1298,621]","trial_type":"two-door-navigation","trial_index":70,"time_elapsed":2365468,"internal_node_id":"0.0-2.0-68.0"},{"group":"hexagon_tri","room_assignment":["green","grey","purple","blue","yellow","red"],"door_color_assignment":["black","white"],"door_generator_assignment":[1,0],"goal":4,"start":1,"action_noise":0.2,"location_history":"[1,3,4]","action_history":"[0,1]","door_history":"[1,0]","location_rts":"[2431,1156]","trial_type":"two-door-navigation","trial_index":71,"time_elapsed":2374598,"internal_node_id":"0.0-2.0-69.0"},{"group":"hexagon_tri","room_assignment":["green","grey","purple","blue","yellow","red"],"door_color_assignment":["black","white"],"door_generator_assignment":[1,0],"goal":0,"start":4,"action_noise":0.2,"location_history":"[4,0]","action_history":"[0]","door_history":"[1]","location_rts":"[2232]","trial_type":"two-door-navigation","trial_index":72,"time_elapsed":2381353,"internal_node_id":"0.0-2.0-70.0"},{"group":"hexagon_tri","room_assignment":["green","grey","purple","blue","yellow","red"],"door_color_assignment":["black","white"],"door_generator_assignment":[1,0],"goal":3,"start":0,"action_noise":0.2,"location_history":"[0,1,5,0,1,5,4,0,5,4,2,3]","action_history":"[1,0,1,1,1,1,0,0,1,1,1]","door_history":"[0,1,0,0,0,0,1,1,0,0,0]","location_rts":"[1982,2978,1834,917,950,1148,1324,1501,1140,611,2022]","trial_type":"two-door-navigation","trial_index":73,"time_elapsed":2412513,"internal_node_id":"0.0-2.0-71.0"},{"group":"hexagon_tri","room_assignment":["green","grey","purple","blue","yellow","red"],"door_color_assignment":["black","white"],"door_generator_assignment":[1,0],"goal":1,"start":3,"action_noise":0.2,"location_history":"[3,2,1]","action_history":"[1,0]","door_history":"[0,1]","location_rts":"[4548,1416]","trial_type":"two-door-navigation","trial_index":74,"time_elapsed":2424018,"internal_node_id":"0.0-2.0-72.0"},{"group":"hexagon_tri","room_assignment":["green","grey","purple","blue","yellow","red"],"door_color_assignment":["black","white"],"door_generator_assignment":[1,0],"goal":0,"start":1,"action_noise":0.2,"location_history":"[1,3,4,2,1,5,0]","action_history":"[0,1,0,0,1,0]","door_history":"[1,0,1,1,0,1]","location_rts":"[1820,1653,1245,1589,1470,1313]","trial_type":"two-door-navigation","trial_index":75,"time_elapsed":2442727,"internal_node_id":"0.0-2.0-73.0"},{"group":"hexagon_tri","room_assignment":["green","grey","purple","blue","yellow","red"],"door_color_assignment":["black","white"],"door_generator_assignment":[1,0],"goal":2,"start":0,"action_noise":0.2,"location_history":"[0,1,3,2]","action_history":"[0,0,0]","door_history":"[1,1,1]","location_rts":"[664,681,641]","trial_type":"two-door-navigation","trial_index":76,"time_elapsed":2451276,"internal_node_id":"0.0-2.0-74.0"},{"group":"hexagon_tri","room_assignment":["green","grey","purple","blue","yellow","red"],"door_color_assignment":["black","white"],"door_generator_assignment":[1,0],"goal":4,"start":2,"action_noise":0.2,"location_history":"[2,3,2,1,5,4]","action_history":"[1,0,1,0,0]","door_history":"[0,1,0,1,1]","location_rts":"[3215,1227,1000,1727,1371]","trial_type":"two-door-navigation","trial_index":77,"time_elapsed":2468408,"internal_node_id":"0.0-2.0-75.0"},{"group":"hexagon_tri","room_assignment":["green","grey","purple","blue","yellow","red"],"door_color_assignment":["black","white"],"door_generator_assignment":[1,0],"goal":5,"start":4,"action_noise":0.2,"location_history":"[4,0,5]","action_history":"[0,0]","door_history":"[1,1]","location_rts":"[1911,685]","trial_type":"two-door-navigation","trial_index":78,"time_elapsed":2476551,"internal_node_id":"0.0-2.0-76.0"},{"group":"hexagon_tri","room_assignment":["green","grey","purple","blue","yellow","red"],"door_color_assignment":["black","white"],"door_generator_assignment":[1,0],"goal":2,"start":5,"action_noise":0.2,"location_history":"[5,4,2]","action_history":"[1,1]","door_history":"[0,0]","location_rts":"[1761,848]","trial_type":"two-door-navigation","trial_index":79,"time_elapsed":2484701,"internal_node_id":"0.0-2.0-77.0"},{"group":"hexagon_tri","room_assignment":["green","grey","purple","blue","yellow","red"],"door_color_assignment":["black","white"],"door_generator_assignment":[1,0],"goal":3,"start":2,"action_noise":0.2,"location_history":"[2,1,3]","action_history":"[1,0]","door_history":"[0,1]","location_rts":"[1223,1151]","trial_type":"two-door-navigation","trial_index":80,"time_elapsed":2492617,"internal_node_id":"0.0-2.0-78.0"},{"group":"hexagon_tri","room_assignment":["green","grey","purple","blue","yellow","red"],"door_color_assignment":["black","white"],"door_generator_assignment":[1,0],"goal":1,"start":3,"action_noise":0.2,"location_history":"[3,4,2,1]","action_history":"[1,1,0]","door_history":"[0,0,1]","location_rts":"[3211,1890,1509]","trial_type":"two-door-navigation","trial_index":81,"time_elapsed":2505782,"internal_node_id":"0.0-2.0-79.0"},{"group":"hexagon_tri","room_assignment":["green","grey","purple","blue","yellow","red"],"door_color_assignment":["black","white"],"door_generator_assignment":[1,0],"goal":4,"start":1,"action_noise":0.2,"location_history":"[1,5,4]","action_history":"[0,0]","door_history":"[1,1]","location_rts":"[1952,1418]","trial_type":"two-door-navigation","trial_index":82,"time_elapsed":2514692,"internal_node_id":"0.0-2.0-80.0"},{"group":"hexagon_tri","room_assignment":["green","grey","purple","blue","yellow","red"],"door_color_assignment":["black","white"],"door_generator_assignment":[1,0],"goal":5,"start":4,"action_noise":0.2,"location_history":"[4,0,5]","action_history":"[0,0]","door_history":"[1,1]","location_rts":"[1327,773]","trial_type":"two-door-navigation","trial_index":83,"time_elapsed":2522336,"internal_node_id":"0.0-2.0-81.0"},{"group":"hexagon_tri","room_assignment":["green","grey","purple","blue","yellow","red"],"door_color_assignment":["black","white"],"door_generator_assignment":[1,0],"goal":0,"start":5,"action_noise":0.2,"location_history":"[5,0]","action_history":"[0]","door_history":"[1]","location_rts":"[1164]","trial_type":"two-door-navigation","trial_index":84,"time_elapsed":2528023,"internal_node_id":"0.0-2.0-82.0"},{"group":"hexagon_tri","room_assignment":["green","grey","purple","blue","yellow","red"],"door_color_assignment":["black","white"],"door_generator_assignment":[1,0],"goal":2,"start":0,"action_noise":0.2,"location_history":"[0,1,5,4,2]","action_history":"[1,1,0,1]","door_history":"[0,0,1,0]","location_rts":"[1923,1765,1594,1379]","trial_type":"two-door-navigation","trial_index":85,"time_elapsed":2542263,"internal_node_id":"0.0-2.0-83.0"},{"group":"hexagon_tri","room_assignment":["green","grey","purple","blue","yellow","red"],"door_color_assignment":["black","white"],"door_generator_assignment":[1,0],"goal":0,"start":2,"action_noise":0.2,"location_history":"[2,1,5,4,0]","action_history":"[0,1,0,0]","door_history":"[1,0,1,1]","location_rts":"[2566,1692,1478,792]","trial_type":"two-door-navigation","trial_index":86,"time_elapsed":2556375,"internal_node_id":"0.0-2.0-84.0"},{"group":"hexagon_tri","room_assignment":["green","grey","purple","blue","yellow","red"],"door_color_assignment":["black","white"],"door_generator_assignment":[1,0],"goal":5,"start":0,"action_noise":0.2,"location_history":"[0,5]","action_history":"[0]","door_history":"[1]","location_rts":"[1762]","trial_type":"two-door-navigation","trial_index":87,"time_elapsed":2562659,"internal_node_id":"0.0-2.0-85.0"},{"group":"hexagon_tri","room_assignment":["green","grey","purple","blue","yellow","red"],"door_color_assignment":["black","white"],"door_generator_assignment":[1,0],"goal":1,"start":5,"action_noise":0.2,"location_history":"[5,4,2,1]","action_history":"[0,1,0]","door_history":"[1,0,1]","location_rts":"[1201,1345,966]","trial_type":"two-door-navigation","trial_index":88,"time_elapsed":2572735,"internal_node_id":"0.0-2.0-86.0"},{"group":"hexagon_tri","room_assignment":["green","grey","purple","blue","yellow","red"],"door_color_assignment":["black","white"],"door_generator_assignment":[1,0],"goal":4,"start":1,"action_noise":0.2,"location_history":"[1,3,4]","action_history":"[0,1]","door_history":"[1,0]","location_rts":"[1413,1002]","trial_type":"two-door-navigation","trial_index":89,"time_elapsed":2580692,"internal_node_id":"0.0-2.0-87.0"},{"group":"hexagon_tri","room_assignment":["green","grey","purple","blue","yellow","red"],"door_color_assignment":["black","white"],"door_generator_assignment":[1,0],"goal":3,"start":4,"action_noise":0.2,"location_history":"[4,2,3]","action_history":"[0,1]","door_history":"[1,0]","location_rts":"[2781,1296]","trial_type":"two-door-navigation","trial_index":90,"time_elapsed":2590323,"internal_node_id":"0.0-2.0-88.0"},{"group":"hexagon_tri","room_assignment":["green","grey","purple","blue","yellow","red"],"door_color_assignment":["black","white"],"door_generator_assignment":[1,0],"goal":5,"start":3,"action_noise":0.2,"location_history":"[3,4,0,5]","action_history":"[1,0,0]","door_history":"[0,1,1]","location_rts":"[5013,1141,444]","trial_type":"two-door-navigation","trial_index":91,"time_elapsed":2603474,"internal_node_id":"0.0-2.0-89.0"},{"group":"hexagon_tri","room_assignment":["green","grey","purple","blue","yellow","red"],"door_color_assignment":["black","white"],"door_generator_assignment":[1,0],"goal":1,"start":5,"action_noise":0.2,"location_history":"[5,0,1]","action_history":"[1,1]","door_history":"[0,0]","location_rts":"[3531,771]","trial_type":"two-door-navigation","trial_index":92,"time_elapsed":2613319,"internal_node_id":"0.0-2.0-90.0"},{"group":"hexagon_tri","room_assignment":["green","grey","purple","blue","yellow","red"],"door_color_assignment":["black","white"],"door_generator_assignment":[1,0],"goal":2,"start":1,"action_noise":0.2,"location_history":"[1,3,2]","action_history":"[1,1]","door_history":"[0,0]","location_rts":"[1188,1914]","trial_type":"two-door-navigation","trial_index":93,"time_elapsed":2621964,"internal_node_id":"0.0-2.0-91.0"},{"group":"hexagon_tri","room_assignment":["green","grey","purple","blue","yellow","red"],"door_color_assignment":["black","white"],"door_generator_assignment":[1,0],"goal":4,"start":2,"action_noise":0.2,"location_history":"[2,1,3,2,3,2,1,3,2,3,4]","action_history":"[0,0,1,1,0,0,0,0,1,1]","door_history":"[1,1,0,0,1,1,1,1,0,0]","location_rts":"[2164,1067,1595,1241,1658,945,1172,906,1907,901]","trial_type":"two-door-navigation","trial_index":94,"time_elapsed":2649210,"internal_node_id":"0.0-2.0-92.0"},{"group":"hexagon_tri","room_assignment":["green","grey","purple","blue","yellow","red"],"door_color_assignment":["black","white"],"door_generator_assignment":[1,0],"goal":0,"start":4,"action_noise":0.2,"location_history":"[4,2,3,2,3,4,2,3,4,0]","action_history":"[0,0,1,1,1,1,1,1,0]","door_history":"[1,1,0,0,0,0,0,0,1]","location_rts":"[2396,1118,1456,647,760,1613,728,636,1071]","trial_type":"two-door-navigation","trial_index":95,"time_elapsed":2672312,"internal_node_id":"0.0-2.0-93.0"},{"group":"hexagon_tri","room_assignment":["green","grey","purple","blue","yellow","red"],"door_color_assignment":["black","white"],"door_generator_assignment":[1,0],"goal":3,"start":0,"action_noise":0.2,"location_history":"[0,1,5,4,2,3]","action_history":"[1,1,0,1,1]","door_history":"[0,0,1,0,0]","location_rts":"[3475,2083,1208,1200,1262]","trial_type":"two-door-navigation","trial_index":96,"time_elapsed":2690133,"internal_node_id":"0.0-2.0-94.0"},{"group":"hexagon_tri","room_assignment":["green","grey","purple","blue","yellow","red"],"door_color_assignment":["black","white"],"door_generator_assignment":[1,0],"goal":0,"start":3,"action_noise":0.2,"location_history":"[3,4,2,1,3,2,1,5,4,0]","action_history":"[1,0,0,0,0,0,1,0,0]","door_history":"[0,1,1,1,1,1,0,1,1]","location_rts":"[1998,1346,612,786,559,525,1358,1552,1100]","trial_type":"two-door-navigation","trial_index":97,"time_elapsed":2712646,"internal_node_id":"0.0-2.0-95.0"},{"group":"hexagon_tri","room_assignment":["green","grey","purple","blue","yellow","red"],"door_color_assignment":["black","white"],"door_generator_assignment":[1,0],"goal":4,"start":0,"action_noise":0.2,"location_history":"[0,1,5,4]","action_history":"[0,1,0]","door_history":"[1,0,1]","location_rts":"[1818,1431,1123]","trial_type":"two-door-navigation","trial_index":98,"time_elapsed":2723579,"internal_node_id":"0.0-2.0-96.0"},{"group":"hexagon_tri","room_assignment":["green","grey","purple","blue","yellow","red"],"door_color_assignment":["black","white"],"door_generator_assignment":[1,0],"goal":5,"start":4,"action_noise":0.2,"location_history":"[4,0,5]","action_history":"[0,0]","door_history":"[1,1]","location_rts":"[1485,870]","trial_type":"two-door-navigation","trial_index":99,"time_elapsed":2731477,"internal_node_id":"0.0-2.0-97.0"},{"group":"hexagon_tri","room_assignment":["green","grey","purple","blue","yellow","red"],"door_color_assignment":["black","white"],"door_generator_assignment":[1,0],"goal":2,"start":5,"action_noise":0.2,"location_history":"[5,4,0,1,5,4,0,5,4,0,1,5,4,0,1,5,4,0,1,5,4,2]","action_history":"[0,0,1,1,0,1,0,0,1,1,1,0,0,0,1,0,0,0,1,0,1]","door_history":"[1,1,0,0,1,0,1,1,0,0,0,1,1,1,0,1,1,1,0,1,0]","location_rts":"[2348,717,1205,906,1092,1273,1037,1025,1279,1158,2301,1139,684,792,1192,1091,825,755,5174,1356,1297]","trial_type":"two-door-navigation","trial_index":100,"time_elapsed":2785048,"internal_node_id":"0.0-2.0-98.0"},{"group":"hexagon_tri","room_assignment":["green","grey","purple","blue","yellow","red"],"door_color_assignment":["black","white"],"door_generator_assignment":[1,0],"goal":1,"start":2,"action_noise":0.2,"location_history":"[2,1]","action_history":"[0]","door_history":"[1]","location_rts":"[2269]","trial_type":"two-door-navigation","trial_index":101,"time_elapsed":2791840,"internal_node_id":"0.0-2.0-99.0"},{"view_history":"[{\"page_index\":0,\"viewing_time\":3970}]","rt":3971,"trial_type":"instructions","trial_index":102,"time_elapsed":2796812,"internal_node_id":"0.0-3.0"},{"view_history":"[{\"page_index\":0,\"viewing_time\":3463},{\"page_index\":1,\"viewing_time\":2415}]","rt":5878,"trial_type":"instructions","trial_index":103,"time_elapsed":2803691,"internal_node_id":"0.0-4.0"},{"group":"hexagon_bi","fractal_assignment":["../images/pnk_blu.png","../images/blu_wht.png","../images/ylw_slt.png","../images/org_blu.png","../images/gry_blk.png","../images/cyn_red.png"],"mutagen_generator_assignment":[0,1],"goal":2,"start":1,"action_noise":0.2,"location_history":"[1,2]","action_history":"[0]","mutagen_history":"[0]","location_rts":"[5574]","trial_type":"fractal-mutation","trial_index":104,"time_elapsed":2813807,"internal_node_id":"0.0-5.0-0.0"},{"group":"hexagon_bi","fractal_assignment":["../images/pnk_blu.png","../images/blu_wht.png","../images/ylw_slt.png","../images/org_blu.png","../images/gry_blk.png","../images/cyn_red.png"],"mutagen_generator_assignment":[0,1],"goal":0,"start":2,"action_noise":0.2,"location_history":"[2,1,0]","action_history":"[0,1]","mutagen_history":"[0,1]","location_rts":"[1037,1280]","trial_type":"fractal-mutation","trial_index":105,"time_elapsed":2821699,"internal_node_id":"0.0-5.0-1.0"},{"group":"hexagon_bi","fractal_assignment":["../images/pnk_blu.png","../images/blu_wht.png","../images/ylw_slt.png","../images/org_blu.png","../images/gry_blk.png","../images/cyn_red.png"],"mutagen_generator_assignment":[0,1],"goal":5,"start":0,"action_noise":0.2,"location_history":"[0,1,0,5]","action_history":"[1,0,0]","mutagen_history":"[1,0,0]","location_rts":"[1274,868,433]","trial_type":"fractal-mutation","trial_index":106,"time_elapsed":2830881,"internal_node_id":"0.0-5.0-2.0"},{"group":"hexagon_bi","fractal_assignment":["../images/pnk_blu.png","../images/blu_wht.png","../images/ylw_slt.png","../images/org_blu.png","../images/gry_blk.png","../images/cyn_red.png"],"mutagen_generator_assignment":[0,1],"goal":3,"start":5,"action_noise":0.2,"location_history":"[5,0,1,0,5,4,3]","action_history":"[0,1,1,0,0,0]","mutagen_history":"[0,1,1,0,0,0]","location_rts":"[867,885,605,1044,741,904]","trial_type":"fractal-mutation","trial_index":107,"time_elapsed":2845612,"internal_node_id":"0.0-5.0-3.0"},{"group":"hexagon_bi","fractal_assignment":["../images/pnk_blu.png","../images/blu_wht.png","../images/ylw_slt.png","../images/org_blu.png","../images/gry_blk.png","../images/cyn_red.png"],"mutagen_generator_assignment":[0,1],"goal":4,"start":3,"action_noise":0.2,"location_history":"[3,4]","action_history":"[0]","mutagen_history":"[0]","location_rts":"[2117]","trial_type":"fractal-mutation","trial_index":108,"time_elapsed":2852259,"internal_node_id":"0.0-5.0-4.0"},{"group":"hexagon_bi","fractal_assignment":["../images/pnk_blu.png","../images/blu_wht.png","../images/ylw_slt.png","../images/org_blu.png","../images/gry_blk.png","../images/cyn_red.png"],"mutagen_generator_assignment":[0,1],"goal":0,"start":4,"action_noise":0.2,"location_history":"[4,3,2,1,2,1,0]","action_history":"[0,1,0,0,0,1]","mutagen_history":"[0,1,0,0,0,1]","location_rts":"[2651,935,1558,714,643,885]","trial_type":"fractal-mutation","trial_index":109,"time_elapsed":2869358,"internal_node_id":"0.0-5.0-5.0"},{"group":"hexagon_bi","fractal_assignment":["../images/pnk_blu.png","../images/blu_wht.png","../images/ylw_slt.png","../images/org_blu.png","../images/gry_blk.png","../images/cyn_red.png"],"mutagen_generator_assignment":[0,1],"goal":4,"start":0,"action_noise":0.2,"location_history":"[0,5,0,1,0,5,4]","action_history":"[0,0,0,0,0,1]","mutagen_history":"[0,0,0,0,0,1]","location_rts":"[1472,610,1474,658,497,1730]","trial_type":"fractal-mutation","trial_index":110,"time_elapsed":2885481,"internal_node_id":"0.0-5.0-6.0"},{"group":"hexagon_bi","fractal_assignment":["../images/pnk_blu.png","../images/blu_wht.png","../images/ylw_slt.png","../images/org_blu.png","../images/gry_blk.png","../images/cyn_red.png"],"mutagen_generator_assignment":[0,1],"goal":3,"start":4,"action_noise":0.2,"location_history":"[4,3]","action_history":"[0]","mutagen_history":"[0]","location_rts":"[884]","trial_type":"fractal-mutation","trial_index":111,"time_elapsed":2890911,"internal_node_id":"0.0-5.0-7.0"},{"group":"hexagon_bi","fractal_assignment":["../images/pnk_blu.png","../images/blu_wht.png","../images/ylw_slt.png","../images/org_blu.png","../images/gry_blk.png","../images/cyn_red.png"],"mutagen_generator_assignment":[0,1],"goal":2,"start":3,"action_noise":0.2,"location_history":"[3,4,3,2]","action_history":"[0,0,1]","mutagen_history":"[0,0,1]","location_rts":"[1255,775,790]","trial_type":"fractal-mutation","trial_index":112,"time_elapsed":2900314,"internal_node_id":"0.0-5.0-8.0"},{"group":"hexagon_bi","fractal_assignment":["../images/pnk_blu.png","../images/blu_wht.png","../images/ylw_slt.png","../images/org_blu.png","../images/gry_blk.png","../images/cyn_red.png"],"mutagen_generator_assignment":[0,1],"goal":1,"start":2,"action_noise":0.2,"location_history":"[2,3,4,5,0,5,0,5,4,5,0,1]","action_history":"[0,0,1,0,0,0,0,0,1,1,1]","mutagen_history":"[0,0,1,0,0,0,0,0,1,1,1]","location_rts":"[845,893,1490,970,672,758,789,1063,729,535,561]","trial_type":"fractal-mutation","trial_index":113,"time_elapsed":2924476,"internal_node_id":"0.0-5.0-9.0"},{"group":"hexagon_bi","fractal_assignment":["../images/pnk_blu.png","../images/blu_wht.png","../images/ylw_slt.png","../images/org_blu.png","../images/gry_blk.png","../images/cyn_red.png"],"mutagen_generator_assignment":[0,1],"goal":5,"start":1,"action_noise":0.2,"location_history":"[1,2,1,2,3,4,3,4,5]","action_history":"[0,0,0,1,0,0,0,1]","mutagen_history":"[0,0,0,1,0,0,0,1]","location_rts":"[914,864,823,787,648,561,628,748]","trial_type":"fractal-mutation","trial_index":114,"time_elapsed":2942203,"internal_node_id":"0.0-5.0-10.0"},{"group":"hexagon_bi","fractal_assignment":["../images/pnk_blu.png","../images/blu_wht.png","../images/ylw_slt.png","../images/org_blu.png","../images/gry_blk.png","../images/cyn_red.png"],"mutagen_generator_assignment":[0,1],"goal":0,"start":5,"action_noise":0.2,"location_history":"[5,0]","action_history":"[0]","mutagen_history":"[0]","location_rts":"[1095]","trial_type":"fractal-mutation","trial_index":115,"time_elapsed":2947831,"internal_node_id":"0.0-5.0-11.0"},{"group":"hexagon_bi","fractal_assignment":["../images/pnk_blu.png","../images/blu_wht.png","../images/ylw_slt.png","../images/org_blu.png","../images/gry_blk.png","../images/cyn_red.png"],"mutagen_generator_assignment":[0,1],"goal":4,"start":0,"action_noise":0.2,"location_history":"[0,5,0,1,0,1,0,1,2,3,2,3,4]","action_history":"[0,0,1,1,1,1,0,0,1,1,0,0]","mutagen_history":"[0,0,1,1,1,1,0,0,1,1,0,0]","location_rts":"[1231,1294,1375,844,816,1255,537,451,475,675,899,579]","trial_type":"fractal-mutation","trial_index":116,"time_elapsed":2974122,"internal_node_id":"0.0-5.0-12.0"},{"group":"hexagon_bi","fractal_assignment":["../images/pnk_blu.png","../images/blu_wht.png","../images/ylw_slt.png","../images/org_blu.png","../images/gry_blk.png","../images/cyn_red.png"],"mutagen_generator_assignment":[0,1],"goal":2,"start":4,"action_noise":0.2,"location_history":"[4,3,2]","action_history":"[0,1]","mutagen_history":"[0,1]","location_rts":"[751,806]","trial_type":"fractal-mutation","trial_index":117,"time_elapsed":2981245,"internal_node_id":"0.0-5.0-13.0"},{"group":"hexagon_bi","fractal_assignment":["../images/pnk_blu.png","../images/blu_wht.png","../images/ylw_slt.png","../images/org_blu.png","../images/gry_blk.png","../images/cyn_red.png"],"mutagen_generator_assignment":[0,1],"goal":1,"start":2,"action_noise":0.2,"location_history":"[2,3,2,3,2,1]","action_history":"[0,1,1,1,1]","mutagen_history":"[0,1,1,1,1]","location_rts":"[775,969,718,767,542]","trial_type":"fractal-mutation","trial_index":118,"time_elapsed":2993674,"internal_node_id":"0.0-5.0-14.0"},{"group":"hexagon_bi","fractal_assignment":["../images/pnk_blu.png","../images/blu_wht.png","../images/ylw_slt.png","../images/org_blu.png","../images/gry_blk.png","../images/cyn_red.png"],"mutagen_generator_assignment":[0,1],"goal":3,"start":1,"action_noise":0.2,"location_history":"[1,2,1,2,3]","action_history":"[0,0,0,1]","mutagen_history":"[0,0,0,1]","location_rts":"[1920,698,882,1346]","trial_type":"fractal-mutation","trial_index":119,"time_elapsed":3006284,"internal_node_id":"0.0-5.0-15.0"},{"group":"hexagon_bi","fractal_assignment":["../images/pnk_blu.png","../images/blu_wht.png","../images/ylw_slt.png","../images/org_blu.png","../images/gry_blk.png","../images/cyn_red.png"],"mutagen_generator_assignment":[0,1],"goal":5,"start":3,"action_noise":0.2,"location_history":"[3,4,3,2,1,0,1,0,5]","action_history":"[0,0,1,1,1,1,0,0]","mutagen_history":"[0,0,1,1,1,1,0,0]","location_rts":"[2280,685,1621,884,846,1411,1466,899]","trial_type":"fractal-mutation","trial_index":120,"time_elapsed":3028384,"internal_node_id":"0.0-5.0-16.0"},{"group":"hexagon_bi","fractal_assignment":["../images/pnk_blu.png","../images/blu_wht.png","../images/ylw_slt.png","../images/org_blu.png","../images/gry_blk.png","../images/cyn_red.png"],"mutagen_generator_assignment":[0,1],"goal":0,"start":5,"action_noise":0.2,"location_history":"[5,0]","action_history":"[1]","mutagen_history":"[1]","location_rts":"[6651]","trial_type":"fractal-mutation","trial_index":121,"time_elapsed":3039606,"internal_node_id":"0.0-5.0-17.0"},{"group":"hexagon_bi","fractal_assignment":["../images/pnk_blu.png","../images/blu_wht.png","../images/ylw_slt.png","../images/org_blu.png","../images/gry_blk.png","../images/cyn_red.png"],"mutagen_generator_assignment":[0,1],"goal":5,"start":0,"action_noise":0.2,"location_history":"[0,5]","action_history":"[0]","mutagen_history":"[0]","location_rts":"[1871]","trial_type":"fractal-mutation","trial_index":122,"time_elapsed":3046045,"internal_node_id":"0.0-5.0-18.0"},{"group":"hexagon_bi","fractal_assignment":["../images/pnk_blu.png","../images/blu_wht.png","../images/ylw_slt.png","../images/org_blu.png","../images/gry_blk.png","../images/cyn_red.png"],"mutagen_generator_assignment":[0,1],"goal":3,"start":5,"action_noise":0.2,"location_history":"[5,4,3]","action_history":"[0,0]","mutagen_history":"[0,0]","location_rts":"[1417,1145]","trial_type":"fractal-mutation","trial_index":123,"time_elapsed":3054237,"internal_node_id":"0.0-5.0-19.0"},{"group":"hexagon_bi","fractal_assignment":["../images/pnk_blu.png","../images/blu_wht.png","../images/ylw_slt.png","../images/org_blu.png","../images/gry_blk.png","../images/cyn_red.png"],"mutagen_generator_assignment":[0,1],"goal":4,"start":3,"action_noise":0.2,"location_history":"[3,4]","action_history":"[0]","mutagen_history":"[0]","location_rts":"[1348]","trial_type":"fractal-mutation","trial_index":124,"time_elapsed":3060161,"internal_node_id":"0.0-5.0-20.0"},{"group":"hexagon_bi","fractal_assignment":["../images/pnk_blu.png","../images/blu_wht.png","../images/ylw_slt.png","../images/org_blu.png","../images/gry_blk.png","../images/cyn_red.png"],"mutagen_generator_assignment":[0,1],"goal":1,"start":4,"action_noise":0.2,"location_history":"[4,3,2,3,2,3,2,1]","action_history":"[0,1,1,1,1,1,0]","mutagen_history":"[0,1,1,1,1,1,0]","location_rts":"[1357,1332,870,2095,915,1717,1362]","trial_type":"fractal-mutation","trial_index":125,"time_elapsed":3080781,"internal_node_id":"0.0-5.0-21.0"},{"group":"hexagon_bi","fractal_assignment":["../images/pnk_blu.png","../images/blu_wht.png","../images/ylw_slt.png","../images/org_blu.png","../images/gry_blk.png","../images/cyn_red.png"],"mutagen_generator_assignment":[0,1],"goal":2,"start":1,"action_noise":0.2,"location_history":"[1,2]","action_history":"[0]","mutagen_history":"[0]","location_rts":"[1751]","trial_type":"fractal-mutation","trial_index":126,"time_elapsed":3087106,"internal_node_id":"0.0-5.0-22.0"},{"group":"hexagon_bi","fractal_assignment":["../images/pnk_blu.png","../images/blu_wht.png","../images/ylw_slt.png","../images/org_blu.png","../images/gry_blk.png","../images/cyn_red.png"],"mutagen_generator_assignment":[0,1],"goal":3,"start":2,"action_noise":0.2,"location_history":"[2,3]","action_history":"[0]","mutagen_history":"[0]","location_rts":"[1486]","trial_type":"fractal-mutation","trial_index":127,"time_elapsed":3093163,"internal_node_id":"0.0-5.0-23.0"},{"group":"hexagon_bi","fractal_assignment":["../images/pnk_blu.png","../images/blu_wht.png","../images/ylw_slt.png","../images/org_blu.png","../images/gry_blk.png","../images/cyn_red.png"],"mutagen_generator_assignment":[0,1],"goal":5,"start":3,"action_noise":0.2,"location_history":"[3,2,1,2,3,4,3,4,3,2,3,2,1,2,3,2,3,2,1,0,1,2,1,2,3,4,3,4,5]","action_history":"[1,0,0,1,1,0,0,0,1,1,1,1,1,1,1,1,1,0,0,1,1,0,0,1,1,0,0,1]","mutagen_history":"[1,0,0,1,1,0,0,0,1,1,1,1,1,1,1,1,1,0,0,1,1,0,0,1,1,0,0,1]","location_rts":"[2219,1210,587,1038,1054,1870,920,767,1144,665,438,431,460,382,434,479,444,525,805,1917,2209,1308,1855,1017,1078,620,683,816]","trial_type":"fractal-mutation","trial_index":128,"time_elapsed":3153839,"internal_node_id":"0.0-5.0-24.0"},{"group":"hexagon_bi","fractal_assignment":["../images/pnk_blu.png","../images/blu_wht.png","../images/ylw_slt.png","../images/org_blu.png","../images/gry_blk.png","../images/cyn_red.png"],"mutagen_generator_assignment":[0,1],"goal":4,"start":5,"action_noise":0.2,"location_history":"[5,0,5,4]","action_history":"[0,1,0]","mutagen_history":"[0,1,0]","location_rts":"[1181,916,928]","trial_type":"fractal-mutation","trial_index":129,"time_elapsed":3163568,"internal_node_id":"0.0-5.0-25.0"},{"group":"hexagon_bi","fractal_assignment":["../images/pnk_blu.png","../images/blu_wht.png","../images/ylw_slt.png","../images/org_blu.png","../images/gry_blk.png","../images/cyn_red.png"],"mutagen_generator_assignment":[0,1],"goal":0,"start":4,"action_noise":0.2,"location_history":"[4,3,2,3,4,3,2,3,2,3,4,3,4,5,0]","action_history":"[0,1,1,0,0,1,1,1,1,0,0,0,1,1]","mutagen_history":"[0,1,1,0,0,1,1,1,1,0,0,0,1,1]","location_rts":"[689,636,809,669,645,710,557,503,533,652,738,725,808,1418]","trial_type":"fractal-mutation","trial_index":130,"time_elapsed":3192034,"internal_node_id":"0.0-5.0-26.0"},{"group":"hexagon_bi","fractal_assignment":["../images/pnk_blu.png","../images/blu_wht.png","../images/ylw_slt.png","../images/org_blu.png","../images/gry_blk.png","../images/cyn_red.png"],"mutagen_generator_assignment":[0,1],"goal":2,"start":0,"action_noise":0.2,"location_history":"[0,5,4,5,4,3,2]","action_history":"[0,1,1,1,0,0]","mutagen_history":"[0,1,1,1,0,0]","location_rts":"[1027,784,739,597,662,485]","trial_type":"fractal-mutation","trial_index":131,"time_elapsed":3206226,"internal_node_id":"0.0-5.0-27.0"},{"group":"hexagon_bi","fractal_assignment":["../images/pnk_blu.png","../images/blu_wht.png","../images/ylw_slt.png","../images/org_blu.png","../images/gry_blk.png","../images/cyn_red.png"],"mutagen_generator_assignment":[0,1],"goal":1,"start":2,"action_noise":0.2,"location_history":"[2,1]","action_history":"[0]","mutagen_history":"[0]","location_rts":"[861]","trial_type":"fractal-mutation","trial_index":132,"time_elapsed":3211652,"internal_node_id":"0.0-5.0-28.0"},{"group":"hexagon_bi","fractal_assignment":["../images/pnk_blu.png","../images/blu_wht.png","../images/ylw_slt.png","../images/org_blu.png","../images/gry_blk.png","../images/cyn_red.png"],"mutagen_generator_assignment":[0,1],"goal":0,"start":1,"action_noise":0.2,"location_history":"[1,0]","action_history":"[1]","mutagen_history":"[1]","location_rts":"[1252]","trial_type":"fractal-mutation","trial_index":133,"time_elapsed":3217479,"internal_node_id":"0.0-5.0-29.0"},{"group":"hexagon_bi","fractal_assignment":["../images/pnk_blu.png","../images/blu_wht.png","../images/ylw_slt.png","../images/org_blu.png","../images/gry_blk.png","../images/cyn_red.png"],"mutagen_generator_assignment":[0,1],"goal":2,"start":0,"action_noise":0.2,"location_history":"[0,5,4,3,4,3,2]","action_history":"[0,1,0,0,1,1]","mutagen_history":"[0,1,0,0,1,1]","location_rts":"[864,825,645,461,676,607]","trial_type":"fractal-mutation","trial_index":134,"time_elapsed":3231522,"internal_node_id":"0.0-5.0-30.0"},{"group":"hexagon_bi","fractal_assignment":["../images/pnk_blu.png","../images/blu_wht.png","../images/ylw_slt.png","../images/org_blu.png","../images/gry_blk.png","../images/cyn_red.png"],"mutagen_generator_assignment":[0,1],"goal":4,"start":2,"action_noise":0.2,"location_history":"[2,1,2,3,4]","action_history":"[0,0,0,0]","mutagen_history":"[0,0,0,0]","location_rts":"[1187,1064,608,1002]","trial_type":"fractal-mutation","trial_index":135,"time_elapsed":3243153,"internal_node_id":"0.0-5.0-31.0"},{"group":"hexagon_bi","fractal_assignment":["../images/pnk_blu.png","../images/blu_wht.png","../images/ylw_slt.png","../images/org_blu.png","../images/gry_blk.png","../images/cyn_red.png"],"mutagen_generator_assignment":[0,1],"goal":1,"start":4,"action_noise":0.2,"location_history":"[4,3,2,1]","action_history":"[0,1,0]","mutagen_history":"[0,1,0]","location_rts":"[1147,1053,1006]","trial_type":"fractal-mutation","trial_index":136,"time_elapsed":3253046,"internal_node_id":"0.0-5.0-32.0"},{"group":"hexagon_bi","fractal_assignment":["../images/pnk_blu.png","../images/blu_wht.png","../images/ylw_slt.png","../images/org_blu.png","../images/gry_blk.png","../images/cyn_red.png"],"mutagen_generator_assignment":[0,1],"goal":3,"start":1,"action_noise":0.2,"location_history":"[1,2,1,2,3]","action_history":"[0,1,0,1]","mutagen_history":"[0,1,0,1]","location_rts":"[605,518,496,754]","trial_type":"fractal-mutation","trial_index":137,"time_elapsed":3263202,"internal_node_id":"0.0-5.0-33.0"},{"group":"hexagon_bi","fractal_assignment":["../images/pnk_blu.png","../images/blu_wht.png","../images/ylw_slt.png","../images/org_blu.png","../images/gry_blk.png","../images/cyn_red.png"],"mutagen_generator_assignment":[0,1],"goal":5,"start":3,"action_noise":0.2,"location_history":"[3,2,1,2,3,4,5]","action_history":"[1,0,0,0,0,0]","mutagen_history":"[1,0,0,0,0,0]","location_rts":"[730,833,561,509,416,471]","trial_type":"fractal-mutation","trial_index":138,"time_elapsed":3276609,"internal_node_id":"0.0-5.0-34.0"},{"group":"hexagon_bi","fractal_assignment":["../images/pnk_blu.png","../images/blu_wht.png","../images/ylw_slt.png","../images/org_blu.png","../images/gry_blk.png","../images/cyn_red.png"],"mutagen_generator_assignment":[0,1],"goal":2,"start":5,"action_noise":0.2,"location_history":"[5,0,1,2]","action_history":"[0,1,0]","mutagen_history":"[0,1,0]","location_rts":"[820,866,723]","trial_type":"fractal-mutation","trial_index":139,"time_elapsed":3285725,"internal_node_id":"0.0-5.0-35.0"},{"group":"hexagon_bi","fractal_assignment":["../images/pnk_blu.png","../images/blu_wht.png","../images/ylw_slt.png","../images/org_blu.png","../images/gry_blk.png","../images/cyn_red.png"],"mutagen_generator_assignment":[0,1],"goal":0,"start":2,"action_noise":0.2,"location_history":"[2,1,0]","action_history":"[0,1]","mutagen_history":"[0,1]","location_rts":"[1255,492]","trial_type":"fractal-mutation","trial_index":140,"time_elapsed":3293106,"internal_node_id":"0.0-5.0-36.0"},{"group":"hexagon_bi","fractal_assignment":["../images/pnk_blu.png","../images/blu_wht.png","../images/ylw_slt.png","../images/org_blu.png","../images/gry_blk.png","../images/cyn_red.png"],"mutagen_generator_assignment":[0,1],"goal":4,"start":0,"action_noise":0.2,"location_history":"[0,5,0,1,0,5,0,1,2,3,4]","action_history":"[0,0,1,1,0,0,0,0,1,0]","mutagen_history":"[0,0,1,1,0,0,0,0,1,0]","location_rts":"[957,692,1295,1097,627,747,847,622,649,657]","trial_type":"fractal-mutation","trial_index":141,"time_elapsed":3315410,"internal_node_id":"0.0-5.0-37.0"},{"group":"hexagon_bi","fractal_assignment":["../images/pnk_blu.png","../images/blu_wht.png","../images/ylw_slt.png","../images/org_blu.png","../images/gry_blk.png","../images/cyn_red.png"],"mutagen_generator_assignment":[0,1],"goal":5,"start":4,"action_noise":0.2,"location_history":"[4,3,2,1,0,1,2,1,2,3,4,3,4,5]","action_history":"[0,1,1,1,1,0,0,0,0,0,0,0,1]","mutagen_history":"[0,1,1,1,1,0,0,0,0,0,0,0,1]","location_rts":"[1484,858,688,576,790,693,659,654,622,804,776,721,518]","trial_type":"fractal-mutation","trial_index":142,"time_elapsed":3342547,"internal_node_id":"0.0-5.0-38.0"},{"group":"hexagon_bi","fractal_assignment":["../images/pnk_blu.png","../images/blu_wht.png","../images/ylw_slt.png","../images/org_blu.png","../images/gry_blk.png","../images/cyn_red.png"],"mutagen_generator_assignment":[0,1],"goal":1,"start":5,"action_noise":0.2,"location_history":"[5,0,5,0,5,0,1]","action_history":"[0,0,1,0,0,1]","mutagen_history":"[0,0,1,0,0,1]","location_rts":"[1160,890,1281,802,777,726]","trial_type":"fractal-mutation","trial_index":143,"time_elapsed":3358073,"internal_node_id":"0.0-5.0-39.0"},{"group":"hexagon_bi","fractal_assignment":["../images/pnk_blu.png","../images/blu_wht.png","../images/ylw_slt.png","../images/org_blu.png","../images/gry_blk.png","../images/cyn_red.png"],"mutagen_generator_assignment":[0,1],"goal":3,"start":1,"action_noise":0.2,"location_history":"[1,2,1,2,1,2,3]","action_history":"[0,1,0,0,0,0]","mutagen_history":"[0,1,0,0,0,0]","location_rts":"[1118,905,596,1300,739,770]","trial_type":"fractal-mutation","trial_index":144,"time_elapsed":3373385,"internal_node_id":"0.0-5.0-40.0"},{"group":"hexagon_bi","fractal_assignment":["../images/pnk_blu.png","../images/blu_wht.png","../images/ylw_slt.png","../images/org_blu.png","../images/gry_blk.png","../images/cyn_red.png"],"mutagen_generator_assignment":[0,1],"goal":1,"start":3,"action_noise":0.2,"location_history":"[3,4,5,0,5,4,5,0,1]","action_history":"[1,1,0,0,1,1,1,0]","mutagen_history":"[1,1,0,0,1,1,1,0]","location_rts":"[1348,789,635,786,529,534,548,828]","trial_type":"fractal-mutation","trial_index":145,"time_elapsed":3391402,"internal_node_id":"0.0-5.0-41.0"},{"group":"hexagon_bi","fractal_assignment":["../images/pnk_blu.png","../images/blu_wht.png","../images/ylw_slt.png","../images/org_blu.png","../images/gry_blk.png","../images/cyn_red.png"],"mutagen_generator_assignment":[0,1],"goal":0,"start":1,"action_noise":0.2,"location_history":"[1,0]","action_history":"[0]","mutagen_history":"[0]","location_rts":"[770]","trial_type":"fractal-mutation","trial_index":146,"time_elapsed":3396731,"internal_node_id":"0.0-5.0-42.0"},{"group":"hexagon_bi","fractal_assignment":["../images/pnk_blu.png","../images/blu_wht.png","../images/ylw_slt.png","../images/org_blu.png","../images/gry_blk.png","../images/cyn_red.png"],"mutagen_generator_assignment":[0,1],"goal":4,"start":0,"action_noise":0.2,"location_history":"[0,1,2,3,2,3,2,1,0,5,4]","action_history":"[0,0,0,0,0,1,1,0,0,0]","mutagen_history":"[0,0,0,0,0,1,1,0,0,0]","location_rts":"[973,773,549,672,984,613,588,1008,700,964]","trial_type":"fractal-mutation","trial_index":147,"time_elapsed":3418723,"internal_node_id":"0.0-5.0-43.0"},{"group":"hexagon_bi","fractal_assignment":["../images/pnk_blu.png","../images/blu_wht.png","../images/ylw_slt.png","../images/org_blu.png","../images/gry_blk.png","../images/cyn_red.png"],"mutagen_generator_assignment":[0,1],"goal":2,"start":4,"action_noise":0.2,"location_history":"[4,5,4,5,4,3,4,5,4,3,2]","action_history":"[1,1,1,0,0,0,0,0,0,1]","mutagen_history":"[1,1,1,0,0,0,0,0,0,1]","location_rts":"[608,806,840,642,402,426,828,404,394,477]","trial_type":"fractal-mutation","trial_index":148,"time_elapsed":3438785,"internal_node_id":"0.0-5.0-44.0"},{"group":"hexagon_bi","fractal_assignment":["../images/pnk_blu.png","../images/blu_wht.png","../images/ylw_slt.png","../images/org_blu.png","../images/gry_blk.png","../images/cyn_red.png"],"mutagen_generator_assignment":[0,1],"goal":3,"start":2,"action_noise":0.2,"location_history":"[2,1,2,1,0,5,0,5,0,1,0,1,0,1,0,5,0,1,0,5,4,5,4,3]","action_history":"[0,0,0,1,0,0,0,0,1,1,1,1,1,0,1,0,1,0,0,1,1,1,0]","mutagen_history":"[0,0,0,1,0,0,0,0,1,1,1,1,1,0,1,0,1,0,0,1,1,1,0]","location_rts":"[1465,499,517,432,673,668,691,977,530,550,491,441,491,461,332,945,861,603,566,1175,866,803,728]","trial_type":"fractal-mutation","trial_index":149,"time_elapsed":3482586,"internal_node_id":"0.0-5.0-45.0"},{"group":"hexagon_bi","fractal_assignment":["../images/pnk_blu.png","../images/blu_wht.png","../images/ylw_slt.png","../images/org_blu.png","../images/gry_blk.png","../images/cyn_red.png"],"mutagen_generator_assignment":[0,1],"goal":5,"start":3,"action_noise":0.2,"location_history":"[3,4,5]","action_history":"[0,0]","mutagen_history":"[0,0]","location_rts":"[1695,641]","trial_type":"fractal-mutation","trial_index":150,"time_elapsed":3490551,"internal_node_id":"0.0-5.0-46.0"},{"group":"hexagon_bi","fractal_assignment":["../images/pnk_blu.png","../images/blu_wht.png","../images/ylw_slt.png","../images/org_blu.png","../images/gry_blk.png","../images/cyn_red.png"],"mutagen_generator_assignment":[0,1],"goal":4,"start":5,"action_noise":0.2,"location_history":"[5,0,5,0,5,4]","action_history":"[0,0,0,1,1]","mutagen_history":"[0,0,0,1,1]","location_rts":"[1119,1278,936,846,606]","trial_type":"fractal-mutation","trial_index":151,"time_elapsed":3504173,"internal_node_id":"0.0-5.0-47.0"},{"group":"hexagon_bi","fractal_assignment":["../images/pnk_blu.png","../images/blu_wht.png","../images/ylw_slt.png","../images/org_blu.png","../images/gry_blk.png","../images/cyn_red.png"],"mutagen_generator_assignment":[0,1],"goal":3,"start":4,"action_noise":0.2,"location_history":"[4,5,4,5,0,1,0,1,2,1,2,1,2,1,2,1,2,1,2,3]","action_history":"[0,1,1,0,1,1,1,0,0,0,0,1,0,1,1,1,0,0,1]","mutagen_history":"[0,1,1,0,1,1,1,0,0,0,0,1,0,1,1,1,0,0,1]","location_rts":"[1681,930,637,700,895,594,779,476,644,486,584,378,520,471,564,501,493,675,470]","trial_type":"fractal-mutation","trial_index":152,"time_elapsed":3540363,"internal_node_id":"0.0-5.0-48.0"},{"group":"hexagon_bi","fractal_assignment":["../images/pnk_blu.png","../images/blu_wht.png","../images/ylw_slt.png","../images/org_blu.png","../images/gry_blk.png","../images/cyn_red.png"],"mutagen_generator_assignment":[0,1],"goal":1,"start":3,"action_noise":0.2,"location_history":"[3,4,3,2,3,2,1]","action_history":"[1,0,1,1,1,0]","mutagen_history":"[1,0,1,1,1,0]","location_rts":"[1503,605,618,629,569,497]","trial_type":"fractal-mutation","trial_index":153,"time_elapsed":3554677,"internal_node_id":"0.0-5.0-49.0"},{"group":"hexagon_bi","fractal_assignment":["../images/pnk_blu.png","../images/blu_wht.png","../images/ylw_slt.png","../images/org_blu.png","../images/gry_blk.png","../images/cyn_red.png"],"mutagen_generator_assignment":[0,1],"goal":2,"start":1,"action_noise":0.2,"location_history":"[1,2]","action_history":"[0]","mutagen_history":"[0]","location_rts":"[969]","trial_type":"fractal-mutation","trial_index":154,"time_elapsed":3560222,"internal_node_id":"0.0-5.0-50.0"},{"group":"hexagon_bi","fractal_assignment":["../images/pnk_blu.png","../images/blu_wht.png","../images/ylw_slt.png","../images/org_blu.png","../images/gry_blk.png","../images/cyn_red.png"],"mutagen_generator_assignment":[0,1],"goal":0,"start":2,"action_noise":0.2,"location_history":"[2,1,0]","action_history":"[0,1]","mutagen_history":"[0,1]","location_rts":"[1739,686]","trial_type":"fractal-mutation","trial_index":155,"time_elapsed":3568272,"internal_node_id":"0.0-5.0-51.0"},{"group":"hexagon_bi","fractal_assignment":["../images/pnk_blu.png","../images/blu_wht.png","../images/ylw_slt.png","../images/org_blu.png","../images/gry_blk.png","../images/cyn_red.png"],"mutagen_generator_assignment":[0,1],"goal":5,"start":0,"action_noise":0.2,"location_history":"[0,5]","action_history":"[0]","mutagen_history":"[0]","location_rts":"[1178]","trial_type":"fractal-mutation","trial_index":156,"time_elapsed":3574013,"internal_node_id":"0.0-5.0-52.0"},{"group":"hexagon_bi","fractal_assignment":["../images/pnk_blu.png","../images/blu_wht.png","../images/ylw_slt.png","../images/org_blu.png","../images/gry_blk.png","../images/cyn_red.png"],"mutagen_generator_assignment":[0,1],"goal":1,"start":5,"action_noise":0.2,"location_history":"[5,4,3,2,3,4,3,2,3,4,3,4,5,4,3,2,3,2,3,2,1]","action_history":"[1,0,0,1,0,1,1,1,0,0,0,1,0,0,1,1,1,1,1,1]","mutagen_history":"[1,0,0,1,0,1,1,1,0,0,0,1,0,0,1,1,1,1,1,1]","location_rts":"[1572,779,903,565,795,532,677,561,744,529,578,924,823,665,459,606,493,421,799,513]","trial_type":"fractal-mutation","trial_index":157,"time_elapsed":3612728,"internal_node_id":"0.0-5.0-53.0"},{"group":"hexagon_bi","fractal_assignment":["../images/pnk_blu.png","../images/blu_wht.png","../images/ylw_slt.png","../images/org_blu.png","../images/gry_blk.png","../images/cyn_red.png"],"mutagen_generator_assignment":[0,1],"goal":3,"start":1,"action_noise":0.2,"location_history":"[1,2,1,0,1,2,3]","action_history":"[0,0,1,1,0,0]","mutagen_history":"[0,0,1,1,0,0]","location_rts":"[945,713,435,665,538,515]","trial_type":"fractal-mutation","trial_index":158,"time_elapsed":3626421,"internal_node_id":"0.0-5.0-54.0"},{"group":"hexagon_bi","fractal_assignment":["../images/pnk_blu.png","../images/blu_wht.png","../images/ylw_slt.png","../images/org_blu.png","../images/gry_blk.png","../images/cyn_red.png"],"mutagen_generator_assignment":[0,1],"goal":5,"start":3,"action_noise":0.2,"location_history":"[3,4,3,4,5]","action_history":"[0,0,0,1]","mutagen_history":"[0,0,0,1]","location_rts":"[959,717,614,727]","trial_type":"fractal-mutation","trial_index":159,"time_elapsed":3637197,"internal_node_id":"0.0-5.0-55.0"},{"group":"hexagon_bi","fractal_assignment":["../images/pnk_blu.png","../images/blu_wht.png","../images/ylw_slt.png","../images/org_blu.png","../images/gry_blk.png","../images/cyn_red.png"],"mutagen_generator_assignment":[0,1],"goal":4,"start":5,"action_noise":0.2,"location_history":"[5,4]","action_history":"[0]","mutagen_history":"[0]","location_rts":"[1553]","trial_type":"fractal-mutation","trial_index":160,"time_elapsed":3643325,"internal_node_id":"0.0-5.0-56.0"},{"group":"hexagon_bi","fractal_assignment":["../images/pnk_blu.png","../images/blu_wht.png","../images/ylw_slt.png","../images/org_blu.png","../images/gry_blk.png","../images/cyn_red.png"],"mutagen_generator_assignment":[0,1],"goal":0,"start":4,"action_noise":0.2,"location_history":"[4,5,4,3,4,5,0]","action_history":"[1,1,0,1,1,0]","mutagen_history":"[1,1,0,1,1,0]","location_rts":"[1169,904,781,649,834,703]","trial_type":"fractal-mutation","trial_index":161,"time_elapsed":3658264,"internal_node_id":"0.0-5.0-57.0"},{"group":"hexagon_bi","fractal_assignment":["../images/pnk_blu.png","../images/blu_wht.png","../images/ylw_slt.png","../images/org_blu.png","../images/gry_blk.png","../images/cyn_red.png"],"mutagen_generator_assignment":[0,1],"goal":2,"start":0,"action_noise":0.2,"location_history":"[0,5,4,3,2]","action_history":"[0,1,0,1]","mutagen_history":"[0,1,0,1]","location_rts":"[1087,860,758,760]","trial_type":"fractal-mutation","trial_index":162,"time_elapsed":3669500,"internal_node_id":"0.0-5.0-58.0"},{"group":"hexagon_bi","fractal_assignment":["../images/pnk_blu.png","../images/blu_wht.png","../images/ylw_slt.png","../images/org_blu.png","../images/gry_blk.png","../images/cyn_red.png"],"mutagen_generator_assignment":[0,1],"goal":4,"start":2,"action_noise":0.2,"location_history":"[2,3,4]","action_history":"[0,0]","mutagen_history":"[0,0]","location_rts":"[1027,822]","trial_type":"fractal-mutation","trial_index":163,"time_elapsed":3676985,"internal_node_id":"0.0-5.0-59.0"},{"group":"hexagon_bi","fractal_assignment":["../images/pnk_blu.png","../images/blu_wht.png","../images/ylw_slt.png","../images/org_blu.png","../images/gry_blk.png","../images/cyn_red.png"],"mutagen_generator_assignment":[0,1],"goal":2,"start":4,"action_noise":0.2,"location_history":"[4,5,0,1,2]","action_history":"[0,0,1,0]","mutagen_history":"[0,0,1,0]","location_rts":"[2569,770,517,667]","trial_type":"fractal-mutation","trial_index":164,"time_elapsed":3689266,"internal_node_id":"0.0-5.0-60.0"},{"group":"hexagon_bi","fractal_assignment":["../images/pnk_blu.png","../images/blu_wht.png","../images/ylw_slt.png","../images/org_blu.png","../images/gry_blk.png","../images/cyn_red.png"],"mutagen_generator_assignment":[0,1],"goal":3,"start":2,"action_noise":0.2,"location_history":"[2,1,0,5,0,1,0,1,0,5,0,1,2,3]","action_history":"[0,1,1,0,1,1,1,1,0,0,0,0,0]","mutagen_history":"[0,1,1,0,1,1,1,1,0,0,0,0,0]","location_rts":"[1988,1397,1484,1430,1343,487,609,878,1065,615,634,490,629]","trial_type":"fractal-mutation","trial_index":165,"time_elapsed":3719645,"internal_node_id":"0.0-5.0-61.0"},{"group":"hexagon_bi","fractal_assignment":["../images/pnk_blu.png","../images/blu_wht.png","../images/ylw_slt.png","../images/org_blu.png","../images/gry_blk.png","../images/cyn_red.png"],"mutagen_generator_assignment":[0,1],"goal":0,"start":3,"action_noise":0.2,"location_history":"[3,2,3,4,5,4,3,4,3,2,3,2,3,2,3,2,3,4,5,4,3,4,5,0]","action_history":"[1,1,0,0,1,0,0,0,1,1,1,1,1,1,1,0,0,1,0,0,0,0,0]","mutagen_history":"[1,1,0,0,1,0,0,0,1,1,1,1,1,1,1,0,0,1,0,0,0,0,0]","location_rts":"[2322,1145,1179,577,1259,1196,584,477,1233,602,615,441,406,369,352,1404,473,1856,1494,593,556,499,486]","trial_type":"fractal-mutation","trial_index":166,"time_elapsed":3767705,"internal_node_id":"0.0-5.0-62.0"},{"group":"hexagon_bi","fractal_assignment":["../images/pnk_blu.png","../images/blu_wht.png","../images/ylw_slt.png","../images/org_blu.png","../images/gry_blk.png","../images/cyn_red.png"],"mutagen_generator_assignment":[0,1],"goal":5,"start":0,"action_noise":0.2,"location_history":"[0,5]","action_history":"[0]","mutagen_history":"[0]","location_rts":"[1442]","trial_type":"fractal-mutation","trial_index":167,"time_elapsed":3773732,"internal_node_id":"0.0-5.0-63.0"},{"group":"hexagon_bi","fractal_assignment":["../images/pnk_blu.png","../images/blu_wht.png","../images/ylw_slt.png","../images/org_blu.png","../images/gry_blk.png","../images/cyn_red.png"],"mutagen_generator_assignment":[0,1],"goal":1,"start":5,"action_noise":0.2,"location_history":"[5,0,5,0,5,0,1]","action_history":"[0,0,0,0,0,0]","mutagen_history":"[0,0,0,0,0,0]","location_rts":"[649,817,878,578,453,496]","trial_type":"fractal-mutation","trial_index":168,"time_elapsed":3787513,"internal_node_id":"0.0-5.0-64.0"},{"group":"hexagon_bi","fractal_assignment":["../images/pnk_blu.png","../images/blu_wht.png","../images/ylw_slt.png","../images/org_blu.png","../images/gry_blk.png","../images/cyn_red.png"],"mutagen_generator_assignment":[0,1],"goal":5,"start":1,"action_noise":0.2,"location_history":"[1,0,5]","action_history":"[1,0]","mutagen_history":"[1,0]","location_rts":"[2980,1178]","trial_type":"fractal-mutation","trial_index":169,"time_elapsed":3797306,"internal_node_id":"0.0-5.0-65.0"},{"group":"hexagon_bi","fractal_assignment":["../images/pnk_blu.png","../images/blu_wht.png","../images/ylw_slt.png","../images/org_blu.png","../images/gry_blk.png","../images/cyn_red.png"],"mutagen_generator_assignment":[0,1],"goal":3,"start":5,"action_noise":0.2,"location_history":"[5,0,5,0,5,0,5,4,5,4,3]","action_history":"[0,1,0,0,0,0,1,1,1,0]","mutagen_history":"[0,1,0,0,0,0,1,1,1,0]","location_rts":"[773,1554,1122,496,547,461,1056,552,893,1102]","trial_type":"fractal-mutation","trial_index":170,"time_elapsed":3819950,"internal_node_id":"0.0-5.0-66.0"},{"group":"hexagon_bi","fractal_assignment":["../images/pnk_blu.png","../images/blu_wht.png","../images/ylw_slt.png","../images/org_blu.png","../images/gry_blk.png","../images/cyn_red.png"],"mutagen_generator_assignment":[0,1],"goal":2,"start":3,"action_noise":0.2,"location_history":"[3,4,5,4,5,4,3,2]","action_history":"[0,1,1,1,1,0,1]","mutagen_history":"[0,1,1,1,1,0,1]","location_rts":"[1681,1504,526,566,347,1233,2146]","trial_type":"fractal-mutation","trial_index":171,"time_elapsed":3838934,"internal_node_id":"0.0-5.0-67.0"},{"group":"hexagon_bi","fractal_assignment":["../images/pnk_blu.png","../images/blu_wht.png","../images/ylw_slt.png","../images/org_blu.png","../images/gry_blk.png","../images/cyn_red.png"],"mutagen_generator_assignment":[0,1],"goal":1,"start":2,"action_noise":0.2,"location_history":"[2,1]","action_history":"[0]","mutagen_history":"[0]","location_rts":"[1789]","trial_type":"fractal-mutation","trial_index":172,"time_elapsed":3845289,"internal_node_id":"0.0-5.0-68.0"},{"group":"hexagon_bi","fractal_assignment":["../images/pnk_blu.png","../images/blu_wht.png","../images/ylw_slt.png","../images/org_blu.png","../images/gry_blk.png","../images/cyn_red.png"],"mutagen_generator_assignment":[0,1],"goal":4,"start":1,"action_noise":0.2,"location_history":"[1,2,3,2,3,2,1,0,5,4]","action_history":"[0,1,1,1,0,0,1,1,1]","mutagen_history":"[0,1,1,1,0,0,1,1,1]","location_rts":"[1486,1346,506,441,389,639,526,420,539]","trial_type":"fractal-mutation","trial_index":173,"time_elapsed":3864666,"internal_node_id":"0.0-5.0-69.0"},{"group":"hexagon_bi","fractal_assignment":["../images/pnk_blu.png","../images/blu_wht.png","../images/ylw_slt.png","../images/org_blu.png","../images/gry_blk.png","../images/cyn_red.png"],"mutagen_generator_assignment":[0,1],"goal":0,"start":4,"action_noise":0.2,"location_history":"[4,5,0]","action_history":"[0,0]","mutagen_history":"[0,0]","location_rts":"[2297,776]","trial_type":"fractal-mutation","trial_index":174,"time_elapsed":3873367,"internal_node_id":"0.0-5.0-70.0"},{"group":"hexagon_bi","fractal_assignment":["../images/pnk_blu.png","../images/blu_wht.png","../images/ylw_slt.png","../images/org_blu.png","../images/gry_blk.png","../images/cyn_red.png"],"mutagen_generator_assignment":[0,1],"goal":3,"start":0,"action_noise":0.2,"location_history":"[0,1,2,1,0,5,0,1,2,3]","action_history":"[1,0,0,0,1,0,1,0,0]","mutagen_history":"[1,0,0,0,1,0,1,0,0]","location_rts":"[769,1184,683,535,587,754,647,479,484]","trial_type":"fractal-mutation","trial_index":175,"time_elapsed":3892573,"internal_node_id":"0.0-5.0-71.0"},{"group":"hexagon_bi","fractal_assignment":["../images/pnk_blu.png","../images/blu_wht.png","../images/ylw_slt.png","../images/org_blu.png","../images/gry_blk.png","../images/cyn_red.png"],"mutagen_generator_assignment":[0,1],"goal":1,"start":3,"action_noise":0.2,"location_history":"[3,2,1]","action_history":"[1,0]","mutagen_history":"[1,0]","location_rts":"[514,867]","trial_type":"fractal-mutation","trial_index":176,"time_elapsed":3899573,"internal_node_id":"0.0-5.0-72.0"},{"group":"hexagon_bi","fractal_assignment":["../images/pnk_blu.png","../images/blu_wht.png","../images/ylw_slt.png","../images/org_blu.png","../images/gry_blk.png","../images/cyn_red.png"],"mutagen_generator_assignment":[0,1],"goal":0,"start":1,"action_noise":0.2,"location_history":"[1,2,3,4,5,0]","action_history":"[0,1,0,1,0]","mutagen_history":"[0,1,0,1,0]","location_rts":"[732,579,789,648,398]","trial_type":"fractal-mutation","trial_index":177,"time_elapsed":3911532,"internal_node_id":"0.0-5.0-73.0"},{"group":"hexagon_bi","fractal_assignment":["../images/pnk_blu.png","../images/blu_wht.png","../images/ylw_slt.png","../images/org_blu.png","../images/gry_blk.png","../images/cyn_red.png"],"mutagen_generator_assignment":[0,1],"goal":2,"start":0,"action_noise":0.2,"location_history":"[0,5,4,5,4,3,4,3,2]","action_history":"[0,0,1,1,0,0,0,1]","mutagen_history":"[0,0,1,1,0,0,0,1]","location_rts":"[1374,746,404,473,804,600,532,540]","trial_type":"fractal-mutation","trial_index":178,"time_elapsed":3929035,"internal_node_id":"0.0-5.0-74.0"},{"group":"hexagon_bi","fractal_assignment":["../images/pnk_blu.png","../images/blu_wht.png","../images/ylw_slt.png","../images/org_blu.png","../images/gry_blk.png","../images/cyn_red.png"],"mutagen_generator_assignment":[0,1],"goal":4,"start":2,"action_noise":0.2,"location_history":"[2,3,4]","action_history":"[1,0]","mutagen_history":"[1,0]","location_rts":"[2047,845]","trial_type":"fractal-mutation","trial_index":179,"time_elapsed":3937564,"internal_node_id":"0.0-5.0-75.0"},{"group":"hexagon_bi","fractal_assignment":["../images/pnk_blu.png","../images/blu_wht.png","../images/ylw_slt.png","../images/org_blu.png","../images/gry_blk.png","../images/cyn_red.png"],"mutagen_generator_assignment":[0,1],"goal":5,"start":4,"action_noise":0.2,"location_history":"[4,5]","action_history":"[1]","mutagen_history":"[1]","location_rts":"[866]","trial_type":"fractal-mutation","trial_index":180,"time_elapsed":3943010,"internal_node_id":"0.0-5.0-76.0"},{"group":"hexagon_bi","fractal_assignment":["../images/pnk_blu.png","../images/blu_wht.png","../images/ylw_slt.png","../images/org_blu.png","../images/gry_blk.png","../images/cyn_red.png"],"mutagen_generator_assignment":[0,1],"goal":2,"start":5,"action_noise":0.2,"location_history":"[5,4,5,4,5,0,5,0,1,2]","action_history":"[1,0,1,0,0,0,0,1,0]","mutagen_history":"[1,0,1,0,0,0,0,1,0]","location_rts":"[692,674,579,640,633,745,538,410,880]","trial_type":"fractal-mutation","trial_index":181,"time_elapsed":3961855,"internal_node_id":"0.0-5.0-77.0"},{"group":"hexagon_bi","fractal_assignment":["../images/pnk_blu.png","../images/blu_wht.png","../images/ylw_slt.png","../images/org_blu.png","../images/gry_blk.png","../images/cyn_red.png"],"mutagen_generator_assignment":[0,1],"goal":3,"start":2,"action_noise":0.2,"location_history":"[2,3]","action_history":"[1]","mutagen_history":"[1]","location_rts":"[1344]","trial_type":"fractal-mutation","trial_index":182,"time_elapsed":3967770,"internal_node_id":"0.0-5.0-78.0"},{"group":"hexagon_bi","fractal_assignment":["../images/pnk_blu.png","../images/blu_wht.png","../images/ylw_slt.png","../images/org_blu.png","../images/gry_blk.png","../images/cyn_red.png"],"mutagen_generator_assignment":[0,1],"goal":1,"start":3,"action_noise":0.2,"location_history":"[3,4,3,4,5,4,5,4,3,4,3,2,1]","action_history":"[0,1,0,1,1,1,0,0,0,0,1,1]","mutagen_history":"[0,1,0,1,1,1,0,0,0,0,1,1]","location_rts":"[888,848,600,670,539,570,639,399,565,380,398,795]","trial_type":"fractal-mutation","trial_index":183,"time_elapsed":3991338,"internal_node_id":"0.0-5.0-79.0"},{"group":"hexagon_bi","fractal_assignment":["../images/pnk_blu.png","../images/blu_wht.png","../images/ylw_slt.png","../images/org_blu.png","../images/gry_blk.png","../images/cyn_red.png"],"mutagen_generator_assignment":[0,1],"goal":4,"start":1,"action_noise":0.2,"location_history":"[1,2,1,2,1,0,1,0,1,0,5,4]","action_history":"[0,0,1,0,0,1,1,0,0,0,0]","mutagen_history":"[0,0,1,0,0,1,1,0,0,0,0]","location_rts":"[1365,659,459,700,831,739,663,725,698,571,1604]","trial_type":"fractal-mutation","trial_index":184,"time_elapsed":4015562,"internal_node_id":"0.0-5.0-80.0"},{"group":"hexagon_bi","fractal_assignment":["../images/pnk_blu.png","../images/blu_wht.png","../images/ylw_slt.png","../images/org_blu.png","../images/gry_blk.png","../images/cyn_red.png"],"mutagen_generator_assignment":[0,1],"goal":5,"start":4,"action_noise":0.2,"location_history":"[4,3,2,1,2,1,0,1,0,1,2,3,4,3,2,3,4,3,4,3,4,3,4,5]","action_history":"[0,0,0,0,0,0,1,1,1,1,0,0,0,1,1,1,1,1,1,0,0,0,1]","mutagen_history":"[0,0,0,0,0,0,1,1,1,1,0,0,0,1,1,1,1,1,1,0,0,0,1]","location_rts":"[3559,1138,1196,599,744,504,1320,934,656,413,1066,972,887,1316,613,498,501,350,415,429,455,463,474]","trial_type":"fractal-mutation","trial_index":185,"time_elapsed":4063031,"internal_node_id":"0.0-5.0-81.0"},{"group":"hexagon_bi","fractal_assignment":["../images/pnk_blu.png","../images/blu_wht.png","../images/ylw_slt.png","../images/org_blu.png","../images/gry_blk.png","../images/cyn_red.png"],"mutagen_generator_assignment":[0,1],"goal":0,"start":5,"action_noise":0.2,"location_history":"[5,0]","action_history":"[0]","mutagen_history":"[0]","location_rts":"[883]","trial_type":"fractal-mutation","trial_index":186,"time_elapsed":4068489,"internal_node_id":"0.0-5.0-82.0"},{"group":"hexagon_bi","fractal_assignment":["../images/pnk_blu.png","../images/blu_wht.png","../images/ylw_slt.png","../images/org_blu.png","../images/gry_blk.png","../images/cyn_red.png"],"mutagen_generator_assignment":[0,1],"goal":2,"start":0,"action_noise":0.2,"location_history":"[0,1,0,5,0,1,2]","action_history":"[0,0,0,1,1,0]","mutagen_history":"[0,0,0,1,1,0]","location_rts":"[719,578,544,1294,510,635]","trial_type":"fractal-mutation","trial_index":187,"time_elapsed":4082661,"internal_node_id":"0.0-5.0-83.0"},{"group":"hexagon_bi","fractal_assignment":["../images/pnk_blu.png","../images/blu_wht.png","../images/ylw_slt.png","../images/org_blu.png","../images/gry_blk.png","../images/cyn_red.png"],"mutagen_generator_assignment":[0,1],"goal":0,"start":2,"action_noise":0.2,"location_history":"[2,1,0]","action_history":"[0,1]","mutagen_history":"[0,1]","location_rts":"[586,472]","trial_type":"fractal-mutation","trial_index":188,"time_elapsed":4089363,"internal_node_id":"0.0-5.0-84.0"},{"group":"hexagon_bi","fractal_assignment":["../images/pnk_blu.png","../images/blu_wht.png","../images/ylw_slt.png","../images/org_blu.png","../images/gry_blk.png","../images/cyn_red.png"],"mutagen_generator_assignment":[0,1],"goal":5,"start":0,"action_noise":0.2,"location_history":"[0,5]","action_history":"[0]","mutagen_history":"[0]","location_rts":"[453]","trial_type":"fractal-mutation","trial_index":189,"time_elapsed":4094390,"internal_node_id":"0.0-5.0-85.0"},{"group":"hexagon_bi","fractal_assignment":["../images/pnk_blu.png","../images/blu_wht.png","../images/ylw_slt.png","../images/org_blu.png","../images/gry_blk.png","../images/cyn_red.png"],"mutagen_generator_assignment":[0,1],"goal":1,"start":5,"action_noise":0.2,"location_history":"[5,4,3,2,1]","action_history":"[1,0,1,0]","mutagen_history":"[1,0,1,0]","location_rts":"[1731,588,604,591]","trial_type":"fractal-mutation","trial_index":190,"time_elapsed":4105626,"internal_node_id":"0.0-5.0-86.0"},{"group":"hexagon_bi","fractal_assignment":["../images/pnk_blu.png","../images/blu_wht.png","../images/ylw_slt.png","../images/org_blu.png","../images/gry_blk.png","../images/cyn_red.png"],"mutagen_generator_assignment":[0,1],"goal":4,"start":1,"action_noise":0.2,"location_history":"[1,2,1,0,5,0,5,4]","action_history":"[0,1,0,0,0,0,1]","mutagen_history":"[0,1,0,0,0,0,1]","location_rts":"[1013,709,633,762,514,792,624]","trial_type":"fractal-mutation","trial_index":191,"time_elapsed":4121615,"internal_node_id":"0.0-5.0-87.0"},{"group":"hexagon_bi","fractal_assignment":["../images/pnk_blu.png","../images/blu_wht.png","../images/ylw_slt.png","../images/org_blu.png","../images/gry_blk.png","../images/cyn_red.png"],"mutagen_generator_assignment":[0,1],"goal":3,"start":4,"action_noise":0.2,"location_history":"[4,3]","action_history":"[0]","mutagen_history":"[0]","location_rts":"[805]","trial_type":"fractal-mutation","trial_index":192,"time_elapsed":4126990,"internal_node_id":"0.0-5.0-88.0"},{"group":"hexagon_bi","fractal_assignment":["../images/pnk_blu.png","../images/blu_wht.png","../images/ylw_slt.png","../images/org_blu.png","../images/gry_blk.png","../images/cyn_red.png"],"mutagen_generator_assignment":[0,1],"goal":5,"start":3,"action_noise":0.2,"location_history":"[3,4,3,4,3,4,3,4,3,2,3,4,5]","action_history":"[0,1,0,0,0,1,0,1,1,1,0,1]","mutagen_history":"[0,1,0,0,0,1,0,1,1,1,0,1]","location_rts":"[1180,802,503,680,646,582,445,432,430,544,571,421]","trial_type":"fractal-mutation","trial_index":193,"time_elapsed":4150524,"internal_node_id":"0.0-5.0-89.0"},{"group":"hexagon_bi","fractal_assignment":["../images/pnk_blu.png","../images/blu_wht.png","../images/ylw_slt.png","../images/org_blu.png","../images/gry_blk.png","../images/cyn_red.png"],"mutagen_generator_assignment":[0,1],"goal":1,"start":5,"action_noise":0.2,"location_history":"[5,0,1]","action_history":"[0,1]","mutagen_history":"[0,1]","location_rts":"[792,580]","trial_type":"fractal-mutation","trial_index":194,"time_elapsed":4157522,"internal_node_id":"0.0-5.0-90.0"},{"group":"hexagon_bi","fractal_assignment":["../images/pnk_blu.png","../images/blu_wht.png","../images/ylw_slt.png","../images/org_blu.png","../images/gry_blk.png","../images/cyn_red.png"],"mutagen_generator_assignment":[0,1],"goal":2,"start":1,"action_noise":0.2,"location_history":"[1,2]","action_history":"[0]","mutagen_history":"[0]","location_rts":"[2251]","trial_type":"fractal-mutation","trial_index":195,"time_elapsed":4164345,"internal_node_id":"0.0-5.0-91.0"},{"group":"hexagon_bi","fractal_assignment":["../images/pnk_blu.png","../images/blu_wht.png","../images/ylw_slt.png","../images/org_blu.png","../images/gry_blk.png","../images/cyn_red.png"],"mutagen_generator_assignment":[0,1],"goal":4,"start":2,"action_noise":0.2,"location_history":"[2,3,4]","action_history":"[0,0]","mutagen_history":"[0,0]","location_rts":"[1600,746]","trial_type":"fractal-mutation","trial_index":196,"time_elapsed":4172323,"internal_node_id":"0.0-5.0-92.0"},{"group":"hexagon_bi","fractal_assignment":["../images/pnk_blu.png","../images/blu_wht.png","../images/ylw_slt.png","../images/org_blu.png","../images/gry_blk.png","../images/cyn_red.png"],"mutagen_generator_assignment":[0,1],"goal":0,"start":4,"action_noise":0.2,"location_history":"[4,5,0]","action_history":"[1,0]","mutagen_history":"[1,0]","location_rts":"[1499,637]","trial_type":"fractal-mutation","trial_index":197,"time_elapsed":4180085,"internal_node_id":"0.0-5.0-93.0"},{"group":"hexagon_bi","fractal_assignment":["../images/pnk_blu.png","../images/blu_wht.png","../images/ylw_slt.png","../images/org_blu.png","../images/gry_blk.png","../images/cyn_red.png"],"mutagen_generator_assignment":[0,1],"goal":3,"start":0,"action_noise":0.2,"location_history":"[0,5,4,3]","action_history":"[0,1,0]","mutagen_history":"[0,1,0]","location_rts":"[1184,1201,533]","trial_type":"fractal-mutation","trial_index":198,"time_elapsed":4189728,"internal_node_id":"0.0-5.0-94.0"},{"group":"hexagon_bi","fractal_assignment":["../images/pnk_blu.png","../images/blu_wht.png","../images/ylw_slt.png","../images/org_blu.png","../images/gry_blk.png","../images/cyn_red.png"],"mutagen_generator_assignment":[0,1],"goal":0,"start":3,"action_noise":0.2,"location_history":"[3,2,1,2,3,2,3,2,1,2,1,2,1,0]","action_history":"[1,0,0,1,1,1,1,0,0,0,1,1,1]","mutagen_history":"[1,0,0,1,1,1,1,0,0,0,1,1,1]","location_rts":"[1253,753,415,710,848,551,881,330,618,617,403,544,472]","trial_type":"fractal-mutation","trial_index":199,"time_elapsed":4215459,"internal_node_id":"0.0-5.0-95.0"},{"group":"hexagon_bi","fractal_assignment":["../images/pnk_blu.png","../images/blu_wht.png","../images/ylw_slt.png","../images/org_blu.png","../images/gry_blk.png","../images/cyn_red.png"],"mutagen_generator_assignment":[0,1],"goal":4,"start":0,"action_noise":0.2,"location_history":"[0,5,4]","action_history":"[0,0]","mutagen_history":"[0,0]","location_rts":"[3494,737]","trial_type":"fractal-mutation","trial_index":200,"time_elapsed":4225315,"internal_node_id":"0.0-5.0-96.0"},{"group":"hexagon_bi","fractal_assignment":["../images/pnk_blu.png","../images/blu_wht.png","../images/ylw_slt.png","../images/org_blu.png","../images/gry_blk.png","../images/cyn_red.png"],"mutagen_generator_assignment":[0,1],"goal":5,"start":4,"action_noise":0.2,"location_history":"[4,3,4,5]","action_history":"[0,1,1]","mutagen_history":"[0,1,1]","location_rts":"[1215,1560,733]","trial_type":"fractal-mutation","trial_index":201,"time_elapsed":4235510,"internal_node_id":"0.0-5.0-97.0"},{"group":"hexagon_bi","fractal_assignment":["../images/pnk_blu.png","../images/blu_wht.png","../images/ylw_slt.png","../images/org_blu.png","../images/gry_blk.png","../images/cyn_red.png"],"mutagen_generator_assignment":[0,1],"goal":2,"start":5,"action_noise":0.2,"location_history":"[5,4,5,0,5,0,5,0,1,2]","action_history":"[1,0,0,0,0,0,0,1,0]","mutagen_history":"[1,0,0,0,0,0,0,1,0]","location_rts":"[1232,803,456,599,467,587,429,155,918]","trial_type":"fractal-mutation","trial_index":202,"time_elapsed":4254248,"internal_node_id":"0.0-5.0-98.0"},{"group":"hexagon_bi","fractal_assignment":["../images/pnk_blu.png","../images/blu_wht.png","../images/ylw_slt.png","../images/org_blu.png","../images/gry_blk.png","../images/cyn_red.png"],"mutagen_generator_assignment":[0,1],"goal":1,"start":2,"action_noise":0.2,"location_history":"[2,1]","action_history":"[0]","mutagen_history":"[0]","location_rts":"[1818]","trial_type":"fractal-mutation","trial_index":203,"time_elapsed":4260630,"internal_node_id":"0.0-5.0-99.0"},{"view_history":"[{\"page_index\":0,\"viewing_time\":3381}]","rt":3381,"trial_type":"instructions","trial_index":204,"time_elapsed":4265014,"internal_node_id":"0.0-6.0"},{"rt":151611,"responses":"{\"Q0\":\"Gosh, I have no idea, possibly learning patterns, but I hope it doesn't measure intelligence or anything like that because this is insanely difficult and I don't think I did well at all.  I don't feel like I've learned anything from yesterday and every time I thought I made sense of a direction or formula, I could swear everything kept changing on me. \"}","trial_type":"survey-text","trial_index":205,"time_elapsed":4417631,"internal_node_id":"0.0-7.0-0.0"},{"rt":38284,"responses":"{\"Q0\":\"Performance under stress, maybe?  I really don't know, but it was really hard.\"}","trial_type":"survey-text","trial_index":206,"time_elapsed":4456919,"internal_node_id":"0.0-7.0-1.0"},{"rt":25350,"responses":"{\"Q0\":\"<img src='../images/diagrams/hexagon_tri.png'>\"}","trial_type":"survey-multi-choice","trial_index":207,"time_elapsed":4483277,"internal_node_id":"0.0-7.0-2.0"},{"rt":38853,"assignments":["../images/pnk_blu.png","../images/org_blu.png","../images/cyn_red.png","../images/gry_blk.png","../images/ylw_slt.png","../images/blu_wht.png"],"trial_type":"drag-drop-on-image","trial_index":208,"time_elapsed":4523134,"internal_node_id":"0.0-7.0-3.0"},{"rt":12873,"responses":"{\"Q0\":\"1\"}","trial_type":"survey-likert","trial_index":209,"time_elapsed":4537011,"internal_node_id":"0.0-7.0-4.0"},{"rt":41615,"responses":"{\"Q0\":\"Both changed patterns eventually, I think, and both were really confusing (to me at least).\"}","trial_type":"survey-text","trial_index":210,"time_elapsed":4579629,"internal_node_id":"0.0-7.0-5.0"},{"rt":10474,"responses":"{\"Q0\":\"Yes\"}","trial_type":"survey-multi-choice","trial_index":211,"time_elapsed":4591106,"internal_node_id":"0.0-7.0-6.0"},{"rt":9980,"responses":"{\"Q0\":\"B