[{"view_history":"[{\"page_index\":0,\"viewing_time\":9653},{\"page_index\":1,\"viewing_time\":8080}]","rt":17733,"trial_type":"instructions","trial_index":0,"time_elapsed":17734,"internal_node_id":"0.0-0.0"},{"view_history":"[{\"page_index\":0,\"viewing_time\":20389},{\"page_index\":1,\"viewing_time\":2166703}]","rt":2187093,"trial_type":"instructions","trial_index":1,"time_elapsed":2205829,"internal_node_id":"0.0-1.0"},{"group":"hexagon_tri","room_assignment":["grey","green","red","blue","purple","yellow"],"door_color_assignment":["white","black"],"door_generator_assignment":[0,1],"goal":2,"start":1,"action_noise":0.2,"location_history":"[1,5,0,1,3,4,2]","action_history":"[1,1,1,0,1,1]","door_history":"[1,1,1,0,1,1]","location_rts":"[1858,482,471,670,563,428]","trial_type":"two-door-navigation","trial_index":2,"time_elapsed":2219937,"internal_node_id":"0.0-2.0-0.0"},{"group":"hexagon_tri","room_assignment":["grey","green","red","blue","purple","yellow"],"door_color_assignment":["white","black"],"door_generator_assignment":[0,1],"goal":0,"start":2,"action_noise":0.2,"location_history":"[2,3,2,1,5,4,2,1,3,4,2,1,3,2,1,5,4,2,3,2,3,4,0]","action_history":"[1,0,0,0,0,1,0,0,1,1,0,0,0,1,1,1,1,1,0,1,1,0]","door_history":"[1,0,0,0,0,1,0,0,1,1,0,0,0,1,1,1,1,1,0,1,1,0]","location_rts":"[1914,742,441,490,471,480,991,436,674,420,554,373,393,523,404,336,367,377,281,939,307,359]","trial_type":"two-door-navigation","trial_index":3,"time_elapsed":2258189,"internal_node_id":"0.0-2.0-1.0"},{"group":"hexagon_tri","room_assignment":["grey","green","red","blue","purple","yellow"],"door_color_assignment":["white","black"],"door_generator_assignment":[0,1],"goal":5,"start":0,"action_noise":0.2,"location_history":"[0,1,5]","action_history":"[0,1]","door_history":"[0,1]","location_rts":"[1393,1032]","trial_type":"two-door-navigation","trial_index":4,"time_elapsed":2266158,"internal_node_id":"0.0-2.0-2.0"},{"group":"hexagon_tri","room_assignment":["grey","green","red","blue","purple","yellow"],"door_color_assignment":["white","black"],"door_generator_assignment":[0,1],"goal":3,"start":5,"action_noise":0.2,"location_history":"[5,4,2,1,5,0,1,5,4,2,3]","action_history":"[0,1,1,1,1,1,0,0,1,1]","door_history":"[0,1,1,1,1,1,0,0,1,1]","location_rts":"[12527,414,418,430,382,598,601,1089,220,474]","trial_type":"two-door-navigation","trial_index":5,"time_elapsed":2297070,"internal_node_id":"0.0-2.0-3.0"},{"group":"hexagon_tri","room_assignment":["grey","green","red","blue","purple","yellow"],"door_color_assignment":["white","black"],"door_generator_assignment":[0,1],"goal":4,"start":3,"action_noise":0.2,"location_history":"[3,4]","action_history":"[1]","door_history":"[1]","location_rts":"[1729]","trial_type":"two-door-navigation","trial_index":6,"time_elapsed":2303329,"internal_node_id":"0.0-2.0-4.0"},{"group":"hexagon_tri","room_assignment":["grey","green","red","blue","purple","yellow"],"door_color_assignment":["white","black"],"door_generator_assignment":[0,1],"goal":0,"start":4,"action_noise":0.2,"location_history":"[4,2,3,2,3,4,2,1,3,4,2,1,5,4,2,1,5,0]","action_history":"[1,1,0,1,1,1,0,0,1,1,0,0,0,1,1,1,1]","door_history":"[1,1,0,1,1,1,0,0,1,1,0,0,0,1,1,1,1]","location_rts":"[2310,752,581,739,467,462,263,437,403,425,430,521,532,946,403,650,353]","trial_type":"two-door-navigation","trial_index":7,"time_elapsed":2334911,"internal_node_id":"0.0-2.0-5.0"},{"group":"hexagon_tri","room_assignment":["grey","green","red","blue","purple","yellow"],"door_color_assignment":["white","black"],"door_generator_assignment":[0,1],"goal":4,"start":0,"action_noise":0.2,"location_history":"[0,1,5,4]","action_history":"[0,1,1]","door_history":"[0,1,1]","location_rts":"[1524,506,396]","trial_type":"two-door-navigation","trial_index":8,"time_elapsed":2343917,"internal_node_id":"0.0-2.0-6.0"},{"group":"hexagon_tri","room_assignment":["grey","green","red","blue","purple","yellow"],"door_color_assignment":["white","black"],"door_generator_assignment":[0,1],"goal":3,"start":4,"action_noise":0.2,"location_history":"[4,0,5,0,5,0,1,5,0,1,3]","action_history":"[0,0,1,1,1,0,1,1,1,1]","door_history":"[0,0,1,1,1,0,1,1,1,1]","location_rts":"[1561,730,493,517,478,1074,237,447,945,494]","trial_type":"two-door-navigation","trial_index":9,"time_elapsed":2364636,"internal_node_id":"0.0-2.0-7.0"},{"group":"hexagon_tri","room_assignment":["grey","green","red","blue","purple","yellow"],"door_color_assignment":["white","black"],"door_generator_assignment":[0,1],"goal":2,"start":3,"action_noise":0.2,"location_history":"[3,2]","action_history":"[0]","door_history":"[0]","location_rts":"[1978]","trial_type":"two-door-navigation","trial_index":10,"time_elapsed":2371141,"internal_node_id":"0.0-2.0-8.0"},{"group":"hexagon_tri","room_assignment":["grey","green","red","blue","purple","yellow"],"door_color_assignment":["white","black"],"door_generator_assignment":[0,1],"goal":1,"start":2,"action_noise":0.2,"location_history":"[2,3,4,2,1]","action_history":"[1,1,1,1]","door_history":"[1,1,1,1]","location_rts":"[2468,675,739,722]","trial_type":"two-door-navigation","trial_index":11,"time_elapsed":2383349,"internal_node_id":"0.0-2.0-9.0"},{"group":"hexagon_tri","room_assignment":["grey","green","red","blue","purple","yellow"],"door_color_assignment":["white","black"],"door_generator_assignment":[0,1],"goal":5,"start":1,"action_noise":0.2,"location_history":"[1,5]","action_history":"[0]","door_history":"[0]","location_rts":"[1783]","trial_type":"two-door-navigation","trial_index":12,"time_elapsed":2389665,"internal_node_id":"0.0-2.0-10.0"},{"group":"hexagon_tri","room_assignment":["grey","green","red","blue","purple","yellow"],"door_color_assignment":["white","black"],"door_generator_assignment":[0,1],"goal":0,"start":5,"action_noise":0.2,"location_history":"[5,4,0]","action_history":"[0,0]","door_history":"[0,0]","location_rts":"[1988,459]","trial_type":"two-door-navigation","trial_index":13,"time_elapsed":2397663,"internal_node_id":"0.0-2.0-11.0"},{"group":"hexagon_tri","room_assignment":["grey","green","red","blue","purple","yellow"],"door_color_assignment":["white","black"],"door_generator_assignment":[0,1],"goal":4,"start":0,"action_noise":0.2,"location_history":"[0,1,5,0,5,4]","action_history":"[1,1,1,1,0]","door_history":"[1,1,1,1,0]","location_rts":"[1939,441,486,490,476]","trial_type":"two-door-navigation","trial_index":14,"time_elapsed":2410121,"internal_node_id":"0.0-2.0-12.0"},{"group":"hexagon_tri","room_assignment":["grey","green","red","blue","purple","yellow"],"door_color_assignment":["white","black"],"door_generator_assignment":[0,1],"goal":2,"start":4,"action_noise":0.2,"location_history":"[4,2]","action_history":"[1]","door_history":"[1]","location_rts":"[1760]","trial_type":"two-door-navigation","trial_index":15,"time_elapsed":2416407,"internal_node_id":"0.0-2.0-13.0"},{"group":"hexagon_tri","room_assignment":["grey","green","red","blue","purple","yellow"],"door_color_assignment":["white","black"],"door_generator_assignment":[0,1],"goal":1,"start":2,"action_noise":0.2,"location_history":"[2,3,2,3,4,0,5,0,1]","action_history":"[1,1,1,1,0,1,1,1]","door_history":"[1,1,1,1,0,1,1,1]","location_rts":"[2705,535,1092,561,799,544,367,617]","trial_type":"two-door-navigation","trial_index":16,"time_elapsed":2435320,"internal_node_id":"0.0-2.0-14.0"},{"group":"hexagon_tri","room_assignment":["grey","green","red","blue","purple","yellow"],"door_color_assignment":["white","black"],"door_generator_assignment":[0,1],"goal":3,"start":1,"action_noise":0.2,"location_history":"[1,3]","action_history":"[0]","door_history":"[0]","location_rts":"[2402]","trial_type":"two-door-navigation","trial_index":17,"time_elapsed":2442247,"internal_node_id":"0.0-2.0-15.0"},{"group":"hexagon_tri","room_assignment":["grey","green","red","blue","purple","yellow"],"door_color_assignment":["white","black"],"door_generator_assignment":[0,1],"goal":5,"start":3,"action_noise":0.2,"location_history":"[3,2,1,5]","action_history":"[0,0,1]","door_history":"[0,0,1]","location_rts":"[3472,816,766]","trial_type":"two-door-navigation","trial_index":18,"time_elapsed":2453876,"internal_node_id":"0.0-2.0-16.0"},{"group":"hexagon_tri","room_assignment":["grey","green","red","blue","purple","yellow"],"door_color_assignment":["white","black"],"door_generator_assignment":[0,1],"goal":0,"start":5,"action_noise":0.2,"location_history":"[5,4,0]","action_history":"[0,0]","door_history":"[0,0]","location_rts":"[17294,677]","trial_type":"two-door-navigation","trial_index":19,"time_elapsed":2477407,"internal_node_id":"0.0-2.0-17.0"},{"group":"hexagon_tri","room_assignment":["grey","green","red","blue","purple","yellow"],"door_color_assignment":["white","black"],"door_generator_assignment":[0,1],"goal":5,"start":0,"action_noise":0.2,"location_history":"[0,1,3,2,1,3,2,1,5]","action_history":"[0,0,0,0,0,0,1,0]","door_history":"[0,0,0,0,0,0,1,0]","location_rts":"[1271,560,494,578,474,544,668,414]","trial_type":"two-door-navigation","trial_index":20,"time_elapsed":2494094,"internal_node_id":"0.0-2.0-18.0"},{"group":"hexagon_tri","room_assignment":["grey","green","red","blue","purple","yellow"],"door_color_assignment":["white","black"],"door_generator_assignment":[0,1],"goal":3,"start":5,"action_noise":0.2,"location_history":"[5,0,5,0,1,3]","action_history":"[1,0,1,1,0]","door_history":"[1,0,1,1,0]","location_rts":"[1644,976,359,560,524]","trial_type":"two-door-navigation","trial_index":21,"time_elapsed":2506783,"internal_node_id":"0.0-2.0-19.0"},{"group":"hexagon_tri","room_assignment":["grey","green","red","blue","purple","yellow"],"door_color_assignment":["white","black"],"door_generator_assignment":[0,1],"goal":4,"start":3,"action_noise":0.2,"location_history":"[3,4]","action_history":"[1]","door_history":"[1]","location_rts":"[1987]","trial_type":"two-door-navigation","trial_index":22,"time_elapsed":2513298,"internal_node_id":"0.0-2.0-20.0"},{"group":"hexagon_tri","room_assignment":["grey","green","red","blue","purple","yellow"],"door_color_assignment":["white","black"],"door_generator_assignment":[0,1],"goal":1,"start":4,"action_noise":0.2,"location_history":"[4,2,3,4,2,3,4,2,1]","action_history":"[0,1,1,1,1,1,1,0]","door_history":"[0,1,1,1,1,1,1,0]","location_rts":"[2531,753,485,551,478,438,514,1051]","trial_type":"two-door-navigation","trial_index":23,"time_elapsed":2531793,"internal_node_id":"0.0-2.0-21.0"},{"group":"hexagon_tri","room_assignment":["grey","green","red","blue","purple","yellow"],"door_color_assignment":["white","black"],"door_generator_assignment":[0,1],"goal":2,"start":1,"action_noise":0.2,"location_history":"[1,3,4,2]","action_history":"[1,1,1]","door_history":"[1,1,1]","location_rts":"[4970,4219,4964]","trial_type":"two-door-navigation","trial_index":24,"time_elapsed":2552523,"internal_node_id":"0.0-2.0-22.0"},{"group":"hexagon_tri","room_assignment":["grey","green","red","blue","purple","yellow"],"door_color_assignment":["white","black"],"door_generator_assignment":[0,1],"goal":3,"start":2,"action_noise":0.2,"location_history":"[2,3]","action_history":"[1]","door_history":"[1]","location_rts":"[34159]","trial_type":"two-door-navigation","trial_index":25,"time_elapsed":2591212,"internal_node_id":"0.0-2.0-23.0"},{"group":"hexagon_tri","room_assignment":["grey","green","red","blue","purple","yellow"],"door_color_assignment":["white","black"],"door_generator_assignment":[0,1],"goal":5,"start":3,"action_noise":0.2,"location_history":"[3,2,1,3,4,0,5]","action_history":"[1,0,1,1,0,0]","door_history":"[1,0,1,1,0,0]","location_rts":"[4102,426,556,1094,432,474]","trial_type":"two-door-navigation","trial_index":26,"time_elapsed":2607935,"internal_node_id":"0.0-2.0-24.0"},{"group":"hexagon_tri","room_assignment":["grey","green","red","blue","purple","yellow"],"door_color_assignment":["white","black"],"door_generator_assignment":[0,1],"goal":4,"start":5,"action_noise":0.2,"location_history":"[5,4]","action_history":"[1]","door_history":"[1]","location_rts":"[8716]","trial_type":"two-door-navigation","trial_index":27,"time_elapsed":2621177,"internal_node_id":"0.0-2.0-25.0"},{"group":"hexagon_tri","room_assignment":["grey","green","red","blue","purple","yellow"],"door_color_assignment":["white","black"],"door_generator_assignment":[0,1],"goal":0,"start":4,"action_noise":0.2,"location_history":"[4,0]","action_history":"[0]","door_history":"[0]","location_rts":"[14722]","trial_type":"two-door-navigation","trial_index":28,"time_elapsed":2640426,"internal_node_id":"0.0-2.0-26.0"},{"group":"hexagon_tri","room_assignment":["grey","green","red","blue","purple","yellow"],"door_color_assignment":["white","black"],"door_generator_assignment":[0,1],"goal":2,"start":0,"action_noise":0.2,"location_history":"[0,5,4,2]","action_history":"[1,1,1]","door_history":"[1,1,1]","location_rts":"[4369,988,1102]","trial_type":"two-door-navigation","trial_index":29,"time_elapsed":2653471,"internal_node_id":"0.0-2.0-27.0"},{"group":"hexagon_tri","room_assignment":["grey","green","red","blue","purple","yellow"],"door_color_assignment":["white","black"],"door_generator_assignment":[0,1],"goal":1,"start":2,"action_noise":0.2,"location_history":"[2,3,4,2,3,4,0,5,0,5,4,2,3,4,2,1]","action_history":"[1,1,1,1,1,0,1,1,1,0,1,1,1,1,1]","door_history":"[1,1,1,1,1,0,1,1,1,0,1,1,1,1,1]","location_rts":"[37341,481,474,464,2747,596,10614,1373,554,478,515,442,551,437,524]","trial_type":"two-door-navigation","trial_index":30,"time_elapsed":2729927,"internal_node_id":"0.0-2.0-28.0"},{"group":"hexagon_tri","room_assignment":["grey","green","red","blue","purple","yellow"],"door_color_assignment":["white","black"],"door_generator_assignment":[0,1],"goal":0,"start":1,"action_noise":0.2,"location_history":"[1,3,2,1,3,2,3,2,3,2,1,3,2,1,5,4,0]","action_history":"[0,0,0,1,0,0,1,1,0,0,0,0,0,1,0,0]","door_history":"[0,0,0,1,0,0,1,1,0,0,0,0,0,1,0,0]","location_rts":"[12180,434,465,415,392,394,1160,522,395,339,532,471,535,496,751,548]","trial_type":"two-door-navigation","trial_index":31,"time_elapsed":2769841,"internal_node_id":"0.0-2.0-29.0"},{"group":"hexagon_tri","room_assignment":["grey","green","red","blue","purple","yellow"],"door_color_assignment":["white","black"],"door_generator_assignment":[0,1],"goal":2,"start":0,"action_noise":0.2,"location_history":"[0,5,0,5,0,1,5,4,2]","action_history":"[1,1,0,1,1,1,1,1]","door_history":"[1,1,0,1,1,1,1,1]","location_rts":"[12599,549,140,412,422,620,346,881]","trial_type":"two-door-navigation","trial_index":32,"time_elapsed":2797509,"internal_node_id":"0.0-2.0-30.0"},{"group":"hexagon_tri","room_assignment":["grey","green","red","blue","purple","yellow"],"door_color_assignment":["white","black"],"door_generator_assignment":[0,1],"goal":4,"start":2,"action_noise":0.2,"location_history":"[2,3,4]","action_history":"[1,1]","door_history":"[1,1]","location_rts":"[13138,10739]","trial_type":"two-door-navigation","trial_index":33,"time_elapsed":2826937,"internal_node_id":"0.0-2.0-31.0"},{"group":"hexagon_tri","room_assignment":["grey","green","red","blue","purple","yellow"],"door_color_assignment":["white","black"],"door_generator_assignment":[0,1],"goal":1,"start":4,"action_noise":0.2,"location_history":"[4,0,1]","action_history":"[1,1]","door_history":"[1,1]","location_rts":"[13299,531]","trial_type":"two-door-navigation","trial_index":34,"time_elapsed":2846316,"internal_node_id":"0.0-2.0-32.0"},{"group":"hexagon_tri","room_assignment":["grey","green","red","blue","purple","yellow"],"door_color_assignment":["white","black"],"door_generator_assignment":[0,1],"goal":3,"start":1,"action_noise":0.2,"location_history":"[1,3]","action_history":"[1]","door_history":"[1]","location_rts":"[100154]","trial_type":"two-door-navigation","trial_index":35,"time_elapsed":2950997,"internal_node_id":"0.0-2.0-33.0"},{"group":"hexagon_tri","room_assignment":["grey","green","red","blue","purple","yellow"],"door_color_assignment":["white","black"],"door_generator_assignment":[0,1],"goal":5,"start":3,"action_noise":0.2,"location_history":"[3,2,1,3,2,3,2,1,3,4,2,1,5]","action_history":"[0,0,0,1,1,0,0,0,0,1,1,1]","door_history":"[0,0,0,1,1,0,0,0,0,1,1,1]","location_rts":"[1283,422,468,8164,917,400,477,871,524,903,983,588]","trial_type":"two-door-navigation","trial_index":36,"time_elapsed":2982787,"internal_node_id":"0.0-2.0-34.0"},{"group":"hexagon_tri","room_assignment":["grey","green","red","blue","purple","yellow"],"door_color_assignment":["white","black"],"door_generator_assignment":[0,1],"goal":2,"start":5,"action_noise":0.2,"location_history":"[5,0,1,3,4,2]","action_history":"[1,1,0,0,0]","door_history":"[1,1,0,0,0]","location_rts":"[14672,2537,468,256,238]","trial_type":"two-door-navigation","trial_index":37,"time_elapsed":3009582,"internal_node_id":"0.0-2.0-35.0"},{"group":"hexagon_tri","room_assignment":["grey","green","red","blue","purple","yellow"],"door_color_assignment":["white","black"],"door_generator_assignment":[0,1],"goal":0,"start":2,"action_noise":0.2,"location_history":"[2,1,5,4,0]","action_history":"[0,0,0,0]","door_history":"[0,0,0,0]","location_rts":"[1646,679,445,534]","trial_type":"two-door-navigation","trial_index":38,"time_elapsed":3020480,"internal_node_id":"0.0-2.0-36.0"},{"group":"hexagon_tri","room_assignment":["grey","green","red","blue","purple","yellow"],"door_color_assignment":["white","black"],"door_generator_assignment":[0,1],"goal":4,"start":0,"action_noise":0.2,"location_history":"[0,1,3,2,1,3,2,1,5,4]","action_history":"[1,0,0,0,0,0,0,1,0]","door_history":"[1,0,0,0,0,0,0,1,0]","location_rts":"[1829,628,531,393,514,517,467,1020,415]","trial_type":"two-door-navigation","trial_index":39,"time_elapsed":3039505,"internal_node_id":"0.0-2.0-37.0"},{"group":"hexagon_tri","room_assignment":["grey","green","red","blue","purple","yellow"],"door_color_assignment":["white","black"],"door_generator_assignment":[0,1],"goal":5,"start":4,"action_noise":0.2,"location_history":"[4,2,3,4,0,5]","action_history":"[0,1,1,0,0]","door_history":"[0,1,1,0,0]","location_rts":"[1806,777,616,586,442]","trial_type":"two-door-navigation","trial_index":40,"time_elapsed":3052345,"internal_node_id":"0.0-2.0-38.0"},{"group":"hexagon_tri","room_assignment":["grey","green","red","blue","purple","yellow"],"door_color_assignment":["white","black"],"door_generator_assignment":[0,1],"goal":1,"start":5,"action_noise":0.2,"location_history":"[5,0,5,4,0,5,4,0,1]","action_history":"[1,0,0,0,0,0,0,1]","door_history":"[1,0,0,0,0,0,0,1]","location_rts":"[8464,3625,1905,1819,2338,897,4776,607]","trial_type":"two-door-navigation","trial_index":41,"time_elapsed":3088454,"internal_node_id":"0.0-2.0-39.0"},{"group":"hexagon_tri","room_assignment":["grey","green","red","blue","purple","yellow"],"door_color_assignment":["white","black"],"door_generator_assignment":[0,1],"goal":3,"start":1,"action_noise":0.2,"location_history":"[1,3]","action_history":"[0]","door_history":"[0]","location_rts":"[1958]","trial_type":"two-door-navigation","trial_index":42,"time_elapsed":3094940,"internal_node_id":"0.0-2.0-40.0"},{"group":"hexagon_tri","room_assignment":["grey","green","red","blue","purple","yellow"],"door_color_assignment":["white","black"],"door_generator_assignment":[0,1],"goal":1,"start":3,"action_noise":0.2,"location_history":"[3,2,3,2,3,4,2,3,4,0,5,4,0,5,4,0,1]","action_history":"[1,1,0,0,0,1,1,0,0,0,1,0,0,0,0,1]","door_history":"[1,1,0,0,0,1,1,0,0,0,1,0,0,0,0,1]","location_rts":"[13223,25754,443,724,1170,15027,457,504,435,362,693,211,542,404,701,264]","trial_type":"two-door-navigation","trial_index":43,"time_elapsed":3175742,"internal_node_id":"0.0-2.0-41.0"},{"group":"hexagon_tri","room_assignment":["grey","green","red","blue","purple","yellow"],"door_color_assignment":["white","black"],"door_generator_assignment":[0,1],"goal":0,"start":1,"action_noise":0.2,"location_history":"[1,3,2,3,2,3,2,3,4,0]","action_history":"[0,1,1,0,0,0,1,1,0]","door_history":"[0,1,1,0,0,0,1,1,0]","location_rts":"[1635,510,809,381,524,612,711,791,668]","trial_type":"two-door-navigation","trial_index":44,"time_elapsed":3195087,"internal_node_id":"0.0-2.0-42.0"},{"group":"hexagon_tri","room_assignment":["grey","green","red","blue","purple","yellow"],"door_color_assignment":["white","black"],"door_generator_assignment":[0,1],"goal":4,"start":0,"action_noise":0.2,"location_history":"[0,5,0,5,0,1,5,0,1,3,4]","action_history":"[0,1,0,0,1,1,1,1,0,1]","door_history":"[0,1,0,0,1,1,1,1,0,1]","location_rts":"[1368,632,302,836,320,761,443,533,265,201]","trial_type":"two-door-navigation","trial_index":45,"time_elapsed":3214480,"internal_node_id":"0.0-2.0-43.0"},{"group":"hexagon_tri","room_assignment":["grey","green","red","blue","purple","yellow"],"door_color_assignment":["white","black"],"door_generator_assignment":[0,1],"goal":2,"start":4,"action_noise":0.2,"location_history":"[4,0,1,3,4,0,5,4,0,1,3,4,2]","action_history":"[1,1,0,0,0,0,0,0,1,0,1,1]","door_history":"[1,1,0,0,0,0,0,0,1,0,1,1]","location_rts":"[2051,1067,804,502,518,454,583,554,313,280,1082,372]","trial_type":"two-door-navigation","trial_index":46,"time_elapsed":3238833,"internal_node_id":"0.0-2.0-44.0"},{"group":"hexagon_tri","room_assignment":["grey","green","red","blue","purple","yellow"],"door_color_assignment":["white","black"],"door_generator_assignment":[0,1],"goal":3,"start":2,"action_noise":0.2,"location_history":"[2,3]","action_history":"[1]","door_history":"[1]","location_rts":"[1442]","trial_type":"two-door-navigation","trial_index":47,"time_elapsed":3244803,"internal_node_id":"0.0-2.0-45.0"},{"group":"hexagon_tri","room_assignment":["grey","green","red","blue","purple","yellow"],"door_color_assignment":["white","black"],"door_generator_assignment":[0,1],"goal":5,"start":3,"action_noise":0.2,"location_history":"[3,2,1,3,4,0,5]","action_history":"[0,0,1,1,0,0]","door_history":"[0,0,1,1,0,0]","location_rts":"[1357,495,816,554,688,948]","trial_type":"two-door-navigation","trial_index":48,"time_elapsed":3259308,"internal_node_id":"0.0-2.0-46.0"},{"group":"hexagon_tri","room_assignment":["grey","green","red","blue","purple","yellow"],"door_color_assignment":["white","black"],"door_generator_assignment":[0,1],"goal":4,"start":5,"action_noise":0.2,"location_history":"[5,4]","action_history":"[0]","door_history":"[0]","location_rts":"[2155]","trial_type":"two-door-navigation","trial_index":49,"time_elapsed":3265988,"internal_node_id":"0.0-2.0-47.0"},{"group":"hexagon_tri","room_assignment":["grey","green","red","blue","purple","yellow"],"door_color_assignment":["white","black"],"door_generator_assignment":[0,1],"goal":3,"start":4,"action_noise":0.2,"location_history":"[4,2,3]","action_history":"[1,1]","door_history":"[1,1]","location_rts":"[2122,904]","trial_type":"two-door-navigation","trial_index":50,"time_elapsed":3274570,"internal_node_id":"0.0-2.0-48.0"},{"group":"hexagon_tri","room_assignment":["grey","green","red","blue","purple","yellow"],"door_color_assignment":["white","black"],"door_generator_assignment":[0,1],"goal":1,"start":3,"action_noise":0.2,"location_history":"[3,2,1]","action_history":"[0,1]","door_history":"[0,1]","location_rts":"[1327,380]","trial_type":"two-door-navigation","trial_index":51,"time_elapsed":3281826,"internal_node_id":"0.0-2.0-49.0"},{"group":"hexagon_tri","room_assignment":["grey","green","red","blue","purple","yellow"],"door_color_assignment":["white","black"],"door_generator_assignment":[0,1],"goal":2,"start":1,"action_noise":0.2,"location_history":"[1,5,4,2]","action_history":"[1,0,1]","door_history":"[1,0,1]","location_rts":"[2062,581,331]","trial_type":"two-door-navigation","trial_index":52,"time_elapsed":3291385,"internal_node_id":"0.0-2.0-50.0"},{"group":"hexagon_tri","room_assignment":["grey","green","red","blue","purple","yellow"],"door_color_assignment":["white","black"],"door_generator_assignment":[0,1],"goal":0,"start":2,"action_noise":0.2,"location_history":"[2,3,2,3,4,0]","action_history":"[0,0,0,1,0]","door_history":"[0,0,0,1,0]","location_rts":"[1289,559,590,493,376]","trial_type":"two-door-navigation","trial_index":53,"time_elapsed":3303308,"internal_node_id":"0.0-2.0-51.0"},{"group":"hexagon_tri","room_assignment":["grey","green","red","blue","purple","yellow"],"door_color_assignment":["white","black"],"door_generator_assignment":[0,1],"goal":5,"start":0,"action_noise":0.2,"location_history":"[0,5]","action_history":"[0]","door_history":"[0]","location_rts":"[1252]","trial_type":"two-door-navigation","trial_index":54,"time_elapsed":3309087,"internal_node_id":"0.0-2.0-52.0"},{"group":"hexagon_tri","room_assignment":["grey","green","red","blue","purple","yellow"],"door_color_assignment":["white","black"],"door_generator_assignment":[0,1],"goal":1,"start":5,"action_noise":0.2,"location_history":"[5,0,5,4,0,1]","action_history":"[1,0,1,1,1]","door_history":"[1,0,1,1,1]","location_rts":"[3504,825,430,593,644]","trial_type":"two-door-navigation","trial_index":55,"time_elapsed":3323702,"internal_node_id":"0.0-2.0-53.0"},{"group":"hexagon_tri","room_assignment":["grey","green","red","blue","purple","yellow"],"door_color_assignment":["white","black"],"door_generator_assignment":[0,1],"goal":3,"start":1,"action_noise":0.2,"location_history":"[1,3]","action_history":"[0]","door_history":"[0]","location_rts":"[2177]","trial_type":"two-door-navigation","trial_index":56,"time_elapsed":3330405,"internal_node_id":"0.0-2.0-54.0"},{"group":"hexagon_tri","room_assignment":["grey","green","red","blue","purple","yellow"],"door_color_assignment":["white","black"],"door_generator_assignment":[0,1],"goal":5,"start":3,"action_noise":0.2,"location_history":"[3,4,0,5]","action_history":"[1,0,0]","door_history":"[1,0,0]","location_rts":"[1909,687,469]","trial_type":"two-door-navigation","trial_index":57,"time_elapsed":3340044,"internal_node_id":"0.0-2.0-55.0"},{"group":"hexagon_tri","room_assignment":["grey","green","red","blue","purple","yellow"],"door_color_assignment":["white","black"],"door_generator_assignment":[0,1],"goal":4,"start":5,"action_noise":0.2,"location_history":"[5,0,5,0,5,0,1,3,2,1,5,0,1,3,2,3,4]","action_history":"[1,0,0,0,1,1,0,0,0,1,0,0,0,0,1,0]","door_history":"[1,0,0,0,1,1,0,0,0,1,0,0,0,0,1,0]","location_rts":"[1595,622,453,621,1114,631,469,579,464,603,485,436,501,580,512,767]","trial_type":"two-door-navigation","trial_index":58,"time_elapsed":3370356,"internal_node_id":"0.0-2.0-56.0"},{"group":"hexagon_tri","room_assignment":["grey","green","red","blue","purple","yellow"],"door_color_assignment":["white","black"],"door_generator_assignment":[0,1],"goal":0,"start":4,"action_noise":0.2,"location_history":"[4,2,1,3,2,1,5,0]","action_history":"[1,0,0,0,0,1,0]","door_history":"[1,0,0,0,0,1,0]","location_rts":"[2061,352,959,568,740,563,769]","trial_type":"two-door-navigation","trial_index":59,"time_elapsed":3387024,"internal_node_id":"0.0-2.0-57.0"},{"group":"hexagon_tri","room_assignment":["grey","green","red","blue","purple","yellow"],"door_color_assignment":["white","black"],"door_generator_assignment":[0,1],"goal":2,"start":0,"action_noise":0.2,"location_history":"[0,1,5,0,1,3,4,2]","action_history":"[0,1,1,1,0,1,1]","door_history":"[0,1,1,1,0,1,1]","location_rts":"[2141,438,526,445,256,445,711]","trial_type":"two-door-navigation","trial_index":60,"time_elapsed":3402650,"internal_node_id":"0.0-2.0-58.0"},{"group":"hexagon_tri","room_assignment":["grey","green","red","blue","purple","yellow"],"door_color_assignment":["white","black"],"door_generator_assignment":[0,1],"goal":4,"start":2,"action_noise":0.2,"location_history":"[2,1,5,0,1,5,0,5,4]","action_history":"[0,1,1,0,1,1,1,0]","door_history":"[0,1,1,0,1,1,1,0]","location_rts":"[1479,519,406,577,625,461,491,344]","trial_type":"two-door-navigation","trial_index":61,"time_elapsed":3419233,"internal_node_id":"0.0-2.0-59.0"},{"group":"hexagon_tri","room_assignment":["grey","green","red","blue","purple","yellow"],"door_color_assignment":["white","black"],"door_generator_assignment":[0,1],"goal":2,"start":4,"action_noise":0.2,"location_history":"[4,2]","action_history":"[1]","door_history":"[1]","location_rts":"[1554]","trial_type":"two-door-navigation","trial_index":62,"time_elapsed":3425318,"internal_node_id":"0.0-2.0-60.0"},{"group":"hexagon_tri","room_assignment":["grey","green","red","blue","purple","yellow"],"door_color_assignment":["white","black"],"door_generator_assignment":[0,1],"goal":3,"start":2,"action_noise":0.2,"location_history":"[2,3]","action_history":"[1]","door_history":"[1]","location_rts":"[2379]","trial_type":"two-door-navigation","trial_index":63,"time_elapsed":3432230,"internal_node_id":"0.0-2.0-61.0"},{"group":"hexagon_tri","room_assignment":["grey","green","red","blue","purple","yellow"],"door_color_assignment":["white","black"],"door_generator_assignment":[0,1],"goal":0,"start":3,"action_noise":0.2,"location_history":"[3,4,0]","action_history":"[1,0]","door_history":"[1,0]","location_rts":"[2502,419]","trial_type":"two-door-navigation","trial_index":64,"time_elapsed":3440698,"internal_node_id":"0.0-2.0-62.0"},{"group":"hexagon_tri","room_assignment":["grey","green","red","blue","purple","yellow"],"door_color_assignment":["white","black"],"door_generator_assignment":[0,1],"goal":5,"start":0,"action_noise":0.2,"location_history":"[0,5]","action_history":"[0]","door_history":"[0]","location_rts":"[1520]","trial_type":"two-door-navigation","trial_index":65,"time_elapsed":3446744,"internal_node_id":"0.0-2.0-63.0"},{"group":"hexagon_tri","room_assignment":["grey","green","red","blue","purple","yellow"],"door_color_assignment":["white","black"],"door_generator_assignment":[0,1],"goal":1,"start":5,"action_noise":0.2,"location_history":"[5,0,5,4,2,1]","action_history":"[1,0,0,0,0]","door_history":"[1,0,0,0,0]","location_rts":"[1559,406,485,666,525]","trial_type":"two-door-navigation","trial_index":66,"time_elapsed":3459002,"internal_node_id":"0.0-2.0-64.0"},{"group":"hexagon_tri","room_assignment":["grey","green","red","blue","purple","yellow"],"door_color_assignment":["white","black"],"door_generator_assignment":[0,1],"goal":5,"start":1,"action_noise":0.2,"location_history":"[1,3,2,3,2,3,2,1,3,2,1,5]","action_history":"[1,0,1,0,1,0,0,0,0,0,1]","door_history":"[1,0,1,0,1,0,0,0,0,0,1]","location_rts":"[1716,277,895,446,863,540,252,1135,681,492,895]","trial_type":"two-door-navigation","trial_index":67,"time_elapsed":3481958,"internal_node_id":"0.0-2.0-65.0"},{"group":"hexagon_tri","room_assignment":["grey","green","red","blue","purple","yellow"],"door_color_assignment":["white","black"],"door_generator_assignment":[0,1],"goal":3,"start":5,"action_noise":0.2,"location_history":"[5,0,5,4,2,1,5,0,1,5,0,5,4,2,1,5,4,2,3]","action_history":"[1,0,0,1,1,1,1,1,0,1,0,0,1,0,0,0,1,1]","door_history":"[1,0,0,1,1,1,1,1,0,1,0,0,1,0,0,0,1,1]","location_rts":"[1992,372,558,440,478,593,526,553,320,434,440,401,632,568,1246,587,655,458]","trial_type":"two-door-navigation","trial_index":68,"time_elapsed":3515134,"internal_node_id":"0.0-2.0-66.0"},{"group":"hexagon_tri","room_assignment":["grey","green","red","blue","purple","yellow"],"door_color_assignment":["white","black"],"door_generator_assignment":[0,1],"goal":2,"start":3,"action_noise":0.2,"location_history":"[3,4,0,5,4,2]","action_history":"[1,1,1,1,1]","door_history":"[1,1,1,1,1]","location_rts":"[1443,585,614,901,566]","trial_type":"two-door-navigation","trial_index":69,"time_elapsed":3527865,"internal_node_id":"0.0-2.0-67.0"},{"group":"hexagon_tri","room_assignment":["grey","green","red","blue","purple","yellow"],"door_color_assignment":["white","black"],"door_generator_assignment":[0,1],"goal":1,"start":2,"action_noise":0.2,"location_history":"[2,3,4,0,5,0,1]","action_history":"[1,1,0,0,1,1]","door_history":"[1,1,0,0,1,1]","location_rts":"[1625,508,588,445,357,528]","trial_type":"two-door-navigation","trial_index":70,"time_elapsed":3541552,"internal_node_id":"0.0-2.0-68.0"},{"group":"hexagon_tri","room_assignment":["grey","green","red","blue","purple","yellow"],"door_color_assignment":["white","black"],"door_generator_assignment":[0,1],"goal":4,"start":1,"action_noise":0.2,"location_history":"[1,3,2,1,3,4]","action_history":"[1,0,1,0,0]","door_history":"[1,0,1,0,0]","location_rts":"[1300,310,430,374,416]","trial_type":"two-door-navigation","trial_index":71,"time_elapsed":3553002,"internal_node_id":"0.0-2.0-69.0"},{"group":"hexagon_tri","room_assignment":["grey","green","red","blue","purple","yellow"],"door_color_assignment":["white","black"],"door_generator_assignment":[0,1],"goal":0,"start":4,"action_noise":0.2,"location_history":"[4,0]","action_history":"[0]","door_history":"[0]","location_rts":"[1742]","trial_type":"two-door-navigation","trial_index":72,"time_elapsed":3559274,"internal_node_id":"0.0-2.0-70.0"},{"group":"hexagon_tri","room_assignment":["grey","green","red","blue","purple","yellow"],"door_color_assignment":["white","black"],"door_generator_assignment":[0,1],"goal":3,"start":0,"action_noise":0.2,"location_history":"[0,1,3]","action_history":"[1,0]","door_history":"[1,0]","location_rts":"[2018,120]","trial_type":"two-door-navigation","trial_index":73,"time_elapsed":3566957,"internal_node_id":"0.0-2.0-71.0"},{"group":"hexagon_tri","room_assignment":["grey","green","red","blue","purple","yellow"],"door_color_assignment":["white","black"],"door_generator_assignment":[0,1],"goal":1,"start":3,"action_noise":0.2,"location_history":"[3,2,1]","action_history":"[1,0]","door_history":"[1,0]","location_rts":"[1922,533]","trial_type":"two-door-navigation","trial_index":74,"time_elapsed":3574955,"internal_node_id":"0.0-2.0-72.0"},{"group":"hexagon_tri","room_assignment":["grey","green","red","blue","purple","yellow"],"door_color_assignment":["white","black"],"door_generator_assignment":[0,1],"goal":0,"start":1,"action_noise":0.2,"location_history":"[1,5,4,0]","action_history":"[1,0,0]","door_history":"[1,0,0]","location_rts":"[2328,580,509]","trial_type":"two-door-navigation","trial_index":75,"time_elapsed":3584950,"internal_node_id":"0.0-2.0-73.0"},{"group":"hexagon_tri","room_assignment":["grey","green","red","blue","purple","yellow"],"door_color_assignment":["white","black"],"door_generator_assignment":[0,1],"goal":2,"start":0,"action_noise":0.2,"location_history":"[0,1,3,4,0,5,4,2]","action_history":"[1,0,1,1,1,0,1]","door_history":"[1,0,1,1,1,0,1]","location_rts":"[1491,478,1156,541,559,1437,362]","trial_type":"two-door-navigation","trial_index":76,"time_elapsed":3601650,"internal_node_id":"0.0-2.0-74.0"},{"group":"hexagon_tri","room_assignment":["grey","green","red","blue","purple","yellow"],"door_color_assignment":["white","black"],"door_generator_assignment":[0,1],"goal":4,"start":2,"action_noise":0.2,"location_history":"[2,3,2,3,2,3,4]","action_history":"[1,0,1,0,1,1]","door_history":"[1,0,1,0,1,1]","location_rts":"[2304,230,291,388,374,212]","trial_type":"two-door-navigation","trial_index":77,"time_elapsed":3615093,"internal_node_id":"0.0-2.0-75.0"},{"group":"hexagon_tri","room_assignment":["grey","green","red","blue","purple","yellow"],"door_color_assignment":["white","black"],"door_generator_assignment":[0,1],"goal":5,"start":4,"action_noise":0.2,"location_history":"[4,0,5]","action_history":"[0,0]","door_history":"[0,0]","location_rts":"[1549,959]","trial_type":"two-door-navigation","trial_index":78,"time_elapsed":3623152,"internal_node_id":"0.0-2.0-76.0"},{"group":"hexagon_tri","room_assignment":["grey","green","red","blue","purple","yellow"],"door_color_assignment":["white","black"],"door_generator_assignment":[0,1],"goal":2,"start":5,"action_noise":0.2,"location_history":"[5,0,5,0,5,0,1,3,4,2]","action_history":"[1,0,1,0,0,1,1,1,1]","door_history":"[1,0,1,0,0,1,1,1,1]","location_rts":"[3951,401,236,484,125,272,453,680,658]","trial_type":"two-door-navigation","trial_index":79,"time_elapsed":3643112,"internal_node_id":"0.0-2.0-77.0"},{"group":"hexagon_tri","room_assignment":["grey","green","red","blue","purple","yellow"],"door_color_assignment":["white","black"],"door_generator_assignment":[0,1],"goal":3,"start":2,"action_noise":0.2,"location_history":"[2,3]","action_history":"[1]","door_history":"[1]","location_rts":"[1372]","trial_type":"two-door-navigation","trial_index":80,"time_elapsed":3649006,"internal_node_id":"0.0-2.0-78.0"},{"group":"hexagon_tri","room_assignment":["grey","green","red","blue","purple","yellow"],"door_color_assignment":["white","black"],"door_generator_assignment":[0,1],"goal":1,"start":3,"action_noise":0.2,"location_history":"[3,2,1]","action_history":"[1,0]","door_history":"[1,0]","location_rts":"[1530,300]","trial_type":"two-door-navigation","trial_index":81,"time_elapsed":3656387,"internal_node_id":"0.0-2.0-79.0"},{"group":"hexagon_tri","room_assignment":["grey","green","red","blue","purple","yellow"],"door_color_assignment":["white","black"],"door_generator_assignment":[0,1],"goal":4,"start":1,"action_noise":0.2,"location_history":"[1,3,2,3,4]","action_history":"[1,0,1,1]","door_history":"[1,0,1,1]","location_rts":"[1361,555,1012,456]","trial_type":"two-door-navigation","trial_index":82,"time_elapsed":3667369,"internal_node_id":"0.0-2.0-80.0"},{"group":"hexagon_tri","room_assignment":["grey","green","red","blue","purple","yellow"],"door_color_assignment":["white","black"],"door_generator_assignment":[0,1],"goal":5,"start":4,"action_noise":0.2,"location_history":"[4,2,1,5]","action_history":"[0,0,1]","door_history":"[0,0,1]","location_rts":"[1374,671,886]","trial_type":"two-door-navigation","trial_index":83,"time_elapsed":3676877,"internal_node_id":"0.0-2.0-81.0"},{"group":"hexagon_tri","room_assignment":["grey","green","red","blue","purple","yellow"],"door_color_assignment":["white","black"],"door_generator_assignment":[0,1],"goal":0,"start":5,"action_noise":0.2,"location_history":"[5,4,0]","action_history":"[0,0]","door_history":"[0,0]","location_rts":"[1597,537]","trial_type":"two-door-navigation","trial_index":84,"time_elapsed":3684567,"internal_node_id":"0.0-2.0-82.0"},{"group":"hexagon_tri","room_assignment":["grey","green","red","blue","purple","yellow"],"door_color_assignment":["white","black"],"door_generator_assignment":[0,1],"goal":2,"start":0,"action_noise":0.2,"location_history":"[0,1,5,0,5,0,1,5,0,5,4,0,5,0,5,4,0,5,4,0,1,3,4,2]","action_history":"[1,0,0,1,0,1,1,1,0,0,0,0,1,0,0,1,0,0,0,1,1,1,1]","door_history":"[1,0,0,1,0,1,1,1,0,0,0,0,1,0,0,1,0,0,0,1,1,1,1]","location_rts":"[1270,491,1611,783,507,555,287,521,1189,444,400,849,384,1437,487,2931,767,434,343,753,608,455,505]","trial_type":"two-door-navigation","trial_index":85,"time_elapsed":3729615,"internal_node_id":"0.0-2.0-83.0"},{"group":"hexagon_tri","room_assignment":["grey","green","red","blue","purple","yellow"],"door_color_assignment":["white","black"],"door_generator_assignment":[0,1],"goal":0,"start":2,"action_noise":0.2,"location_history":"[2,1,3,2,3,2,3,2,3,4,0]","action_history":"[1,0,0,1,0,0,0,1,1,0]","door_history":"[1,0,0,1,0,0,0,1,1,0]","location_rts":"[3609,195,426,1100,274,286,322,569,248,356]","trial_type":"two-door-navigation","trial_index":86,"time_elapsed":3750735,"internal_node_id":"0.0-2.0-84.0"},{"group":"hexagon_tri","room_assignment":["grey","green","red","blue","purple","yellow"],"door_color_assignment":["white","black"],"door_generator_assignment":[0,1],"goal":5,"start":0,"action_noise":0.2,"location_history":"[0,5]","action_history":"[0]","door_history":"[0]","location_rts":"[1251]","trial_type":"two-door-navigation","trial_index":87,"time_elapsed":3756511,"internal_node_id":"0.0-2.0-85.0"},{"group":"hexagon_tri","room_assignment":["grey","green","red","blue","purple","yellow"],"door_color_assignment":["white","black"],"door_generator_assignment":[0,1],"goal":1,"start":5,"action_noise":0.2,"location_history":"[5,0,5,4,0,5,0,1]","action_history":"[1,0,0,0,0,1,1]","door_history":"[1,0,0,0,0,1,1]","location_rts":"[1353,576,423,534,938,851,721]","trial_type":"two-door-navigation","trial_index":88,"time_elapsed":3772585,"internal_node_id":"0.0-2.0-86.0"},{"group":"hexagon_tri","room_assignment":["grey","green","red","blue","purple","yellow"],"door_color_assignment":["white","black"],"door_generator_assignment":[0,1],"goal":4,"start":1,"action_noise":0.2,"location_history":"[1,5,4]","action_history":"[1,0]","door_history":"[1,0]","location_rts":"[1535,499]","trial_type":"two-door-navigation","trial_index":89,"time_elapsed":3780167,"internal_node_id":"0.0-2.0-87.0"},{"group":"hexagon_tri","room_assignment":["grey","green","red","blue","purple","yellow"],"door_color_assignment":["white","black"],"door_generator_assignment":[0,1],"goal":3,"start":4,"action_noise":0.2,"location_history":"[4,0,1,5,0,5,0,1,5,4,2,1,5,0,1,5,4,0,5,0,5,4,2,1,3]","action_history":"[0,1,1,1,0,0,0,0,0,1,1,1,1,1,1,0,0,1,1,0,0,1,1,1]","door_history":"[0,1,1,1,0,0,0,0,0,1,1,1,1,1,1,0,0,1,1,0,0,1,1,1]","location_rts":"[1552,506,297,496,728,971,559,812,759,2230,792,521,530,1140,620,1115,879,299,255,224,219,183,366,439]","trial_type":"two-door-navigation","trial_index":90,"time_elapsed":3824740,"internal_node_id":"0.0-2.0-88.0"},{"group":"hexagon_tri","room_assignment":["grey","green","red","blue","purple","yellow"],"door_color_assignment":["white","black"],"door_generator_assignment":[0,1],"goal":5,"start":3,"action_noise":0.2,"location_history":"[3,2,3,2,1,3,2,1,3,4,0,5]","action_history":"[0,1,0,0,1,0,0,0,1,0,0]","door_history":"[0,1,0,0,1,0,0,0,1,0,0]","location_rts":"[1337,522,418,426,513,421,197,1124,541,329,200]","trial_type":"two-door-navigation","trial_index":91,"time_elapsed":3845527,"internal_node_id":"0.0-2.0-89.0"},{"group":"hexagon_tri","room_assignment":["grey","green","red","blue","purple","yellow"],"door_color_assignment":["white","black"],"door_generator_assignment":[0,1],"goal":1,"start":5,"action_noise":0.2,"location_history":"[5,0,1]","action_history":"[1,0]","door_history":"[1,0]","location_rts":"[1290,287]","trial_type":"two-door-navigation","trial_index":92,"time_elapsed":3852653,"internal_node_id":"0.0-2.0-90.0"},{"group":"hexagon_tri","room_assignment":["grey","green","red","blue","purple","yellow"],"door_color_assignment":["white","black"],"door_generator_assignment":[0,1],"goal":2,"start":1,"action_noise":0.2,"location_history":"[1,3,4,2]","action_history":"[1,1,1]","door_history":"[1,1,1]","location_rts":"[1662,583,623]","trial_type":"two-door-navigation","trial_index":93,"time_elapsed":3862094,"internal_node_id":"0.0-2.0-91.0"},{"group":"hexagon_tri","room_assignment":["grey","green","red","blue","purple","yellow"],"door_color_assignment":["white","black"],"door_generator_assignment":[0,1],"goal":4,"start":2,"action_noise":0.2,"location_history":"[2,1,5,0,5,0,1,3,2,3,2,3,4]","action_history":"[0,1,1,1,1,1,0,1,1,1,0,0]","door_history":"[0,1,1,1,1,1,0,1,1,1,0,0]","location_rts":"[1440,590,517,601,454,497,444,528,487,574,432,573]","trial_type":"two-door-navigation","trial_index":94,"time_elapsed":3885012,"internal_node_id":"0.0-2.0-92.0"},{"group":"hexagon_tri","room_assignment":["grey","green","red","blue","purple","yellow"],"door_color_assignment":["white","black"],"door_generator_assignment":[0,1],"goal":0,"start":4,"action_noise":0.2,"location_history":"[4,0]","action_history":"[0]","door_history":"[0]","location_rts":"[2068]","trial_type":"two-door-navigation","trial_index":95,"time_elapsed":3891608,"internal_node_id":"0.0-2.0-93.0"},{"group":"hexagon_tri","room_assignment":["grey","green","red","blue","purple","yellow"],"door_color_assignment":["white","black"],"door_generator_assignment":[0,1],"goal":3,"start":0,"action_noise":0.2,"location_history":"[0,1,5,4,0,1,3]","action_history":"[1,0,0,0,1,0]","door_history":"[1,0,0,0,1,0]","location_rts":"[2686,446,411,493,449,698]","trial_type":"two-door-navigation","trial_index":96,"time_elapsed":3906426,"internal_node_id":"0.0-2.0-94.0"},{"group":"hexagon_tri","room_assignment":["grey","green","red","blue","purple","yellow"],"door_color_assignment":["white","black"],"door_generator_assignment":[0,1],"goal":0,"start":3,"action_noise":0.2,"location_history":"[3,4,0]","action_history":"[0,0]","door_history":"[0,0]","location_rts":"[1033,921]","trial_type":"two-door-navigation","trial_index":97,"time_elapsed":3913935,"internal_node_id":"0.0-2.0-95.0"},{"group":"hexagon_tri","room_assignment":["grey","green","red","blue","purple","yellow"],"door_color_assignment":["white","black"],"door_generator_assignment":[0,1],"goal":4,"start":0,"action_noise":0.2,"location_history":"[0,5,0,5,4]","action_history":"[0,1,0,0]","door_history":"[0,1,0,0]","location_rts":"[1507,408,698,375]","trial_type":"two-door-navigation","trial_index":98,"time_elapsed":3924527,"internal_node_id":"0.0-2.0-96.0"},{"group":"hexagon_tri","room_assignment":["grey","green","red","blue","purple","yellow"],"door_color_assignment":["white","black"],"door_generator_assignment":[0,1],"goal":5,"start":4,"action_noise":0.2,"location_history":"[4,0,5]","action_history":"[0,0]","door_history":"[0,0]","location_rts":"[1455,1219]","trial_type":"two-door-navigation","trial_index":99,"time_elapsed":3932758,"internal_node_id":"0.0-2.0-97.0"},{"group":"hexagon_tri","room_assignment":["grey","green","red","blue","purple","yellow"],"door_color_assignment":["white","black"],"door_generator_assignment":[0,1],"goal":2,"start":5,"action_noise":0.2,"location_history":"[5,0,5,4,2]","action_history":"[1,0,0,1]","door_history":"[1,0,0,1]","location_rts":"[1331,426,97,357]","trial_type":"two-door-navigation","trial_index":100,"time_elapsed":3942563,"internal_node_id":"0.0-2.0-98.0"},{"group":"hexagon_tri","room_assignment":["grey","green","red","blue","purple","yellow"],"door_color_assignment":["white","black"],"door_generator_assignment":[0,1],"goal":1,"start":2,"action_noise":0.2,"location_history":"[2,1]","action_history":"[0]","door_history":"[0]","location_rts":"[1213]","trial_type":"two-door-navigation","trial_index":101,"time_elapsed":3948303,"internal_node_id":"0.0-2.0-99.0"},{"view_history":"[{\"page_index\":0,\"viewing_time\":3628}]","rt":3628,"trial_type":"instructions","trial_index":102,"time_elapsed":3952932,"internal_node_id":"0.0-3.0"},{"view_history":"[{\"page_index\":0,\"viewing_time\":1565},{\"page_index\":1,\"viewing_time\":3151}]","rt":4716,"trial_type":"instructions","trial_index":103,"time_elapsed":3958649,"internal_node_id":"0.0-4.0"},{"group":"hexagon_bi","fractal_assignment":["../images/org_blu.png","../images/blu_wht.png","../images/gry_blk.png","../images/ylw_slt.png","../images/pnk_blu.png","../images/cyn_red.png"],"mutagen_generator_assignment":[0,1],"goal":2,"start":1,"action_noise":0.2,"location_history":"[1,2]","action_history":"[0]","mutagen_history":"[0]","location_rts":"[2987]","trial_type":"fractal-mutation","trial_index":104,"time_elapsed":3966196,"internal_node_id":"0.0-5.0-0.0"},{"group":"hexagon_bi","fractal_assignment":["../images/org_blu.png","../images/blu_wht.png","../images/gry_blk.png","../images/ylw_slt.png","../images/pnk_blu.png","../images/cyn_red.png"],"mutagen_generator_assignment":[0,1],"goal":0,"start":2,"action_noise":0.2,"location_history":"[2,3,4,3,2,3,4,3,2,1,2,3,4,3,2,1,0]","action_history":"[1,0,0,1,1,1,0,0,0,0,1,0,0,1,1,1]","mutagen_history":"[1,0,0,1,1,1,0,0,0,0,1,0,0,1,1,1]","location_rts":"[1125,578,543,496,503,381,458,372,412,358,384,265,244,349,355,341]","trial_type":"fractal-mutation","trial_index":105,"time_elapsed":3993671,"internal_node_id":"0.0-5.0-1.0"},{"group":"hexagon_bi","fractal_assignment":["../images/org_blu.png","../images/blu_wht.png","../images/gry_blk.png","../images/ylw_slt.png","../images/pnk_blu.png","../images/cyn_red.png"],"mutagen_generator_assignment":[0,1],"goal":5,"start":0,"action_noise":0.2,"location_history":"[0,1,0,1,0,5]","action_history":"[1,1,1,1,0]","mutagen_history":"[1,1,1,1,0]","location_rts":"[1186,539,664,492,289]","trial_type":"fractal-mutation","trial_index":106,"time_elapsed":4005618,"internal_node_id":"0.0-5.0-2.0"},{"group":"hexagon_bi","fractal_assignment":["../images/org_blu.png","../images/blu_wht.png","../images/gry_blk.png","../images/ylw_slt.png","../images/pnk_blu.png","../images/cyn_red.png"],"mutagen_generator_assignment":[0,1],"goal":3,"start":5,"action_noise":0.2,"location_history":"[5,4,5,4,5,0,1,0,5,0,1,0,1,2,1,2,1,0,5,0,1,2,1,0,5,4,3]","action_history":"[0,1,1,1,0,1,1,1,0,1,1,1,0,0,0,0,1,0,0,1,0,0,0,0,1,0]","mutagen_history":"[0,1,1,1,0,1,1,1,0,1,1,1,0,0,0,0,1,0,0,1,0,0,0,0,1,0]","location_rts":"[1415,471,448,525,432,355,302,434,409,325,417,346,542,468,556,942,557,502,477,333,466,280,547,585,179,214]","trial_type":"fractal-mutation","trial_index":107,"time_elapsed":4048905,"internal_node_id":"0.0-5.0-3.0"},{"group":"hexagon_bi","fractal_assignment":["../images/org_blu.png","../images/blu_wht.png","../images/gry_blk.png","../images/ylw_slt.png","../images/pnk_blu.png","../images/cyn_red.png"],"mutagen_generator_assignment":[0,1],"goal":4,"start":3,"action_noise":0.2,"location_history":"[3,2,1,2,3,2,3,4]","action_history":"[1,0,0,0,1,1,0]","mutagen_history":"[1,0,0,0,1,1,0]","location_rts":"[851,236,232,295,209,288,208]","trial_type":"fractal-mutation","trial_index":108,"time_elapsed":4062094,"internal_node_id":"0.0-5.0-4.0"},{"group":"hexagon_bi","fractal_assignment":["../images/org_blu.png","../images/blu_wht.png","../images/gry_blk.png","../images/ylw_slt.png","../images/pnk_blu.png","../images/cyn_red.png"],"mutagen_generator_assignment":[0,1],"goal":0,"start":4,"action_noise":0.2,"location_history":"[4,3,2,3,4,3,2,1,0]","action_history":"[0,1,1,1,1,1,0,1]","mutagen_history":"[0,1,1,1,1,1,0,1]","location_rts":"[1207,265,368,649,1021,985,50847,668]","trial_type":"fractal-mutation","trial_index":109,"time_elapsed":4130031,"internal_node_id":"0.0-5.0-5.0"},{"group":"hexagon_bi","fractal_assignment":["../images/org_blu.png","../images/blu_wht.png","../images/gry_blk.png","../images/ylw_slt.png","../images/pnk_blu.png","../images/cyn_red.png"],"mutagen_generator_assignment":[0,1],"goal":4,"start":0,"action_noise":0.2,"location_history":"[0,5,0,1,0,5,0,5,4]","action_history":"[0,0,1,1,1,0,0,1]","mutagen_history":"[0,0,1,1,1,0,0,1]","location_rts":"[1049,380,212,370,525,451,441,401]","trial_type":"fractal-mutation","trial_index":110,"time_elapsed":4145745,"internal_node_id":"0.0-5.0-6.0"},{"group":"hexagon_bi","fractal_assignment":["../images/org_blu.png","../images/blu_wht.png","../images/gry_blk.png","../images/ylw_slt.png","../images/pnk_blu.png","../images/cyn_red.png"],"mutagen_generator_assignment":[0,1],"goal":3,"start":4,"action_noise":0.2,"location_history":"[4,3]","action_history":"[0]","mutagen_history":"[0]","location_rts":"[653]","trial_type":"fractal-mutation","trial_index":111,"time_elapsed":4150960,"internal_node_id":"0.0-5.0-7.0"},{"group":"hexagon_bi","fractal_assignment":["../images/org_blu.png","../images/blu_wht.png","../images/gry_blk.png","../images/ylw_slt.png","../images/pnk_blu.png","../images/cyn_red.png"],"mutagen_generator_assignment":[0,1],"goal":2,"start":3,"action_noise":0.2,"location_history":"[3,4,3,2]","action_history":"[0,0,1]","mutagen_history":"[0,0,1]","location_rts":"[1147,476,602]","trial_type":"fractal-mutation","trial_index":112,"time_elapsed":4159828,"internal_node_id":"0.0-5.0-8.0"},{"group":"hexagon_bi","fractal_assignment":["../images/org_blu.png","../images/blu_wht.png","../images/gry_blk.png","../images/ylw_slt.png","../images/pnk_blu.png","../images/cyn_red.png"],"mutagen_generator_assignment":[0,1],"goal":1,"start":2,"action_noise":0.2,"location_history":"[2,3,4,5,0,1]","action_history":"[1,0,0,0,1]","mutagen_history":"[1,0,0,0,1]","location_rts":"[57790,489,462,530,212]","trial_type":"fractal-mutation","trial_index":113,"time_elapsed":4228073,"internal_node_id":"0.0-5.0-9.0"},{"group":"hexagon_bi","fractal_assignment":["../images/org_blu.png","../images/blu_wht.png","../images/gry_blk.png","../images/ylw_slt.png","../images/pnk_blu.png","../images/cyn_red.png"],"mutagen_generator_assignment":[0,1],"goal":5,"start":1,"action_noise":0.2,"location_history":"[1,0,1,0,5]","action_history":"[1,1,1,0]","mutagen_history":"[1,1,1,0]","location_rts":"[1864,627,532,909]","trial_type":"fractal-mutation","trial_index":114,"time_elapsed":4239706,"internal_node_id":"0.0-5.0-10.0"},{"group":"hexagon_bi","fractal_assignment":["../images/org_blu.png","../images/blu_wht.png","../images/gry_blk.png","../images/ylw_slt.png","../images/pnk_blu.png","../images/cyn_red.png"],"mutagen_generator_assignment":[0,1],"goal":0,"start":5,"action_noise":0.2,"location_history":"[5,0]","action_history":"[0]","mutagen_history":"[0]","location_rts":"[1701]","trial_type":"fractal-mutation","trial_index":115,"time_elapsed":4245960,"internal_node_id":"0.0-5.0-11.0"},{"group":"hexagon_bi","fractal_assignment":["../images/org_blu.png","../images/blu_wht.png","../images/gry_blk.png","../images/ylw_slt.png","../images/pnk_blu.png","../images/cyn_red.png"],"mutagen_generator_assignment":[0,1],"goal":4,"start":0,"action_noise":0.2,"location_history":"[0,1,0,1,2,3,2,3,4]","action_history":"[0,0,1,0,0,0,0,1]","mutagen_history":"[0,0,1,0,0,0,0,1]","location_rts":"[1350,758,487,530,556,568,567,296]","trial_type":"fractal-mutation","trial_index":116,"time_elapsed":4262910,"internal_node_id":"0.0-5.0-12.0"},{"group":"hexagon_bi","fractal_assignment":["../images/org_blu.png","../images/blu_wht.png","../images/gry_blk.png","../images/ylw_slt.png","../images/pnk_blu.png","../images/cyn_red.png"],"mutagen_generator_assignment":[0,1],"goal":2,"start":4,"action_noise":0.2,"location_history":"[4,5,4,5,0,5,0,5,4,3,2]","action_history":"[1,1,1,0,0,1,0,0,0,1]","mutagen_history":"[1,1,1,0,0,1,0,0,0,1]","location_rts":"[3249,521,503,499,481,545,424,539,757,687]","trial_type":"fractal-mutation","trial_index":117,"time_elapsed":4285125,"internal_node_id":"0.0-5.0-13.0"},{"group":"hexagon_bi","fractal_assignment":["../images/org_blu.png","../images/blu_wht.png","../images/gry_blk.png","../images/ylw_slt.png","../images/pnk_blu.png","../images/cyn_red.png"],"mutagen_generator_assignment":[0,1],"goal":1,"start":2,"action_noise":0.2,"location_history":"[2,1]","action_history":"[1]","mutagen_history":"[1]","location_rts":"[1477]","trial_type":"fractal-mutation","trial_index":118,"time_elapsed":4291147,"internal_node_id":"0.0-5.0-14.0"},{"group":"hexagon_bi","fractal_assignment":["../images/org_blu.png","../images/blu_wht.png","../images/gry_blk.png","../images/ylw_slt.png","../images/pnk_blu.png","../images/cyn_red.png"],"mutagen_generator_assignment":[0,1],"goal":3,"start":1,"action_noise":0.2,"location_history":"[1,0,1,2,3]","action_history":"[1,1,0,1]","mutagen_history":"[1,1,0,1]","location_rts":"[1334,514,614,852]","trial_type":"fractal-mutation","trial_index":119,"time_elapsed":4302171,"internal_node_id":"0.0-5.0-15.0"},{"group":"hexagon_bi","fractal_assignment":["../images/org_blu.png","../images/blu_wht.png","../images/gry_blk.png","../images/ylw_slt.png","../images/pnk_blu.png","../images/cyn_red.png"],"mutagen_generator_assignment":[0,1],"goal":5,"start":3,"action_noise":0.2,"location_history":"[3,4,5]","action_history":"[0,1]","mutagen_history":"[0,1]","location_rts":"[1164,844]","trial_type":"fractal-mutation","trial_index":120,"time_elapsed":4309781,"internal_node_id":"0.0-5.0-16.0"},{"group":"hexagon_bi","fractal_assignment":["../images/org_blu.png","../images/blu_wht.png","../images/gry_blk.png","../images/ylw_slt.png","../images/pnk_blu.png","../images/cyn_red.png"],"mutagen_generator_assignment":[0,1],"goal":0,"start":5,"action_noise":0.2,"location_history":"[5,4,5,4,3,4,5,4,3,2,3,2,3,4,3,4,5,0]","action_history":"[1,1,1,0,1,1,0,0,1,1,1,1,0,0,0,1,0]","mutagen_history":"[1,1,1,0,1,1,0,0,1,1,1,1,0,0,0,1,0]","location_rts":"[1516,491,543,671,529,643,1345,500,505,673,489,562,340,594,544,900,317]","trial_type":"fractal-mutation","trial_index":121,"time_elapsed":4342273,"internal_node_id":"0.0-5.0-17.0"},{"group":"hexagon_bi","fractal_assignment":["../images/org_blu.png","../images/blu_wht.png","../images/gry_blk.png","../images/ylw_slt.png","../images/pnk_blu.png","../images/cyn_red.png"],"mutagen_generator_assignment":[0,1],"goal":5,"start":0,"action_noise":0.2,"location_history":"[0,1,0,5]","action_history":"[1,1,0]","mutagen_history":"[1,1,0]","location_rts":"[1287,521,969]","trial_type":"fractal-mutation","trial_index":122,"time_elapsed":4351710,"internal_node_id":"0.0-5.0-18.0"},{"group":"hexagon_bi","fractal_assignment":["../images/org_blu.png","../images/blu_wht.png","../images/gry_blk.png","../images/ylw_slt.png","../images/pnk_blu.png","../images/cyn_red.png"],"mutagen_generator_assignment":[0,1],"goal":3,"start":5,"action_noise":0.2,"location_history":"[5,0,1,0,1,0,5,4,3]","action_history":"[0,1,1,1,0,1,1,0]","mutagen_history":"[0,1,1,1,0,1,1,0]","location_rts":"[1162,327,808,852,710,557,536,560]","trial_type":"fractal-mutation","trial_index":123,"time_elapsed":4369094,"internal_node_id":"0.0-5.0-19.0"},{"group":"hexagon_bi","fractal_assignment":["../images/org_blu.png","../images/blu_wht.png","../images/gry_blk.png","../images/ylw_slt.png","../images/pnk_blu.png","../images/cyn_red.png"],"mutagen_generator_assignment":[0,1],"goal":4,"start":3,"action_noise":0.2,"location_history":"[3,2,1,2,1,2,3,4]","action_history":"[1,0,0,0,0,1,0]","mutagen_history":"[1,0,0,0,0,1,0]","location_rts":"[1676,527,534,542,415,425,633]","trial_type":"fractal-mutation","trial_index":124,"time_elapsed":4384703,"internal_node_id":"0.0-5.0-20.0"},{"group":"hexagon_bi","fractal_assignment":["../images/org_blu.png","../images/blu_wht.png","../images/gry_blk.png","../images/ylw_slt.png","../images/pnk_blu.png","../images/cyn_red.png"],"mutagen_generator_assignment":[0,1],"goal":1,"start":4,"action_noise":0.2,"location_history":"[4,5,4,5,4,3,4,3,4,5,4,5,0,1]","action_history":"[1,1,1,1,0,0,0,1,1,1,0,0,1]","mutagen_history":"[1,1,1,1,0,0,0,1,1,1,0,0,1]","location_rts":"[938,423,797,465,504,458,426,379,484,421,351,383,453]","trial_type":"fractal-mutation","trial_index":125,"time_elapsed":4408305,"internal_node_id":"0.0-5.0-21.0"},{"group":"hexagon_bi","fractal_assignment":["../images/org_blu.png","../images/blu_wht.png","../images/gry_blk.png","../images/ylw_slt.png","../images/pnk_blu.png","../images/cyn_red.png"],"mutagen_generator_assignment":[0,1],"goal":2,"start":1,"action_noise":0.2,"location_history":"[1,0,1,0,5,0,1,2]","action_history":"[1,1,1,0,0,1,0]","mutagen_history":"[1,1,1,0,0,1,0]","location_rts":"[1191,491,383,251,393,384,395]","trial_type":"fractal-mutation","trial_index":126,"time_elapsed":4422640,"internal_node_id":"0.0-5.0-22.0"},{"group":"hexagon_bi","fractal_assignment":["../images/org_blu.png","../images/blu_wht.png","../images/gry_blk.png","../images/ylw_slt.png","../images/pnk_blu.png","../images/cyn_red.png"],"mutagen_generator_assignment":[0,1],"goal":3,"start":2,"action_noise":0.2,"location_history":"[2,1,2,3]","action_history":"[1,1,1]","mutagen_history":"[1,1,1]","location_rts":"[1571,504,423]","trial_type":"fractal-mutation","trial_index":127,"time_elapsed":4431804,"internal_node_id":"0.0-5.0-23.0"},{"group":"hexagon_bi","fractal_assignment":["../images/org_blu.png","../images/blu_wht.png","../images/gry_blk.png","../images/ylw_slt.png","../images/pnk_blu.png","../images/cyn_red.png"],"mutagen_generator_assignment":[0,1],"goal":5,"start":3,"action_noise":0.2,"location_history":"[3,4,5]","action_history":"[0,1]","mutagen_history":"[0,1]","location_rts":"[860,485]","trial_type":"fractal-mutation","trial_index":128,"time_elapsed":4438770,"internal_node_id":"0.0-5.0-24.0"},{"group":"hexagon_bi","fractal_assignment":["../images/org_blu.png","../images/blu_wht.png","../images/gry_blk.png","../images/ylw_slt.png","../images/pnk_blu.png","../images/cyn_red.png"],"mutagen_generator_assignment":[0,1],"goal":4,"start":5,"action_noise":0.2,"location_history":"[5,4]","action_history":"[1]","mutagen_history":"[1]","location_rts":"[928]","trial_type":"fractal-mutation","trial_index":129,"time_elapsed":4444251,"internal_node_id":"0.0-5.0-25.0"},{"group":"hexagon_bi","fractal_assignment":["../images/org_blu.png","../images/blu_wht.png","../images/gry_blk.png","../images/ylw_slt.png","../images/pnk_blu.png","../images/cyn_red.png"],"mutagen_generator_assignment":[0,1],"goal":0,"start":4,"action_noise":0.2,"location_history":"[4,5,0]","action_history":"[1,1]","mutagen_history":"[1,1]","location_rts":"[1709,629]","trial_type":"fractal-mutation","trial_index":130,"time_elapsed":4452200,"internal_node_id":"0.0-5.0-26.0"},{"group":"hexagon_bi","fractal_assignment":["../images/org_blu.png","../images/blu_wht.png","../images/gry_blk.png","../images/ylw_slt.png","../images/pnk_blu.png","../images/cyn_red.png"],"mutagen_generator_assignment":[0,1],"goal":2,"start":0,"action_noise":0.2,"location_history":"[0,1,2]","action_history":"[1,0]","mutagen_history":"[1,0]","location_rts":"[1222,578]","trial_type":"fractal-mutation","trial_index":131,"time_elapsed":4459623,"internal_node_id":"0.0-5.0-27.0"},{"group":"hexagon_bi","fractal_assignment":["../images/org_blu.png","../images/blu_wht.png","../images/gry_blk.png","../images/ylw_slt.png","../images/pnk_blu.png","../images/cyn_red.png"],"mutagen_generator_assignment":[0,1],"goal":1,"start":2,"action_noise":0.2,"location_history":"[2,1]","action_history":"[1]","mutagen_history":"[1]","location_rts":"[1346]","trial_type":"fractal-mutation","trial_index":132,"time_elapsed":4465529,"internal_node_id":"0.0-5.0-28.0"},{"group":"hexagon_bi","fractal_assignment":["../images/org_blu.png","../images/blu_wht.png","../images/gry_blk.png","../images/ylw_slt.png","../images/pnk_blu.png","../images/cyn_red.png"],"mutagen_generator_assignment":[0,1],"goal":0,"start":1,"action_noise":0.2,"location_history":"[1,2,3,4,3,2,1,0]","action_history":"[0,1,0,0,0,0,1]","mutagen_history":"[0,1,0,0,0,0,1]","location_rts":"[2011,897,421,339,519,675,105]","trial_type":"fractal-mutation","trial_index":133,"time_elapsed":4481324,"internal_node_id":"0.0-5.0-29.0"},{"group":"hexagon_bi","fractal_assignment":["../images/org_blu.png","../images/blu_wht.png","../images/gry_blk.png","../images/ylw_slt.png","../images/pnk_blu.png","../images/cyn_red.png"],"mutagen_generator_assignment":[0,1],"goal":2,"start":0,"action_noise":0.2,"location_history":"[0,5,4,5,0,5,4,5,0,1,0,5,0,1,0,1,0,1,2]","action_history":"[0,1,1,0,0,1,0,0,1,0,0,0,1,1,1,1,1,0]","mutagen_history":"[0,1,1,0,0,1,0,0,1,0,0,0,1,1,1,1,1,0]","location_rts":"[1447,257,524,180,1374,540,195,310,579,664,591,494,357,331,632,720,622,170]","trial_type":"fractal-mutation","trial_index":134,"time_elapsed":4513691,"internal_node_id":"0.0-5.0-30.0"},{"group":"hexagon_bi","fractal_assignment":["../images/org_blu.png","../images/blu_wht.png","../images/gry_blk.png","../images/ylw_slt.png","../images/pnk_blu.png","../images/cyn_red.png"],"mutagen_generator_assignment":[0,1],"goal":4,"start":2,"action_noise":0.2,"location_history":"[2,3,4]","action_history":"[1,0]","mutagen_history":"[1,0]","location_rts":"[840,503]","trial_type":"fractal-mutation","trial_index":135,"time_elapsed":4520630,"internal_node_id":"0.0-5.0-31.0"},{"group":"hexagon_bi","fractal_assignment":["../images/org_blu.png","../images/blu_wht.png","../images/gry_blk.png","../images/ylw_slt.png","../images/pnk_blu.png","../images/cyn_red.png"],"mutagen_generator_assignment":[0,1],"goal":1,"start":4,"action_noise":0.2,"location_history":"[4,5,0,5,0,5,4,3,4,3,4,5,4,5,4,3,4,3,4,3,2,3,2,1]","action_history":"[1,0,0,0,1,1,0,0,0,0,1,1,1,1,1,0,0,0,1,1,1,1,1]","mutagen_history":"[1,0,0,0,1,1,0,0,0,0,1,1,1,1,1,0,0,0,1,1,1,1,1]","location_rts":"[808,378,71,819,409,171,85,195,308,283,200,199,192,299,282,1400,486,206,234,286,355,541,611]","trial_type":"fractal-mutation","trial_index":136,"time_elapsed":4557043,"internal_node_id":"0.0-5.0-32.0"},{"group":"hexagon_bi","fractal_assignment":["../images/org_blu.png","../images/blu_wht.png","../images/gry_blk.png","../images/ylw_slt.png","../images/pnk_blu.png","../images/cyn_red.png"],"mutagen_generator_assignment":[0,1],"goal":3,"start":1,"action_noise":0.2,"location_history":"[1,0,1,0,1,0,1,2,3]","action_history":"[0,1,1,1,1,1,0,1]","mutagen_history":"[0,1,1,1,1,1,0,1]","location_rts":"[623,92,249,458,167,576,787,440]","trial_type":"fractal-mutation","trial_index":137,"time_elapsed":4572308,"internal_node_id":"0.0-5.0-33.0"},{"group":"hexagon_bi","fractal_assignment":["../images/org_blu.png","../images/blu_wht.png","../images/gry_blk.png","../images/ylw_slt.png","../images/pnk_blu.png","../images/cyn_red.png"],"mutagen_generator_assignment":[0,1],"goal":5,"start":3,"action_noise":0.2,"location_history":"[3,2,3,2,1,2,1,0,1,0,5]","action_history":"[1,0,1,0,0,0,1,1,1,0]","mutagen_history":"[1,0,1,0,0,0,1,1,1,0]","location_rts":"[1779,356,1470,1601,436,303,125,440,384,208]","trial_type":"fractal-mutation","trial_index":138,"time_elapsed":4593383,"internal_node_id":"0.0-5.0-34.0"},{"group":"hexagon_bi","fractal_assignment":["../images/org_blu.png","../images/blu_wht.png","../images/gry_blk.png","../images/ylw_slt.png","../images/pnk_blu.png","../images/cyn_red.png"],"mutagen_generator_assignment":[0,1],"goal":2,"start":5,"action_noise":0.2,"location_history":"[5,4,3,4,3,2]","action_history":"[1,0,0,0,1]","mutagen_history":"[1,0,0,0,1]","location_rts":"[900,481,421,497,652]","trial_type":"fractal-mutation","trial_index":139,"time_elapsed":4605090,"internal_node_id":"0.0-5.0-35.0"},{"group":"hexagon_bi","fractal_assignment":["../images/org_blu.png","../images/blu_wht.png","../images/gry_blk.png","../images/ylw_slt.png","../images/pnk_blu.png","../images/cyn_red.png"],"mutagen_generator_assignment":[0,1],"goal":0,"start":2,"action_noise":0.2,"location_history":"[2,3,4,3,4,5,0]","action_history":"[1,1,0,0,1,1]","mutagen_history":"[1,1,0,0,1,1]","location_rts":"[957,434,346,782,249,251]","trial_type":"fractal-mutation","trial_index":140,"time_elapsed":4617903,"internal_node_id":"0.0-5.0-36.0"},{"group":"hexagon_bi","fractal_assignment":["../images/org_blu.png","../images/blu_wht.png","../images/gry_blk.png","../images/ylw_slt.png","../images/pnk_blu.png","../images/cyn_red.png"],"mutagen_generator_assignment":[0,1],"goal":4,"start":0,"action_noise":0.2,"location_history":"[0,5,0,5,4]","action_history":"[0,0,1,1]","mutagen_history":"[0,0,1,1]","location_rts":"[1107,402,148,364]","trial_type":"fractal-mutation","trial_index":141,"time_elapsed":4627631,"internal_node_id":"0.0-5.0-37.0"},{"group":"hexagon_bi","fractal_assignment":["../images/org_blu.png","../images/blu_wht.png","../images/gry_blk.png","../images/ylw_slt.png","../images/pnk_blu.png","../images/cyn_red.png"],"mutagen_generator_assignment":[0,1],"goal":5,"start":4,"action_noise":0.2,"location_history":"[4,5]","action_history":"[1]","mutagen_history":"[1]","location_rts":"[869]","trial_type":"fractal-mutation","trial_index":142,"time_elapsed":4633066,"internal_node_id":"0.0-5.0-38.0"},{"group":"hexagon_bi","fractal_assignment":["../images/org_blu.png","../images/blu_wht.png","../images/gry_blk.png","../images/ylw_slt.png","../images/pnk_blu.png","../images/cyn_red.png"],"mutagen_generator_assignment":[0,1],"goal":1,"start":5,"action_noise":0.2,"location_history":"[5,0,1]","action_history":"[1,1]","mutagen_history":"[1,1]","location_rts":"[1076,62]","trial_type":"fractal-mutation","trial_index":143,"time_elapsed":4639824,"internal_node_id":"0.0-5.0-39.0"},{"group":"hexagon_bi","fractal_assignment":["../images/org_blu.png","../images/blu_wht.png","../images/gry_blk.png","../images/ylw_slt.png","../images/pnk_blu.png","../images/cyn_red.png"],"mutagen_generator_assignment":[0,1],"goal":3,"start":1,"action_noise":0.2,"location_history":"[1,0,1,0,1,0,5,0,5,0,5,4,3]","action_history":"[1,1,1,1,1,0,0,0,0,0,1,1]","mutagen_history":"[1,1,1,1,1,0,0,0,0,0,1,1]","location_rts":"[1021,511,462,464,442,157,499,383,349,503,493,184]","trial_type":"fractal-mutation","trial_index":144,"time_elapsed":4661388,"internal_node_id":"0.0-5.0-40.0"},{"group":"hexagon_bi","fractal_assignment":["../images/org_blu.png","../images/blu_wht.png","../images/gry_blk.png","../images/ylw_slt.png","../images/pnk_blu.png","../images/cyn_red.png"],"mutagen_generator_assignment":[0,1],"goal":1,"start":3,"action_noise":0.2,"location_history":"[3,4,3,2,3,4,5,4,3,4,3,2,3,2,3,4,3,4,3,2,3,2,3,4,3,2,3,4,5,4,5,4,5,0,5,4,3,2,3,2,3,4,3,4,5,4,3,4,5,4,5,4,5,4,3,4,3,4,3,4,5,4,5,4,3,2,3,2,3,2,1]","action_history":"[0,0,1,1,0,0,0,0,0,1,1,1,1,1,0,0,0,1,1,1,1,0,0,0,1,1,0,0,0,1,1,1,1,0,0,0,1,1,1,1,1,1,0,1,1,0,0,0,1,1,1,1,0,0,0,1,0,0,0,1,1,1,1,0,1,1,1,1,0,0]","mutagen_history":"[0,0,1,1,0,0,0,0,0,1,1,1,1,1,0,0,0,1,1,1,1,0,0,0,1,1,0,0,0,1,1,1,1,0,0,0,1,1,1,1,1,1,0,1,1,0,0,0,1,1,1,1,0,0,0,1,0,0,0,1,1,1,1,0,1,1,1,1,0,0]","location_rts":"[922,245,175,269,445,346,317,395,297,230,299,433,231,367,114,206,325,201,555,532,446,707,507,481,260,337,129,472,364,123,171,518,282,61,401,145,102,77,175,183,529,356,1332,888,307,39,275,361,169,346,254,397,36,343,233,266,331,254,1779,176,114,70,15,90,114,107,102,124,511,416]","trial_type":"fractal-mutation","trial_index":145,"time_elapsed":4761530,"internal_node_id":"0.0-5.0-41.0"},{"group":"hexagon_bi","fractal_assignment":["../images/org_blu.png","../images/blu_wht.png","../images/gry_blk.png","../images/ylw_slt.png","../images/pnk_blu.png","../images/cyn_red.png"],"mutagen_generator_assignment":[0,1],"goal":0,"start":1,"action_noise":0.2,"location_history":"[1,0]","action_history":"[1]","mutagen_history":"[1]","location_rts":"[966]","trial_type":"fractal-mutation","trial_index":146,"time_elapsed":4767065,"internal_node_id":"0.0-5.0-42.0"},{"group":"hexagon_bi","fractal_assignment":["../images/org_blu.png","../images/blu_wht.png","../images/gry_blk.png","../images/ylw_slt.png","../images/pnk_blu.png","../images/cyn_red.png"],"mutagen_generator_assignment":[0,1],"goal":4,"start":0,"action_noise":0.2,"location_history":"[0,1,2,1,2,3,4]","action_history":"[1,0,0,0,1,0]","mutagen_history":"[1,0,0,0,1,0]","location_rts":"[1353,598,545,686,254,345]","trial_type":"fractal-mutation","trial_index":147,"time_elapsed":4780609,"internal_node_id":"0.0-5.0-43.0"},{"group":"hexagon_bi","fractal_assignment":["../images/org_blu.png","../images/blu_wht.png","../images/gry_blk.png","../images/ylw_slt.png","../images/pnk_blu.png","../images/cyn_red.png"],"mutagen_generator_assignment":[0,1],"goal":2,"start":4,"action_noise":0.2,"location_history":"[4,5,0,1,0,1,0,1,2]","action_history":"[1,0,0,1,1,1,1,0]","mutagen_history":"[1,0,0,1,1,1,1,0]","location_rts":"[965,1286,431,196,563,475,475,555]","trial_type":"fractal-mutation","trial_index":148,"time_elapsed":4797466,"internal_node_id":"0.0-5.0-44.0"},{"group":"hexagon_bi","fractal_assignment":["../images/org_blu.png","../images/blu_wht.png","../images/gry_blk.png","../images/ylw_slt.png","../images/pnk_blu.png","../images/cyn_red.png"],"mutagen_generator_assignment":[0,1],"goal":3,"start":2,"action_noise":0.2,"location_history":"[2,1,0,1,0,5,0,1,0,5,0,5,0,1,0,1,0,5,4,5,4,3]","action_history":"[1,1,1,1,0,1,1,1,0,0,0,0,1,1,0,0,1,1,0,1,0]","mutagen_history":"[1,1,1,1,0,1,1,1,0,0,0,0,1,1,0,0,1,1,0,1,0]","location_rts":"[1371,557,432,426,880,308,150,393,58,262,133,389,145,248,14,241,253,329,95,972,694]","trial_type":"fractal-mutation","trial_index":149,"time_elapsed":4831309,"internal_node_id":"0.0-5.0-45.0"},{"group":"hexagon_bi","fractal_assignment":["../images/org_blu.png","../images/blu_wht.png","../images/gry_blk.png","../images/ylw_slt.png","../images/pnk_blu.png","../images/cyn_red.png"],"mutagen_generator_assignment":[0,1],"goal":5,"start":3,"action_noise":0.2,"location_history":"[3,4,5]","action_history":"[0,1]","mutagen_history":"[0,1]","location_rts":"[1285,361]","trial_type":"fractal-mutation","trial_index":150,"time_elapsed":4838554,"internal_node_id":"0.0-5.0-46.0"},{"group":"hexagon_bi","fractal_assignment":["../images/org_blu.png","../images/blu_wht.png","../images/gry_blk.png","../images/ylw_slt.png","../images/pnk_blu.png","../images/cyn_red.png"],"mutagen_generator_assignment":[0,1],"goal":4,"start":5,"action_noise":0.2,"location_history":"[5,4]","action_history":"[1]","mutagen_history":"[1]","location_rts":"[2012]","trial_type":"fractal-mutation","trial_index":151,"time_elapsed":4845123,"internal_node_id":"0.0-5.0-47.0"},{"group":"hexagon_bi","fractal_assignment":["../images/org_blu.png","../images/blu_wht.png","../images/gry_blk.png","../images/ylw_slt.png","../images/pnk_blu.png","../images/cyn_red.png"],"mutagen_generator_assignment":[0,1],"goal":3,"start":4,"action_noise":0.2,"location_history":"[4,5,4,5,4,3]","action_history":"[1,1,1,1,0]","mutagen_history":"[1,1,1,1,0]","location_rts":"[876,342,313,492,148]","trial_type":"fractal-mutation","trial_index":152,"time_elapsed":4856055,"internal_node_id":"0.0-5.0-48.0"},{"group":"hexagon_bi","fractal_assignment":["../images/org_blu.png","../images/blu_wht.png","../images/gry_blk.png","../images/ylw_slt.png","../images/pnk_blu.png","../images/cyn_red.png"],"mutagen_generator_assignment":[0,1],"goal":1,"start":3,"action_noise":0.2,"location_history":"[3,4,5,4,5,0,1]","action_history":"[0,1,1,1,0,0]","mutagen_history":"[0,1,1,1,0,0]","location_rts":"[954,189,530,203,242,663]","trial_type":"fractal-mutation","trial_index":153,"time_elapsed":4868642,"internal_node_id":"0.0-5.0-49.0"},{"group":"hexagon_bi","fractal_assignment":["../images/org_blu.png","../images/blu_wht.png","../images/gry_blk.png","../images/ylw_slt.png","../images/pnk_blu.png","../images/cyn_red.png"],"mutagen_generator_assignment":[0,1],"goal":2,"start":1,"action_noise":0.2,"location_history":"[1,2]","action_history":"[0]","mutagen_history":"[0]","location_rts":"[975]","trial_type":"fractal-mutation","trial_index":154,"time_elapsed":4874175,"internal_node_id":"0.0-5.0-50.0"},{"group":"hexagon_bi","fractal_assignment":["../images/org_blu.png","../images/blu_wht.png","../images/gry_blk.png","../images/ylw_slt.png","../images/pnk_blu.png","../images/cyn_red.png"],"mutagen_generator_assignment":[0,1],"goal":0,"start":2,"action_noise":0.2,"location_history":"[2,3,2,1,0]","action_history":"[1,1,0,0]","mutagen_history":"[1,1,0,0]","location_rts":"[844,421,95,774]","trial_type":"fractal-mutation","trial_index":155,"time_elapsed":4884003,"internal_node_id":"0.0-5.0-51.0"},{"group":"hexagon_bi","fractal_assignment":["../images/org_blu.png","../images/blu_wht.png","../images/gry_blk.png","../images/ylw_slt.png","../images/pnk_blu.png","../images/cyn_red.png"],"mutagen_generator_assignment":[0,1],"goal":5,"start":0,"action_noise":0.2,"location_history":"[0,5]","action_history":"[0]","mutagen_history":"[0]","location_rts":"[1093]","trial_type":"fractal-mutation","trial_index":156,"time_elapsed":4889646,"internal_node_id":"0.0-5.0-52.0"},{"group":"hexagon_bi","fractal_assignment":["../images/org_blu.png","../images/blu_wht.png","../images/gry_blk.png","../images/ylw_slt.png","../images/pnk_blu.png","../images/cyn_red.png"],"mutagen_generator_assignment":[0,1],"goal":1,"start":5,"action_noise":0.2,"location_history":"[5,0,5,4,3,2,3,2,3,4,3,4,5,4,5,4,3,4,5,4,3,2,3,2,1]","action_history":"[0,1,0,1,1,1,1,0,0,0,0,1,1,1,0,1,0,0,0,1,1,1,1,0]","mutagen_history":"[0,1,0,1,1,1,1,0,0,0,0,1,1,1,0,1,0,0,0,1,1,1,1,0]","location_rts":"[2501,507,815,571,660,550,474,773,726,681,416,164,151,100,457,1329,645,118,238,354,278,209,213,210]","trial_type":"fractal-mutation","trial_index":157,"time_elapsed":4931456,"internal_node_id":"0.0-5.0-53.0"},{"group":"hexagon_bi","fractal_assignment":["../images/org_blu.png","../images/blu_wht.png","../images/gry_blk.png","../images/ylw_slt.png","../images/pnk_blu.png","../images/cyn_red.png"],"mutagen_generator_assignment":[0,1],"goal":3,"start":1,"action_noise":0.2,"location_history":"[1,2,1,2,1,0,5,0,5,4,5,0,1,0,5,0,1,0,1,2,3]","action_history":"[1,0,0,0,1,0,1,1,1,1,0,1,1,1,0,1,1,1,0,1]","mutagen_history":"[1,0,0,0,1,0,1,1,1,1,0,1,1,1,0,1,1,1,0,1]","location_rts":"[1034,387,467,496,557,403,382,149,150,444,147,760,311,470,218,89,120,252,510,738]","trial_type":"fractal-mutation","trial_index":158,"time_elapsed":4964048,"internal_node_id":"0.0-5.0-54.0"},{"group":"hexagon_bi","fractal_assignment":["../images/org_blu.png","../images/blu_wht.png","../images/gry_blk.png","../images/ylw_slt.png","../images/pnk_blu.png","../images/cyn_red.png"],"mutagen_generator_assignment":[0,1],"goal":5,"start":3,"action_noise":0.2,"location_history":"[3,4,5]","action_history":"[0,1]","mutagen_history":"[0,1]","location_rts":"[963,291]","trial_type":"fractal-mutation","trial_index":159,"time_elapsed":4970926,"internal_node_id":"0.0-5.0-55.0"},{"group":"hexagon_bi","fractal_assignment":["../images/org_blu.png","../images/blu_wht.png","../images/gry_blk.png","../images/ylw_slt.png","../images/pnk_blu.png","../images/cyn_red.png"],"mutagen_generator_assignment":[0,1],"goal":4,"start":5,"action_noise":0.2,"location_history":"[5,0,5,0,5,0,5,4]","action_history":"[0,1,0,1,1,0,0]","mutagen_history":"[0,1,0,1,1,0,0]","location_rts":"[2722,491,469,408,392,420,559]","trial_type":"fractal-mutation","trial_index":160,"time_elapsed":4987217,"internal_node_id":"0.0-5.0-56.0"},{"group":"hexagon_bi","fractal_assignment":["../images/org_blu.png","../images/blu_wht.png","../images/gry_blk.png","../images/ylw_slt.png","../images/pnk_blu.png","../images/cyn_red.png"],"mutagen_generator_assignment":[0,1],"goal":0,"start":4,"action_noise":0.2,"location_history":"[4,5,0]","action_history":"[1,0]","mutagen_history":"[1,0]","location_rts":"[1093,237]","trial_type":"fractal-mutation","trial_index":161,"time_elapsed":4994151,"internal_node_id":"0.0-5.0-57.0"},{"group":"hexagon_bi","fractal_assignment":["../images/org_blu.png","../images/blu_wht.png","../images/gry_blk.png","../images/ylw_slt.png","../images/pnk_blu.png","../images/cyn_red.png"],"mutagen_generator_assignment":[0,1],"goal":2,"start":0,"action_noise":0.2,"location_history":"[0,1,2]","action_history":"[1,0]","mutagen_history":"[1,0]","location_rts":"[1339,630]","trial_type":"fractal-mutation","trial_index":162,"time_elapsed":5001734,"internal_node_id":"0.0-5.0-58.0"},{"group":"hexagon_bi","fractal_assignment":["../images/org_blu.png","../images/blu_wht.png","../images/gry_blk.png","../images/ylw_slt.png","../images/pnk_blu.png","../images/cyn_red.png"],"mutagen_generator_assignment":[0,1],"goal":4,"start":2,"action_noise":0.2,"location_history":"[2,1,2,3,4]","action_history":"[1,0,0,0]","mutagen_history":"[1,0,0,0]","location_rts":"[1496,732,432,527]","trial_type":"fractal-mutation","trial_index":163,"time_elapsed":5012606,"internal_node_id":"0.0-5.0-59.0"},{"group":"hexagon_bi","fractal_assignment":["../images/org_blu.png","../images/blu_wht.png","../images/gry_blk.png","../images/ylw_slt.png","../images/pnk_blu.png","../images/cyn_red.png"],"mutagen_generator_assignment":[0,1],"goal":2,"start":4,"action_noise":0.2,"location_history":"[4,3,2]","action_history":"[0,1]","mutagen_history":"[0,1]","location_rts":"[1567,667]","trial_type":"fractal-mutation","trial_index":164,"time_elapsed":5020432,"internal_node_id":"0.0-5.0-60.0"},{"group":"hexagon_bi","fractal_assignment":["../images/org_blu.png","../images/blu_wht.png","../images/gry_blk.png","../images/ylw_slt.png","../images/pnk_blu.png","../images/cyn_red.png"],"mutagen_generator_assignment":[0,1],"goal":3,"start":2,"action_noise":0.2,"location_history":"[2,3]","action_history":"[1]","mutagen_history":"[1]","location_rts":"[1661]","trial_type":"fractal-mutation","trial_index":165,"time_elapsed":5026650,"internal_node_id":"0.0-5.0-61.0"},{"group":"hexagon_bi","fractal_assignment":["../images/org_blu.png","../images/blu_wht.png","../images/gry_blk.png","../images/ylw_slt.png","../images/pnk_blu.png","../images/cyn_red.png"],"mutagen_generator_assignment":[0,1],"goal":0,"start":3,"action_noise":0.2,"location_history":"[3,2,1,0]","action_history":"[1,0,1]","mutagen_history":"[1,0,1]","location_rts":"[1171,375,724]","trial_type":"fractal-mutation","trial_index":166,"time_elapsed":5035563,"internal_node_id":"0.0-5.0-62.0"},{"group":"hexagon_bi","fractal_assignment":["../images/org_blu.png","../images/blu_wht.png","../images/gry_blk.png","../images/ylw_slt.png","../images/pnk_blu.png","../images/cyn_red.png"],"mutagen_generator_assignment":[0,1],"goal":5,"start":0,"action_noise":0.2,"location_history":"[0,5]","action_history":"[0]","mutagen_history":"[0]","location_rts":"[1313]","trial_type":"fractal-mutation","trial_index":167,"time_elapsed":5041424,"internal_node_id":"0.0-5.0-63.0"},{"group":"hexagon_bi","fractal_assignment":["../images/org_blu.png","../images/blu_wht.png","../images/gry_blk.png","../images/ylw_slt.png","../images/pnk_blu.png","../images/cyn_red.png"],"mutagen_generator_assignment":[0,1],"goal":1,"start":5,"action_noise":0.2,"location_history":"[5,4,5,0,1]","action_history":"[1,1,0,1]","mutagen_history":"[1,1,0,1]","location_rts":"[2219,1391,616,1081]","trial_type":"fractal-mutation","trial_index":168,"time_elapsed":5054419,"internal_node_id":"0.0-5.0-64.0"},{"group":"hexagon_bi","fractal_assignment":["../images/org_blu.png","../images/blu_wht.png","../images/gry_blk.png","../images/ylw_slt.png","../images/pnk_blu.png","../images/cyn_red.png"],"mutagen_generator_assignment":[0,1],"goal":5,"start":1,"action_noise":0.2,"location_history":"[1,0,5]","action_history":"[1,0]","mutagen_history":"[1,0]","location_rts":"[2239,714]","trial_type":"fractal-mutation","trial_index":169,"time_elapsed":5062978,"internal_node_id":"0.0-5.0-65.0"},{"group":"hexagon_bi","fractal_assignment":["../images/org_blu.png","../images/blu_wht.png","../images/gry_blk.png","../images/ylw_slt.png","../images/pnk_blu.png","../images/cyn_red.png"],"mutagen_generator_assignment":[0,1],"goal":3,"start":5,"action_noise":0.2,"location_history":"[5,4,3]","action_history":"[1,1]","mutagen_history":"[1,1]","location_rts":"[1610,511]","trial_type":"fractal-mutation","trial_index":170,"time_elapsed":5070722,"internal_node_id":"0.0-5.0-66.0"},{"group":"hexagon_bi","fractal_assignment":["../images/org_blu.png","../images/blu_wht.png","../images/gry_blk.png","../images/ylw_slt.png","../images/pnk_blu.png","../images/cyn_red.png"],"mutagen_generator_assignment":[0,1],"goal":2,"start":3,"action_noise":0.2,"location_history":"[3,4,5,4,5,4,5,4,5,0,5,4,5,4,3,2]","action_history":"[1,1,1,1,1,1,0,1,0,0,1,1,0,0,1]","mutagen_history":"[1,1,1,1,1,1,0,1,0,0,1,1,0,0,1]","location_rts":"[1363,552,442,484,619,547,234,371,432,176,162,311,247,1129,272]","trial_type":"fractal-mutation","trial_index":171,"time_elapsed":5097279,"internal_node_id":"0.0-5.0-67.0"},{"group":"hexagon_bi","fractal_assignment":["../images/org_blu.png","../images/blu_wht.png","../images/gry_blk.png","../images/ylw_slt.png","../images/pnk_blu.png","../images/cyn_red.png"],"mutagen_generator_assignment":[0,1],"goal":1,"start":2,"action_noise":0.2,"location_history":"[2,1]","action_history":"[0]","mutagen_history":"[0]","location_rts":"[2370]","trial_type":"fractal-mutation","trial_index":172,"time_elapsed":5104209,"internal_node_id":"0.0-5.0-68.0"},{"group":"hexagon_bi","fractal_assignment":["../images/org_blu.png","../images/blu_wht.png","../images/gry_blk.png","../images/ylw_slt.png","../images/pnk_blu.png","../images/cyn_red.png"],"mutagen_generator_assignment":[0,1],"goal":4,"start":1,"action_noise":0.2,"location_history":"[1,0,1,2,3,4]","action_history":"[1,0,0,1,0]","mutagen_history":"[1,0,0,1,0]","location_rts":"[1829,520,813,690,497]","trial_type":"fractal-mutation","trial_index":173,"time_elapsed":5117318,"internal_node_id":"0.0-5.0-69.0"},{"group":"hexagon_bi","fractal_assignment":["../images/org_blu.png","../images/blu_wht.png","../images/gry_blk.png","../images/ylw_slt.png","../images/pnk_blu.png","../images/cyn_red.png"],"mutagen_generator_assignment":[0,1],"goal":0,"start":4,"action_noise":0.2,"location_history":"[4,5,0]","action_history":"[0,0]","mutagen_history":"[0,0]","location_rts":"[1603,612]","trial_type":"fractal-mutation","trial_index":174,"time_elapsed":5125128,"internal_node_id":"0.0-5.0-70.0"},{"group":"hexagon_bi","fractal_assignment":["../images/org_blu.png","../images/blu_wht.png","../images/gry_blk.png","../images/ylw_slt.png","../images/pnk_blu.png","../images/cyn_red.png"],"mutagen_generator_assignment":[0,1],"goal":3,"start":0,"action_noise":0.2,"location_history":"[0,1,2,1,0,5,0,5,0,5,0,5,4,5,4,3]","action_history":"[1,0,1,1,1,1,0,1,0,0,0,1,1,1,0]","mutagen_history":"[1,0,1,1,1,1,0,1,0,0,0,1,1,1,0]","location_rts":"[1399,546,678,553,544,534,361,462,508,483,513,301,832,544,596]","trial_type":"fractal-mutation","trial_index":175,"time_elapsed":5153243,"internal_node_id":"0.0-5.0-71.0"},{"group":"hexagon_bi","fractal_assignment":["../images/org_blu.png","../images/blu_wht.png","../images/gry_blk.png","../images/ylw_slt.png","../images/pnk_blu.png","../images/cyn_red.png"],"mutagen_generator_assignment":[0,1],"goal":1,"start":3,"action_noise":0.2,"location_history":"[3,2,1]","action_history":"[1,0]","mutagen_history":"[1,0]","location_rts":"[1571,1120]","trial_type":"fractal-mutation","trial_index":176,"time_elapsed":5161532,"internal_node_id":"0.0-5.0-72.0"},{"group":"hexagon_bi","fractal_assignment":["../images/org_blu.png","../images/blu_wht.png","../images/gry_blk.png","../images/ylw_slt.png","../images/pnk_blu.png","../images/cyn_red.png"],"mutagen_generator_assignment":[0,1],"goal":0,"start":1,"action_noise":0.2,"location_history":"[1,2,3,2,3,2,3,2,1,2,3,4,5,0]","action_history":"[0,1,1,0,0,0,1,0,0,1,0,1,0]","mutagen_history":"[0,1,1,0,0,0,1,0,0,1,0,1,0]","location_rts":"[1274,599,619,147,460,463,180,159,350,544,162,1123,813]","trial_type":"fractal-mutation","trial_index":177,"time_elapsed":5185519,"internal_node_id":"0.0-5.0-73.0"},{"group":"hexagon_bi","fractal_assignment":["../images/org_blu.png","../images/blu_wht.png","../images/gry_blk.png","../images/ylw_slt.png","../images/pnk_blu.png","../images/cyn_red.png"],"mutagen_generator_assignment":[0,1],"goal":2,"start":0,"action_noise":0.2,"location_history":"[0,1,2]","action_history":"[1,0]","mutagen_history":"[1,0]","location_rts":"[1981,1712]","trial_type":"fractal-mutation","trial_index":178,"time_elapsed":5194804,"internal_node_id":"0.0-5.0-74.0"},{"group":"hexagon_bi","fractal_assignment":["../images/org_blu.png","../images/blu_wht.png","../images/gry_blk.png","../images/ylw_slt.png","../images/pnk_blu.png","../images/cyn_red.png"],"mutagen_generator_assignment":[0,1],"goal":4,"start":2,"action_noise":0.2,"location_history":"[2,1,0,5,0,5,4]","action_history":"[0,1,1,0,0,1]","mutagen_history":"[0,1,1,0,0,1]","location_rts":"[2516,4192,1329,667,557,504]","trial_type":"fractal-mutation","trial_index":179,"time_elapsed":5214377,"internal_node_id":"0.0-5.0-75.0"},{"group":"hexagon_bi","fractal_assignment":["../images/org_blu.png","../images/blu_wht.png","../images/gry_blk.png","../images/ylw_slt.png","../images/pnk_blu.png","../images/cyn_red.png"],"mutagen_generator_assignment":[0,1],"goal":5,"start":4,"action_noise":0.2,"location_history":"[4,5]","action_history":"[1]","mutagen_history":"[1]","location_rts":"[1938]","trial_type":"fractal-mutation","trial_index":180,"time_elapsed":5220874,"internal_node_id":"0.0-5.0-76.0"},{"group":"hexagon_bi","fractal_assignment":["../images/org_blu.png","../images/blu_wht.png","../images/gry_blk.png","../images/ylw_slt.png","../images/pnk_blu.png","../images/cyn_red.png"],"mutagen_generator_assignment":[0,1],"goal":2,"start":5,"action_noise":0.2,"location_history":"[5,4,3,2]","action_history":"[1,0,1]","mutagen_history":"[1,0,1]","location_rts":"[1863,612,979]","trial_type":"fractal-mutation","trial_index":181,"time_elapsed":5230978,"internal_node_id":"0.0-5.0-77.0"},{"group":"hexagon_bi","fractal_assignment":["../images/org_blu.png","../images/blu_wht.png","../images/gry_blk.png","../images/ylw_slt.png","../images/pnk_blu.png","../images/cyn_red.png"],"mutagen_generator_assignment":[0,1],"goal":3,"start":2,"action_noise":0.2,"location_history":"[2,3]","action_history":"[1]","mutagen_history":"[1]","location_rts":"[1791]","trial_type":"fractal-mutation","trial_index":182,"time_elapsed":5237326,"internal_node_id":"0.0-5.0-78.0"},{"group":"hexagon_bi","fractal_assignment":["../images/org_blu.png","../images/blu_wht.png","../images/gry_blk.png","../images/ylw_slt.png","../images/pnk_blu.png","../images/cyn_red.png"],"mutagen_generator_assignment":[0,1],"goal":1,"start":3,"action_noise":0.2,"location_history":"[3,2,3,4,5,4,3,4,5,4,3,2,3,4,5,0,5,4,3,2,1]","action_history":"[1,0,0,1,0,0,0,1,1,0,1,1,1,1,0,0,0,0,1,0]","mutagen_history":"[1,0,0,1,0,0,0,1,1,0,1,1,1,1,0,0,0,0,1,0]","location_rts":"[1747,825,1225,186,697,513,563,263,751,918,238,354,214,888,245,600,613,1147,81,729]","trial_type":"fractal-mutation","trial_index":183,"time_elapsed":5274652,"internal_node_id":"0.0-5.0-79.0"},{"group":"hexagon_bi","fractal_assignment":["../images/org_blu.png","../images/blu_wht.png","../images/gry_blk.png","../images/ylw_slt.png","../images/pnk_blu.png","../images/cyn_red.png"],"mutagen_generator_assignment":[0,1],"goal":4,"start":1,"action_noise":0.2,"location_history":"[1,0,5,0,5,4]","action_history":"[1,0,0,0,1]","mutagen_history":"[1,0,0,0,1]","location_rts":"[667,660,430,451,254]","trial_type":"fractal-mutation","trial_index":184,"time_elapsed":5285833,"internal_node_id":"0.0-5.0-80.0"},{"group":"hexagon_bi","fractal_assignment":["../images/org_blu.png","../images/blu_wht.png","../images/gry_blk.png","../images/ylw_slt.png","../images/pnk_blu.png","../images/cyn_red.png"],"mutagen_generator_assignment":[0,1],"goal":5,"start":4,"action_noise":0.2,"location_history":"[4,5]","action_history":"[1]","mutagen_history":"[1]","location_rts":"[1001]","trial_type":"fractal-mutation","trial_index":185,"time_elapsed":5291401,"internal_node_id":"0.0-5.0-81.0"},{"group":"hexagon_bi","fractal_assignment":["../images/org_blu.png","../images/blu_wht.png","../images/gry_blk.png","../images/ylw_slt.png","../images/pnk_blu.png","../images/cyn_red.png"],"mutagen_generator_assignment":[0,1],"goal":0,"start":5,"action_noise":0.2,"location_history":"[5,0]","action_history":"[0]","mutagen_history":"[0]","location_rts":"[1374]","trial_type":"fractal-mutation","trial_index":186,"time_elapsed":5297336,"internal_node_id":"0.0-5.0-82.0"},{"group":"hexagon_bi","fractal_assignment":["../images/org_blu.png","../images/blu_wht.png","../images/gry_blk.png","../images/ylw_slt.png","../images/pnk_blu.png","../images/cyn_red.png"],"mutagen_generator_assignment":[0,1],"goal":2,"start":0,"action_noise":0.2,"location_history":"[0,1,2]","action_history":"[1,0]","mutagen_history":"[1,0]","location_rts":"[1083,688]","trial_type":"fractal-mutation","trial_index":187,"time_elapsed":5304708,"internal_node_id":"0.0-5.0-83.0"},{"group":"hexagon_bi","fractal_assignment":["../images/org_blu.png","../images/blu_wht.png","../images/gry_blk.png","../images/ylw_slt.png","../images/pnk_blu.png","../images/cyn_red.png"],"mutagen_generator_assignment":[0,1],"goal":0,"start":2,"action_noise":0.2,"location_history":"[2,3,2,1,0]","action_history":"[1,1,0,1]","mutagen_history":"[1,1,0,1]","location_rts":"[1934,814,580,1706]","trial_type":"fractal-mutation","trial_index":188,"time_elapsed":5317450,"internal_node_id":"0.0-5.0-84.0"},{"group":"hexagon_bi","fractal_assignment":["../images/org_blu.png","../images/blu_wht.png","../images/gry_blk.png","../images/ylw_slt.png","../images/pnk_blu.png","../images/cyn_red.png"],"mutagen_generator_assignment":[0,1],"goal":5,"start":0,"action_noise":0.2,"location_history":"[0,5]","action_history":"[0]","mutagen_history":"[0]","location_rts":"[1403]","trial_type":"fractal-mutation","trial_index":189,"time_elapsed":5323382,"internal_node_id":"0.0-5.0-85.0"},{"group":"hexagon_bi","fractal_assignment":["../images/org_blu.png","../images/blu_wht.png","../images/gry_blk.png","../images/ylw_slt.png","../images/pnk_blu.png","../images/cyn_red.png"],"mutagen_generator_assignment":[0,1],"goal":1,"start":5,"action_noise":0.2,"location_history":"[5,4,5,0,1]","action_history":"[1,0,1,1]","mutagen_history":"[1,0,1,1]","location_rts":"[1132,538,715,600]","trial_type":"fractal-mutation","trial_index":190,"time_elapsed":5334069,"internal_node_id":"0.0-5.0-86.0"},{"group":"hexagon_bi","fractal_assignment":["../images/org_blu.png","../images/blu_wht.png","../images/gry_blk.png","../images/ylw_slt.png","../images/pnk_blu.png","../images/cyn_red.png"],"mutagen_generator_assignment":[0,1],"goal":4,"start":1,"action_noise":0.2,"location_history":"[1,0,1,0,1,0,5,0,1,0,5,4]","action_history":"[1,1,0,1,1,0,0,0,1,0,1]","mutagen_history":"[1,1,0,1,1,0,0,0,1,0,1]","location_rts":"[2102,1240,755,486,647,689,720,488,817,497,642]","trial_type":"fractal-mutation","trial_index":191,"time_elapsed":5358193,"internal_node_id":"0.0-5.0-87.0"},{"group":"hexagon_bi","fractal_assignment":["../images/org_blu.png","../images/blu_wht.png","../images/gry_blk.png","../images/ylw_slt.png","../images/pnk_blu.png","../images/cyn_red.png"],"mutagen_generator_assignment":[0,1],"goal":3,"start":4,"action_noise":0.2,"location_history":"[4,3]","action_history":"[1]","mutagen_history":"[1]","location_rts":"[1491]","trial_type":"fractal-mutation","trial_index":192,"time_elapsed":5364236,"internal_node_id":"0.0-5.0-88.0"},{"group":"hexagon_bi","fractal_assignment":["../images/org_blu.png","../images/blu_wht.png","../images/gry_blk.png","../images/ylw_slt.png","../images/pnk_blu.png","../images/cyn_red.png"],"mutagen_generator_assignment":[0,1],"goal":5,"start":3,"action_noise":0.2,"location_history":"[3,4,5]","action_history":"[0,1]","mutagen_history":"[0,1]","location_rts":"[1608,723]","trial_type":"fractal-mutation","trial_index":193,"time_elapsed":5372176,"internal_node_id":"0.0-5.0-89.0"},{"group":"hexagon_bi","fractal_assignment":["../images/org_blu.png","../images/blu_wht.png","../images/gry_blk.png","../images/ylw_slt.png","../images/pnk_blu.png","../images/cyn_red.png"],"mutagen_generator_assignment":[0,1],"goal":1,"start":5,"action_noise":0.2,"location_history":"[5,4,3,2,3,2,1]","action_history":"[1,1,1,1,0,0]","mutagen_history":"[1,1,1,1,0,0]","location_rts":"[2874,544,551,573,470,598]","trial_type":"fractal-mutation","trial_index":194,"time_elapsed":5387598,"internal_node_id":"0.0-5.0-90.0"},{"group":"hexagon_bi","fractal_assignment":["../images/org_blu.png","../images/blu_wht.png","../images/gry_blk.png","../images/ylw_slt.png","../images/pnk_blu.png","../images/cyn_red.png"],"mutagen_generator_assignment":[0,1],"goal":2,"start":1,"action_noise":0.2,"location_history":"[1,2]","action_history":"[0]","mutagen_history":"[0]","location_rts":"[1597]","trial_type":"fractal-mutation","trial_index":195,"time_elapsed":5393748,"internal_node_id":"0.0-5.0-91.0"},{"group":"hexagon_bi","fractal_assignment":["../images/org_blu.png","../images/blu_wht.png","../images/gry_blk.png","../images/ylw_slt.png","../images/pnk_blu.png","../images/cyn_red.png"],"mutagen_generator_assignment":[0,1],"goal":4,"start":2,"action_noise":0.2,"location_history":"[2,3,4]","action_history":"[1,0]","mutagen_history":"[1,0]","location_rts":"[1589,802]","trial_type":"fractal-mutation","trial_index":196,"time_elapsed":5401755,"internal_node_id":"0.0-5.0-92.0"},{"group":"hexagon_bi","fractal_assignment":["../images/org_blu.png","../images/blu_wht.png","../images/gry_blk.png","../images/ylw_slt.png","../images/pnk_blu.png","../images/cyn_red.png"],"mutagen_generator_assignment":[0,1],"goal":0,"start":4,"action_noise":0.2,"location_history":"[4,5,4,3,4,3,4,3,2,3,4,3,4,5,0]","action_history":"[0,0,0,0,0,1,0,1,1,0,0,0,1,0]","mutagen_history":"[0,0,0,0,0,1,0,1,1,0,0,0,1,0]","location_rts":"[1899,654,615,589,577,166,265,566,487,235,201,599,562,218]","trial_type":"fractal-mutation","trial_index":197,"time_elapsed":5427495,"internal_node_id":"0.0-5.0-93.0"},{"group":"hexagon_bi","fractal_assignment":["../images/org_blu.png","../images/blu_wht.png","../images/gry_blk.png","../images/ylw_slt.png","../images/pnk_blu.png","../images/cyn_red.png"],"mutagen_generator_assignment":[0,1],"goal":3,"start":0,"action_noise":0.2,"location_history":"[0,5,4,3]","action_history":"[0,1,0]","mutagen_history":"[0,1,0]","location_rts":"[1740,775,830]","trial_type":"fractal-mutation","trial_index":198,"time_elapsed":5437482,"internal_node_id":"0.0-5.0-94.0"},{"group":"hexagon_bi","fractal_assignment":["../images/org_blu.png","../images/blu_wht.png","../images/gry_blk.png","../images/ylw_slt.png","../images/pnk_blu.png","../images/cyn_red.png"],"mutagen_generator_assignment":[0,1],"goal":0,"start":3,"action_noise":0.2,"location_history":"[3,2,1,0]","action_history":"[1,0,1]","mutagen_history":"[1,0,1]","location_rts":"[2276,854,883]","trial_type":"fractal-mutation","trial_index":199,"time_elapsed":5448132,"internal_node_id":"0.0-5.0-95.0"},{"group":"hexagon_bi","fractal_assignment":["../images/org_blu.png","../images/blu_wht.png","../images/gry_blk.png","../images/ylw_slt.png","../images/pnk_blu.png","../images/cyn_red.png"],"mutagen_generator_assignment":[0,1],"goal":4,"start":0,"action_noise":0.2,"location_history":"[0,5,4]","action_history":"[0,1]","mutagen_history":"[0,1]","location_rts":"[1771,766]","trial_type":"fractal-mutation","trial_index":200,"time_elapsed":5456235,"internal_node_id":"0.0-5.0-96.0"},{"group":"hexagon_bi","fractal_assignment":["../images/org_blu.png","../images/blu_wht.png","../images/gry_blk.png","../images/ylw_slt.png","../images/pnk_blu.png","../images/cyn_red.png"],"mutagen_generator_assignment":[0,1],"goal":5,"start":4,"action_noise":0.2,"location_history":"[4,5]","action_history":"[0]","mutagen_history":"[0]","location_rts":"[2555]","trial_type":"fractal-mutation","trial_index":201,"time_elapsed":5463337,"internal_node_id":"0.0-5.0-97.0"},{"group":"hexagon_bi","fractal_assignment":["../images/org_blu.png","../images/blu_wht.png","../images/gry_blk.png","../images/ylw_slt.png","../images/pnk_blu.png","../images/cyn_red.png"],"mutagen_generator_assignment":[0,1],"goal":2,"start":5,"action_noise":0.2,"location_history":"[5,4,3,4,3,4,3,2]","action_history":"[1,0,0,0,0,0,1]","mutagen_history":"[1,0,0,0,0,0,1]","location_rts":"[1173,559,567,643,539,342,416]","trial_type":"fractal-mutation","trial_index":202,"time_elapsed":5478426,"internal_node_id":"0.0-5.0-98.0"},{"group":"hexagon_bi","fractal_assignment":["../images/org_blu.png","../images/blu_wht.png","../images/gry_blk.png","../images/ylw_slt.png","../images/pnk_blu.png","../images/cyn_red.png"],"mutagen_generator_assignment":[0,1],"goal":1,"start":2,"action_noise":0.2,"location_history":"[2,1]","action_history":"[0]","mutagen_history":"[0]","location_rts":"[1413]","trial_type":"fractal-mutation","trial_index":203,"time_elapsed":5484377,"internal_node_id":"0.0-5.0-99.0"},{"view_history":"[{\"page_index\":0,\"viewing_time\":3084}]","rt":3084,"trial_type":"instructions","trial_index":204,"time_elapsed":5488462,"internal_node_id":"0.0-6.0"},{"rt":13142,"responses":"{\"Q0\":\"How quickly people pick up on patterns.\"}","trial_type":"survey-text","trial_index":205,"time_elapsed":5502616,"internal_node_id":"0.0-7.0-0.0"},{"rt":16680,"responses":"{\"Q0\":\"Similar as part 1 trying to see if you can pick up on patterns.\"}","trial_type":"survey-text","trial_index":206,"time_elapsed":5520301,"internal_node_id":"0.0-7.0-1.0"},{"rt":25375,"responses":"{\"Q0\":\"<img src='../images/diagrams/hexagon_tri.png'>\"}","trial_type":"survey-multi-choice","trial_index":207,"time_elapsed":5546685,"internal_node_id":"0.0-7.0-2.0"},{"rt":38013,"assignments":["../images/org_blu.png","../images/cyn_red.png","../images/blu_wht.png","../images/ylw_slt.png","../images/gry_blk.png","../images/pnk_blu.png"],"trial_type":"drag-drop-on-image","trial_index":208,"time_elapsed":5585702,"internal_node_id":"0.0-7.0-3.0"},{"rt":4754,"responses":"{\"Q0\":\"3\"}","trial_type":"survey-likert","trial_index":209,"time_elapsed":5591463,"internal_node_id":"0.0-7.0-4.0"},{"rt":18183,"responses":"{\"Q0\":\"I felt once you got a sequence down that it was the same sequence for both parts.\"}","trial_type":"survey-text","trial_index":210,"time_elapsed":5610653,"internal_node_id":"0.0-7.0-5.0"},{"rt":4655,"responses":"{\"Q0\":\"Yes\"}","trial_type":"survey-multi-choice","trial_index":211,"time_el