[{"view_history":"[{\"page_index\":0,\"viewing_time\":2403},{\"page_index\":1,\"viewing_time\":8047}]","rt":10451,"trial_type":"instructions","trial_index":0,"time_elapsed":10454,"internal_node_id":"0.0-0.0"},{"view_history":"[{\"page_index\":0,\"viewing_time\":2508},{\"page_index\":1,\"viewing_time\":10144}]","rt":12652,"trial_type":"instructions","trial_index":1,"time_elapsed":24108,"internal_node_id":"0.0-1.0"},{"group":"hexagon_bi","room_assignment":["yellow","purple","red","grey","green","blue"],"door_color_assignment":["white","black"],"door_generator_assignment":[0,1],"goal":2,"start":1,"action_noise":0.2,"location_history":"[1,2]","action_history":"[0]","door_history":"[0]","location_rts":"[2286]","trial_type":"two-door-navigation","trial_index":2,"time_elapsed":30924,"internal_node_id":"0.0-2.0-0.0"},{"group":"hexagon_bi","room_assignment":["yellow","purple","red","grey","green","blue"],"door_color_assignment":["white","black"],"door_generator_assignment":[0,1],"goal":0,"start":2,"action_noise":0.2,"location_history":"[2,3,4,5,0]","action_history":"[1,0,1,0]","door_history":"[1,0,1,0]","location_rts":"[2270,2007,2048,706]","trial_type":"two-door-navigation","trial_index":3,"time_elapsed":45550,"internal_node_id":"0.0-2.0-1.0"},{"group":"hexagon_bi","room_assignment":["yellow","purple","red","grey","green","blue"],"door_color_assignment":["white","black"],"door_generator_assignment":[0,1],"goal":5,"start":0,"action_noise":0.2,"location_history":"[0,1,0,5]","action_history":"[0,1,0]","door_history":"[0,1,0]","location_rts":"[1172,1368,596]","trial_type":"two-door-navigation","trial_index":4,"time_elapsed":55259,"internal_node_id":"0.0-2.0-2.0"},{"group":"hexagon_bi","room_assignment":["yellow","purple","red","grey","green","blue"],"door_color_assignment":["white","black"],"door_generator_assignment":[0,1],"goal":3,"start":5,"action_noise":0.2,"location_history":"[5,4,3]","action_history":"[1,0]","door_history":"[1,0]","location_rts":"[2037,869]","trial_type":"two-door-navigation","trial_index":5,"time_elapsed":63715,"internal_node_id":"0.0-2.0-3.0"},{"group":"hexagon_bi","room_assignment":["yellow","purple","red","grey","green","blue"],"door_color_assignment":["white","black"],"door_generator_assignment":[0,1],"goal":4,"start":3,"action_noise":0.2,"location_history":"[3,2,3,2,1,0,5,0,5,4]","action_history":"[0,0,1,0,1,0,1,0,1]","door_history":"[0,0,1,0,1,0,1,0,1]","location_rts":"[2439,1154,1034,1383,322,978,1364,1319,247]","trial_type":"two-door-navigation","trial_index":6,"time_elapsed":86654,"internal_node_id":"0.0-2.0-4.0"},{"group":"hexagon_bi","room_assignment":["yellow","purple","red","grey","green","blue"],"door_color_assignment":["white","black"],"door_generator_assignment":[0,1],"goal":0,"start":4,"action_noise":0.2,"location_history":"[4,3,2,1,2,1,0]","action_history":"[0,1,0,1,0,1]","door_history":"[0,1,0,1,0,1]","location_rts":"[2181,1140,1231,706,1052,367]","trial_type":"two-door-navigation","trial_index":7,"time_elapsed":102966,"internal_node_id":"0.0-2.0-5.0"},{"group":"hexagon_bi","room_assignment":["yellow","purple","red","grey","green","blue"],"door_color_assignment":["white","black"],"door_generator_assignment":[0,1],"goal":4,"start":0,"action_noise":0.2,"location_history":"[0,5,4]","action_history":"[0,1]","door_history":"[0,1]","location_rts":"[1421,724]","trial_type":"two-door-navigation","trial_index":8,"time_elapsed":110659,"internal_node_id":"0.0-2.0-6.0"},{"group":"hexagon_bi","room_assignment":["yellow","purple","red","grey","green","blue"],"door_color_assignment":["white","black"],"door_generator_assignment":[0,1],"goal":3,"start":4,"action_noise":0.2,"location_history":"[4,3]","action_history":"[0]","door_history":"[0]","location_rts":"[1966]","trial_type":"two-door-navigation","trial_index":9,"time_elapsed":117149,"internal_node_id":"0.0-2.0-7.0"},{"group":"hexagon_bi","room_assignment":["yellow","purple","red","grey","green","blue"],"door_color_assignment":["white","black"],"door_generator_assignment":[0,1],"goal":2,"start":3,"action_noise":0.2,"location_history":"[3,2]","action_history":"[1]","door_history":"[1]","location_rts":"[1316]","trial_type":"two-door-navigation","trial_index":10,"time_elapsed":122987,"internal_node_id":"0.0-2.0-8.0"},{"group":"hexagon_bi","room_assignment":["yellow","purple","red","grey","green","blue"],"door_color_assignment":["white","black"],"door_generator_assignment":[0,1],"goal":1,"start":2,"action_noise":0.2,"location_history":"[2,1]","action_history":"[0]","door_history":"[0]","location_rts":"[2238]","trial_type":"two-door-navigation","trial_index":11,"time_elapsed":129748,"internal_node_id":"0.0-2.0-9.0"},{"group":"hexagon_bi","room_assignment":["yellow","purple","red","grey","green","blue"],"door_color_assignment":["white","black"],"door_generator_assignment":[0,1],"goal":5,"start":1,"action_noise":0.2,"location_history":"[1,0,5]","action_history":"[0,0]","door_history":"[0,0]","location_rts":"[1775,925]","trial_type":"two-door-navigation","trial_index":12,"time_elapsed":137992,"internal_node_id":"0.0-2.0-10.0"},{"group":"hexagon_bi","room_assignment":["yellow","purple","red","grey","green","blue"],"door_color_assignment":["white","black"],"door_generator_assignment":[0,1],"goal":0,"start":5,"action_noise":0.2,"location_history":"[5,0]","action_history":"[0]","door_history":"[0]","location_rts":"[2217]","trial_type":"two-door-navigation","trial_index":13,"time_elapsed":144740,"internal_node_id":"0.0-2.0-11.0"},{"group":"hexagon_bi","room_assignment":["yellow","purple","red","grey","green","blue"],"door_color_assignment":["white","black"],"door_generator_assignment":[0,1],"goal":4,"start":0,"action_noise":0.2,"location_history":"[0,5,4]","action_history":"[0,1]","door_history":"[0,1]","location_rts":"[1447,584]","trial_type":"two-door-navigation","trial_index":14,"time_elapsed":152323,"internal_node_id":"0.0-2.0-12.0"},{"group":"hexagon_bi","room_assignment":["yellow","purple","red","grey","green","blue"],"door_color_assignment":["white","black"],"door_generator_assignment":[0,1],"goal":2,"start":4,"action_noise":0.2,"location_history":"[4,5,4,3,2]","action_history":"[1,1,0,1]","door_history":"[1,1,0,1]","location_rts":"[1623,1056,671,1112]","trial_type":"two-door-navigation","trial_index":15,"time_elapsed":164386,"internal_node_id":"0.0-2.0-13.0"},{"group":"hexagon_bi","room_assignment":["yellow","purple","red","grey","green","blue"],"door_color_assignment":["white","black"],"door_generator_assignment":[0,1],"goal":1,"start":2,"action_noise":0.2,"location_history":"[2,3,2,3,2,1]","action_history":"[0,1,0,1,0]","door_history":"[0,1,0,1,0]","location_rts":"[1760,1827,1019,979,466]","trial_type":"two-door-navigation","trial_index":16,"time_elapsed":179046,"internal_node_id":"0.0-2.0-14.0"},{"group":"hexagon_bi","room_assignment":["yellow","purple","red","grey","green","blue"],"door_color_assignment":["white","black"],"door_generator_assignment":[0,1],"goal":3,"start":1,"action_noise":0.2,"location_history":"[1,2,3]","action_history":"[0,1]","door_history":"[0,1]","location_rts":"[1715,526]","trial_type":"two-door-navigation","trial_index":17,"time_elapsed":186831,"internal_node_id":"0.0-2.0-15.0"},{"group":"hexagon_bi","room_assignment":["yellow","purple","red","grey","green","blue"],"door_color_assignment":["white","black"],"door_generator_assignment":[0,1],"goal":5,"start":3,"action_noise":0.2,"location_history":"[3,4,5]","action_history":"[0,1]","door_history":"[0,1]","location_rts":"[1099,957]","trial_type":"two-door-navigation","trial_index":18,"time_elapsed":194432,"internal_node_id":"0.0-2.0-16.0"},{"group":"hexagon_bi","room_assignment":["yellow","purple","red","grey","green","blue"],"door_color_assignment":["white","black"],"door_generator_assignment":[0,1],"goal":0,"start":5,"action_noise":0.2,"location_history":"[5,0]","action_history":"[0]","door_history":"[0]","location_rts":"[1411]","trial_type":"two-door-navigation","trial_index":19,"time_elapsed":200373,"internal_node_id":"0.0-2.0-17.0"},{"group":"hexagon_bi","room_assignment":["yellow","purple","red","grey","green","blue"],"door_color_assignment":["white","black"],"door_generator_assignment":[0,1],"goal":5,"start":0,"action_noise":0.2,"location_history":"[0,5]","action_history":"[0]","door_history":"[0]","location_rts":"[1429]","trial_type":"two-door-navigation","trial_index":20,"time_elapsed":206325,"internal_node_id":"0.0-2.0-18.0"},{"group":"hexagon_bi","room_assignment":["yellow","purple","red","grey","green","blue"],"door_color_assignment":["white","black"],"door_generator_assignment":[0,1],"goal":3,"start":5,"action_noise":0.2,"location_history":"[5,4,5,4,5,0,5,4,5,4,3]","action_history":"[0,1,1,0,0,0,1,1,1,0]","door_history":"[0,1,1,0,0,0,1,1,1,0]","location_rts":"[917,693,898,263,1554,506,164,461,545,38]","trial_type":"two-door-navigation","trial_index":21,"time_elapsed":226079,"internal_node_id":"0.0-2.0-19.0"},{"group":"hexagon_bi","room_assignment":["yellow","purple","red","grey","green","blue"],"door_color_assignment":["white","black"],"door_generator_assignment":[0,1],"goal":4,"start":3,"action_noise":0.2,"location_history":"[3,4]","action_history":"[0]","door_history":"[0]","location_rts":"[2027]","trial_type":"two-door-navigation","trial_index":22,"time_elapsed":232659,"internal_node_id":"0.0-2.0-20.0"},{"group":"hexagon_bi","room_assignment":["yellow","purple","red","grey","green","blue"],"door_color_assignment":["white","black"],"door_generator_assignment":[0,1],"goal":1,"start":4,"action_noise":0.2,"location_history":"[4,3,4,5,0,5,4,5,0,1]","action_history":"[1,0,1,0,1,0,1,0,1]","door_history":"[1,0,1,0,1,0,1,0,1]","location_rts":"[1296,572,787,500,522,923,343,1839,409]","trial_type":"two-door-navigation","trial_index":23,"time_elapsed":253205,"internal_node_id":"0.0-2.0-21.0"},{"group":"hexagon_bi","room_assignment":["yellow","purple","red","grey","green","blue"],"door_color_assignment":["white","black"],"door_generator_assignment":[0,1],"goal":2,"start":1,"action_noise":0.2,"location_history":"[1,2]","action_history":"[0]","door_history":"[0]","location_rts":"[3912]","trial_type":"two-door-navigation","trial_index":24,"time_elapsed":263204,"internal_node_id":"0.0-2.0-22.0"},{"group":"hexagon_bi","room_assignment":["yellow","purple","red","grey","green","blue"],"door_color_assignment":["white","black"],"door_generator_assignment":[0,1],"goal":3,"start":2,"action_noise":0.2,"location_history":"[2,3]","action_history":"[1]","door_history":"[1]","location_rts":"[2752]","trial_type":"two-door-navigation","trial_index":25,"time_elapsed":271205,"internal_node_id":"0.0-2.0-23.0"},{"group":"hexagon_bi","room_assignment":["yellow","purple","red","grey","green","blue"],"door_color_assignment":["white","black"],"door_generator_assignment":[0,1],"goal":5,"start":3,"action_noise":0.2,"location_history":"[3,2,1,0,5]","action_history":"[0,0,1,0]","door_history":"[0,0,1,0]","location_rts":"[1334,923,280,699]","trial_type":"two-door-navigation","trial_index":26,"time_elapsed":282014,"internal_node_id":"0.0-2.0-24.0"},{"group":"hexagon_bi","room_assignment":["yellow","purple","red","grey","green","blue"],"door_color_assignment":["white","black"],"door_generator_assignment":[0,1],"goal":4,"start":5,"action_noise":0.2,"location_history":"[5,4]","action_history":"[1]","door_history":"[1]","location_rts":"[1636]","trial_type":"two-door-navigation","trial_index":27,"time_elapsed":288171,"internal_node_id":"0.0-2.0-25.0"},{"group":"hexagon_bi","room_assignment":["yellow","purple","red","grey","green","blue"],"door_color_assignment":["white","black"],"door_generator_assignment":[0,1],"goal":0,"start":4,"action_noise":0.2,"location_history":"[4,3,4,5,0]","action_history":"[0,1,1,0]","door_history":"[0,1,1,0]","location_rts":"[1553,693,1583,752]","trial_type":"two-door-navigation","trial_index":28,"time_elapsed":300326,"internal_node_id":"0.0-2.0-26.0"},{"group":"hexagon_bi","room_assignment":["yellow","purple","red","grey","green","blue"],"door_color_assignment":["white","black"],"door_generator_assignment":[0,1],"goal":2,"start":0,"action_noise":0.2,"location_history":"[0,1,2]","action_history":"[1,0]","door_history":"[1,0]","location_rts":"[1301,492]","trial_type":"two-door-navigation","trial_index":29,"time_elapsed":307662,"internal_node_id":"0.0-2.0-27.0"},{"group":"hexagon_bi","room_assignment":["yellow","purple","red","grey","green","blue"],"door_color_assignment":["white","black"],"door_generator_assignment":[0,1],"goal":1,"start":2,"action_noise":0.2,"location_history":"[2,1]","action_history":"[0]","door_history":"[0]","location_rts":"[2468]","trial_type":"two-door-navigation","trial_index":30,"time_elapsed":314653,"internal_node_id":"0.0-2.0-28.0"},{"group":"hexagon_bi","room_assignment":["yellow","purple","red","grey","green","blue"],"door_color_assignment":["white","black"],"door_generator_assignment":[0,1],"goal":0,"start":1,"action_noise":0.2,"location_history":"[1,0]","action_history":"[1]","door_history":"[1]","location_rts":"[2383]","trial_type":"two-door-navigation","trial_index":31,"time_elapsed":321563,"internal_node_id":"0.0-2.0-29.0"},{"group":"hexagon_bi","room_assignment":["yellow","purple","red","grey","green","blue"],"door_color_assignment":["white","black"],"door_generator_assignment":[0,1],"goal":2,"start":0,"action_noise":0.2,"location_history":"[0,1,0,1,0,1,2]","action_history":"[1,0,1,0,1,0]","door_history":"[1,0,1,0,1,0]","location_rts":"[1617,504,711,352,607,341]","trial_type":"two-door-navigation","trial_index":32,"time_elapsed":335313,"internal_node_id":"0.0-2.0-30.0"},{"group":"hexagon_bi","room_assignment":["yellow","purple","red","grey","green","blue"],"door_color_assignment":["white","black"],"door_generator_assignment":[0,1],"goal":4,"start":2,"action_noise":0.2,"location_history":"[2,3,4]","action_history":"[1,0]","door_history":"[1,0]","location_rts":"[1817,886]","trial_type":"two-door-navigation","trial_index":33,"time_elapsed":343558,"internal_node_id":"0.0-2.0-31.0"},{"group":"hexagon_bi","room_assignment":["yellow","purple","red","grey","green","blue"],"door_color_assignment":["white","black"],"door_generator_assignment":[0,1],"goal":1,"start":4,"action_noise":0.2,"location_history":"[4,3,4,3,2,1]","action_history":"[0,1,0,1,0]","door_history":"[0,1,0,1,0]","location_rts":"[1374,1100,1728,807,1031]","trial_type":"two-door-navigation","trial_index":34,"time_elapsed":358188,"internal_node_id":"0.0-2.0-32.0"},{"group":"hexagon_bi","room_assignment":["yellow","purple","red","grey","green","blue"],"door_color_assignment":["white","black"],"door_generator_assignment":[0,1],"goal":3,"start":1,"action_noise":0.2,"location_history":"[1,2,3]","action_history":"[0,1]","door_history":"[0,1]","location_rts":"[1695,779]","trial_type":"two-door-navigation","trial_index":35,"time_elapsed":366207,"internal_node_id":"0.0-2.0-33.0"},{"group":"hexagon_bi","room_assignment":["yellow","purple","red","grey","green","blue"],"door_color_assignment":["white","black"],"door_generator_assignment":[0,1],"goal":5,"start":3,"action_noise":0.2,"location_history":"[3,2,3,4,5]","action_history":"[1,1,0,1]","door_history":"[1,1,0,1]","location_rts":"[2543,1317,451,741]","trial_type":"two-door-navigation","trial_index":36,"time_elapsed":378840,"internal_node_id":"0.0-2.0-34.0"},{"group":"hexagon_bi","room_assignment":["yellow","purple","red","grey","green","blue"],"door_color_assignment":["white","black"],"door_generator_assignment":[0,1],"goal":2,"start":5,"action_noise":0.2,"location_history":"[5,0,1,2]","action_history":"[0,1,0]","door_history":"[0,1,0]","location_rts":"[1795,480,712]","trial_type":"two-door-navigation","trial_index":37,"time_elapsed":388392,"internal_node_id":"0.0-2.0-35.0"},{"group":"hexagon_bi","room_assignment":["yellow","purple","red","grey","green","blue"],"door_color_assignment":["white","black"],"door_generator_assignment":[0,1],"goal":0,"start":2,"action_noise":0.2,"location_history":"[2,1,0]","action_history":"[0,1]","door_history":"[0,1]","location_rts":"[1763,416]","trial_type":"two-door-navigation","trial_index":38,"time_elapsed":396106,"internal_node_id":"0.0-2.0-36.0"},{"group":"hexagon_bi","room_assignment":["yellow","purple","red","grey","green","blue"],"door_color_assignment":["white","black"],"door_generator_assignment":[0,1],"goal":4,"start":0,"action_noise":0.2,"location_history":"[0,5,4]","action_history":"[0,1]","door_history":"[0,1]","location_rts":"[1497,830]","trial_type":"two-door-navigation","trial_index":39,"time_elapsed":403974,"internal_node_id":"0.0-2.0-37.0"},{"group":"hexagon_bi","room_assignment":["yellow","purple","red","grey","green","blue"],"door_color_assignment":["white","black"],"door_generator_assignment":[0,1],"goal":5,"start":4,"action_noise":0.2,"location_history":"[4,3,2,3,4,5]","action_history":"[0,0,1,0,1]","door_history":"[0,0,1,0,1]","location_rts":"[988,874,245,1239,801]","trial_type":"two-door-navigation","trial_index":40,"time_elapsed":416716,"internal_node_id":"0.0-2.0-38.0"},{"group":"hexagon_bi","room_assignment":["yellow","purple","red","grey","green","blue"],"door_color_assignment":["white","black"],"door_generator_assignment":[0,1],"goal":1,"start":5,"action_noise":0.2,"location_history":"[5,0,1]","action_history":"[0,1]","door_history":"[0,1]","location_rts":"[1478,776]","trial_type":"two-door-navigation","trial_index":41,"time_elapsed":424510,"internal_node_id":"0.0-2.0-39.0"},{"group":"hexagon_bi","room_assignment":["yellow","purple","red","grey","green","blue"],"door_color_assignment":["white","black"],"door_generator_assignment":[0,1],"goal":3,"start":1,"action_noise":0.2,"location_history":"[1,2,3]","action_history":"[0,1]","door_history":"[0,1]","location_rts":"[1149,273]","trial_type":"two-door-navigation","trial_index":42,"time_elapsed":431478,"internal_node_id":"0.0-2.0-40.0"},{"group":"hexagon_bi","room_assignment":["yellow","purple","red","grey","green","blue"],"door_color_assignment":["white","black"],"door_generator_assignment":[0,1],"goal":1,"start":3,"action_noise":0.2,"location_history":"[3,2,3,2,3,2,1]","action_history":"[1,0,1,0,1,0]","door_history":"[1,0,1,0,1,0]","location_rts":"[2109,493,876,409,690,291]","trial_type":"two-door-navigation","trial_index":43,"time_elapsed":445976,"internal_node_id":"0.0-2.0-41.0"},{"group":"hexagon_bi","room_assignment":["yellow","purple","red","grey","green","blue"],"door_color_assignment":["white","black"],"door_generator_assignment":[0,1],"goal":0,"start":1,"action_noise":0.2,"location_history":"[1,0]","action_history":"[1]","door_history":"[1]","location_rts":"[1467]","trial_type":"two-door-navigation","trial_index":44,"time_elapsed":451966,"internal_node_id":"0.0-2.0-42.0"},{"group":"hexagon_bi","room_assignment":["yellow","purple","red","grey","green","blue"],"door_color_assignment":["white","black"],"door_generator_assignment":[0,1],"goal":4,"start":0,"action_noise":0.2,"location_history":"[0,5,4]","action_history":"[0,1]","door_history":"[0,1]","location_rts":"[1628,1030]","trial_type":"two-door-navigation","trial_index":45,"time_elapsed":460164,"internal_node_id":"0.0-2.0-43.0"},{"group":"hexagon_bi","room_assignment":["yellow","purple","red","grey","green","blue"],"door_color_assignment":["white","black"],"door_generator_assignment":[0,1],"goal":2,"start":4,"action_noise":0.2,"location_history":"[4,5,0,1,2]","action_history":"[1,0,1,0]","door_history":"[1,0,1,0]","location_rts":"[1214,629,411,797]","trial_type":"two-door-navigation","trial_index":46,"time_elapsed":470797,"internal_node_id":"0.0-2.0-44.0"},{"group":"hexagon_bi","room_assignment":["yellow","purple","red","grey","green","blue"],"door_color_assignment":["white","black"],"door_generator_assignment":[0,1],"goal":3,"start":2,"action_noise":0.2,"location_history":"[2,3]","action_history":"[1]","door_history":"[1]","location_rts":"[1430]","trial_type":"two-door-navigation","trial_index":47,"time_elapsed":476751,"internal_node_id":"0.0-2.0-45.0"},{"group":"hexagon_bi","room_assignment":["yellow","purple","red","grey","green","blue"],"door_color_assignment":["white","black"],"door_generator_assignment":[0,1],"goal":5,"start":3,"action_noise":0.2,"location_history":"[3,2,1,0,5]","action_history":"[1,0,1,0]","door_history":"[1,0,1,0]","location_rts":"[2387,1166,736,438]","trial_type":"two-door-navigation","trial_index":48,"time_elapsed":489053,"internal_node_id":"0.0-2.0-46.0"},{"group":"hexagon_bi","room_assignment":["yellow","purple","red","grey","green","blue"],"door_color_assignment":["white","black"],"door_generator_assignment":[0,1],"goal":4,"start":5,"action_noise":0.2,"location_history":"[5,0,5,4]","action_history":"[1,0,1]","door_history":"[1,0,1]","location_rts":"[1814,1224,237]","trial_type":"two-door-navigation","trial_index":49,"time_elapsed":498884,"internal_node_id":"0.0-2.0-47.0"},{"group":"hexagon_bi","room_assignment":["yellow","purple","red","grey","green","blue"],"door_color_assignment":["white","black"],"door_generator_assignment":[0,1],"goal":3,"start":4,"action_noise":0.2,"location_history":"[4,5,4,3]","action_history":"[0,1,0]","door_history":"[0,1,0]","location_rts":"[3254,893,406]","trial_type":"two-door-navigation","trial_index":50,"time_elapsed":509997,"internal_node_id":"0.0-2.0-48.0"},{"group":"hexagon_bi","room_assignment":["yellow","purple","red","grey","green","blue"],"door_color_assignment":["white","black"],"door_generator_assignment":[0,1],"goal":1,"start":3,"action_noise":0.2,"location_history":"[3,4,3,2,1]","action_history":"[1,0,1,0]","door_history":"[1,0,1,0]","location_rts":"[1518,1155,1854,603]","trial_type":"two-door-navigation","trial_index":51,"time_elapsed":522709,"internal_node_id":"0.0-2.0-49.0"},{"group":"hexagon_bi","room_assignment":["yellow","purple","red","grey","green","blue"],"door_color_assignment":["white","black"],"door_generator_assignment":[0,1],"goal":2,"start":1,"action_noise":0.2,"location_history":"[1,0,1,0,5,0,1,2]","action_history":"[1,1,0,1,0,1,0]","door_history":"[1,1,0,1,0,1,0]","location_rts":"[5367,348,348,743,372,789,453]","trial_type":"two-door-navigation","trial_index":52,"time_elapsed":541757,"internal_node_id":"0.0-2.0-50.0"},{"group":"hexagon_bi","room_assignment":["yellow","purple","red","grey","green","blue"],"door_color_assignment":["white","black"],"door_generator_assignment":[0,1],"goal":0,"start":2,"action_noise":0.2,"location_history":"[2,1,0]","action_history":"[0,1]","door_history":"[0,1]","location_rts":"[3455,318]","trial_type":"two-door-navigation","trial_index":53,"time_elapsed":551067,"internal_node_id":"0.0-2.0-51.0"},{"group":"hexagon_bi","room_assignment":["yellow","purple","red","grey","green","blue"],"door_color_assignment":["white","black"],"door_generator_assignment":[0,1],"goal":5,"start":0,"action_noise":0.2,"location_history":"[0,5]","action_history":"[0]","door_history":"[0]","location_rts":"[1328]","trial_type":"two-door-navigation","trial_index":54,"time_elapsed":556917,"internal_node_id":"0.0-2.0-52.0"},{"group":"hexagon_bi","room_assignment":["yellow","purple","red","grey","green","blue"],"door_color_assignment":["white","black"],"door_generator_assignment":[0,1],"goal":1,"start":5,"action_noise":0.2,"location_history":"[5,0,1]","action_history":"[0,1]","door_history":"[0,1]","location_rts":"[1702,424]","trial_type":"two-door-navigation","trial_index":55,"time_elapsed":564581,"internal_node_id":"0.0-2.0-53.0"},{"group":"hexagon_bi","room_assignment":["yellow","purple","red","grey","green","blue"],"door_color_assignment":["white","black"],"door_generator_assignment":[0,1],"goal":3,"start":1,"action_noise":0.2,"location_history":"[1,2,3]","action_history":"[0,1]","door_history":"[0,1]","location_rts":"[5079,381]","trial_type":"two-door-navigation","trial_index":56,"time_elapsed":575581,"internal_node_id":"0.0-2.0-54.0"},{"group":"hexagon_bi","room_assignment":["yellow","purple","red","grey","green","blue"],"door_color_assignment":["white","black"],"door_generator_assignment":[0,1],"goal":5,"start":3,"action_noise":0.2,"location_history":"[3,4,3,2,3,2,3,4,5]","action_history":"[0,1,0,1,0,1,0,1]","door_history":"[0,1,0,1,0,1,0,1]","location_rts":"[1605,934,821,1660,707,502,492,755]","trial_type":"two-door-navigation","trial_index":57,"time_elapsed":594721,"internal_node_id":"0.0-2.0-55.0"},{"group":"hexagon_bi","room_assignment":["yellow","purple","red","grey","green","blue"],"door_color_assignment":["white","black"],"door_generator_assignment":[0,1],"goal":4,"start":5,"action_noise":0.2,"location_history":"[5,4]","action_history":"[1]","door_history":"[1]","location_rts":"[1915]","trial_type":"two-door-navigation","trial_index":58,"time_elapsed":601158,"internal_node_id":"0.0-2.0-56.0"},{"group":"hexagon_bi","room_assignment":["yellow","purple","red","grey","green","blue"],"door_color_assignment":["white","black"],"door_generator_assignment":[0,1],"goal":0,"start":4,"action_noise":0.2,"location_history":"[4,3,2,1,0]","action_history":"[0,1,0,1]","door_history":"[0,1,0,1]","location_rts":"[1814,1133,1078,550]","trial_type":"two-door-navigation","trial_index":59,"time_elapsed":613309,"internal_node_id":"0.0-2.0-57.0"},{"group":"hexagon_bi","room_assignment":["yellow","purple","red","grey","green","blue"],"door_color_assignment":["white","black"],"door_generator_assignment":[0,1],"goal":2,"start":0,"action_noise":0.2,"location_history":"[0,5,0,1,2]","action_history":"[1,0,1,0]","door_history":"[1,0,1,0]","location_rts":"[1405,444,247,630]","trial_type":"two-door-navigation","trial_index":60,"time_elapsed":624204,"internal_node_id":"0.0-2.0-58.0"},{"group":"hexagon_bi","room_assignment":["yellow","purple","red","grey","green","blue"],"door_color_assignment":["white","black"],"door_generator_assignment":[0,1],"goal":4,"start":2,"action_noise":0.2,"location_history":"[2,3,4]","action_history":"[1,0]","door_history":"[1,0]","location_rts":"[3319,698]","trial_type":"two-door-navigation","trial_index":61,"time_elapsed":635205,"internal_node_id":"0.0-2.0-59.0"},{"group":"hexagon_bi","room_assignment":["yellow","purple","red","grey","green","blue"],"door_color_assignment":["white","black"],"door_generator_assignment":[0,1],"goal":2,"start":4,"action_noise":0.2,"location_history":"[4,5,0,5,0,1,2]","action_history":"[1,0,1,0,1,0]","door_history":"[1,0,1,0,1,0]","location_rts":"[2076,1141,439,2012,247,637]","trial_type":"two-door-navigation","trial_index":62,"time_elapsed":653204,"internal_node_id":"0.0-2.0-60.0"},{"group":"hexagon_bi","room_assignment":["yellow","purple","red","grey","green","blue"],"door_color_assignment":["white","black"],"door_generator_assignment":[0,1],"goal":3,"start":2,"action_noise":0.2,"location_history":"[2,1,2,3]","action_history":"[0,0,1]","door_history":"[0,0,1]","location_rts":"[2159,1085,269]","trial_type":"two-door-navigation","trial_index":63,"time_elapsed":663277,"internal_node_id":"0.0-2.0-61.0"},{"group":"hexagon_bi","room_assignment":["yellow","purple","red","grey","green","blue"],"door_color_assignment":["white","black"],"door_generator_assignment":[0,1],"goal":0,"start":3,"action_noise":0.2,"location_history":"[3,4,3,2,1,0]","action_history":"[1,0,1,0,1]","door_history":"[1,0,1,0,1]","location_rts":"[2159,1860,1727,690,288]","trial_type":"two-door-navigation","trial_index":64,"time_elapsed":678601,"internal_node_id":"0.0-2.0-62.0"},{"group":"hexagon_bi","room_assignment":["yellow","purple","red","grey","green","blue"],"door_color_assignment":["white","black"],"door_generator_assignment":[0,1],"goal":5,"start":0,"action_noise":0.2,"location_history":"[0,5]","action_history":"[0]","door_history":"[0]","location_rts":"[1107]","trial_type":"two-door-navigation","trial_index":65,"time_elapsed":684230,"internal_node_id":"0.0-2.0-63.0"},{"group":"hexagon_bi","room_assignment":["yellow","purple","red","grey","green","blue"],"door_color_assignment":["white","black"],"door_generator_assignment":[0,1],"goal":1,"start":5,"action_noise":0.2,"location_history":"[5,0,1]","action_history":"[0,1]","door_history":"[0,1]","location_rts":"[2155,351]","trial_type":"two-door-navigation","trial_index":66,"time_elapsed":692277,"internal_node_id":"0.0-2.0-64.0"},{"group":"hexagon_bi","room_assignment":["yellow","purple","red","grey","green","blue"],"door_color_assignment":["white","black"],"door_generator_assignment":[0,1],"goal":5,"start":1,"action_noise":0.2,"location_history":"[1,2,1,0,1,0,1,0,5]","action_history":"[0,1,1,0,1,0,1,0]","door_history":"[0,1,1,0,1,0,1,0]","location_rts":"[1239,518,1273,446,2805,467,1149,560]","trial_type":"two-door-navigation","trial_index":67,"time_elapsed":712382,"internal_node_id":"0.0-2.0-65.0"},{"group":"hexagon_bi","room_assignment":["yellow","purple","red","grey","green","blue"],"door_color_assignment":["white","black"],"door_generator_assignment":[0,1],"goal":3,"start":5,"action_noise":0.2,"location_history":"[5,4,3]","action_history":"[1,0]","door_history":"[1,0]","location_rts":"[1940,563]","trial_type":"two-door-navigation","trial_index":68,"time_elapsed":720426,"internal_node_id":"0.0-2.0-66.0"},{"group":"hexagon_bi","room_assignment":["yellow","purple","red","grey","green","blue"],"door_color_assignment":["white","black"],"door_generator_assignment":[0,1],"goal":2,"start":3,"action_noise":0.2,"location_history":"[3,2]","action_history":"[1]","door_history":"[1]","location_rts":"[1639]","trial_type":"two-door-navigation","trial_index":69,"time_elapsed":726590,"internal_node_id":"0.0-2.0-67.0"},{"group":"hexagon_bi","room_assignment":["yellow","purple","red","grey","green","blue"],"door_color_assignment":["white","black"],"door_generator_assignment":[0,1],"goal":1,"start":2,"action_noise":0.2,"location_history":"[2,1]","action_history":"[0]","door_history":"[0]","location_rts":"[1983]","trial_type":"two-door-navigation","trial_index":70,"time_elapsed":733094,"internal_node_id":"0.0-2.0-68.0"},{"group":"hexagon_bi","room_assignment":["yellow","purple","red","grey","green","blue"],"door_color_assignment":["white","black"],"door_generator_assignment":[0,1],"goal":4,"start":1,"action_noise":0.2,"location_history":"[1,2,3,4]","action_history":"[0,1,0]","door_history":"[0,1,0]","location_rts":"[3651,270,557]","trial_type":"two-door-navigation","trial_index":71,"time_elapsed":744136,"internal_node_id":"0.0-2.0-69.0"},{"group":"hexagon_bi","room_assignment":["yellow","purple","red","grey","green","blue"],"door_color_assignment":["white","black"],"door_generator_assignment":[0,1],"goal":0,"start":4,"action_noise":0.2,"location_history":"[4,3,2,1,0]","action_history":"[0,1,0,1]","door_history":"[0,1,0,1]","location_rts":"[1097,918,502,351]","trial_type":"two-door-navigation","trial_index":72,"time_elapsed":755206,"internal_node_id":"0.0-2.0-70.0"},{"group":"hexagon_bi","room_assignment":["yellow","purple","red","grey","green","blue"],"door_color_assignment":["white","black"],"door_generator_assignment":[0,1],"goal":3,"start":0,"action_noise":0.2,"location_history":"[0,5,4,3]","action_history":"[0,1,0]","door_history":"[0,1,0]","location_rts":"[4831,681,456]","trial_type":"two-door-navigation","trial_index":73,"time_elapsed":768725,"internal_node_id":"0.0-2.0-71.0"},{"group":"hexagon_bi","room_assignment":["yellow","purple","red","grey","green","blue"],"door_color_assignment":["white","black"],"door_generator_assignment":[0,1],"goal":1,"start":3,"action_noise":0.2,"location_history":"[3,4,5,0,5,0,1]","action_history":"[0,1,0,1,0,1]","door_history":"[0,1,0,1,0,1]","location_rts":"[1510,478,721,312,1043,585]","trial_type":"two-door-navigation","trial_index":74,"time_elapsed":782990,"internal_node_id":"0.0-2.0-72.0"},{"group":"hexagon_bi","room_assignment":["yellow","purple","red","grey","green","blue"],"door_color_assignment":["white","black"],"door_generator_assignment":[0,1],"goal":0,"start":1,"action_noise":0.2,"location_history":"[1,2,1,2,3,4,5,0]","action_history":"[1,0,1,1,0,1,0]","door_history":"[1,0,1,1,0,1,0]","location_rts":"[1965,998,1067,1511,696,950,275]","trial_type":"two-door-navigation","trial_index":75,"time_elapsed":801085,"internal_node_id":"0.0-2.0-73.0"},{"group":"hexagon_bi","room_assignment":["yellow","purple","red","grey","green","blue"],"door_color_assignment":["white","black"],"door_generator_assignment":[0,1],"goal":2,"start":0,"action_noise":0.2,"location_history":"[0,1,2]","action_history":"[1,0]","door_history":"[1,0]","location_rts":"[2053,438]","trial_type":"two-door-navigation","trial_index":76,"time_elapsed":809114,"internal_node_id":"0.0-2.0-74.0"},{"group":"hexagon_bi","room_assignment":["yellow","purple","red","grey","green","blue"],"door_color_assignment":["white","black"],"door_generator_assignment":[0,1],"goal":4,"start":2,"action_noise":0.2,"location_history":"[2,3,2,3,4]","action_history":"[1,0,1,0]","door_history":"[1,0,1,0]","location_rts":"[1528,365,1158,411]","trial_type":"two-door-navigation","trial_index":77,"time_elapsed":820156,"internal_node_id":"0.0-2.0-75.0"},{"group":"hexagon_bi","room_assignment":["yellow","purple","red","grey","green","blue"],"door_color_assignment":["white","black"],"door_generator_assignment":[0,1],"goal":5,"start":4,"action_noise":0.2,"location_history":"[4,3,4,5]","action_history":"[0,0,1]","door_history":"[0,0,1]","location_rts":"[3303,1716,216]","trial_type":"two-door-navigation","trial_index":78,"time_elapsed":831951,"internal_node_id":"0.0-2.0-76.0"},{"group":"hexagon_bi","room_assignment":["yellow","purple","red","grey","green","blue"],"door_color_assignment":["white","black"],"door_generator_assignment":[0,1],"goal":2,"start":5,"action_noise":0.2,"location_history":"[5,0,1,2]","action_history":"[0,1,0]","door_history":"[0,1,0]","location_rts":"[1581,437,645]","trial_type":"two-door-navigation","trial_index":79,"time_elapsed":841171,"internal_node_id":"0.0-2.0-77.0"},{"group":"hexagon_bi","room_assignment":["yellow","purple","red","grey","green","blue"],"door_color_assignment":["white","black"],"door_generator_assignment":[0,1],"goal":3,"start":2,"action_noise":0.2,"location_history":"[2,3]","action_history":"[1]","door_history":"[1]","location_rts":"[1663]","trial_type":"two-door-navigation","trial_index":80,"time_elapsed":847358,"internal_node_id":"0.0-2.0-78.0"},{"group":"hexagon_bi","room_assignment":["yellow","purple","red","grey","green","blue"],"door_color_assignment":["white","black"],"door_generator_assignment":[0,1],"goal":1,"start":3,"action_noise":0.2,"location_history":"[3,2,1]","action_history":"[1,0]","door_history":"[1,0]","location_rts":"[1614,413]","trial_type":"two-door-navigation","trial_index":81,"time_elapsed":854923,"internal_node_id":"0.0-2.0-79.0"},{"group":"hexagon_bi","room_assignment":["yellow","purple","red","grey","green","blue"],"door_color_assignment":["white","black"],"door_generator_assignment":[0,1],"goal":4,"start":1,"action_noise":0.2,"location_history":"[1,0,5,0,5,4]","action_history":"[1,0,1,0,1]","door_history":"[1,0,1,0,1]","location_rts":"[1775,805,453,996,284]","trial_type":"two-door-navigation","trial_index":82,"time_elapsed":867840,"internal_node_id":"0.0-2.0-80.0"},{"group":"hexagon_bi","room_assignment":["yellow","purple","red","grey","green","blue"],"door_color_assignment":["white","black"],"door_generator_assignment":[0,1],"goal":5,"start":4,"action_noise":0.2,"location_history":"[4,3,4,5]","action_history":"[1,0,1]","door_history":"[1,0,1]","location_rts":"[1523,2128,1167]","trial_type":"two-door-navigation","trial_index":83,"time_elapsed":879211,"internal_node_id":"0.0-2.0-81.0"},{"group":"hexagon_bi","room_assignment":["yellow","purple","red","grey","green","blue"],"door_color_assignment":["white","black"],"door_generator_assignment":[0,1],"goal":0,"start":5,"action_noise":0.2,"location_history":"[5,0]","action_history":"[0]","door_history":"[0]","location_rts":"[1161]","trial_type":"two-door-navigation","trial_index":84,"time_elapsed":884892,"internal_node_id":"0.0-2.0-82.0"},{"group":"hexagon_bi","room_assignment":["yellow","purple","red","grey","green","blue"],"door_color_assignment":["white","black"],"door_generator_assignment":[0,1],"goal":2,"start":0,"action_noise":0.2,"location_history":"[0,1,2]","action_history":"[1,0]","door_history":"[1,0]","location_rts":"[1656,462]","trial_type":"two-door-navigation","trial_index":85,"time_elapsed":892556,"internal_node_id":"0.0-2.0-83.0"},{"group":"hexagon_bi","room_assignment":["yellow","purple","red","grey","green","blue"],"door_color_assignment":["white","black"],"door_generator_assignment":[0,1],"goal":0,"start":2,"action_noise":0.2,"location_history":"[2,1,0]","action_history":"[0,1]","door_history":"[0,1]","location_rts":"[1927,1006]","trial_type":"two-door-navigation","trial_index":86,"time_elapsed":901031,"internal_node_id":"0.0-2.0-84.0"},{"group":"hexagon_bi","room_assignment":["yellow","purple","red","grey","green","blue"],"door_color_assignment":["white","black"],"door_generator_assignment":[0,1],"goal":5,"start":0,"action_noise":0.2,"location_history":"[0,5]","action_history":"[0]","door_history":"[0]","location_rts":"[1165]","trial_type":"two-door-navigation","trial_index":87,"time_elapsed":906719,"internal_node_id":"0.0-2.0-85.0"},{"group":"hexagon_bi","room_assignment":["yellow","purple","red","grey","green","blue"],"door_color_assignment":["white","black"],"door_generator_assignment":[0,1],"goal":1,"start":5,"action_noise":0.2,"location_history":"[5,0,5,0,5,0,1]","action_history":"[0,1,0,1,0,1]","door_history":"[0,1,0,1,0,1]","location_rts":"[1509,517,880,255,652,299]","trial_type":"two-door-navigation","trial_index":88,"time_elapsed":920447,"internal_node_id":"0.0-2.0-86.0"},{"group":"hexagon_bi","room_assignment":["yellow","purple","red","grey","green","blue"],"door_color_assignment":["white","black"],"door_generator_assignment":[0,1],"goal":4,"start":1,"action_noise":0.2,"location_history":"[1,2,3,4]","action_history":"[1,1,0]","door_history":"[1,1,0]","location_rts":"[1718,3544,1203]","trial_type":"two-door-navigation","trial_index":89,"time_elapsed":933466,"internal_node_id":"0.0-2.0-87.0"},{"group":"hexagon_bi","room_assignment":["yellow","purple","red","grey","green","blue"],"door_color_assignment":["white","black"],"door_generator_assignment":[0,1],"goal":3,"start":4,"action_noise":0.2,"location_history":"[4,3]","action_history":"[0]","door_history":"[0]","location_rts":"[1761]","trial_type":"two-door-navigation","trial_index":90,"time_elapsed":939750,"internal_node_id":"0.0-2.0-88.0"},{"group":"hexagon_bi","room_assignment":["yellow","purple","red","grey","green","blue"],"door_color_assignment":["white","black"],"door_generator_assignment":[0,1],"goal":5,"start":3,"action_noise":0.2,"location_history":"[3,4,5]","action_history":"[0,1]","door_history":"[0,1]","location_rts":"[1646,1155]","trial_type":"two-door-navigation","trial_index":91,"time_elapsed":948095,"internal_node_id":"0.0-2.0-89.0"},{"group":"hexagon_bi","room_assignment":["yellow","purple","red","grey","green","blue"],"door_color_assignment":["white","black"],"door_generator_assignment":[0,1],"goal":1,"start":5,"action_noise":0.2,"location_history":"[5,0,1]","action_history":"[0,1]","door_history":"[0,1]","location_rts":"[3317,451]","trial_type":"two-door-navigation","trial_index":92,"time_elapsed":957404,"internal_node_id":"0.0-2.0-90.0"},{"group":"hexagon_bi","room_assignment":["yellow","purple","red","grey","green","blue"],"door_color_assignment":["white","black"],"door_generator_assignment":[0,1],"goal":2,"start":1,"action_noise":0.2,"location_history":"[1,0,1,0,1,0,1,2]","action_history":"[0,1,1,1,0,1,0]","door_history":"[0,1,1,1,0,1,0]","location_rts":"[2608,1030,300,694,243,932,309]","trial_type":"two-door-navigation","trial_index":93,"time_elapsed":974155,"internal_node_id":"0.0-2.0-91.0"},{"group":"hexagon_bi","room_assignment":["yellow","purple","red","grey","green","blue"],"door_color_assignment":["white","black"],"door_generator_assignment":[0,1],"goal":4,"start":2,"action_noise":0.2,"location_history":"[2,3,4]","action_history":"[1,0]","door_history":"[1,0]","location_rts":"[2905,429]","trial_type":"two-door-navigation","trial_index":94,"time_elapsed":983029,"internal_node_id":"0.0-2.0-92.0"},{"group":"hexagon_bi","room_assignment":["yellow","purple","red","grey","green","blue"],"door_color_assignment":["white","black"],"door_generator_assignment":[0,1],"goal":0,"start":4,"action_noise":0.2,"location_history":"[4,5,0]","action_history":"[1,0]","door_history":"[1,0]","location_rts":"[2588,792]","trial_type":"two-door-navigation","trial_index":95,"time_elapsed":991953,"internal_node_id":"0.0-2.0-93.0"},{"group":"hexagon_bi","room_assignment":["yellow","purple","red","grey","green","blue"],"door_color_assignment":["white","black"],"door_generator_assignment":[0,1],"goal":3,"start":0,"action_noise":0.2,"location_history":"[0,1,0,5,0,1,2,1,2,1,2,3]","action_history":"[1,0,1,0,1,0,1,0,1,0,1]","door_history":"[1,0,1,0,1,0,1,0,1,0,1]","location_rts":"[2787,456,304,212,158,436,424,6640,285,604,220]","trial_type":"two-door-navigation","trial_index":96,"time_elapsed":1019183,"internal_node_id":"0.0-2.0-94.0"},{"group":"hexagon_bi","room_assignment":["yellow","purple","red","grey","green","blue"],"door_color_assignment":["white","black"],"door_generator_assignment":[0,1],"goal":0,"start":3,"action_noise":0.2,"location_history":"[3,2,1,2,3,2,1,0]","action_history":"[0,1,0,0,1,0,1]","door_history":"[0,1,0,0,1,0,1]","location_rts":"[1237,536,485,683,284,959,232]","trial_type":"two-door-navigation","trial_index":97,"time_elapsed":1034231,"internal_node_id":"0.0-2.0-95.0"},{"group":"hexagon_bi","room_assignment":["yellow","purple","red","grey","green","blue"],"door_color_assignment":["white","black"],"door_generator_assignment":[0,1],"goal":4,"start":0,"action_noise":0.2,"location_history":"[0,5,4]","action_history":"[1,1]","door_history":"[1,1]","location_rts":"[1468,1368]","trial_type":"two-door-navigation","trial_index":98,"time_elapsed":1042604,"internal_node_id":"0.0-2.0-96.0"},{"group":"hexagon_bi","room_assignment":["yellow","purple","red","grey","green","blue"],"door_color_assignment":["white","black"],"door_generator_assignment":[0,1],"goal":5,"start":4,"action_noise":0.2,"location_history":"[4,3,4,5]","action_history":"[1,0,1]","door_history":"[1,0,1]","location_rts":"[2257,1286,408]","trial_type":"two-door-navigation","trial_index":99,"time_elapsed":1053111,"internal_node_id":"0.0-2.0-97.0"},{"group":"hexagon_bi","room_assignment":["yellow","purple","red","grey","green","blue"],"door_color_assignment":["white","black"],"door_generator_assignment":[0,1],"goal":2,"start":5,"action_noise":0.2,"location_history":"[5,0,1,2]","action_history":"[0,1,0]","door_history":"[0,1,0]","location_rts":"[2324,310,327]","trial_type":"two-door-navigation","trial_index":100,"time_elapsed":1062630,"internal_node_id":"0.0-2.0-98.0"},{"group":"hexagon_bi","room_assignment":["yellow","purple","red","grey","green","blue"],"door_color_assignment":["white","black"],"door_generator_assignment":[0,1],"goal":1,"start":2,"action_noise":0.2,"location_history":"[2,1]","action_history":"[0]","door_history":"[0]","location_rts":"[2445]","trial_type":"two-door-navigation","trial_index":101,"time_elapsed":1069597,"internal_node_id":"0.0-2.0-99.0"},{"view_history":"[{\"page_index\":0,\"viewing_time\":1880}]","rt":1880,"trial_type":"instructions","trial_index":102,"time_elapsed":1072478,"internal_node_id":"0.0-3.0"},{"view_history":"[{\"page_index\":0,\"viewing_time\":312101},{\"page_index\":1,\"viewing_time\":26753}]","rt":338854,"trial_type":"instructions","trial_index":103,"time_elapsed":1412334,"internal_node_id":"0.0-4.0"},{"group":"hexagon_bi","fractal_assignment":["../images/pnk_blu.png","../images/ylw_slt.png","../images/org_blu.png","../images/gry_blk.png","../images/blu_wht.png","../images/cyn_red.png"],"mutagen_generator_assignment":[1,0],"goal":2,"start":1,"action_noise":0.2,"location_history":"[1,0,1,2]","action_history":"[1,1,1]","mutagen_history":"[0,0,0]","location_rts":"[4001,772,265]","trial_type":"fractal-mutation","trial_index":104,"time_elapsed":1423980,"internal_node_id":"0.0-5.0-0.0"},{"group":"hexagon_bi","fractal_assignment":["../images/pnk_blu.png","../images/ylw_slt.png","../images/org_blu.png","../images/gry_blk.png","../images/blu_wht.png","../images/cyn_red.png"],"mutagen_generator_assignment":[1,0],"goal":0,"start":2,"action_noise":0.2,"location_history":"[2,1,0]","action_history":"[1,1]","mutagen_history":"[0,0]","location_rts":"[1176,486]","trial_type":"fractal-mutation","trial_index":105,"time_elapsed":1431220,"internal_node_id":"0.0-5.0-1.0"},{"group":"hexagon_bi","fractal_assignment":["../images/pnk_blu.png","../images/ylw_slt.png","../images/org_blu.png","../images/gry_blk.png","../images/blu_wht.png","../images/cyn_red.png"],"mutagen_generator_assignment":[1,0],"goal":5,"start":0,"action_noise":0.2,"location_history":"[0,5]","action_history":"[0]","mutagen_history":"[1]","location_rts":"[1174]","trial_type":"fractal-mutation","trial_index":106,"time_elapsed":1436958,"internal_node_id":"0.0-5.0-2.0"},{"group":"hexagon_bi","fractal_assignment":["../images/pnk_blu.png","../images/ylw_slt.png","../images/org_blu.png","../images/gry_blk.png","../images/blu_wht.png","../images/cyn_red.png"],"mutagen_generator_assignment":[1,0],"goal":3,"start":5,"action_noise":0.2,"location_history":"[5,4,3]","action_history":"[1,0]","mutagen_history":"[0,1]","location_rts":"[1292,365]","trial_type":"fractal-mutation","trial_index":107,"time_elapsed":1444194,"internal_node_id":"0.0-5.0-3.0"},{"group":"hexagon_bi","fractal_assignment":["../images/pnk_blu.png","../images/ylw_slt.png","../images/org_blu.png","../images/gry_blk.png","../images/blu_wht.png","../images/cyn_red.png"],"mutagen_generator_assignment":[1,0],"goal":4,"start":3,"action_noise":0.2,"location_history":"[3,4]","action_history":"[0]","mutagen_history":"[1]","location_rts":"[1231]","trial_type":"fractal-mutation","trial_index":108,"time_elapsed":1449971,"internal_node_id":"0.0-5.0-4.0"},{"group":"hexagon_bi","fractal_assignment":["../images/pnk_blu.png","../images/ylw_slt.png","../images/org_blu.png","../images/gry_blk.png","../images/blu_wht.png","../images/cyn_red.png"],"mutagen_generator_assignment":[1,0],"goal":0,"start":4,"action_noise":0.2,"location_history":"[4,5,0]","action_history":"[1,0]","mutagen_history":"[0,1]","location_rts":"[1184,423]","trial_type":"fractal-mutation","trial_index":109,"time_elapsed":1457152,"internal_node_id":"0.0-5.0-5.0"},{"group":"hexagon_bi","fractal_assignment":["../images/pnk_blu.png","../images/ylw_slt.png","../images/org_blu.png","../images/gry_blk.png","../images/blu_wht.png","../images/cyn_red.png"],"mutagen_generator_assignment":[1,0],"goal":4,"start":0,"action_noise":0.2,"location_history":"[0,5,4]","action_history":"[0,1]","mutagen_history":"[1,0]","location_rts":"[1148,312]","trial_type":"fractal-mutation","trial_index":110,"time_elapsed":1464187,"internal_node_id":"0.0-5.0-6.0"},{"group":"hexagon_bi","fractal_assignment":["../images/pnk_blu.png","../images/ylw_slt.png","../images/org_blu.png","../images/gry_blk.png","../images/blu_wht.png","../images/cyn_red.png"],"mutagen_generator_assignment":[1,0],"goal":3,"start":4,"action_noise":0.2,"location_history":"[4,5,0,1,2,3]","action_history":"[0,0,1,0,1]","mutagen_history":"[1,1,0,1,0]","location_rts":"[979,313,202,462,463]","trial_type":"fractal-mutation","trial_index":111,"time_elapsed":1475299,"internal_node_id":"0.0-5.0-7.0"},{"group":"hexagon_bi","fractal_assignment":["../images/pnk_blu.png","../images/ylw_slt.png","../images/org_blu.png","../images/gry_blk.png","../images/blu_wht.png","../images/cyn_red.png"],"mutagen_generator_assignment":[1,0],"goal":2,"start":3,"action_noise":0.2,"location_history":"[3,2]","action_history":"[1]","mutagen_history":"[0]","location_rts":"[1387]","trial_type":"fractal-mutation","trial_index":112,"time_elapsed":1481223,"internal_node_id":"0.0-5.0-8.0"},{"group":"hexagon_bi","fractal_assignment":["../images/pnk_blu.png","../images/ylw_slt.png","../images/org_blu.png","../images/gry_blk.png","../images/blu_wht.png","../images/cyn_red.png"],"mutagen_generator_assignment":[1,0],"goal":1,"start":2,"action_noise":0.2,"location_history":"[2,1]","action_history":"[0]","mutagen_history":"[1]","location_rts":"[1140]","trial_type":"fractal-mutation","trial_index":113,"time_elapsed":1486912,"internal_node_id":"0.0-5.0-9.0"},{"group":"hexagon_bi","fractal_assignment":["../images/pnk_blu.png","../images/ylw_slt.png","../images/org_blu.png","../images/gry_blk.png","../images/blu_wht.png","../images/cyn_red.png"],"mutagen_generator_assignment":[1,0],"goal":5,"start":1,"action_noise":0.2,"location_history":"[1,2,3,4,3,4,5]","action_history":"[1,0,1,0,0,1]","mutagen_history":"[0,1,0,1,1,0]","location_rts":"[1363,504,1324,267,956,463]","trial_type":"fractal-mutation","trial_index":114,"time_elapsed":1501505,"internal_node_id":"0.0-5.0-10.0"},{"group":"hexagon_bi","fractal_assignment":["../images/pnk_blu.png","../images/ylw_slt.png","../images/org_blu.png","../images/gry_blk.png","../images/blu_wht.png","../images/cyn_red.png"],"mutagen_generator_assignment":[1,0],"goal":0,"start":5,"action_noise":0.2,"location_history":"[5,0]","action_history":"[1]","mutagen_history":"[0]","location_rts":"[1436]","trial_type":"fractal-mutation","trial_index":115,"time_elapsed":1507470,"internal_node_id":"0.0-5.0-11.0"},{"group":"hexagon_bi","fractal_assignment":["../images/pnk_blu.png","../images/ylw_slt.png","../images/org_blu.png","../images/gry_blk.png","../images/blu_wht.png","../images/cyn_red.png"],"mutagen_generator_assignment":[1,0],"goal":4,"start":0,"action_noise":0.2,"location_history":"[0,1,2,1,0,1,2,3,4]","action_history":"[1,1,0,1,0,0,1,0]","mutagen_history":"[0,0,1,0,1,1,0,1]","location_rts":"[1063,1665,242,552,774,667,107,957]","trial_type":"fractal-mutation","trial_index":116,"time_elapsed":1525265,"internal_node_id":"0.0-5.0-12.0"},{"group":"hexagon_bi","fractal_assignment":["../images/pnk_blu.png","../images/ylw_slt.png","../images/org_blu.png","../images/gry_blk.png","../images/blu_wht.png","../images/cyn_red.png"],"mutagen_generator_assignment":[1,0],"goal":2,"start":4,"action_noise":0.2,"location_history":"[4,5,0,1,0,1,0,1,2]","action_history":"[1,0,1,0,1,1,1,0]","mutagen_history":"[0,1,0,1,0,0,0,1]","location_rts":"[1191,897,701,968,864,525,450,353]","trial_type":"fractal-mutation","trial_index":117,"time_elapsed":1542976,"internal_node_id":"0.0-5.0-13.0"},{"group":"hexagon_bi","fractal_assignment":["../images/pnk_blu.png","../images/ylw_slt.png","../images/org_blu.png","../images/gry_blk.png","../images/blu_wht.png","../images/cyn_red.png"],"mutagen_generator_assignment":[1,0],"goal":1,"start":2,"action_noise":0.2,"location_history":"[2,3,2,3,2,1]","action_history":"[1,1,0,1,0]","mutagen_history":"[0,0,1,0,1]","location_rts":"[1216,676,685,928,503]","trial_type":"fractal-mutation","trial_index":118,"time_elapsed":1555658,"internal_node_id":"0.0-5.0-14.0"},{"group":"hexagon_bi","fractal_assignment":["../images/pnk_blu.png","../images/ylw_slt.png","../images/org_blu.png","../images/gry_blk.png","../images/blu_wht.png","../images/cyn_red.png"],"mutagen_generator_assignment":[1,0],"goal":3,"start":1,"action_noise":0.2,"location_history":"[1,2,3]","action_history":"[0,1]","mutagen_history":"[1,0]","location_rts":"[1012,598]","trial_type":"fractal-mutation","trial_index":119,"time_elapsed":1562846,"internal_node_id":"0.0-5.0-15.0"},{"group":"hexagon_bi","fractal_assignment":["../images/pnk_blu.png","../images/ylw_slt.png","../images/org_blu.png","../images/gry_blk.png","../images/blu_wht.png","../images/cyn_red.png"],"mutagen_generator_assignment":[1,0],"goal":5,"start":3,"action_noise":0.2,"location_history":"[3,4,5]","action_history":"[0,1]","mutagen_history":"[1,0]","location_rts":"[770,429]","trial_type":"fractal-mutation","trial_index":120,"time_elapsed":1569620,"internal_node_id":"0.0-5.0-16.0"},{"group":"hexagon_bi","fractal_assignment":["../images/pnk_blu.png","../images/ylw_slt.png","../images/org_blu.png","../images/gry_blk.png","../images/blu_wht.png","../images/cyn_red.png"],"mutagen_generator_assignment":[1,0],"goal":0,"start":5,"action_noise":0.2,"location_history":"[5,4,5,0]","action_history":"[1,1,0]","mutagen_history":"[0,0,1]","location_rts":"[1134,616,236]","trial_type":"fractal-mutation","trial_index":121,"time_elapsed":1578212,"internal_node_id":"0.0-5.0-17.0"},{"group":"hexagon_bi","fractal_assignment":["../images/pnk_blu.png","../images/ylw_slt.png","../images/org_blu.png","../images/gry_blk.png","../images/blu_wht.png","../images/cyn_red.png"],"mutagen_generator_assignment":[1,0],"goal":5,"start":0,"action_noise":0.2,"location_history":"[0,5]","action_history":"[0]","mutagen_history":"[1]","location_rts":"[1213]","trial_type":"fractal-mutation","trial_index":122,"time_elapsed":1583967,"internal_node_id":"0.0-5.0-18.0"},{"group":"hexagon_bi","fractal_assignment":["../images/pnk_blu.png","../images/ylw_slt.png","../images/org_blu.png","../images/gry_blk.png","../images/blu_wht.png","../images/cyn_red.png"],"mutagen_generator_assignment":[1,0],"goal":3,"start":5,"action_noise":0.2,"location_history":"[5,0,5,4,3]","action_history":"[0,0,1,0]","mutagen_history":"[1,1,0,1]","location_rts":"[1356,540,281,235]","trial_type":"fractal-mutation","trial_index":123,"time_elapsed":1594036,"internal_node_id":"0.0-5.0-19.0"},{"group":"hexagon_bi","fractal_assignment":["../images/pnk_blu.png","../images/ylw_slt.png","../images/org_blu.png","../images/gry_blk.png","../images/blu_wht.png","../images/cyn_red.png"],"mutagen_generator_assignment":[1,0],"goal":4,"start":3,"action_noise":0.2,"location_history":"[3,4]","action_history":"[0]","mutagen_history":"[1]","location_rts":"[774]","trial_type":"fractal-mutation","trial_index":124,"time_elapsed":1599355,"internal_node_id":"0.0-5.0-20.0"},{"group":"hexagon_bi","fractal_assignment":["../images/pnk_blu.png","../images/ylw_slt.png","../images/org_blu.png","../images/gry_blk.png","../images/blu_wht.png","../images/cyn_red.png"],"mutagen_generator_assignment":[1,0],"goal":1,"start":4,"action_noise":0.2,"location_history":"[4,5,0,5,0,5,4,3,2,1]","action_history":"[1,0,1,1,0,1,0,1,0]","mutagen_history":"[0,1,0,0,1,0,1,0,1]","location_rts":"[936,368,182,1031,414,494,434,725,708]","trial_type":"fractal-mutation","trial_index":125,"time_elapsed":1617446,"internal_node_id":"0.0-5.0-21.0"},{"group":"hexagon_bi","fractal_assignment":["../images/pnk_blu.png","../images/ylw_slt.png","../images/org_blu.png","../images/gry_blk.png","../images/blu_wht.png","../images/cyn_red.png"],"mutagen_generator_assignment":[1,0],"goal":2,"start":1,"action_noise":0.2,"location_history":"[1,2]","action_history":"[1]","mutagen_history":"[0]","location_rts":"[779]","trial_type":"fractal-mutation","trial_index":126,"time_elapsed":1622760,"internal_node_id":"0.0-5.0-22.0"},{"group":"hexagon_bi","fractal_assignment":["../images/pnk_blu.png","../images/ylw_slt.png","../images/org_blu.png","../images/gry_blk.png","../images/blu_wht.png","../images/cyn_red.png"],"mutagen_generator_assignment":[1,0],"goal":3,"start":2,"action_noise":0.2,"location_history":"[2,3]","action_history":"[0]","mutagen_history":"[1]","location_rts":"[1088]","trial_type":"fractal-mutation","trial_index":127,"time_elapsed":1628388,"internal_node_id":"0.0-5.0-23.0"},{"group":"hexagon_bi","fractal_assignment":["../images/pnk_blu.png","../images/ylw_slt.png","../images/org_blu.png","../images/gry_blk.png","../images/blu_wht.png","../images/cyn_red.png"],"mutagen_generator_assignment":[1,0],"goal":5,"start":3,"action_noise":0.2,"location_history":"[3,4,3,4,3,4,5]","action_history":"[0,1,0,1,0,1]","mutagen_history":"[1,0,1,0,1,0]","location_rts":"[1373,263,1227,299,473,262]","trial_type":"fractal-mutation","trial_index":128,"time_elapsed":1642004,"internal_node_id":"0.0-5.0-24.0"},{"group":"hexagon_bi","fractal_assignment":["../images/pnk_blu.png","../images/ylw_slt.png","../images/org_blu.png","../images/gry_blk.png","../images/blu_wht.png","../images/cyn_red.png"],"mutagen_generator_assignment":[1,0],"goal":4,"start":5,"action_noise":0.2,"location_history":"[5,0,5,4]","action_history":"[0,0,1]","mutagen_history":"[1,1,0]","location_rts":"[754,321,139]","trial_type":"fractal-mutation","trial_index":129,"time_elapsed":1649834,"internal_node_id":"0.0-5.0-25.0"},{"group":"hexagon_bi","fractal_assignment":["../images/pnk_blu.png","../images/ylw_slt.png","../images/org_blu.png","../images/gry_blk.png","../images/blu_wht.png","../images/cyn_red.png"],"mutagen_generator_assignment":[1,0],"goal":0,"start":4,"action_noise":0.2,"location_history":"[4,3,2,1,0]","action_history":"[0,1,0,1]","mutagen_history":"[1,0,1,0]","location_rts":"[1419,321,363,441]","trial_type":"fractal-mutation","trial_index":130,"time_elapsed":1660019,"internal_node_id":"0.0-5.0-26.0"},{"group":"hexagon_bi","fractal_assignment":["../images/pnk_blu.png","../images/ylw_slt.png","../images/org_blu.png","../images/gry_blk.png","../images/blu_wht.png","../images/cyn_red.png"],"mutagen_generator_assignment":[1,0],"goal":2,"start":0,"action_noise":0.2,"location_history":"[0,1,2]","action_history":"[1,0]","mutagen_history":"[0,1]","location_rts":"[1059,367]","trial_type":"fractal-mutation","trial_index":131,"time_elapsed":1667015,"internal_node_id":"0.0-5.0-27.0"},{"group":"hexagon_bi","fractal_assignment":["../images/pnk_blu.png","../images/ylw_slt.png","../images/org_blu.png","../images/gry_blk.png","../images/blu_wht.png","../images/cyn_red.png"],"mutagen_generator_assignment":[1,0],"goal":1,"start":2,"action_noise":0.2,"location_history":"[2,1]","action_history":"[1]","mutagen_history":"[0]","location_rts":"[1452]","trial_type":"fractal-mutation","trial_index":132,"time_elapsed":1673003,"internal_node_id":"0.0-5.0-28.0"},{"group":"hexagon_bi","fractal_assignment":["../images/pnk_blu.png","../images/ylw_slt.png","../images/org_blu.png","../images/gry_blk.png","../images/blu_wht.png","../images/cyn_red.png"],"mutagen_generator_assignment":[1,0],"goal":0,"start":1,"action_noise":0.2,"location_history":"[1,0]","action_history":"[1]","mutagen_history":"[0]","location_rts":"[738]","trial_type":"fractal-mutation","trial_index":133,"time_elapsed":1678277,"internal_node_id":"0.0-5.0-29.0"},{"group":"hexagon_bi","fractal_assignment":["../images/pnk_blu.png","../images/ylw_slt.png","../images/org_blu.png","../images/gry_blk.png","../images/blu_wht.png","../images/cyn_red.png"],"mutagen_generator_assignment":[1,0],"goal":2,"start":0,"action_noise":0.2,"location_history":"[0,1,2]","action_history":"[1,0]","mutagen_history":"[0,1]","location_rts":"[926,244]","trial_type":"fractal-mutation","trial_index":134,"time_elapsed":1685022,"internal_node_id":"0.0-5.0-30.0"},{"group":"hexagon_bi","fractal_assignment":["../images/pnk_blu.png","../images/ylw_slt.png","../images/org_blu.png","../images/gry_blk.png","../images/blu_wht.png","../images/cyn_red.png"],"mutagen_generator_assignment":[1,0],"goal":4,"start":2,"action_noise":0.2,"location_history":"[2,3,4]","action_history":"[1,0]","mutagen_history":"[0,1]","location_rts":"[974,236]","trial_type":"fractal-mutation","trial_index":135,"time_elapsed":1691803,"internal_node_id":"0.0-5.0-31.0"},{"group":"hexagon_bi","fractal_assignment":["../images/pnk_blu.png","../images/ylw_slt.png","../images/org_blu.png","../images/gry_blk.png","../images/blu_wht.png","../images/cyn_red.png"],"mutagen_generator_assignment":[1,0],"goal":1,"start":4,"action_noise":0.2,"location_history":"[4,3,2,1]","action_history":"[0,1,0]","mutagen_history":"[1,0,1]","location_rts":"[923,526,290]","trial_type":"fractal-mutation","trial_index":136,"time_elapsed":1700147,"internal_node_id":"0.0-5.0-32.0"},{"group":"hexagon_bi","fractal_assignment":["../images/pnk_blu.png","../images/ylw_slt.png","../images/org_blu.png","../images/gry_blk.png","../images/blu_wht.png","../images/cyn_red.png"],"mutagen_generator_assignment":[1,0],"goal":3,"start":1,"action_noise":0.2,"location_history":"[1,0,1,2,3]","action_history":"[0,1,0,1]","mutagen_history":"[1,0,1,0]","location_rts":"[828,676,563,567]","trial_type":"fractal-mutation","trial_index":137,"time_elapsed":1710428,"internal_node_id":"0.0-5.0-33.0"},{"group":"hexagon_bi","fractal_assignment":["../images/pnk_blu.png","../images/ylw_slt.png","../images/org_blu.png","../images/gry_blk.png","../images/blu_wht.png","../images/cyn_red.png"],"mutagen_generator_assignment":[1,0],"goal":5,"start":3,"action_noise":0.2,"location_history":"[3,4,5]","action_history":"[0,1]","mutagen_history":"[1,0]","location_rts":"[934,215]","trial_type":"fractal-mutation","trial_index":138,"time_elapsed":1717146,"internal_node_id":"0.0-5.0-34.0"},{"group":"hexagon_bi","fractal_assignment":["../images/pnk_blu.png","../images/ylw_slt.png","../images/org_blu.png","../images/gry_blk.png","../images/blu_wht.png","../images/cyn_red.png"],"mutagen_generator_assignment":[1,0],"goal":2,"start":5,"action_noise":0.2,"location_history":"[5,0,1,2]","action_history":"[0,1,0]","mutagen_history":"[1,0,1]","location_rts":"[937,827,390]","trial_type":"fractal-mutation","trial_index":139,"time_elapsed":1725914,"internal_node_id":"0.0-5.0-35.0"},{"group":"hexagon_bi","fractal_assignment":["../images/pnk_blu.png","../images/ylw_slt.png","../images/org_blu.png","../images/gry_blk.png","../images/blu_wht.png","../images/cyn_red.png"],"mutagen_generator_assignment":[1,0],"goal":0,"start":2,"action_noise":0.2,"location_history":"[2,3,4,3,4,5,0]","action_history":"[1,0,1,0,1,0]","mutagen_history":"[0,1,0,1,0,1]","location_rts":"[1021,553,382,13,268,550]","trial_type":"fractal-mutation","trial_index":140,"time_elapsed":1738406,"internal_node_id":"0.0-5.0-36.0"},{"group":"hexagon_bi","fractal_assignment":["../images/pnk_blu.png","../images/ylw_slt.png","../images/org_blu.png","../images/gry_blk.png","../images/blu_wht.png","../images/cyn_red.png"],"mutagen_generator_assignment":[1,0],"goal":4,"start":0,"action_noise":0.2,"location_history":"[0,5,4]","action_history":"[0,1]","mutagen_history":"[1,0]","location_rts":"[754,244]","trial_type":"fractal-mutation","trial_index":141,"time_elapsed":1744972,"internal_node_id":"0.0-5.0-37.0"},{"group":"hexagon_bi","fractal_assignment":["../images/pnk_blu.png","../images/ylw_slt.png","../images/org_blu.png","../images/gry_blk.png","../images/blu_wht.png","../images/cyn_red.png"],"mutagen_generator_assignment":[1,0],"goal":5,"start":4,"action_noise":0.2,"location_history":"[4,3,2,3,4,5]","action_history":"[0,0,1,0,1]","mutagen_history":"[1,1,0,1,0]","location_rts":"[1004,704,46,108,537]","trial_type":"fractal-mutation","trial_index":142,"time_elapsed":1756035,"internal_node_id":"0.0-5.0-38.0"},{"group":"hexagon_bi","fractal_assignment":["../images/pnk_blu.png","../images/ylw_slt.png","../images/org_blu.png","../images/gry_blk.png","../images/blu_wht.png","../images/cyn_red.png"],"mutagen_generator_assignment":[1,0],"goal":1,"start":5,"action_noise":0.2,"location_history":"[5,4,3,2,1]","action_history":"[1,0,1,0]","mutagen_history":"[0,1,0,1]","location_rts":"[1203,438,364,314]","trial_type":"fractal-mutation","trial_index":143,"time_elapsed":1766002,"internal_node_id":"0.0-5.0-39.0"},{"group":"hexagon_bi","fractal_assignment":["../images/pnk_blu.png","../images/ylw_slt.png","../images/org_blu.png","../images/gry_blk.png","../images/blu_wht.png","../images/cyn_red.png"],"mutagen_generator_assignment":[1,0],"goal":3,"start":1,"action_noise":0.2,"location_history":"[1,2,3]","action_history":"[0,0]","mutagen_history":"[1,1]","location_rts":"[702,594]","trial_type":"fractal-mutation","trial_index":144,"time_elapsed":1772875,"internal_node_id":"0.0-5.0-40.0"},{"group":"hexagon_bi","fractal_assignment":["../images/pnk_blu.png","../images/ylw_slt.png","../images/org_blu.png","../images/gry_blk.png","../images/blu_wht.png","../images/cyn_red.png"],"mutagen_generator_assignment":[1,0],"goal":1,"start":3,"action_noise":0.2,"location_history":"[3,4,5,0,1]","action_history":"[0,1,0,1]","mutagen_history":"[1,0,1,0]","location_rts":"[836,621,397,529]","trial_type":"fractal-mutation","trial_index":145,"time_elapsed":1782899,"internal_node_id":"0.0-5.0-41.0"},{"group":"hexagon_bi","fractal_assignment":["../images/pnk_blu.png","../images/ylw_slt.png","../images/org_blu.png","../images/gry_blk.png","../images/blu_wht.png","../images/cyn_red.png"],"mutagen_generator_assignment":[1,0],"goal":0,"start":1,"action_noise":0.2,"location_history":"[1,0]","action_history":"[1]","mutagen_history":"[0]","location_rts":"[1089]","trial_type":"fractal-mutation","trial_index":146,"time_elapsed":1788522,"internal_node_id":"0.0-5.0-42.0"},{"group":"hexagon_bi","fractal_assignment":["../images/pnk_blu.png","../images/ylw_slt.png","../images/org_blu.png","../images/gry_blk.png","../images/blu_wht.png","../images/cyn_red.png"],"mutagen_generator_assignment":[1,0],"goal":4,"start":0,"action_noise":0.2,"location_history":"[0,1,0,1,0,1,0,5,4]","action_history":"[0,1,0,1,1,1,0,1]","mutagen_history":"[1,0,1,0,0,0,1,0]","location_rts":"[769,385,451,429,356,566,304,632]","trial_type":"fractal-mutation","trial_index":147,"time_elapsed":1804162,"internal_node_id":"0.0-5.0-43.0"},{"group":"hexagon_bi","fractal_assignment":["../images/pnk_blu.png","../images/ylw_slt.png","../images/org_blu.png","../images/gry_blk.png","../images/blu_wht.png","../images/cyn_red.png"],"mutagen_generator_assignment":[1,0],"goal":2,"start":4,"action_noise":0.2,"location_history":"[4,5,4,3,2]","action_history":"[1,1,0,1]","mutagen_history":"[0,0,1,0]","location_rts":"[1124,445,179,179]","trial_type":"fractal-mutation","trial_index":148,"time_elapsed":1813722,"internal_node_id":"0.0-5.0-44.0"},{"group":"hexagon_bi","fractal_assignment":["../images/pnk_blu.png","../images/ylw_slt.png","../images/org_blu.png","../images/gry_blk.png","../images/blu_wht.png","../images/cyn_red.png"],"mutagen_generator_assignment":[1,0],"goal":3,"start":2,"action_noise":0.2,"location_history":"[2,1,2,1,2,1,0,1,0,1,2,3]","action_history":"[0,1,0,0,0,1,1,0,1,0,1]","mutagen_history":"[1,0,1,1,1,0,0,1,0,1,0]","location_rts":"[847,807,373,802,235,928,890,28,347,375,426]","trial_type":"fractal-mutation","trial_index":149,"time_elapsed":1834652,"internal_node_id":"0.0-5.0-45.0"},{"group":"hexagon_bi","fractal_assignment":["../images/pnk_blu.png","../images/ylw_slt.png","../images/org_blu.png","../images/gry_blk.png","../images/blu_wht.png","../images/cyn_red.png"],"mutagen_generator_assignment":[1,0],"goal":5,"start":3,"action_noise":0.2,"location_history":"[3,4,5]","action_history":"[0,1]","mutagen_history":"[1,0]","location_rts":"[2583,303]","trial_type":"fractal-mutation","trial_index":150,"time_elapsed":1843107,"internal_node_id":"0.0-5.0-46.0"},{"group":"hexagon_bi","fractal_assignment":["../images/pnk_blu.png","../images/ylw_slt.png","../images/org_blu.png","../images/gry_blk.png","../images/blu_wht.png","../images/cyn_red.png"],"mutagen_generator_assignment":[1,0],"goal":4,"start":5,"action_noise":0.2,"location_history":"[5,0,1,2,3,2,1,2,3,4]","action_history":"[0,0,0,1,0,0,0,1,0]","mutagen_history":"[1,1,1,0,1,1,1,0,1]","location_rts":"[1526,828,712,575,544,970,481,803,247]","trial_type":"fractal-mutation","trial_index":151,"time_elapsed":1862601,"internal_node_id":"0.0-5.0-47.0"},{"group":"hexagon_bi","fractal_assignment":["../images/pnk_blu.png","../images/ylw_slt.png","../images/org_blu.png","../images/gry_blk.png","../images/blu_wht.png","../images/cyn_red.png"],"mutagen_generator_assignment":[1,0],"goal":3,"start":4,"action_noise":0.2,"location_history":"[4,3]","action_history":"[0]","mutagen_history":"[1]","location_rts":"[1325]","trial_type":"fractal-mutation","trial_index":152,"time_elapsed":1868470,"internal_node_id":"0.0-5.0-48.0"},{"group":"hexagon_bi","fractal_assignment":["../images/pnk_blu.png","../images/ylw_slt.png","../images/org_blu.png","../images/gry_blk.png","../images/blu_wht.png","../images/cyn_red.png"],"mutagen_generator_assignment":[1,0],"goal":1,"start":3,"action_noise":0.2,"location_history":"[3,2,3,4,5,4,5,0,5,4,3,2,3,2,1]","action_history":"[1,0,1,1,0,1,1,0,1,0,1,0,1,0]","mutagen_history":"[0,1,0,0,1,0,0,1,0,1,0,1,0,1]","location_rts":"[1087,455,629,508,437,259,442,299,601,359,612,262,801,342]","trial_type":"fractal-mutation","trial_index":153,"time_elapsed":1893553,"internal_node_id":"0.0-5.0-49.0"},{"group":"hexagon_bi","fractal_assignment":["../images/pnk_blu.png","../images/ylw_slt.png","../images/org_blu.png","../images/gry_blk.png","../images/blu_wht.png","../images/cyn_red.png"],"mutagen_generator_assignment":[1,0],"goal":2,"start":1,"action_noise":0.2,"location_history":"[1,0,1,0,5,4,3,2]","action_history":"[1,1,0,1,1,0,1]","mutagen_history":"[0,0,1,0,0,1,0]","location_rts":"[858,484,466,539,219,486,468]","trial_type":"fractal-mutation","trial_index":154,"time_elapsed":1907807,"internal_node_id":"0.0-5.0-50.0"},{"group":"hexagon_bi","fractal_assignment":["../images/pnk_blu.png","../images/ylw_slt.png","../images/org_blu.png","../images/gry_blk.png","../images/blu_wht.png","../images/cyn_red.png"],"mutagen_generator_assignment":[1,0],"goal":0,"start":2,"action_noise":0.2,"location_history":"[2,3,4,3,2,1,0]","action_history":"[1,0,0,1,0,1]","mutagen_history":"[0,1,1,0,1,0]","location_rts":"[1153,538,616,328,227,482]","trial_type":"fractal-mutation","trial_index":155,"time_elapsed":1920853,"internal_node_id":"0.0-5.0-51.0"},{"group":"hexagon_bi","fractal_assignment":["../images/pnk_blu.png","../images/ylw_slt.png","../images/org_blu.png","../images/gry_blk.png","../images/blu_wht.png","../images/cyn_red.png"],"mutagen_generator_assignment":[1,0],"goal":5,"start":0,"action_noise":0.2,"location_history":"[0,1,0,1,0,5]","action_history":"[1,1,0,1,0]","mutagen_history":"[0,0,1,0,1]","location_rts":"[733,763,861,877,200]","trial_type":"fractal-mutation","trial_index":156,"time_elapsed":1932945,"internal_node_id":"0.0-5.0-52.0"},{"group":"hexagon_bi","fractal_assignment":["../images/pnk_blu.png","../images/ylw_slt.png","../images/org_blu.png","../images/gry_blk.png","../images/blu_wht.png","../images/cyn_red.png"],"mutagen_generator_assignment":[1,0],"goal":1,"start":5,"action_noise":0.2,"location_history":"[5,4,3,2,1]","action_history":"[1,0,1,0]","mutagen_history":"[0,1,0,1]","location_rts":"[811,759,394,303]","trial_type":"fractal-mutation","trial_index":157,"time_elapsed":1942852,"internal_node_id":"0.0-5.0-53.0"},{"group":"hexagon_bi","fractal_assignment":["../images/pnk_blu.png","../images/ylw_slt.png","../images/org_blu.png","../images/gry_blk.png","../images/blu_wht.png","../images/cyn_red.png"],"mutagen_generator_assignment":[1,0],"goal":3,"start":1,"action_noise":0.2,"location_history":"[1,0,5,0,5,4,3]","action_history":"[1,0,1,0,1,0]","mutagen_history":"[0,1,0,1,0,1]","location_rts":"[762,283,213,117,360,998]","trial_type":"fractal-mutation","trial_index":158,"time_elapsed":1955278,"internal_node_id":"0.0-5.0-54.0"},{"group":"hexagon_bi","fractal_assignment":["../images/pnk_blu.png","../images/ylw_slt.png","../images/org_blu.png","../images/gry_blk.png","../images/blu_wht.png","../images/cyn_red.png"],"mutagen_generator_assignment":[1,0],"goal":5,"start":3,"action_noise":0.2,"location_history":"[3,4,5]","action_history":"[0,1]","mutagen_history":"[1,0]","location_rts":"[1046,334]","trial_type":"fractal-mutation","trial_index":159,"time_elapsed":1962226,"internal_node_id":"0.0-5.0-55.0"},{"group":"hexagon_bi","fractal_assignment":["../images/pnk_blu.png","../images/ylw_slt.png","../images/org_blu.png","../images/gry_blk.png","../images/blu_wht.png","../images/cyn_red.png"],"mutagen_generator_assignment":[1,0],"goal":4,"start":5,"action_noise":0.2,"location_history":"[5,4]","action_history":"[0]","mutagen_history":"[1]","location_rts":"[940]","trial_type":"fractal-mutation","trial_index":160,"time_elapsed":1967702,"internal_node_id":"0.0-5.0-56.0"},{"group":"hexagon_bi","fractal_assignment":["../images/pnk_blu.png","../images/ylw_slt.png","../images/org_blu.png","../images/gry_blk.png","../images/blu_wht.png","../images/cyn_red.png"],"mutagen_generator_assignment":[1,0],"goal":0,"start":4,"action_noise":0.2,"location_history":"[4,5,4,3,2,1,0]","action_history":"[1,0,0,1,0,1]","mutagen_history":"[0,1,1,0,1,0]","location_rts":"[1145,310,786,310,642,423]","trial_type":"fractal-mutation","trial_index":161,"time_elapsed":1981025,"internal_node_id":"0.0-5.0-57.0"},{"group":"hexagon_bi","fractal_assignment":["../images/pnk_blu.png","../images/ylw_slt.png","../images/org_blu.png","../images/gry_blk.png","../images/blu_wht.png","../images/cyn_red.png"],"mutagen_generator_assignment":[1,0],"goal":2,"start":0,"action_noise":0.2,"location_history":"[0,5,4,3,2]","action_history":"[0,1,0,1]","mutagen_history":"[1,0,1,0]","location_rts":"[1110,609,619,225]","trial_type":"fractal-mutation","trial_index":162,"time_elapsed":1991221,"internal_node_id":"0.0-5.0-58.0"},{"group":"hexagon_bi","fractal_assignment":["../images/pnk_blu.png","../images/ylw_slt.png","../images/org_blu.png","../images/gry_blk.png","../images/blu_wht.png","../images/cyn_red.png"],"mutagen_generator_assignment":[1,0],"goal":4,"start":2,"action_noise":0.2,"location_history":"[2,1,2,1,0,5,4]","action_history":"[0,1,0,1,0,1]","mutagen_history":"[1,0,1,0,1,0]","location_rts":"[908,367,175,159,236,175]","trial_type":"fractal-mutation","trial_index":163,"time_elapsed":2002936,"internal_node_id":"0.0-5.0-59.0"},{"group":"hexagon_bi","fractal_assignment":["../images/pnk_blu.png","../images/ylw_slt.png","../images/org_blu.png","../images/gry_blk.png","../images/blu_wht.png","../images/cyn_red.png"],"mutagen_generator_assignment":[1,0],"goal":2,"start":4,"action_noise":0.2,"location_history":"[4,5,4,5,0,1,2]","action_history":"[1,0,1,0,1,0]","mutagen_history":"[0,1,0,1,0,1]","location_rts":"[1063,532,297,512,669,61]","trial_type":"fractal-mutation","trial_index":164,"time_elapsed":2015782,"internal_node_id":"0.0-5.0-60.0"},{"group":"hexagon_bi","fractal_assignment":["../images/pnk_blu.png","../images/ylw_slt.png","../images/org_blu.png","../images/gry_blk.png","../images/blu_wht.png","../images/cyn_red.png"],"mutagen_generator_assignment":[1,0],"goal":3,"start":2,"action_noise":0.2,"location_history":"[2,1,0,1,2,3]","action_history":"[0,1,1,0,1]","mutagen_history":"[1,0,0,1,0]","location_rts":"[608,473,450,268,302]","trial_type":"fractal-mutation","trial_index":165,"time_elapsed":2026546,"internal_node_id":"0.0-5.0-61.0"},{"group":"hexagon_bi","fractal_assignment":["../images/pnk_blu.png","../images/ylw_slt.png","../images/org_blu.png","../images/gry_blk.png","../images/blu_wht.png","../images/cyn_red.png"],"mutagen_generator_assignment":[1,0],"goal":0,"start":3,"action_noise":0.2,"location_history":"[3,2,1,2,1,2,3,4,3,4,5,0]","action_history":"[0,1,0,1,0,1,0,1,0,1,0]","mutagen_history":"[1,0,1,0,1,0,1,0,1,0,1]","location_rts":"[768,155,121,472,246,375,111,208,182,261,590]","trial_type":"fractal-mutation","trial_index":166,"time_elapsed":2045206,"internal_node_id":"0.0-5.0-62.0"},{"group":"hexagon_bi","fractal_assignment":["../images/pnk_blu.png","../images/ylw_slt.png","../images/org_blu.png","../images/gry_blk.png","../images/blu_wht.png","../images/cyn_red.png"],"mutagen_generator_assignment":[1,0],"goal":5,"start":0,"action_noise":0.2,"location_history":"[0,5]","action_history":"[0]","mutagen_history":"[1]","location_rts":"[5208]","trial_type":"fractal-mutation","trial_index":167,"time_elapsed":2055953,"internal_node_id":"0.0-5.0-63.0"},{"group":"hexagon_bi","fractal_assignment":["../images/pnk_blu.png","../images/ylw_slt.png","../images/org_blu.png","../images/gry_blk.png","../images/blu_wht.png","../images/cyn_red.png"],"mutagen_generator_assignment":[1,0],"goal":1,"start":5,"action_noise":0.2,"location_history":"[5,4,3,2,1]","action_history":"[1,0,1,0]","mutagen_history":"[0,1,0,1]","location_rts":"[1391,658,27,104]","trial_type":"fractal-mutation","trial_index":168,"time_elapsed":2065773,"internal_node_id":"0.0-5.0-64.0"},{"group":"hexagon_bi","fractal_assignment":["../images/pnk_blu.png","../images/ylw_slt.png","../images/org_blu.png","../images/gry_blk.png","../images/blu_wht.png","../images/cyn_red.png"],"mutagen_generator_assignment":[1,0],"goal":5,"start":1,"action_noise":0.2,"location_history":"[1,0,5]","action_history":"[1,0]","mutagen_history":"[0,1]","location_rts":"[1354,447]","trial_type":"fractal-mutation","trial_index":169,"time_elapsed":2073149,"internal_node_id":"0.0-5.0-65.0"},{"group":"hexagon_bi","fractal_assignment":["../images/pnk_blu.png","../images/ylw_slt.png","../images/org_blu.png","../images/gry_blk.png","../images/blu_wht.png","../images/cyn_red.png"],"mutagen_generator_assignment":[1,0],"goal":3,"start":5,"action_noise":0.2,"location_history":"[5,0,5,0,1,0,5,4,5,4,5,0,1,0,5,4,3]","action_history":"[0,0,1,1,1,0,1,0,1,0,1,0,1,0,1,0]","mutagen_history":"[1,1,0,0,0,1,0,1,0,1,0,1,0,1,0,1]","location_rts":"[670,345,305,978,593,495,282,210,1004,401,735,125,460,354,521,221]","trial_type":"fractal-mutation","trial_index":170,"time_elapsed":2100905,"internal_node_id":"0.0-5.0-66.0"},{"group":"hexagon_bi","fractal_assignment":["../images/pnk_blu.png","../images/ylw_slt.png","../images/org_blu.png","../images/gry_blk.png","../images/blu_wht.png","../images/cyn_red.png"],"mutagen_generator_assignment":[1,0],"goal":2,"start":3,"action_noise":0.2,"location_history":"[3,2]","action_history":"[0]","mutagen_history":"[1]","location_rts":"[682]","trial_type":"fractal-mutation","trial_index":171,"time_elapsed":2106129,"internal_node_id":"0.0-5.0-67.0"},{"group":"hexagon_bi","fractal_assignment":["../images/pnk_blu.png","../images/ylw_slt.png","../images/org_blu.png","../images/gry_blk.png","../images/blu_wht.png","../images/cyn_red.png"],"mutagen_generator_assignment":[1,0],"goal":1,"start":2,"action_noise":0.2,"location_history":"[2,1]","action_history":"[0]","mutagen_history":"[1]","location_rts":"[1283]","trial_type":"fractal-mutation","trial_index":172,"time_elapsed":2111953,"internal_node_id":"0.0-5.0-68.0"},{"group":"hexagon_bi","fractal_assignment":["../images/pnk_blu.png","../images/ylw_slt.png","../images/org_blu.png","../images/gry_blk.png","../images/blu_wht.png","../images/cyn_red.png"],"mutagen_generator_assignment":[1,0],"goal":4,"start":1,"action_noise":0.2,"location_history":"[1,0,5,0,1,2,3,4]","action_history":"[0,1,0,1,0,1,0]","mutagen_history":"[1,0,1,0,1,0,1]","location_rts":"[801,630,255,588,160,528,362]","trial_type":"fractal-mutation","trial_index":173,"time_elapsed":2126035,"internal_node_id":"0.0-5.0-69.0"},{"group":"hexagon_bi","fractal_assignment":["../images/pnk_blu.png","../images/ylw_slt.png","../images/org_blu.png","../images/gry_blk.png","../images/blu_wht.png","../images/cyn_red.png"],"mutagen_generator_assignment":[1,0],"goal":0,"start":4,"action_noise":0.2,"location_history":"[4,3,4,3,2,1,2,1,2,1,0]","action_history":"[0,1,0,1,0,1,0,1,0,1]","mutagen_history":"[1,0,1,0,1,0,1,0,1,0]","location_rts":"[706,393,629,528,675,377,419,218,481,73]","trial_type":"fractal-mutation","trial_index":174,"time_elapsed":2144369,"internal_node_id":"0.0-5.0-70.0"},{"group":"hexagon_bi","fractal_assignment":["../images/pnk_blu.png","../images/ylw_slt.png","../images/org_blu.png","../images/gry_blk.png","../images/blu_wht.png","../images/cyn_red.png"],"mutagen_generator_assignment":[1,0],"goal":3,"start":0,"action_noise":0.2,"location_history":"[0,5,4,3]","action_history":"[0,1,0]","mutagen_history":"[1,0,1]","location_rts":"[791,387,465]","trial_type":"fractal-mutation","trial_index":175,"time_elapsed":2152623,"internal_node_id":"0.0-5.0-71.0"},{"group":"hexagon_bi","fractal_assignment":["../images/pnk_blu.png","../images/ylw_slt.png","../images/org_blu.png","../images/gry_blk.png","../images/blu_wht.png","../images/cyn_red.png"],"mutagen_generator_assignment":[1,0],"goal":1,"start":3,"action_noise":0.2,"location_history":"[3,4,5,0,1]","action_history":"[0,0,0,1]","mutagen_history":"[1,1,1,0]","location_rts":"[842,538,1403,279]","trial_type":"fractal-mutation","trial_index":176,"time_elapsed":2163330,"internal_node_id":"0.0-5.0-72.0"},{"group":"hexagon_bi","fractal_assignment":["../images/pnk_blu.png","../images/ylw_slt.png","../images/org_blu.png","../images/gry_blk.png","../images/blu_wht.png","../images/cyn_red.png"],"mutagen_generator_assignment":[1,0],"goal":0,"start":1,"action_noise":0.2,"location_history":"[1,2,1,0]","action_history":"[0,0,1]","mutagen_history":"[1,1,0]","location_rts":"[2414,683,141]","trial_type":"fractal-mutation","trial_index":177,"time_elapsed":2173176,"internal_node_id":"0.0-5.0-73.0"},{"group":"hexagon_bi","fractal_assignment":["../images/pnk_blu.png","../images/ylw_slt.png","../images/org_blu.png","../images/gry_blk.png","../images/blu_wht.png","../images/cyn_red.png"],"mutagen_generator_assignment":[1,0],"goal":2,"start":0,"action_noise":0.2,"location_history":"[0,1,2]","action_history":"[1,0]","mutagen_history":"[0,1]","location_rts":"[2648,191]","trial_type":"fractal-mutation","trial_index":178,"time_elapsed":2181583,"internal_node_id":"0.0-5.0-74.0"},{"group":"hexagon_bi","fractal_assignment":["../images/pnk_blu.png","../images/ylw_slt.png","../images/org_blu.png","../images/gry_blk.png","../images/blu_wht.png","../images/cyn_red.png"],"mutagen_generator_assignment":[1,0],"goal":4,"start":2,"action_noise":0.2,"location_history":"[2,3,4]","action_history":"[1,0]","mutagen_history":"[0,1]","location_rts":"[1203,592]","trial_type":"fractal-mutation","trial_index":179,"time_elapsed":2188948,"internal_node_id":"0.0-5.0-75.0"},{"group":"hexagon_bi","fractal_assignment":["../images/pnk_blu.png","../images/ylw_slt.png","../images/org_blu.png","../images/gry_blk.png","../images/blu_wht.png","../images/cyn_red.png"],"mutagen_generator_assignment":[1,0],"goal":5,"start":4,"action_noise":0.2,"location_history":"[4,3,2,3,2,1,0,1,2,3,4,5]","action_history":"[0,0,0,1,0,0,1,0,1,0,1]","mutagen_history":"[1,1,1,0,1,1,0,1,0,1,0]","location_rts":"[565,331,925,579,484,600,248,458,650,382,204]","trial_type":"fractal-mutation","trial_index":180,"time_elapsed":2209243,"internal_node_id":"0.0-5.0-76.0"},{"group":"hexagon_bi","fractal_assignment":["../images/pnk_blu.png","../images/ylw_slt.png","../images/org_blu.png","../images/gry_blk.png","../images/blu_wht.png","../images/cyn_red.png"],"mutagen_generator_assignment":[1,0],"goal":2,"start":5,"action_noise":0.2,"location_history":"[5,0,1,2]","action_history":"[0,1,0]","mutagen_history":"[1,0,1]","location_rts":"[1936,226,444]","trial_type":"fractal-mutation","trial_index":181,"time_elapsed":2218456,"internal_node_id":"0.0-5.0-77.0"},{"group":"hexagon_bi","fractal_assignment":["../images/pnk_blu.png","../images/ylw_slt.png","../images/org_blu.png","../images/gry_blk.png","../images/blu_wht.png","../images/cyn_red.png"],"mutagen_generator_assignment":[1,0],"goal":3,"start":2,"action_noise":0.2,"location_history":"[2,3]","action_history":"[1]","mutagen_history":"[0]","location_rts":"[1184]","trial_type":"fractal-mutation","trial_index":182,"time_elapsed":2224177,"internal_node_id":"0.0-5.0-78.0"},{"group":"hexagon_bi","fractal_assignment":["../images/pnk_blu.png","../images/ylw_slt.png","../images/org_blu.png","../images/gry_blk.png","../images/blu_wht.png","../images/cyn_red.png"],"mutagen_generator_assignment":[1,0],"goal":1,"start":3,"action_noise":0.2,"location_history":"[3,2,1]","action_history":"[1,0]","mutagen_history":"[0,1]","location_rts":"[1200,404]","trial_type":"fractal-mutation","trial_index":183,"time_elapsed":2231355,"internal_node_id":"0.0-5.0-79.0"},{"group":"hexagon_bi","fractal_assignment":["../images/pnk_blu.png","../images/ylw_slt.png","../images/org_blu.png","../images/gry_blk.png","../images/blu_wht.png","../images/cyn_red.png"],"mutagen_generator_assignment":[1,0],"goal":4,"start":1,"action_noise":0.2,"location_history":"[1,2,1,2,3,4]","action_history":"[0,1,0,1,0]","mutagen_history":"[1,0,1,0,1]","location_rts":"[969,583,630,449,541]","trial_type":"fractal-mutation","trial_index":184,"time_elapsed":2243200,"internal_node_id":"0.0-5.0-80.0"},{"group":"hexagon_bi","fractal_assignment":["../images/pnk_blu.png","../images/ylw_slt.png","../images/org_blu.png","../images/gry_blk.png","../images/blu_wht.png","../images/cyn_red.png"],"mutagen_generator_assignment":[1,0],"goal":5,"start":4,"action_noise":0.2,"location_history":"[4,5]","action_history":"[0]","mutagen_history":"[1]","location_rts":"[1189]","trial_type":"fractal-mutation","trial_index":185,"time_elapsed":2248933,"internal_node_id":"0.0-5.0-81.0"},{"group":"hexagon_bi","fractal_assignment":["../images/pnk_blu.png","../images/ylw_slt.png","../images/org_blu.png","../images/gry_blk.png","../images/blu_wht.png","../images/cyn_red.png"],"mutagen_generator_assignment":[1,0],"goal":0,"start":5,"action_noise":0.2,"location_history":"[5,4,3,2,1,0]","action_history":"[0,0,1,0,1]","mutagen_history":"[1,1,0,1,0]","location_rts":"[1459,68,275,649,479]","trial_type":"fractal-mutation","trial_index":186,"time_elapsed":2260533,"internal_node_id":"0.0-5.0-82.0"},{"group":"hexagon_bi","fractal_assignment":["../images/pnk_blu.png","../images/ylw_slt.png","../images/org_blu.png","../images/gry_blk.png","../images/blu_wht.png","../images/cyn_red.png"],"mutagen_generator_assignment":[1,0],"goal":2,"start":0,"action_noise":0.2,"location_history":"[0,1,2]","action_history":"[1,0]","mutagen_history":"[0,1]","location_rts":"[1141,91]","trial_type":"fractal-mutation","trial_index":187,"time_elapsed":2267331,"internal_node_id":"0.0-5.0-83.0"},{"group":"hexagon_bi","fractal_assignment":["../images/pnk_blu.png","../images/ylw_slt.png","../images/org_blu.png","../images/gry_blk.png","../images/blu_wht.png","../images/cyn_red.png"],"mutagen_generator_assignment":[1,0],"goal":0,"start":2,"action_noise":0.2,"location_history":"[2,1,0]","action_history":"[0,1]","mutagen_history":"[1,0]","location_rts":"[1485,240]","trial_type":"fractal-mutation","trial_index":188,"time_elapsed":2274626,"internal_node_id":"0.0-5.0-84.0"},{"group":"hexagon_bi","fractal_assignment":["../images/pnk_blu.png","../images/ylw_slt.png","../images/org_blu.png","../images/gry_blk.png","../images/blu_wht.png","../images/cyn_red.png"],"mutagen_generator_assignment":[1,0],"goal":5,"start":0,"action_noise":0.2,"location_history":"[0,1,2,1,2,3,4,3,4,5]","action_history":"[1,1,1,0,1,0,1,0,1]","mutagen_history":"[0,0,0,1,0,1,0,1,0]","location_rts":"[1032,531,614,451,263,251,250,1625,210]","trial_type":"fractal-mutation","trial_index":189,"time_elapsed":2292642,"internal_node_id":"0.0-5.0-85.0"},{"group":"hexagon_bi","fractal_assignment":["../images/pnk_blu.png","../images/ylw_slt.png","../images/org_blu.png","../images/gry_blk.png","../images/blu_wht.png","../images/cyn_red.png"],"mutagen_generator_assignment":[1,0],"goal":1,"start":5,"action_noise":0.2,"location_history":"[5,4,5,0,1]","action_history":"[0,1,0,1]","mutagen_history":"[1,0,1,0]","location_rts":"[2262,266,274,260]","trial_type":"fractal-mutation","trial_index":190,"time_elapsed":2303342,"internal_node_id":"0.0-5.0-86.0"},{"group":"hexagon_bi","fractal_assignment":["../images/pnk_blu.png","../images/ylw_slt.png","../images/org_blu.png","../images/gry_blk.png","../images/blu_wht.png","../images/cyn_red.png"],"mutagen_generator_assignment":[1,0],"goal":4,"start":1,"action_noise":0.2,"location_history":"[1,0,5,4]","action_history":"[1,0,1]","mutagen_history":"[0,1,0]","location_rts":"[1805,198,647]","trial_type":"fractal-mutation","trial_index":191,"time_elapsed":2312598,"internal_node_id":"0.0-5.0-87.0"},{"group":"hexagon_bi","fractal_assignment":["../images/pnk_blu.png","../images/ylw_slt.png","../images/org_blu.png","../images/gry_blk.png","../images/blu_wht.png","../images/cyn_red.png"],"mutagen_generator_assignment":[1,0],"goal":3,"start":4,"action_noise":0.2,"location_history":"[4,3]","action_history":"[0]","mutagen_history":"[1]","location_rts":"[1195]","trial_type":"fractal-mutation","trial_index":192,"time_elapsed":2318345,"internal_node_id":"0.0-5.0-88.0"},{"group":"hexagon_bi","fractal_assignment":["../images/pnk_blu.png","../images/ylw_slt.png","../images/org_blu.png","../images/gry_blk.png","../images/blu_wht.png","../images/cyn_red.png"],"mutagen_generator_assignment":[1,0],"goal":5,"start":3,"action_noise":0.2,"location_history":"[3,4,5]","action_history":"[0,1]","mutagen_history":"[1,0]","location_rts":"[1808,259]","trial_type":"fractal-mutation","trial_index":193,"time_elapsed":2326205,"internal_node_id":"0.0-5.0-89.0"},{"group":"hexagon_bi","fractal_assignment":["../images/pnk_blu.png","../images/ylw_slt.png","../images/org_blu.png","../images/gry_blk.png","../images/blu_wht.png","../images/cyn_red.png"],"mutagen_generator_assignment":[1,0],"goal":1,"start":5,"action_noise":0.2,"location_history":"[5,4,3,4,3,2,1]","action_history":"[1,0,1,0,1,0]","mutagen_history":"[0,1,0,1,0,1]","location_rts":"[13420,532,147,199,378,466]","trial_type":"fractal-mutation","trial_index":194,"time_elapsed":2352205,"internal_node_id":"0.0-5.0-90.0"},{"group":"hexagon_bi","fractal_assignment":["../images/pnk_blu.png","../images/ylw_slt.png","../images/org_blu.png","../images/gry_blk.png","../images/blu_wht.png","../images/cyn_red.png"],"mutagen_generator_assignment":[1,0],"goal":2,"start":1,"action_noise":0.2,"location_history":"[1,0,5,4,3,4,3,2]","action_history":"[1,0,1,0,1,0,1]","mutagen_history":"[0,1,0,1,0,1,0]","location_rts":"[6765,753,287,173,167,609,185]","trial_type":"fractal-mutation","trial_index":195,"time_elapsed":2372875,"internal_node_id":"0.0-5.0-91.0"},{"group":"hexagon_bi","fractal_assignment":["../images/pnk_blu.png","../images/ylw_slt.png","../images/org_blu.png","../images/gry_blk.png","../images/blu_wht.png","../images/cyn_red.png"],"mutagen_generator_assignment":[1,0],"goal":4,"start":2,"action_noise":0.2,"location_history":"[2,3,2,3,2,3,4]","action_history":"[0,1,1,0,1,0]","mutagen_history":"[1,0,0,1,0,1]","location_rts":"[1369,508,782,330,719,251]","trial_type":"fractal-mutation","trial_index":196,"time_elapsed":2386541,"internal_node_id":"0.0-5.0-92.0"},{"group":"hexagon_bi","fractal_assignment":["../images/pnk_blu.png","../images/ylw_slt.png","../images/org_blu.png","../images/gry_blk.png","../images/blu_wht.png","../images/cyn_red.png"],"mutagen_generator_assignment":[1,0],"goal":0,"start":4,"action_noise":0.2,"location_history":"[4,3,4,5,0]","action_history":"[0,0,1,0]","mutagen_history":"[1,1,0,1]","location_rts":"[1916,420,196,198]","trial_type":"fractal-mutation","trial_index":197,"time_elapsed":2396920,"internal_node_id":"0.0-5.0-93.0"},{"group":"hexagon_bi","fractal_assignment":["../images/pnk_blu.png","../images/ylw_slt.png","../images/org_blu.png","../images/gry_blk.png","../images/blu_wht.png","../images/cyn_red.png"],"mutagen_generator_assignment":[1,0],"goal":3,"start":0,"action_noise":0.2,"location_history":"[0,1,2,3]","action_history":"[1,0,1]","mutagen_history":"[0,1,0]","location_rts":"[1488,240,265]","trial_type":"fractal-mutation","trial_index":198,"time_elapsed":2405516,"internal_node_id":"0.0-5.0-94.0"},{"group":"hexagon_bi","fractal_assignment":["../images/pnk_blu.png","../images/ylw_slt.png","../images/org_blu.png","../images/gry_blk.png","../images/blu_wht.png","../images/cyn_red.png"],"mutagen_generator_assignment":[1,0],"goal":0,"start":3,"action_noise":0.2,"location_history":"[3,2,1,0]","action_history":"[1,0,1]","mutagen_history":"[0,1,0]","location_rts":"[1233,264,561]","trial_type":"fractal-mutation","trial_index":199,"time_elapsed":2414172,"internal_node_id":"0.0-5.0-95.0"},{"group":"hexagon_bi","fractal_assignment":["../images/pnk_blu.png","../images/ylw_slt.png","../images/org_blu.png","../images/gry_blk.png","../images/blu_wht.png","../images/cyn_red.png"],"mutagen_generator_assignment":[1,0],"goal":4,"start":0,"action_noise":0.2,"location_history":"[0,5,4]","action_history":"[0,1]","mutagen_history":"[1,0]","location_rts":"[1511,283]","trial_type":"fractal-mutation","trial_index":200,"time_elapsed":2421537,"internal_node_id":"0.0-5.0-96.0"},{"group":"hexagon_bi","fractal_assignment":["../images/pnk_blu.png","../images/ylw_slt.png","../images/org_blu.png","../images/gry_blk.png","../images/blu_wht.png","../images/cyn_red.png"],"mutagen_generator_assignment":[1,0],"goal":5,"start":4,"action_noise":0.2,"location_history":"[4,3,2,1,2,3,4,5]","action_history":"[1,0,1,0,1,0,1]","mutagen_history":"[0,1,0,1,0,1,0]","location_rts":"[1519,1157,772,505,542,190,217]","trial_type":"fractal-mutation","trial_index":201,"time_elapsed":2437164,"internal_node_id":"0.0-5.0-97.0"},{"group":"hexagon_bi","fractal_assignment":["../images/pnk_blu.png","../images/ylw_slt.png","../images/org_blu.png","../images/gry_blk.png","../images/blu_wht.png","../images/cyn_red.png"],"mutagen_generator_assignment":[1,0],"goal":2,"start":5,"action_noise":0.2,"location_history":"[5,4,3,2]","action_history":"[1,0,1]","mutagen_history":"[0,1,0]","location_rts":"[2236,431,604]","trial_type":"fractal-mutation","trial_index":202,"time_elapsed":2447037,"internal_node_id":"0.0-5.0-98.0"},{"group":"hexagon_bi","fractal_assignment":["../images/pnk_blu.png","../images/ylw_slt.png","../images/org_blu.png","../images/gry_blk.png","../images/blu_wht.png","../images/cyn_red.png"],"mutagen_generator_assignment":[1,0],"goal":1,"start":2,"action_noise":0.2,"location_history":"[2,1]","action_history":"[0]","mutagen_history":"[1]","location_rts":"[1783]","trial_type":"fractal-mutation","trial_index":203,"time_elapsed":2453360,"internal_node_id":"0.0-5.0-99.0"},{"view_history":"[{\"page_index\":0,\"viewing_time\":2460}]","rt":2461,"trial_type":"instructions","trial_index":204,"time_elapsed":2456823,"internal_node_id":"0.0-6.0"},{"rt":23587,"responses":"{\"Q0\":\"How well people can create a mental map in their heads.\"}","trial_type":"survey-text","trial_index":205,"time_elapsed":2481420,"internal_node_id":"0.0-7.0-0.0"},{"rt":30350,"responses":"{\"Q0\":\"How well people can transform one pattern into another in their head.\"}","trial_type":"survey-text","trial_index":206,"time_elapsed":2512775,"internal_node_id":"0.0-7.0-1.0"},{"rt":23395,"responses":"{\"Q0\":\"<img src='../images/diagrams/hexagon_bi.png'>\"}","trial_type":"survey-multi-choice","trial_index":207,"time_elapsed":2537178,"internal_node_id":"0.0-7.0-2.0"},{"rt":20995,"assignments":["../images/pnk_blu.png","../images/cyn_red.png","../images/blu_wht.png","../images/gry_blk.png","../images/org_blu.png","../images/ylw_slt.png"],"trial_type":"drag-drop-on-image","trial_index":208,"time_elapsed":2559175,"internal_node_id":"0.0-7.0-3.0"},{"rt":3691,"responses":"{\"Q0\":\"4\"}","trial_type":"survey-likert","trial_index":209,"time_elapsed":2563872,"internal_node_id":"0.0-7.0-4.0"},{"rt":75699,"responses":"{\"Q0\":\"There were always two choices, and each choice had a reliable outcome unless the randomness kicked in from the experiment.\"}","trial_type":"survey-text","trial_index":210,"time_elapsed":2640575,"internal_node_id":"0.0-7.0-5.0"},{"rt":4531,"responses":"{\"Q0\":\"Yes\"}","trial_type":"survey-multi-choice","trial_index":211,"time_elapsed":2646113,"internal_node_id":"0.0-7.0-6.0"},{"rt":18539,"responses":"{\"Q0\":\"During session 1\"}","trial_type":"survey-multi-choice","trial_index":212,"time_elapsed":2665655,"internal_node_id":"0.0-7.0-7.0"},{"rt":49980,"responses":"{\"Q0\":\"The two tasks were basically the same at their core, it was just the visual input and whether a mouse or keyboard were used that were different.\"}","trial_type":"survey-text","trial_index":213,"time_elapsed":2716639,"internal_node_id":"0.0-7.0-8.0"},{"rt":7206,"responses":"{\"Q0\":\"3\"}","trial_type":"survey-likert","trial_index":214,"time_elapsed":2724848,"internal_node_id":"0.0-7.0-9.0"},{"rt":8243,"responses":"{\"Q0\":\"Same structure\"}","trial_type":"survey-multi-choice","trial_index":215,"time_elapsed":2734095,"internal_node_id":"0.0-7.0-10.0"},{"rt":41411,"responses":"{\"Q0\":\"left (white) door = ray, right (black) door = acid\",\"Q1\":\"Completely confident\"}","trial_type":"survey-multi-choice","trial_index":216,"time_elapsed":2776512,"internal_node_id":"0.0-7.0-11.0"},{"rt":7104,"responses":"{\"Q0\":\"25-35\",\"Q1\":\"Associates or other two-year degree\",\"Q2\":\"Male\",\"Q3\":\"White\"}","trial_type":"survey-multi-choice","trial_index":217,"time_elapsed":2784633,"internal_node_id":"0.0-8.0"},{"rt":6420,"responses":"{\"Q0\":\"It was fun, thanks!\"}","trial_type":"survey-text","trial_index":218,"time_elapsed":2792055,"internal_node_id":"0.0-9.0"}]