[{"view_history":"[{\"page_index\":0,\"viewing_time\":188305},{\"page_index\":1,\"viewing_time\":13636}]","rt":201942,"trial_type":"instructions","trial_index":0,"time_elapsed":201944,"internal_node_id":"0.0-0.0"},{"view_history":"[{\"page_index\":0,\"viewing_time\":7177},{\"page_index\":1,\"viewing_time\":25759}]","rt":32936,"trial_type":"instructions","trial_index":1,"time_elapsed":235882,"internal_node_id":"0.0-1.0"},{"group":"hexagon_tri","room_assignment":["red","grey","yellow","green","purple","blue"],"door_color_assignment":["black","white"],"door_generator_assignment":[1,0],"goal":2,"start":1,"action_noise":0.2,"location_history":"[1,3,4,0,1,5,0,1,3,4,0,5,0,1,5,0,5,4,0,1,3,2]","action_history":"[0,1,0,0,1,0,1,0,1,1,0,1,1,1,1,0,0,0,1,0,0]","door_history":"[1,0,1,1,0,1,0,1,0,0,1,0,0,0,0,1,1,1,0,1,1]","location_rts":"[2205,1300,2567,1632,1788,1404,1903,2252,1409,1277,2302,1982,2068,1780,1942,1255,1531,2013,2168,2612,2794]","trial_type":"two-door-navigation","trial_index":2,"time_elapsed":300798,"internal_node_id":"0.0-2.0-0.0"},{"group":"hexagon_tri","room_assignment":["red","grey","yellow","green","purple","blue"],"door_color_assignment":["black","white"],"door_generator_assignment":[1,0],"goal":0,"start":2,"action_noise":0.2,"location_history":"[2,3,2,1,5,0]","action_history":"[1,1,0,1,0]","door_history":"[0,0,1,0,1]","location_rts":"[2434,1164,1376,1744,1409]","trial_type":"two-door-navigation","trial_index":3,"time_elapsed":317479,"internal_node_id":"0.0-2.0-1.0"},{"group":"hexagon_tri","room_assignment":["red","grey","yellow","green","purple","blue"],"door_color_assignment":["black","white"],"door_generator_assignment":[1,0],"goal":5,"start":0,"action_noise":0.2,"location_history":"[0,1,3,2,3,4,2,3,4,0,5]","action_history":"[1,1,0,1,1,0,1,1,1,0]","door_history":"[0,0,1,0,0,1,0,0,0,1]","location_rts":"[2110,1587,1282,1951,1513,2080,1323,1445,1483,3338]","trial_type":"two-door-navigation","trial_index":4,"time_elapsed":349195,"internal_node_id":"0.0-2.0-2.0"},{"group":"hexagon_tri","room_assignment":["red","grey","yellow","green","purple","blue"],"door_color_assignment":["black","white"],"door_generator_assignment":[1,0],"goal":3,"start":5,"action_noise":0.2,"location_history":"[5,0,1,5,4,2,3]","action_history":"[1,1,0,0,1,1]","door_history":"[0,0,1,1,0,0]","location_rts":"[3448,1996,1797,1482,1334,1429]","trial_type":"two-door-navigation","trial_index":5,"time_elapsed":370224,"internal_node_id":"0.0-2.0-3.0"},{"group":"hexagon_tri","room_assignment":["red","grey","yellow","green","purple","blue"],"door_color_assignment":["black","white"],"door_generator_assignment":[1,0],"goal":4,"start":3,"action_noise":0.2,"location_history":"[3,2,3,2,3,4]","action_history":"[1,1,0,0,1]","door_history":"[0,0,1,1,0]","location_rts":"[2355,991,1380,1212,1559]","trial_type":"two-door-navigation","trial_index":6,"time_elapsed":386262,"internal_node_id":"0.0-2.0-4.0"},{"group":"hexagon_tri","room_assignment":["red","grey","yellow","green","purple","blue"],"door_color_assignment":["black","white"],"door_generator_assignment":[1,0],"goal":0,"start":4,"action_noise":0.2,"location_history":"[4,2,1,3,4,2,3,4,2,3,4,0]","action_history":"[1,0,0,1,1,0,0,1,1,1,0]","door_history":"[0,1,1,0,0,1,1,0,0,0,1]","location_rts":"[2377,1240,1842,1581,2248,2358,1606,1429,1571,1426,1731]","trial_type":"two-door-navigation","trial_index":7,"time_elapsed":420264,"internal_node_id":"0.0-2.0-5.0"},{"group":"hexagon_tri","room_assignment":["red","grey","yellow","green","purple","blue"],"door_color_assignment":["black","white"],"door_generator_assignment":[1,0],"goal":4,"start":0,"action_noise":0.2,"location_history":"[0,1,3,2,1,5,4]","action_history":"[1,0,1,1,1,0]","door_history":"[0,1,0,0,0,1]","location_rts":"[1557,1968,1604,1261,2891,1644]","trial_type":"two-door-navigation","trial_index":8,"time_elapsed":440737,"internal_node_id":"0.0-2.0-6.0"},{"group":"hexagon_tri","room_assignment":["red","grey","yellow","green","purple","blue"],"door_color_assignment":["black","white"],"door_generator_assignment":[1,0],"goal":3,"start":4,"action_noise":0.2,"location_history":"[4,2,1,3]","action_history":"[0,1,0]","door_history":"[1,0,1]","location_rts":"[3290,1452,1520]","trial_type":"two-door-navigation","trial_index":9,"time_elapsed":453528,"internal_node_id":"0.0-2.0-7.0"},{"group":"hexagon_tri","room_assignment":["red","grey","yellow","green","purple","blue"],"door_color_assignment":["black","white"],"door_generator_assignment":[1,0],"goal":2,"start":3,"action_noise":0.2,"location_history":"[3,4,2]","action_history":"[1,1]","door_history":"[0,0]","location_rts":"[2273,1418]","trial_type":"two-door-navigation","trial_index":10,"time_elapsed":462738,"internal_node_id":"0.0-2.0-8.0"},{"group":"hexagon_tri","room_assignment":["red","grey","yellow","green","purple","blue"],"door_color_assignment":["black","white"],"door_generator_assignment":[1,0],"goal":1,"start":2,"action_noise":0.2,"location_history":"[2,3,2,1]","action_history":"[1,0,0]","door_history":"[0,1,1]","location_rts":"[1691,1226,1523]","trial_type":"two-door-navigation","trial_index":11,"time_elapsed":473704,"internal_node_id":"0.0-2.0-9.0"},{"group":"hexagon_tri","room_assignment":["red","grey","yellow","green","purple","blue"],"door_color_assignment":["black","white"],"door_generator_assignment":[1,0],"goal":5,"start":1,"action_noise":0.2,"location_history":"[1,5]","action_history":"[1]","door_history":"[0]","location_rts":"[2003]","trial_type":"two-door-navigation","trial_index":12,"time_elapsed":480218,"internal_node_id":"0.0-2.0-10.0"},{"group":"hexagon_tri","room_assignment":["red","grey","yellow","green","purple","blue"],"door_color_assignment":["black","white"],"door_generator_assignment":[1,0],"goal":0,"start":5,"action_noise":0.2,"location_history":"[5,0]","action_history":"[1]","door_history":"[0]","location_rts":"[4988]","trial_type":"two-door-navigation","trial_index":13,"time_elapsed":489714,"internal_node_id":"0.0-2.0-11.0"},{"group":"hexagon_tri","room_assignment":["red","grey","yellow","green","purple","blue"],"door_color_assignment":["black","white"],"door_generator_assignment":[1,0],"goal":4,"start":0,"action_noise":0.2,"location_history":"[0,5,0,5,4]","action_history":"[0,1,0,0]","door_history":"[1,0,1,1]","location_rts":"[3469,1527,1814,1017]","trial_type":"two-door-navigation","trial_index":14,"time_elapsed":505082,"internal_node_id":"0.0-2.0-12.0"},{"group":"hexagon_tri","room_assignment":["red","grey","yellow","green","purple","blue"],"door_color_assignment":["black","white"],"door_generator_assignment":[1,0],"goal":2,"start":4,"action_noise":0.2,"location_history":"[4,0,1,3,4,2]","action_history":"[0,1,0,1,1]","door_history":"[1,0,1,0,0]","location_rts":"[4690,1589,1575,1928,1551]","trial_type":"two-door-navigation","trial_index":15,"time_elapsed":524965,"internal_node_id":"0.0-2.0-13.0"},{"group":"hexagon_tri","room_assignment":["red","grey","yellow","green","purple","blue"],"door_color_assignment":["black","white"],"door_generator_assignment":[1,0],"goal":1,"start":2,"action_noise":0.2,"location_history":"[2,1]","action_history":"[1]","door_history":"[0]","location_rts":"[1980]","trial_type":"two-door-navigation","trial_index":16,"time_elapsed":531453,"internal_node_id":"0.0-2.0-14.0"},{"group":"hexagon_tri","room_assignment":["red","grey","yellow","green","purple","blue"],"door_color_assignment":["black","white"],"door_generator_assignment":[1,0],"goal":3,"start":1,"action_noise":0.2,"location_history":"[1,3]","action_history":"[0]","door_history":"[1]","location_rts":"[2288]","trial_type":"two-door-navigation","trial_index":17,"time_elapsed":538248,"internal_node_id":"0.0-2.0-15.0"},{"group":"hexagon_tri","room_assignment":["red","grey","yellow","green","purple","blue"],"door_color_assignment":["black","white"],"door_generator_assignment":[1,0],"goal":5,"start":3,"action_noise":0.2,"location_history":"[3,4,2,1,5]","action_history":"[1,1,0,1]","door_history":"[0,0,1,0]","location_rts":"[1889,2610,1807,1575]","trial_type":"two-door-navigation","trial_index":18,"time_elapsed":553668,"internal_node_id":"0.0-2.0-16.0"},{"group":"hexagon_tri","room_assignment":["red","grey","yellow","green","purple","blue"],"door_color_assignment":["black","white"],"door_generator_assignment":[1,0],"goal":0,"start":5,"action_noise":0.2,"location_history":"[5,4,0]","action_history":"[0,1]","door_history":"[1,0]","location_rts":"[2816,2348]","trial_type":"two-door-navigation","trial_index":19,"time_elapsed":564349,"internal_node_id":"0.0-2.0-17.0"},{"group":"hexagon_tri","room_assignment":["red","grey","yellow","green","purple","blue"],"door_color_assignment":["black","white"],"door_generator_assignment":[1,0],"goal":5,"start":0,"action_noise":0.2,"location_history":"[0,5]","action_history":"[1]","door_history":"[0]","location_rts":"[2572]","trial_type":"two-door-navigation","trial_index":20,"time_elapsed":571435,"internal_node_id":"0.0-2.0-18.0"},{"group":"hexagon_tri","room_assignment":["red","grey","yellow","green","purple","blue"],"door_color_assignment":["black","white"],"door_generator_assignment":[1,0],"goal":3,"start":5,"action_noise":0.2,"location_history":"[5,4,2,1,3]","action_history":"[0,1,0,0]","door_history":"[1,0,1,1]","location_rts":"[1988,2091,1521,1605]","trial_type":"two-door-navigation","trial_index":21,"time_elapsed":586179,"internal_node_id":"0.0-2.0-19.0"},{"group":"hexagon_tri","room_assignment":["red","grey","yellow","green","purple","blue"],"door_color_assignment":["black","white"],"door_generator_assignment":[1,0],"goal":4,"start":3,"action_noise":0.2,"location_history":"[3,4]","action_history":"[1]","door_history":"[0]","location_rts":"[1492]","trial_type":"two-door-navigation","trial_index":22,"time_elapsed":592186,"internal_node_id":"0.0-2.0-20.0"},{"group":"hexagon_tri","room_assignment":["red","grey","yellow","green","purple","blue"],"door_color_assignment":["black","white"],"door_generator_assignment":[1,0],"goal":1,"start":4,"action_noise":0.2,"location_history":"[4,2,1]","action_history":"[1,0]","door_history":"[0,1]","location_rts":"[1561,1375]","trial_type":"two-door-navigation","trial_index":23,"time_elapsed":600648,"internal_node_id":"0.0-2.0-21.0"},{"group":"hexagon_tri","room_assignment":["red","grey","yellow","green","purple","blue"],"door_color_assignment":["black","white"],"door_generator_assignment":[1,0],"goal":2,"start":1,"action_noise":0.2,"location_history":"[1,5,4,2]","action_history":"[1,0,1]","door_history":"[0,1,0]","location_rts":"[2020,1491,1810]","trial_type":"two-door-navigation","trial_index":24,"time_elapsed":612504,"internal_node_id":"0.0-2.0-22.0"},{"group":"hexagon_tri","room_assignment":["red","grey","yellow","green","purple","blue"],"door_color_assignment":["black","white"],"door_generator_assignment":[1,0],"goal":3,"start":2,"action_noise":0.2,"location_history":"[2,1,5,4,0,1,3]","action_history":"[0,0,1,0,1,0]","door_history":"[1,1,0,1,0,1]","location_rts":"[3517,1500,2170,1060,1324,1326]","trial_type":"two-door-navigation","trial_index":25,"time_elapsed":632953,"internal_node_id":"0.0-2.0-23.0"},{"group":"hexagon_tri","room_assignment":["red","grey","yellow","green","purple","blue"],"door_color_assignment":["black","white"],"door_generator_assignment":[1,0],"goal":5,"start":3,"action_noise":0.2,"location_history":"[3,2,3,2,1,5]","action_history":"[1,1,0,0,1]","door_history":"[0,0,1,1,0]","location_rts":"[1848,2166,1417,1520,1651]","trial_type":"two-door-navigation","trial_index":26,"time_elapsed":650107,"internal_node_id":"0.0-2.0-24.0"},{"group":"hexagon_tri","room_assignment":["red","grey","yellow","green","purple","blue"],"door_color_assignment":["black","white"],"door_generator_assignment":[1,0],"goal":4,"start":5,"action_noise":0.2,"location_history":"[5,4]","action_history":"[0]","door_history":"[1]","location_rts":"[3244]","trial_type":"two-door-navigation","trial_index":27,"time_elapsed":657868,"internal_node_id":"0.0-2.0-25.0"},{"group":"hexagon_tri","room_assignment":["red","grey","yellow","green","purple","blue"],"door_color_assignment":["black","white"],"door_generator_assignment":[1,0],"goal":0,"start":4,"action_noise":0.2,"location_history":"[4,2,3,4,0]","action_history":"[0,1,1,0]","door_history":"[1,0,0,1]","location_rts":"[2486,2707,1421,1490]","trial_type":"two-door-navigation","trial_index":28,"time_elapsed":673518,"internal_node_id":"0.0-2.0-26.0"},{"group":"hexagon_tri","room_assignment":["red","grey","yellow","green","purple","blue"],"door_color_assignment":["black","white"],"door_generator_assignment":[1,0],"goal":2,"start":0,"action_noise":0.2,"location_history":"[0,5,0,1,3,2]","action_history":"[0,1,1,0,0]","door_history":"[1,0,0,1,1]","location_rts":"[2249,1177,996,1281,1506]","trial_type":"two-door-navigation","trial_index":29,"time_elapsed":689271,"internal_node_id":"0.0-2.0-27.0"},{"group":"hexagon_tri","room_assignment":["red","grey","yellow","green","purple","blue"],"door_color_assignment":["black","white"],"door_generator_assignment":[1,0],"goal":1,"start":2,"action_noise":0.2,"location_history":"[2,3,2,1]","action_history":"[1,1,0]","door_history":"[0,0,1]","location_rts":"[1980,1403,1367]","trial_type":"two-door-navigation","trial_index":30,"time_elapsed":700553,"internal_node_id":"0.0-2.0-28.0"},{"group":"hexagon_tri","room_assignment":["red","grey","yellow","green","purple","blue"],"door_color_assignment":["black","white"],"door_generator_assignment":[1,0],"goal":0,"start":1,"action_noise":0.2,"location_history":"[1,5,0]","action_history":"[0,1]","door_history":"[1,0]","location_rts":"[3467,1345]","trial_type":"two-door-navigation","trial_index":31,"time_elapsed":710884,"internal_node_id":"0.0-2.0-29.0"},{"group":"hexagon_tri","room_assignment":["red","grey","yellow","green","purple","blue"],"door_color_assignment":["black","white"],"door_generator_assignment":[1,0],"goal":2,"start":0,"action_noise":0.2,"location_history":"[0,1,3,2]","action_history":"[0,1,0]","door_history":"[1,0,1]","location_rts":"[3115,2948,3127]","trial_type":"two-door-navigation","trial_index":32,"time_elapsed":726604,"internal_node_id":"0.0-2.0-30.0"},{"group":"hexagon_tri","room_assignment":["red","grey","yellow","green","purple","blue"],"door_color_assignment":["black","white"],"door_generator_assignment":[1,0],"goal":4,"start":2,"action_noise":0.2,"location_history":"[2,1,5,4]","action_history":"[0,1,0]","door_history":"[1,0,1]","location_rts":"[2226,1801,2843]","trial_type":"two-door-navigation","trial_index":33,"time_elapsed":740011,"internal_node_id":"0.0-2.0-31.0"},{"group":"hexagon_tri","room_assignment":["red","grey","yellow","green","purple","blue"],"door_color_assignment":["black","white"],"door_generator_assignment":[1,0],"goal":1,"start":4,"action_noise":0.2,"location_history":"[4,2,1]","action_history":"[1,0]","door_history":"[0,1]","location_rts":"[4340,1089]","trial_type":"two-door-navigation","trial_index":34,"time_elapsed":750966,"internal_node_id":"0.0-2.0-32.0"},{"group":"hexagon_tri","room_assignment":["red","grey","yellow","green","purple","blue"],"door_color_assignment":["black","white"],"door_generator_assignment":[1,0],"goal":3,"start":1,"action_noise":0.2,"location_history":"[1,3]","action_history":"[0]","door_history":"[1]","location_rts":"[4367]","trial_type":"two-door-navigation","trial_index":35,"time_elapsed":759844,"internal_node_id":"0.0-2.0-33.0"},{"group":"hexagon_tri","room_assignment":["red","grey","yellow","green","purple","blue"],"door_color_assignment":["black","white"],"door_generator_assignment":[1,0],"goal":5,"start":3,"action_noise":0.2,"location_history":"[3,4,2,1,3,4,0,5]","action_history":"[1,1,0,0,1,0,1]","door_history":"[0,0,1,1,0,1,0]","location_rts":"[1893,2609,1369,853,1195,2404,1369]","trial_type":"two-door-navigation","trial_index":36,"time_elapsed":782134,"internal_node_id":"0.0-2.0-34.0"},{"group":"hexagon_tri","room_assignment":["red","grey","yellow","green","purple","blue"],"door_color_assignment":["black","white"],"door_generator_assignment":[1,0],"goal":2,"start":5,"action_noise":0.2,"location_history":"[5,4,0,1,3,2]","action_history":"[0,1,0,1,0]","door_history":"[1,0,1,0,1]","location_rts":"[6036,4600,1608,2220,3522]","trial_type":"two-door-navigation","trial_index":37,"time_elapsed":808669,"internal_node_id":"0.0-2.0-35.0"},{"group":"hexagon_tri","room_assignment":["red","grey","yellow","green","purple","blue"],"door_color_assignment":["black","white"],"door_generator_assignment":[1,0],"goal":0,"start":2,"action_noise":0.2,"location_history":"[2,3,4,2,3,2,3,4,0]","action_history":"[1,1,0,0,0,1,1,0]","door_history":"[0,0,1,1,1,0,0,1]","location_rts":"[4841,1527,1265,1375,2038,2667,1279,2562]","trial_type":"two-door-navigation","trial_index":38,"time_elapsed":837796,"internal_node_id":"0.0-2.0-36.0"},{"group":"hexagon_tri","room_assignment":["red","grey","yellow","green","purple","blue"],"door_color_assignment":["black","white"],"door_generator_assignment":[1,0],"goal":4,"start":0,"action_noise":0.2,"location_history":"[0,1,3,2,1,3,4]","action_history":"[1,0,0,1,1,1]","door_history":"[0,1,1,0,0,0]","location_rts":"[1555,3374,1244,1183,1305,1585]","trial_type":"two-door-navigation","trial_index":39,"time_elapsed":857603,"internal_node_id":"0.0-2.0-37.0"},{"group":"hexagon_tri","room_assignment":["red","grey","yellow","green","purple","blue"],"door_color_assignment":["black","white"],"door_generator_assignment":[1,0],"goal":5,"start":4,"action_noise":0.2,"location_history":"[4,0,5]","action_history":"[0,0]","door_history":"[1,1]","location_rts":"[2402,1594]","trial_type":"two-door-navigation","trial_index":40,"time_elapsed":867120,"internal_node_id":"0.0-2.0-38.0"},{"group":"hexagon_tri","room_assignment":["red","grey","yellow","green","purple","blue"],"door_color_assignment":["black","white"],"door_generator_assignment":[1,0],"goal":1,"start":5,"action_noise":0.2,"location_history":"[5,0,5,4,2,3,2,3,4,2,3,4,0,5,0,1]","action_history":"[0,1,1,0,1,0,1,1,1,1,0,0,0,0,1]","door_history":"[1,0,0,1,0,1,0,0,0,0,1,1,1,1,0]","location_rts":"[3614,1294,1929,1887,2055,1826,975,1622,1970,1518,1698,2101,3094,3275,1783]","trial_type":"two-door-navigation","trial_index":41,"time_elapsed":916380,"internal_node_id":"0.0-2.0-39.0"},{"group":"hexagon_tri","room_assignment":["red","grey","yellow","green","purple","blue"],"door_color_assignment":["black","white"],"door_generator_assignment":[1,0],"goal":3,"start":1,"action_noise":0.2,"location_history":"[1,5,0,1,3]","action_history":"[0,1,1,0]","door_history":"[1,0,0,1]","location_rts":"[3758,1392,3037,1600]","trial_type":"two-door-navigation","trial_index":42,"time_elapsed":933704,"internal_node_id":"0.0-2.0-40.0"},{"group":"hexagon_tri","room_assignment":["red","grey","yellow","green","purple","blue"],"door_color_assignment":["black","white"],"door_generator_assignment":[1,0],"goal":1,"start":3,"action_noise":0.2,"location_history":"[3,4,0,5,4,0,5,4,2,1]","action_history":"[1,0,1,1,0,0,0,1,1]","door_history":"[0,1,0,0,1,1,1,0,0]","location_rts":"[3383,1636,1587,1654,1669,1785,2742,1379,1740]","trial_type":"two-door-navigation","trial_index":43,"time_elapsed":963856,"internal_node_id":"0.0-2.0-41.0"},{"group":"hexagon_tri","room_assignment":["red","grey","yellow","green","purple","blue"],"door_color_assignment":["black","white"],"door_generator_assignment":[1,0],"goal":0,"start":1,"action_noise":0.2,"location_history":"[1,5,4,0]","action_history":"[1,0,0]","door_history":"[0,1,1]","location_rts":"[2523,1339,1218]","trial_type":"two-door-navigation","trial_index":44,"time_elapsed":975461,"internal_node_id":"0.0-2.0-42.0"},{"group":"hexagon_tri","room_assignment":["red","grey","yellow","green","purple","blue"],"door_color_assignment":["black","white"],"door_generator_assignment":[1,0],"goal":4,"start":0,"action_noise":0.2,"location_history":"[0,1,5,4]","action_history":"[0,1,0]","door_history":"[1,0,1]","location_rts":"[4171,2348,1935]","trial_type":"two-door-navigation","trial_index":45,"time_elapsed":990447,"internal_node_id":"0.0-2.0-43.0"},{"group":"hexagon_tri","room_assignment":["red","grey","yellow","green","purple","blue"],"door_color_assignment":["black","white"],"door_generator_assignment":[1,0],"goal":2,"start":4,"action_noise":0.2,"location_history":"[4,2]","action_history":"[1]","door_history":"[0]","location_rts":"[3969]","trial_type":"two-door-navigation","trial_index":46,"time_elapsed":998927,"internal_node_id":"0.0-2.0-44.0"},{"group":"hexagon_tri","room_assignment":["red","grey","yellow","green","purple","blue"],"door_color_assignment":["black","white"],"door_generator_assignment":[1,0],"goal":3,"start":2,"action_noise":0.2,"location_history":"[2,3]","action_history":"[1]","door_history":"[0]","location_rts":"[1745]","trial_type":"two-door-navigation","trial_index":47,"time_elapsed":1005185,"internal_node_id":"0.0-2.0-45.0"},{"group":"hexagon_tri","room_assignment":["red","grey","yellow","green","purple","blue"],"door_color_assignment":["black","white"],"door_generator_assignment":[1,0],"goal":5,"start":3,"action_noise":0.2,"location_history":"[3,4,0,5]","action_history":"[1,0,0]","door_history":"[0,1,1]","location_rts":"[1573,1347,4008]","trial_type":"two-door-navigation","trial_index":48,"time_elapsed":1018640,"internal_node_id":"0.0-2.0-46.0"},{"group":"hexagon_tri","room_assignment":["red","grey","yellow","green","purple","blue"],"door_color_assignment":["black","white"],"door_generator_assignment":[1,0],"goal":4,"start":5,"action_noise":0.2,"location_history":"[5,4]","action_history":"[0]","door_history":"[1]","location_rts":"[5201]","trial_type":"two-door-navigation","trial_index":49,"time_elapsed":1028351,"internal_node_id":"0.0-2.0-47.0"},{"group":"hexagon_tri","room_assignment":["red","grey","yellow","green","purple","blue"],"door_color_assignment":["black","white"],"door_generator_assignment":[1,0],"goal":3,"start":4,"action_noise":0.2,"location_history":"[4,0,1,3]","action_history":"[0,1,0]","door_history":"[1,0,1]","location_rts":"[2939,1524,2040]","trial_type":"two-door-navigation","trial_index":50,"time_elapsed":1041379,"internal_node_id":"0.0-2.0-48.0"},{"group":"hexagon_tri","room_assignment":["red","grey","yellow","green","purple","blue"],"door_color_assignment":["black","white"],"door_generator_assignment":[1,0],"goal":1,"start":3,"action_noise":0.2,"location_history":"[3,4,0,1]","action_history":"[1,0,1]","door_history":"[0,1,0]","location_rts":"[2469,2135,1425]","trial_type":"two-door-navigation","trial_index":51,"time_elapsed":1053930,"internal_node_id":"0.0-2.0-49.0"},{"group":"hexagon_tri","room_assignment":["red","grey","yellow","green","purple","blue"],"door_color_assignment":["black","white"],"door_generator_assignment":[1,0],"goal":2,"start":1,"action_noise":0.2,"location_history":"[1,5,4,2]","action_history":"[1,0,0]","door_history":"[0,1,1]","location_rts":"[3809,1264,1482]","trial_type":"two-door-navigation","trial_index":52,"time_elapsed":1067011,"internal_node_id":"0.0-2.0-50.0"},{"group":"hexagon_tri","room_assignment":["red","grey","yellow","green","purple","blue"],"door_color_assignment":["black","white"],"door_generator_assignment":[1,0],"goal":0,"start":2,"action_noise":0.2,"location_history":"[2,1,5,0]","action_history":"[0,1,1]","door_history":"[1,0,0]","location_rts":"[3907,1952,1790]","trial_type":"two-door-navigation","trial_index":53,"time_elapsed":1081189,"internal_node_id":"0.0-2.0-51.0"},{"group":"hexagon_tri","room_assignment":["red","grey","yellow","green","purple","blue"],"door_color_assignment":["black","white"],"door_generator_assignment":[1,0],"goal":5,"start":0,"action_noise":0.2,"location_history":"[0,1,5]","action_history":"[0,1]","door_history":"[1,0]","location_rts":"[2065,2189]","trial_type":"two-door-navigation","trial_index":54,"time_elapsed":1090961,"internal_node_id":"0.0-2.0-52.0"},{"group":"hexagon_tri","room_assignment":["red","grey","yellow","green","purple","blue"],"door_color_assignment":["black","white"],"door_generator_assignment":[1,0],"goal":1,"start":5,"action_noise":0.2,"location_history":"[5,0,1]","action_history":"[0,1]","door_history":"[1,0]","location_rts":"[2398,1237]","trial_type":"two-door-navigation","trial_index":55,"time_elapsed":1100115,"internal_node_id":"0.0-2.0-53.0"},{"group":"hexagon_tri","room_assignment":["red","grey","yellow","green","purple","blue"],"door_color_assignment":["black","white"],"door_generator_assignment":[1,0],"goal":3,"start":1,"action_noise":0.2,"location_history":"[1,5,4,0,5,0,5,4,2,1,5,0,5,4,2,1,5,0,5,4,0,5,0,1,5,4,2,3]","action_history":"[1,0,0,1,1,0,0,1,0,1,0,1,0,1,0,0,1,0,0,0,0,1,1,1,0,0,1]","door_history":"[0,1,1,0,0,1,1,0,1,0,1,0,1,0,1,1,0,1,1,1,1,0,0,0,1,1,0]","location_rts":"[2719,1746,1413,1406,2123,1565,1391,1943,5230,3881,1758,1676,1615,2812,3037,1593,1753,1879,1773,1620,2111,1394,2237,2689,2780,1016,1303]","trial_type":"two-door-navigation","trial_index":56,"time_elapsed":1187286,"internal_node_id":"0.0-2.0-54.0"},{"group":"hexagon_tri","room_assignment":["red","grey","yellow","green","purple","blue"],"door_color_assignment":["black","white"],"door_generator_assignment":[1,0],"goal":5,"start":3,"action_noise":0.2,"location_history":"[3,2,1,5]","action_history":"[1,0,1]","door_history":"[0,1,0]","location_rts":"[3414,1784,2387]","trial_type":"two-door-navigation","trial_index":57,"time_elapsed":1201398,"internal_node_id":"0.0-2.0-55.0"},{"group":"hexagon_tri","room_assignment":["red","grey","yellow","green","purple","blue"],"door_color_assignment":["black","white"],"door_generator_assignment":[1,0],"goal":4,"start":5,"action_noise":0.2,"location_history":"[5,4]","action_history":"[0]","door_history":"[1]","location_rts":"[5298]","trial_type":"two-door-navigation","trial_index":58,"time_elapsed":1211210,"internal_node_id":"0.0-2.0-56.0"},{"group":"hexagon_tri","room_assignment":["red","grey","yellow","green","purple","blue"],"door_color_assignment":["black","white"],"door_generator_assignment":[1,0],"goal":0,"start":4,"action_noise":0.2,"location_history":"[4,0]","action_history":"[0]","door_history":"[1]","location_rts":"[4091]","trial_type":"two-door-navigation","trial_index":59,"time_elapsed":1219808,"internal_node_id":"0.0-2.0-57.0"},{"group":"hexagon_tri","room_assignment":["red","grey","yellow","green","purple","blue"],"door_color_assignment":["black","white"],"door_generator_assignment":[1,0],"goal":2,"start":0,"action_noise":0.2,"location_history":"[0,5,0,1,3,2]","action_history":"[0,1,1,0,0]","door_history":"[1,0,0,1,1]","location_rts":"[3762,1519,1496,1547,1780]","trial_type":"two-door-navigation","trial_index":60,"time_elapsed":1238467,"internal_node_id":"0.0-2.0-58.0"},{"group":"hexagon_tri","room_assignment":["red","grey","yellow","green","purple","blue"],"door_color_assignment":["black","white"],"door_generator_assignment":[1,0],"goal":4,"start":2,"action_noise":0.2,"location_history":"[2,1,3,2,3,4]","action_history":"[0,1,0,0,1]","door_history":"[1,0,1,1,0]","location_rts":"[3433,1660,2764,1619,1496]","trial_type":"two-door-navigation","trial_index":61,"time_elapsed":1257981,"internal_node_id":"0.0-2.0-59.0"},{"group":"hexagon_tri","room_assignment":["red","grey","yellow","green","purple","blue"],"door_color_assignment":["black","white"],"door_generator_assignment":[1,0],"goal":2,"start":4,"action_noise":0.2,"location_history":"[4,0,1,3,2]","action_history":"[0,0,0,0]","door_history":"[1,1,1,1]","location_rts":"[3624,1996,1381,970]","trial_type":"two-door-navigation","trial_index":62,"time_elapsed":1273483,"internal_node_id":"0.0-2.0-60.0"},{"group":"hexagon_tri","room_assignment":["red","grey","yellow","green","purple","blue"],"door_color_assignment":["black","white"],"door_generator_assignment":[1,0],"goal":3,"start":2,"action_noise":0.2,"location_history":"[2,3]","action_history":"[1]","door_history":"[0]","location_rts":"[2966]","trial_type":"two-door-navigation","trial_index":63,"time_elapsed":1280962,"internal_node_id":"0.0-2.0-61.0"},{"group":"hexagon_tri","room_assignment":["red","grey","yellow","green","purple","blue"],"door_color_assignment":["black","white"],"door_generator_assignment":[1,0],"goal":0,"start":3,"action_noise":0.2,"location_history":"[3,4,2,1,5,0]","action_history":"[1,1,0,1,1]","door_history":"[0,0,1,0,0]","location_rts":"[2050,1461,2897,2134,2849]","trial_type":"two-door-navigation","trial_index":64,"time_elapsed":1300896,"internal_node_id":"0.0-2.0-62.0"},{"group":"hexagon_tri","room_assignment":["red","grey","yellow","green","purple","blue"],"door_color_assignment":["black","white"],"door_generator_assignment":[1,0],"goal":5,"start":0,"action_noise":0.2,"location_history":"[0,1,3,4,0,1,5]","action_history":"[0,1,1,0,1,1]","door_history":"[1,0,0,1,0,0]","location_rts":"[1825,1693,3067,2015,1540,1212]","trial_type":"two-door-navigation","trial_index":65,"time_elapsed":1321789,"internal_node_id":"0.0-2.0-63.0"},{"group":"hexagon_tri","room_assignment":["red","grey","yellow","green","purple","blue"],"door_color_assignment":["black","white"],"door_generator_assignment":[1,0],"goal":1,"start":5,"action_noise":0.2,"location_history":"[5,4,0,1]","action_history":"[0,0,1]","door_history":"[1,1,0]","location_rts":"[3556,2136,3946]","trial_type":"two-door-navigation","trial_index":66,"time_elapsed":1337953,"internal_node_id":"0.0-2.0-64.0"},{"group":"hexagon_tri","room_assignment":["red","grey","yellow","green","purple","blue"],"door_color_assignment":["black","white"],"door_generator_assignment":[1,0],"goal":5,"start":1,"action_noise":0.2,"location_history":"[1,3,4,2,3,2,1,5]","action_history":"[1,0,1,1,0,0,1]","door_history":"[0,1,0,0,1,1,0]","location_rts":"[2736,1330,4635,1752,1361,875,1491]","trial_type":"two-door-navigation","trial_index":67,"time_elapsed":1362696,"internal_node_id":"0.0-2.0-65.0"},{"group":"hexagon_tri","room_assignment":["red","grey","yellow","green","purple","blue"],"door_color_assignment":["black","white"],"door_generator_assignment":[1,0],"goal":3,"start":5,"action_noise":0.2,"location_history":"[5,0,5,0,1,3]","action_history":"[1,0,1,1,0]","door_history":"[0,1,0,0,1]","location_rts":"[2931,1565,1395,1097,1656]","trial_type":"two-door-navigation","trial_index":68,"time_elapsed":1379883,"internal_node_id":"0.0-2.0-66.0"},{"group":"hexagon_tri","room_assignment":["red","grey","yellow","green","purple","blue"],"door_color_assignment":["black","white"],"door_generator_assignment":[1,0],"goal":2,"start":3,"action_noise":0.2,"location_history":"[3,2]","action_history":"[0]","door_history":"[1]","location_rts":"[1629]","trial_type":"two-door-navigation","trial_index":69,"time_elapsed":1386019,"internal_node_id":"0.0-2.0-67.0"},{"group":"hexagon_tri","room_assignment":["red","grey","yellow","green","purple","blue"],"door_color_assignment":["black","white"],"door_generator_assignment":[1,0],"goal":1,"start":2,"action_noise":0.2,"location_history":"[2,3,2,1]","action_history":"[1,0,1]","door_history":"[0,1,0]","location_rts":"[1631,1235,1087]","trial_type":"two-door-navigation","trial_index":70,"time_elapsed":1396489,"internal_node_id":"0.0-2.0-68.0"},{"group":"hexagon_tri","room_assignment":["red","grey","yellow","green","purple","blue"],"door_color_assignment":["black","white"],"door_generator_assignment":[1,0],"goal":4,"start":1,"action_noise":0.2,"location_history":"[1,5,4]","action_history":"[1,0]","door_history":"[0,1]","location_rts":"[2970,2493]","trial_type":"two-door-navigation","trial_index":71,"time_elapsed":1407473,"internal_node_id":"0.0-2.0-69.0"},{"group":"hexagon_tri","room_assignment":["red","grey","yellow","green","purple","blue"],"door_color_assignment":["black","white"],"door_generator_assignment":[1,0],"goal":0,"start":4,"action_noise":0.2,"location_history":"[4,0]","action_history":"[0]","door_history":"[1]","location_rts":"[2635]","trial_type":"two-door-navigation","trial_index":72,"time_elapsed":1414618,"internal_node_id":"0.0-2.0-70.0"},{"group":"hexagon_tri","room_assignment":["red","grey","yellow","green","purple","blue"],"door_color_assignment":["black","white"],"door_generator_assignment":[1,0],"goal":3,"start":0,"action_noise":0.2,"location_history":"[0,1,3]","action_history":"[1,0]","door_history":"[0,1]","location_rts":"[2629,1538]","trial_type":"two-door-navigation","trial_index":73,"time_elapsed":1424308,"internal_node_id":"0.0-2.0-71.0"},{"group":"hexagon_tri","room_assignment":["red","grey","yellow","green","purple","blue"],"door_color_assignment":["black","white"],"door_generator_assignment":[1,0],"goal":1,"start":3,"action_noise":0.2,"location_history":"[3,4,0,5,4,2,1]","action_history":"[1,0,0,0,1,1]","door_history":"[0,1,1,1,0,0]","location_rts":"[1709,1284,1185,2502,1178,1617]","trial_type":"two-door-navigation","trial_index":74,"time_elapsed":1443349,"internal_node_id":"0.0-2.0-72.0"},{"group":"hexagon_tri","room_assignment":["red","grey","yellow","green","purple","blue"],"door_color_assignment":["black","white"],"door_generator_assignment":[1,0],"goal":0,"start":1,"action_noise":0.2,"location_history":"[1,5,0]","action_history":"[1,1]","door_history":"[0,0]","location_rts":"[1716,981]","trial_type":"two-door-navigation","trial_index":75,"time_elapsed":1451563,"internal_node_id":"0.0-2.0-73.0"},{"group":"hexagon_tri","room_assignment":["red","grey","yellow","green","purple","blue"],"door_color_assignment":["black","white"],"door_generator_assignment":[1,0],"goal":2,"start":0,"action_noise":0.2,"location_history":"[0,1,3,4,2]","action_history":"[0,0,0,1]","door_history":"[1,1,1,0]","location_rts":"[2086,973,776,1084]","trial_type":"two-door-navigation","trial_index":76,"time_elapsed":1464014,"internal_node_id":"0.0-2.0-74.0"},{"group":"hexagon_tri","room_assignment":["red","grey","yellow","green","purple","blue"],"door_color_assignment":["black","white"],"door_generator_assignment":[1,0],"goal":4,"start":2,"action_noise":0.2,"location_history":"[2,3,2,3,4]","action_history":"[1,0,1,1]","door_history":"[0,1,0,0]","location_rts":"[2026,1553,1045,682]","trial_type":"two-door-navigation","trial_index":77,"time_elapsed":1476856,"internal_node_id":"0.0-2.0-75.0"},{"group":"hexagon_tri","room_assignment":["red","grey","yellow","green","purple","blue"],"door_color_assignment":["black","white"],"door_generator_assignment":[1,0],"goal":5,"start":4,"action_noise":0.2,"location_history":"[4,2,1,3,4,2,3,2,3,4,2,3,4,2,3,2,3,4,2,1,5]","action_history":"[1,0,1,1,0,1,1,1,1,1,1,1,0,1,0,0,1,1,0,1]","door_history":"[0,1,0,0,1,0,0,0,0,0,0,0,1,0,1,1,0,0,1,0]","location_rts":"[1523,2407,1529,2681,3709,1069,1924,1741,1071,4164,1458,1385,1617,1539,1630,721,2297,2763,3371,1813]","trial_type":"two-door-navigation","trial_index":78,"time_elapsed":1540938,"internal_node_id":"0.0-2.0-76.0"},{"group":"hexagon_tri","room_assignment":["red","grey","yellow","green","purple","blue"],"door_color_assignment":["black","white"],"door_generator_assignment":[1,0],"goal":2,"start":5,"action_noise":0.2,"location_history":"[5,0,5,4,0,5,4,0,1,3,2]","action_history":"[1,0,0,1,0,1,0,1,0,0]","door_history":"[0,1,1,0,1,0,1,0,1,1]","location_rts":"[3193,1715,1228,1636,1511,2163,3276,1482,1262,635]","trial_type":"two-door-navigation","trial_index":79,"time_elapsed":1572621,"internal_node_id":"0.0-2.0-77.0"},{"group":"hexagon_tri","room_assignment":["red","grey","yellow","green","purple","blue"],"door_color_assignment":["black","white"],"door_generator_assignment":[1,0],"goal":3,"start":2,"action_noise":0.2,"location_history":"[2,3]","action_history":"[1]","door_history":"[0]","location_rts":"[2174]","trial_type":"two-door-navigation","trial_index":80,"time_elapsed":1579308,"internal_node_id":"0.0-2.0-78.0"},{"group":"hexagon_tri","room_assignment":["red","grey","yellow","green","purple","blue"],"door_color_assignment":["black","white"],"door_generator_assignment":[1,0],"goal":1,"start":3,"action_noise":0.2,"location_history":"[3,4,2,3,4,2,3,4,0,1]","action_history":"[1,0,1,1,1,1,1,0,1]","door_history":"[0,1,0,0,0,0,0,1,0]","location_rts":"[2222,1271,1357,724,1647,1494,976,1475,1282]","trial_type":"two-door-navigation","trial_index":81,"time_elapsed":1604324,"internal_node_id":"0.0-2.0-79.0"},{"group":"hexagon_tri","room_assignment":["red","grey","yellow","green","purple","blue"],"door_color_assignment":["black","white"],"door_generator_assignment":[1,0],"goal":4,"start":1,"action_noise":0.2,"location_history":"[1,5,0,1,5,0,5,0,1,5,0,5,4]","action_history":"[1,0,1,1,1,0,1,0,1,1,0,0]","door_history":"[0,1,0,0,0,1,0,1,0,0,1,1]","location_rts":"[2122,1473,1345,1851,2535,1356,1843,1163,1586,1388,1646,1372]","trial_type":"two-door-navigation","trial_index":82,"time_elapsed":1639625,"internal_node_id":"0.0-2.0-80.0"},{"group":"hexagon_tri","room_assignment":["red","grey","yellow","green","purple","blue"],"door_color_assignment":["black","white"],"door_generator_assignment":[1,0],"goal":5,"start":4,"action_noise":0.2,"location_history":"[4,2,1,5]","action_history":"[1,0,1]","door_history":"[0,1,0]","location_rts":"[1699,4067,1325]","trial_type":"two-door-navigation","trial_index":83,"time_elapsed":1653246,"internal_node_id":"0.0-2.0-81.0"},{"group":"hexagon_tri","room_assignment":["red","grey","yellow","green","purple","blue"],"door_color_assignment":["black","white"],"door_generator_assignment":[1,0],"goal":0,"start":5,"action_noise":0.2,"location_history":"[5,4,0]","action_history":"[0,0]","door_history":"[1,1]","location_rts":"[2968,1450]","trial_type":"two-door-navigation","trial_index":84,"time_elapsed":1663183,"internal_node_id":"0.0-2.0-82.0"},{"group":"hexagon_tri","room_assignment":["red","grey","yellow","green","purple","blue"],"door_color_assignment":["black","white"],"door_generator_assignment":[1,0],"goal":2,"start":0,"action_noise":0.2,"location_history":"[0,1,3,2]","action_history":"[1,0,0]","door_history":"[0,1,1]","location_rts":"[2193,1241,789]","trial_type":"two-door-navigation","trial_index":85,"time_elapsed":1673928,"internal_node_id":"0.0-2.0-83.0"},{"group":"hexagon_tri","room_assignment":["red","grey","yellow","green","purple","blue"],"door_color_assignment":["black","white"],"door_generator_assignment":[1,0],"goal":0,"start":2,"action_noise":0.2,"location_history":"[2,1,5,0]","action_history":"[0,1,1]","door_history":"[1,0,0]","location_rts":"[1778,1803,2386]","trial_type":"two-door-navigation","trial_index":86,"time_elapsed":1686418,"internal_node_id":"0.0-2.0-84.0"},{"group":"hexagon_tri","room_assignment":["red","grey","yellow","green","purple","blue"],"door_color_assignment":["black","white"],"door_generator_assignment":[1,0],"goal":5,"start":0,"action_noise":0.2,"location_history":"[0,5]","action_history":"[0]","door_history":"[1]","location_rts":"[2037]","trial_type":"two-door-navigation","trial_index":87,"time_elapsed":1692967,"internal_node_id":"0.0-2.0-85.0"},{"group":"hexagon_tri","room_assignment":["red","grey","yellow","green","purple","blue"],"door_color_assignment":["black","white"],"door_generator_assignment":[1,0],"goal":1,"start":5,"action_noise":0.2,"location_history":"[5,0,1]","action_history":"[0,0]","door_history":"[1,1]","location_rts":"[3710,1336]","trial_type":"two-door-navigation","trial_index":88,"time_elapsed":1703532,"internal_node_id":"0.0-2.0-86.0"},{"group":"hexagon_tri","room_assignment":["red","grey","yellow","green","purple","blue"],"door_color_assignment":["black","white"],"door_generator_assignment":[1,0],"goal":4,"start":1,"action_noise":0.2,"location_history":"[1,5,4]","action_history":"[1,0]","door_history":"[0,1]","location_rts":"[1750,1720]","trial_type":"two-door-navigation","trial_index":89,"time_elapsed":1712518,"internal_node_id":"0.0-2.0-87.0"},{"group":"hexagon_tri","room_assignment":["red","grey","yellow","green","purple","blue"],"door_color_assignment":["black","white"],"door_generator_assignment":[1,0],"goal":3,"start":4,"action_noise":0.2,"location_history":"[4,0,1,3]","action_history":"[1,1,0]","door_history":"[0,0,1]","location_rts":"[1770,1116,1198]","trial_type":"two-door-navigation","trial_index":90,"time_elapsed":1723133,"internal_node_id":"0.0-2.0-88.0"},{"group":"hexagon_tri","room_assignment":["red","grey","yellow","green","purple","blue"],"door_color_assignment":["black","white"],"door_generator_assignment":[1,0],"goal":5,"start":3,"action_noise":0.2,"location_history":"[3,4,0,1,5]","action_history":"[1,1,1,1]","door_history":"[0,0,0,0]","location_rts":"[1433,2253,1556,1082]","trial_type":"two-door-navigation","trial_index":91,"time_elapsed":1736988,"internal_node_id":"0.0-2.0-89.0"},{"group":"hexagon_tri","room_assignment":["red","grey","yellow","green","purple","blue"],"door_color_assignment":["black","white"],"door_generator_assignment":[1,0],"goal":1,"start":5,"action_noise":0.2,"location_history":"[5,4,0,1]","action_history":"[0,0,1]","door_history":"[1,1,0]","location_rts":"[2346,1860,1788]","trial_type":"two-door-navigation","trial_index":92,"time_elapsed":1749514,"internal_node_id":"0.0-2.0-90.0"},{"group":"hexagon_tri","room_assignment":["red","grey","yellow","green","purple","blue"],"door_color_assignment":["black","white"],"door_generator_assignment":[1,0],"goal":2,"start":1,"action_noise":0.2,"location_history":"[1,3,2]","action_history":"[0,0]","door_history":"[1,1]","location_rts":"[2058,725]","trial_type":"two-door-navigation","trial_index":93,"time_elapsed":1757810,"internal_node_id":"0.0-2.0-91.0"},{"group":"hexagon_tri","room_assignment":["red","grey","yellow","green","purple","blue"],"door_color_assignment":["black","white"],"door_generator_assignment":[1,0],"goal":4,"start":2,"action_noise":0.2,"location_history":"[2,1,5,0,1,5,4]","action_history":"[0,1,0,1,1,0]","door_history":"[1,0,1,0,0,1]","location_rts":"[1919,1374,887,1647,2299,771]","trial_type":"two-door-navigation","trial_index":94,"time_elapsed":1776262,"internal_node_id":"0.0-2.0-92.0"},{"group":"hexagon_tri","room_assignment":["red","grey","yellow","green","purple","blue"],"door_color_assignment":["black","white"],"door_generator_assignment":[1,0],"goal":0,"start":4,"action_noise":0.2,"location_history":"[4,2,1,5,0]","action_history":"[1,0,1,1]","door_history":"[0,1,0,0]","location_rts":"[3347,1332,3351,948]","trial_type":"two-door-navigation","trial_index":95,"time_elapsed":1792777,"internal_node_id":"0.0-2.0-93.0"},{"group":"hexagon_tri","room_assignment":["red","grey","yellow","green","purple","blue"],"door_color_assignment":["black","white"],"door_generator_assignment":[1,0],"goal":3,"start":0,"action_noise":0.2,"location_history":"[0,5,4,0,1,3]","action_history":"[0,0,0,1,0]","door_history":"[1,1,1,0,1]","location_rts":"[1633,1651,926,1280,944]","trial_type":"two-door-navigation","trial_index":96,"time_elapsed":1807746,"internal_node_id":"0.0-2.0-94.0"},{"group":"hexagon_tri","room_assignment":["red","grey","yellow","green","purple","blue"],"door_color_assignment":["black","white"],"door_generator_assignment":[1,0],"goal":0,"start":3,"action_noise":0.2,"location_history":"[3,2,1,5,0]","action_history":"[1,0,1,1]","door_history":"[0,1,0,0]","location_rts":"[4423,2074,1135,1509]","trial_type":"two-door-navigation","trial_index":97,"time_elapsed":1824421,"internal_node_id":"0.0-2.0-95.0"},{"group":"hexagon_tri","room_assignment":["red","grey","yellow","green","purple","blue"],"door_color_assignment":["black","white"],"door_generator_assignment":[1,0],"goal":4,"start":0,"action_noise":0.2,"location_history":"[0,5,4]","action_history":"[0,0]","door_history":"[1,1]","location_rts":"[3835,1494]","trial_type":"two-door-navigation","trial_index":98,"time_elapsed":1835266,"internal_node_id":"0.0-2.0-96.0"},{"group":"hexagon_tri","room_assignment":["red","grey","yellow","green","purple","blue"],"door_color_assignment":["black","white"],"door_generator_assignment":[1,0],"goal":5,"start":4,"action_noise":0.2,"location_history":"[4,2,1,5]","action_history":"[1,0,1]","door_history":"[0,1,0]","location_rts":"[4227,1244,1119]","trial_type":"two-door-navigation","trial_index":99,"time_elapsed":1848382,"internal_node_id":"0.0-2.0-97.0"},{"group":"hexagon_tri","room_assignment":["red","grey","yellow","green","purple","blue"],"door_color_assignment":["black","white"],"door_generator_assignment":[1,0],"goal":2,"start":5,"action_noise":0.2,"location_history":"[5,4,0,5,4,0,1,5,4,2]","action_history":"[0,0,1,0,0,1,0,0,1]","door_history":"[1,1,0,1,1,0,1,1,0]","location_rts":"[2861,1994,1406,1613,1271,1035,930,1232,1441]","trial_type":"two-door-navigation","trial_index":100,"time_elapsed":1874735,"internal_node_id":"0.0-2.0-98.0"},{"group":"hexagon_tri","room_assignment":["red","grey","yellow","green","purple","blue"],"door_color_assignment":["black","white"],"door_generator_assignment":[1,0],"goal":1,"start":2,"action_noise":0.2,"location_history":"[2,3,4,0,1]","action_history":"[1,1,0,1]","door_history":"[0,0,1,0]","location_rts":"[1699,823,1423,1007]","trial_type":"two-door-navigation","trial_index":101,"time_elapsed":1887233,"internal_node_id":"0.0-2.0-99.0"},{"view_history":"[{\"page_index\":0,\"viewing_time\":19357}]","rt":19357,"trial_type":"instructions","trial_index":102,"time_elapsed":1907590,"internal_node_id":"0.0-3.0"},{"view_history":"[{\"page_index\":0,\"viewing_time\":3223},{\"page_index\":1,\"viewing_time\":16504}]","rt":19728,"trial_type":"instructions","trial_index":103,"time_elapsed":1928318,"internal_node_id":"0.0-4.0"},{"group":"hexagon_bi","fractal_assignment":["../images/ylw_slt.png","../images/pnk_blu.png","../images/cyn_red.png","../images/blu_wht.png","../images/gry_blk.png","../images/org_blu.png"],"mutagen_generator_assignment":[0,1],"goal":2,"start":1,"action_noise":0.2,"location_history":"[1,0,5,4,3,2]","action_history":"[1,0,1,1,0]","mutagen_history":"[1,0,1,1,0]","location_rts":"[3866,1228,1345,1034,1334]","trial_type":"fractal-mutation","trial_index":104,"time_elapsed":1946392,"internal_node_id":"0.0-5.0-0.0"},{"group":"hexagon_bi","fractal_assignment":["../images/ylw_slt.png","../images/pnk_blu.png","../images/cyn_red.png","../images/blu_wht.png","../images/gry_blk.png","../images/org_blu.png"],"mutagen_generator_assignment":[0,1],"goal":0,"start":2,"action_noise":0.2,"location_history":"[2,1,0]","action_history":"[0,1]","mutagen_history":"[0,1]","location_rts":"[2298,1493]","trial_type":"fractal-mutation","trial_index":105,"time_elapsed":1955978,"internal_node_id":"0.0-5.0-1.0"},{"group":"hexagon_bi","fractal_assignment":["../images/ylw_slt.png","../images/pnk_blu.png","../images/cyn_red.png","../images/blu_wht.png","../images/gry_blk.png","../images/org_blu.png"],"mutagen_generator_assignment":[0,1],"goal":5,"start":0,"action_noise":0.2,"location_history":"[0,5]","action_history":"[0]","mutagen_history":"[0]","location_rts":"[4831]","trial_type":"fractal-mutation","trial_index":106,"time_elapsed":1965408,"internal_node_id":"0.0-5.0-2.0"},{"group":"hexagon_bi","fractal_assignment":["../images/ylw_slt.png","../images/pnk_blu.png","../images/cyn_red.png","../images/blu_wht.png","../images/gry_blk.png","../images/org_blu.png"],"mutagen_generator_assignment":[0,1],"goal":3,"start":5,"action_noise":0.2,"location_history":"[5,0,5,0,1,2,3]","action_history":"[0,0,1,1,0,1]","mutagen_history":"[0,0,1,1,0,1]","location_rts":"[2594,1066,1087,966,2225,1989]","trial_type":"fractal-mutation","trial_index":107,"time_elapsed":1985702,"internal_node_id":"0.0-5.0-3.0"},{"group":"hexagon_bi","fractal_assignment":["../images/ylw_slt.png","../images/pnk_blu.png","../images/cyn_red.png","../images/blu_wht.png","../images/gry_blk.png","../images/org_blu.png"],"mutagen_generator_assignment":[0,1],"goal":4,"start":3,"action_noise":0.2,"location_history":"[3,4]","action_history":"[0]","mutagen_history":"[0]","location_rts":"[1390]","trial_type":"fractal-mutation","trial_index":108,"time_elapsed":1991699,"internal_node_id":"0.0-5.0-4.0"},{"group":"hexagon_bi","fractal_assignment":["../images/ylw_slt.png","../images/pnk_blu.png","../images/cyn_red.png","../images/blu_wht.png","../images/gry_blk.png","../images/org_blu.png"],"mutagen_generator_assignment":[0,1],"goal":0,"start":4,"action_noise":0.2,"location_history":"[4,3,2,3,2,1,0]","action_history":"[1,1,0,0,0,1]","mutagen_history":"[1,1,0,0,0,1]","location_rts":"[2105,939,2879,997,938,3082]","trial_type":"fractal-mutation","trial_index":109,"time_elapsed":2012955,"internal_node_id":"0.0-5.0-5.0"},{"group":"hexagon_bi","fractal_assignment":["../images/ylw_slt.png","../images/pnk_blu.png","../images/cyn_red.png","../images/blu_wht.png","../images/gry_blk.png","../images/org_blu.png"],"mutagen_generator_assignment":[0,1],"goal":4,"start":0,"action_noise":0.2,"location_history":"[0,1,2,1,2,1,0,1,0,5,4]","action_history":"[1,0,0,0,1,1,1,1,1,1]","mutagen_history":"[1,0,0,0,1,1,1,1,1,1]","location_rts":"[2774,949,903,844,522,739,748,1084,396,1489]","trial_type":"fractal-mutation","trial_index":110,"time_elapsed":2038412,"internal_node_id":"0.0-5.0-6.0"},{"group":"hexagon_bi","fractal_assignment":["../images/ylw_slt.png","../images/pnk_blu.png","../images/cyn_red.png","../images/blu_wht.png","../images/gry_blk.png","../images/org_blu.png"],"mutagen_generator_assignment":[0,1],"goal":3,"start":4,"action_noise":0.2,"location_history":"[4,5,0,5,4,5,0,1,2,3]","action_history":"[1,0,0,1,1,0,1,0,1]","mutagen_history":"[1,0,0,1,1,0,1,0,1]","location_rts":"[2607,1151,992,913,758,868,2351,2008,622]","trial_type":"fractal-mutation","trial_index":111,"time_elapsed":2064431,"internal_node_id":"0.0-5.0-7.0"},{"group":"hexagon_bi","fractal_assignment":["../images/ylw_slt.png","../images/pnk_blu.png","../images/cyn_red.png","../images/blu_wht.png","../images/gry_blk.png","../images/org_blu.png"],"mutagen_generator_assignment":[0,1],"goal":2,"start":3,"action_noise":0.2,"location_history":"[3,4,3,2]","action_history":"[0,0,1]","mutagen_history":"[0,0,1]","location_rts":"[1497,971,1266]","trial_type":"fractal-mutation","trial_index":112,"time_elapsed":2075027,"internal_node_id":"0.0-5.0-8.0"},{"group":"hexagon_bi","fractal_assignment":["../images/ylw_slt.png","../images/pnk_blu.png","../images/cyn_red.png","../images/blu_wht.png","../images/gry_blk.png","../images/org_blu.png"],"mutagen_generator_assignment":[0,1],"goal":1,"start":2,"action_noise":0.2,"location_history":"[2,3,2,3,4,5,4,5,0,5,4,3,2,1]","action_history":"[0,1,1,0,1,1,1,0,0,0,0,0,0]","mutagen_history":"[0,1,1,0,1,1,1,0,0,0,0,0,0]","location_rts":"[1531,743,836,924,1287,4157,1306,853,1047,1138,1262,983,1056]","trial_type":"fractal-mutation","trial_index":113,"time_elapsed":2110290,"internal_node_id":"0.0-5.0-9.0"},{"group":"hexagon_bi","fractal_assignment":["../images/ylw_slt.png","../images/pnk_blu.png","../images/cyn_red.png","../images/blu_wht.png","../images/gry_blk.png","../images/org_blu.png"],"mutagen_generator_assignment":[0,1],"goal":5,"start":1,"action_noise":0.2,"location_history":"[1,0,5]","action_history":"[0,1]","mutagen_history":"[0,1]","location_rts":"[2076,747]","trial_type":"fractal-mutation","trial_index":114,"time_elapsed":2118886,"internal_node_id":"0.0-5.0-10.0"},{"group":"hexagon_bi","fractal_assignment":["../images/ylw_slt.png","../images/pnk_blu.png","../images/cyn_red.png","../images/blu_wht.png","../images/gry_blk.png","../images/org_blu.png"],"mutagen_generator_assignment":[0,1],"goal":0,"start":5,"action_noise":0.2,"location_history":"[5,0]","action_history":"[0]","mutagen_history":"[0]","location_rts":"[1279]","trial_type":"fractal-mutation","trial_index":115,"time_elapsed":2124767,"internal_node_id":"0.0-5.0-11.0"},{"group":"hexagon_bi","fractal_assignment":["../images/ylw_slt.png","../images/pnk_blu.png","../images/cyn_red.png","../images/blu_wht.png","../images/gry_blk.png","../images/org_blu.png"],"mutagen_generator_assignment":[0,1],"goal":4,"start":0,"action_noise":0.2,"location_history":"[0,1,0,5,4]","action_history":"[1,1,0,1]","mutagen_history":"[1,1,0,1]","location_rts":"[2098,1507,2784,800]","trial_type":"fractal-mutation","trial_index":116,"time_elapsed":2140108,"internal_node_id":"0.0-5.0-12.0"},{"group":"hexagon_bi","fractal_assignment":["../images/ylw_slt.png","../images/pnk_blu.png","../images/cyn_red.png","../images/blu_wht.png","../images/gry_blk.png","../images/org_blu.png"],"mutagen_generator_assignment":[0,1],"goal":2,"start":4,"action_noise":0.2,"location_history":"[4,3,2]","action_history":"[0,1]","mutagen_history":"[0,1]","location_rts":"[1326,800]","trial_type":"fractal-mutation","trial_index":117,"time_elapsed":2148016,"internal_node_id":"0.0-5.0-13.0"},{"group":"hexagon_bi","fractal_assignment":["../images/ylw_slt.png","../images/pnk_blu.png","../images/cyn_red.png","../images/blu_wht.png","../images/gry_blk.png","../images/org_blu.png"],"mutagen_generator_assignment":[0,1],"goal":1,"start":2,"action_noise":0.2,"location_history":"[2,1]","action_history":"[0]","mutagen_history":"[0]","location_rts":"[1240]","trial_type":"fractal-mutation","trial_index":118,"time_elapsed":2153857,"internal_node_id":"0.0-5.0-14.0"},{"group":"hexagon_bi","fractal_assignment":["../images/ylw_slt.png","../images/pnk_blu.png","../images/cyn_red.png","../images/blu_wht.png","../images/gry_blk.png","../images/org_blu.png"],"mutagen_generator_assignment":[0,1],"goal":3,"start":1,"action_noise":0.2,"location_history":"[1,0,1,0,5,0,1,0,5,0,1,2,3]","action_history":"[1,1,1,0,0,1,1,0,0,0,0,1]","mutagen_history":"[1,1,1,0,0,1,1,0,0,0,0,1]","location_rts":"[2291,1118,1596,1209,1232,1942,1190,869,883,896,867,1262]","trial_type":"fractal-mutation","trial_index":119,"time_elapsed":2186337,"internal_node_id":"0.0-5.0-15.0"},{"group":"hexagon_bi","fractal_assignment":["../images/ylw_slt.png","../images/pnk_blu.png","../images/cyn_red.png","../images/blu_wht.png","../images/gry_blk.png","../images/org_blu.png"],"mutagen_generator_assignment":[0,1],"goal":5,"start":3,"action_noise":0.2,"location_history":"[3,4,5]","action_history":"[0,1]","mutagen_history":"[0,1]","location_rts":"[1687,795]","trial_type":"fractal-mutation","trial_index":120,"time_elapsed":2194586,"internal_node_id":"0.0-5.0-16.0"},{"group":"hexagon_bi","fractal_assignment":["../images/ylw_slt.png","../images/pnk_blu.png","../images/cyn_red.png","../images/blu_wht.png","../images/gry_blk.png","../images/org_blu.png"],"mutagen_generator_assignment":[0,1],"goal":0,"start":5,"action_noise":0.2,"location_history":"[5,4,3,4,5,4,5,0]","action_history":"[0,0,0,1,0,0,0]","mutagen_history":"[0,0,0,1,0,0,0]","location_rts":"[1155,812,1767,854,965,852,923]","trial_type":"fractal-mutation","trial_index":121,"time_elapsed":2213164,"internal_node_id":"0.0-5.0-17.0"},{"group":"hexagon_bi","fractal_assignment":["../images/ylw_slt.png","../images/pnk_blu.png","../images/cyn_red.png","../images/blu_wht.png","../images/gry_blk.png","../images/org_blu.png"],"mutagen_generator_assignment":[0,1],"goal":5,"start":0,"action_noise":0.2,"location_history":"[0,1,2,1,0,5]","action_history":"[1,0,0,1,0]","mutagen_history":"[1,0,0,1,0]","location_rts":"[3115,904,1075,903,1138]","trial_type":"fractal-mutation","trial_index":122,"time_elapsed":2229433,"internal_node_id":"0.0-5.0-18.0"},{"group":"hexagon_bi","fractal_assignment":["../images/ylw_slt.png","../images/pnk_blu.png","../images/cyn_red.png","../images/blu_wht.png","../images/gry_blk.png","../images/org_blu.png"],"mutagen_generator_assignment":[0,1],"goal":3,"start":5,"action_noise":0.2,"location_history":"[5,0,5,4,5,0,5,4,3]","action_history":"[0,1,1,1,0,1,1,0]","mutagen_history":"[0,1,1,1,0,1,1,0]","location_rts":"[1079,901,964,744,583,1693,1188,1133]","trial_type":"fractal-mutation","trial_index":123,"time_elapsed":2250399,"internal_node_id":"0.0-5.0-19.0"},{"group":"hexagon_bi","fractal_assignment":["../images/ylw_slt.png","../images/pnk_blu.png","../images/cyn_red.png","../images/blu_wht.png","../images/gry_blk.png","../images/org_blu.png"],"mutagen_generator_assignment":[0,1],"goal":4,"start":3,"action_noise":0.2,"location_history":"[3,4]","action_history":"[0]","mutagen_history":"[0]","location_rts":"[1375]","trial_type":"fractal-mutation","trial_index":124,"time_elapsed":2256370,"internal_node_id":"0.0-5.0-20.0"},{"group":"hexagon_bi","fractal_assignment":["../images/ylw_slt.png","../images/pnk_blu.png","../images/cyn_red.png","../images/blu_wht.png","../images/gry_blk.png","../images/org_blu.png"],"mutagen_generator_assignment":[0,1],"goal":1,"start":4,"action_noise":0.2,"location_history":"[4,5,4,3,2,3,2,1]","action_history":"[1,0,0,1,1,1,0]","mutagen_history":"[1,0,0,1,1,1,0]","location_rts":"[2012,1133,1019,1035,2422,1174,321]","trial_type":"fractal-mutation","trial_index":125,"time_elapsed":2276968,"internal_node_id":"0.0-5.0-21.0"},{"group":"hexagon_bi","fractal_assignment":["../images/ylw_slt.png","../images/pnk_blu.png","../images/cyn_red.png","../images/blu_wht.png","../images/gry_blk.png","../images/org_blu.png"],"mutagen_generator_assignment":[0,1],"goal":2,"start":1,"action_noise":0.2,"location_history":"[1,0,5,0,1,0,1,0,1,0,5,0,5,4,5,4,5,4,3,4,3,4,3,2]","action_history":"[1,0,0,1,0,1,1,1,1,0,1,1,0,1,1,1,0,0,1,0,0,1,1]","mutagen_history":"[1,0,0,1,0,1,1,1,1,0,1,1,0,1,1,1,0,0,1,0,0,1,1]","location_rts":"[2475,962,920,1019,1731,855,905,734,901,448,2276,889,639,1999,3408,1649,822,950,1411,1283,576,1333,1738]","trial_type":"fractal-mutation","trial_index":126,"time_elapsed":2336663,"internal_node_id":"0.0-5.0-22.0"},{"group":"hexagon_bi","fractal_assignment":["../images/ylw_slt.png","../images/pnk_blu.png","../images/cyn_red.png","../images/blu_wht.png","../images/gry_blk.png","../images/org_blu.png"],"mutagen_generator_assignment":[0,1],"goal":3,"start":2,"action_noise":0.2,"location_history":"[2,1,2,1,2,1,2,3]","action_history":"[0,0,1,0,0,0,1]","mutagen_history":"[0,0,1,0,0,0,1]","location_rts":"[1253,1412,1009,858,591,1340,1127]","trial_type":"fractal-mutation","trial_index":127,"time_elapsed":2355589,"internal_node_id":"0.0-5.0-23.0"},{"group":"hexagon_bi","fractal_assignment":["../images/ylw_slt.png","../images/pnk_blu.png","../images/cyn_red.png","../images/blu_wht.png","../images/gry_blk.png","../images/org_blu.png"],"mutagen_generator_assignment":[0,1],"goal":5,"start":3,"action_noise":0.2,"location_history":"[3,4,3,4,5]","action_history":"[1,0,0,1]","mutagen_history":"[1,0,0,1]","location_rts":"[1436,1097,909,704]","trial_type":"fractal-mutation","trial_index":128,"time_elapsed":2367777,"internal_node_id":"0.0-5.0-24.0"},{"group":"hexagon_bi","fractal_assignment":["../images/ylw_slt.png","../images/pnk_blu.png","../images/cyn_red.png","../images/blu_wht.png","../images/gry_blk.png","../images/org_blu.png"],"mutagen_generator_assignment":[0,1],"goal":4,"start":5,"action_noise":0.2,"location_history":"[5,4]","action_history":"[1]","mutagen_history":"[1]","location_rts":"[3109]","trial_type":"fractal-mutation","trial_index":129,"time_elapsed":2375559,"internal_node_id":"0.0-5.0-25.0"},{"group":"hexagon_bi","fractal_assignment":["../images/ylw_slt.png","../images/pnk_blu.png","../images/cyn_red.png","../images/blu_wht.png","../images/gry_blk.png","../images/org_blu.png"],"mutagen_generator_assignment":[0,1],"goal":0,"start":4,"action_noise":0.2,"location_history":"[4,5,0]","action_history":"[0,0]","mutagen_history":"[0,0]","location_rts":"[2326,821]","trial_type":"fractal-mutation","trial_index":130,"time_elapsed":2384409,"internal_node_id":"0.0-5.0-26.0"},{"group":"hexagon_bi","fractal_assignment":["../images/ylw_slt.png","../images/pnk_blu.png","../images/cyn_red.png","../images/blu_wht.png","../images/gry_blk.png","../images/org_blu.png"],"mutagen_generator_assignment":[0,1],"goal":2,"start":0,"action_noise":0.2,"location_history":"[0,5,4,3,4,3,4,5,0,5,0,1,0,5,0,5,4,5,0,1,0,5,0,1,2]","action_history":"[0,1,0,1,0,1,1,0,1,0,1,1,0,0,0,1,1,0,0,1,0,0,1,0]","mutagen_history":"[0,1,0,1,0,1,1,0,1,0,1,1,0,0,0,1,1,0,0,1,0,0,1,0]","location_rts":"[2107,1330,724,775,1043,450,1810,596,1162,1151,881,2720,883,950,1018,1623,1722,972,1099,1342,829,769,925,2233]","trial_type":"fractal-mutation","trial_index":131,"time_elapsed":2444203,"internal_node_id":"0.0-5.0-27.0"},{"group":"hexagon_bi","fractal_assignment":["../images/ylw_slt.png","../images/pnk_blu.png","../images/cyn_red.png","../images/blu_wht.png","../images/gry_blk.png","../images/org_blu.png"],"mutagen_generator_assignment":[0,1],"goal":1,"start":2,"action_noise":0.2,"location_history":"[2,3,4,3,2,1]","action_history":"[1,0,0,1,0]","mutagen_history":"[1,0,0,1,0]","location_rts":"[3344,849,971,438,1650]","trial_type":"fractal-mutation","trial_index":132,"time_elapsed":2460589,"internal_node_id":"0.0-5.0-28.0"},{"group":"hexagon_bi","fractal_assignment":["../images/ylw_slt.png","../images/pnk_blu.png","../images/cyn_red.png","../images/blu_wht.png","../images/gry_blk.png","../images/org_blu.png"],"mutagen_generator_assignment":[0,1],"goal":0,"start":1,"action_noise":0.2,"location_history":"[1,0]","action_history":"[1]","mutagen_history":"[1]","location_rts":"[2396]","trial_type":"fractal-mutation","trial_index":133,"time_elapsed":2467659,"internal_node_id":"0.0-5.0-29.0"},{"group":"hexagon_bi","fractal_assignment":["../images/ylw_slt.png","../images/pnk_blu.png","../images/cyn_red.png","../images/blu_wht.png","../images/gry_blk.png","../images/org_blu.png"],"mutagen_generator_assignment":[0,1],"goal":2,"start":0,"action_noise":0.2,"location_history":"[0,5,0,1,2]","action_history":"[0,0,1,0]","mutagen_history":"[0,0,1,0]","location_rts":"[2558,1434,779,1907]","trial_type":"fractal-mutation","trial_index":134,"time_elapsed":2482303,"internal_node_id":"0.0-5.0-30.0"},{"group":"hexagon_bi","fractal_assignment":["../images/ylw_slt.png","../images/pnk_blu.png","../images/cyn_red.png","../images/blu_wht.png","../images/gry_blk.png","../images/org_blu.png"],"mutagen_generator_assignment":[0,1],"goal":4,"start":2,"action_noise":0.2,"location_history":"[2,3,2,3,4]","action_history":"[1,1,1,0]","mutagen_history":"[1,1,1,0]","location_rts":"[5501,1374,987,312]","trial_type":"fractal-mutation","trial_index":135,"time_elapsed":2498585,"internal_node_id":"0.0-5.0-31.0"},{"group":"hexagon_bi","fractal_assignment":["../images/ylw_slt.png","../images/pnk_blu.png","../images/cyn_red.png","../images/blu_wht.png","../images/gry_blk.png","../images/org_blu.png"],"mutagen_generator_assignment":[0,1],"goal":1,"start":4,"action_noise":0.2,"location_history":"[4,5,0,1]","action_history":"[1,0,1]","mutagen_history":"[1,0,1]","location_rts":"[2200,983,968]","trial_type":"fractal-mutation","trial_index":136,"time_elapsed":2509692,"internal_node_id":"0.0-5.0-32.0"},{"group":"hexagon_bi","fractal_assignment":["../images/ylw_slt.png","../images/pnk_blu.png","../images/cyn_red.png","../images/blu_wht.png","../images/gry_blk.png","../images/org_blu.png"],"mutagen_generator_assignment":[0,1],"goal":3,"start":1,"action_noise":0.2,"location_history":"[1,2,3]","action_history":"[0,1]","mutagen_history":"[0,1]","location_rts":"[2530,805]","trial_type":"fractal-mutation","trial_index":137,"time_elapsed":2518804,"internal_node_id":"0.0-5.0-33.0"},{"group":"hexagon_bi","fractal_assignment":["../images/ylw_slt.png","../images/pnk_blu.png","../images/cyn_red.png","../images/blu_wht.png","../images/gry_blk.png","../images/org_blu.png"],"mutagen_generator_assignment":[0,1],"goal":5,"start":3,"action_noise":0.2,"location_history":"[3,4,3,2,1,2,1,0,1,2,1,0,1,2,3,4,3,2,1,0,5]","action_history":"[0,0,1,0,0,0,1,1,0,0,1,1,0,1,1,0,1,0,0,0]","mutagen_history":"[0,0,1,0,0,0,1,1,0,0,1,1,0,1,1,0,1,0,0,0]","location_rts":"[1745,617,1104,772,945,1034,539,761,1117,878,360,894,1067,1177,592,1018,878,906,811,1142]","trial_type":"fractal-mutation","trial_index":138,"time_elapsed":2563204,"internal_node_id":"0.0-5.0-34.0"},{"group":"hexagon_bi","fractal_assignment":["../images/ylw_slt.png","../images/pnk_blu.png","../images/cyn_red.png","../images/blu_wht.png","../images/gry_blk.png","../images/org_blu.png"],"mutagen_generator_assignment":[0,1],"goal":2,"start":5,"action_noise":0.2,"location_history":"[5,0,1,2]","action_history":"[0,1,0]","mutagen_history":"[0,1,0]","location_rts":"[1757,846,1060]","trial_type":"fractal-mutation","trial_index":139,"time_elapsed":2573737,"internal_node_id":"0.0-5.0-35.0"},{"group":"hexagon_bi","fractal_assignment":["../images/ylw_slt.png","../images/pnk_blu.png","../images/cyn_red.png","../images/blu_wht.png","../images/gry_blk.png","../images/org_blu.png"],"mutagen_generator_assignment":[0,1],"goal":0,"start":2,"action_noise":0.2,"location_history":"[2,3,4,3,2,1,0]","action_history":"[1,0,1,1,1,1]","mutagen_history":"[1,0,1,1,1,1]","location_rts":"[1505,997,1838,955,2027,1453]","trial_type":"fractal-mutation","trial_index":140,"time_elapsed":2592989,"internal_node_id":"0.0-5.0-36.0"},{"group":"hexagon_bi","fractal_assignment":["../images/ylw_slt.png","../images/pnk_blu.png","../images/cyn_red.png","../images/blu_wht.png","../images/gry_blk.png","../images/org_blu.png"],"mutagen_generator_assignment":[0,1],"goal":4,"start":0,"action_noise":0.2,"location_history":"[0,5,4]","action_history":"[0,1]","mutagen_history":"[0,1]","location_rts":"[2469,966]","trial_type":"fractal-mutation","trial_index":141,"time_elapsed":2602206,"internal_node_id":"0.0-5.0-37.0"},{"group":"hexagon_bi","fractal_assignment":["../images/ylw_slt.png","../images/pnk_blu.png","../images/cyn_red.png","../images/blu_wht.png","../images/gry_blk.png","../images/org_blu.png"],"mutagen_generator_assignment":[0,1],"goal":5,"start":4,"action_noise":0.2,"location_history":"[4,5]","action_history":"[1]","mutagen_history":"[1]","location_rts":"[1110]","trial_type":"fractal-mutation","trial_index":142,"time_elapsed":2607990,"internal_node_id":"0.0-5.0-38.0"},{"group":"hexagon_bi","fractal_assignment":["../images/ylw_slt.png","../images/pnk_blu.png","../images/cyn_red.png","../images/blu_wht.png","../images/gry_blk.png","../images/org_blu.png"],"mutagen_generator_assignment":[0,1],"goal":1,"start":5,"action_noise":0.2,"location_history":"[5,0,1]","action_history":"[0,1]","mutagen_history":"[0,1]","location_rts":"[1388,1066]","trial_type":"fractal-mutation","trial_index":143,"time_elapsed":2616221,"internal_node_id":"0.0-5.0-39.0"},{"group":"hexagon_bi","fractal_assignment":["../images/ylw_slt.png","../images/pnk_blu.png","../images/cyn_red.png","../images/blu_wht.png","../images/gry_blk.png","../images/org_blu.png"],"mutagen_generator_assignment":[0,1],"goal":3,"start":1,"action_noise":0.2,"location_history":"[1,0,5,0,5,0,5,4,5,4,5,4,5,0,5,4,5,0,1,2,3]","action_history":"[1,0,0,1,0,0,1,0,1,1,1,1,0,0,1,1,0,1,1,1]","mutagen_history":"[1,0,0,1,0,0,1,0,1,1,1,1,0,0,1,1,0,1,1,1]","location_rts":"[1541,825,1919,786,930,1031,1009,486,1274,417,882,615,646,811,1011,439,775,1917,3306,458]","trial_type":"fractal-mutation","trial_index":144,"time_elapsed":2663633,"internal_node_id":"0.0-5.0-40.0"},{"group":"hexagon_bi","fractal_assignment":["../images/ylw_slt.png","../images/pnk_blu.png","../images/cyn_red.png","../images/blu_wht.png","../images/gry_blk.png","../images/org_blu.png"],"mutagen_generator_assignment":[0,1],"goal":1,"start":3,"action_noise":0.2,"location_history":"[3,4,3,2,1]","action_history":"[0,0,1,0]","mutagen_history":"[0,0,1,0]","location_rts":"[1375,1051,875,349]","trial_type":"fractal-mutation","trial_index":145,"time_elapsed":2675246,"internal_node_id":"0.0-5.0-41.0"},{"group":"hexagon_bi","fractal_assignment":["../images/ylw_slt.png","../images/pnk_blu.png","../images/cyn_red.png","../images/blu_wht.png","../images/gry_blk.png","../images/org_blu.png"],"mutagen_generator_assignment":[0,1],"goal":0,"start":1,"action_noise":0.2,"location_history":"[1,0]","action_history":"[1]","mutagen_history":"[1]","location_rts":"[1704]","trial_type":"fractal-mutation","trial_index":146,"time_elapsed":2681632,"internal_node_id":"0.0-5.0-42.0"},{"group":"hexagon_bi","fractal_assignment":["../images/ylw_slt.png","../images/pnk_blu.png","../images/cyn_red.png","../images/blu_wht.png","../images/gry_blk.png","../images/org_blu.png"],"mutagen_generator_assignment":[0,1],"goal":4,"start":0,"action_noise":0.2,"location_history":"[0,5,0,5,4]","action_history":"[0,1,0,1]","mutagen_history":"[0,1,0,1]","location_rts":"[3734,667,1391,285]","trial_type":"fractal-mutation","trial_index":147,"time_elapsed":2695750,"internal_node_id":"0.0-5.0-43.0"},{"group":"hexagon_bi","fractal_assignment":["../images/ylw_slt.png","../images/pnk_blu.png","../images/cyn_red.png","../images/blu_wht.png","../images/gry_blk.png","../images/org_blu.png"],"mutagen_generator_assignment":[0,1],"goal":2,"start":4,"action_noise":0.2,"location_history":"[4,5,0,5,4,3,2]","action_history":"[1,0,0,0,1,1]","mutagen_history":"[1,0,0,0,1,1]","location_rts":"[2464,454,2020,1147,275,1554]","trial_type":"fractal-mutation","trial_index":148,"time_elapsed":2713967,"internal_node_id":"0.0-5.0-44.0"},{"group":"hexagon_bi","fractal_assignment":["../images/ylw_slt.png","../images/pnk_blu.png","../images/cyn_red.png","../images/blu_wht.png","../images/gry_blk.png","../images/org_blu.png"],"mutagen_generator_assignment":[0,1],"goal":3,"start":2,"action_noise":0.2,"location_history":"[2,3]","action_history":"[1]","mutagen_history":"[1]","location_rts":"[2269]","trial_type":"fractal-mutation","trial_index":149,"time_elapsed":2720910,"internal_node_id":"0.0-5.0-45.0"},{"group":"hexagon_bi","fractal_assignment":["../images/ylw_slt.png","../images/pnk_blu.png","../images/cyn_red.png","../images/blu_wht.png","../images/gry_blk.png","../images/org_blu.png"],"mutagen_generator_assignment":[0,1],"goal":5,"start":3,"action_noise":0.2,"location_history":"[3,4,5]","action_history":"[1,0]","mutagen_history":"[1,0]","location_rts":"[3048,406]","trial_type":"fractal-mutation","trial_index":150,"time_elapsed":2730136,"internal_node_id":"0.0-5.0-46.0"},{"group":"hexagon_bi","fractal_assignment":["../images/ylw_slt.png","../images/pnk_blu.png","../images/cyn_red.png","../images/blu_wht.png","../images/gry_blk.png","../images/org_blu.png"],"mutagen_generator_assignment":[0,1],"goal":4,"start":5,"action_noise":0.2,"location_history":"[5,4]","action_history":"[1]","mutagen_history":"[1]","location_rts":"[1115]","trial_type":"fractal-mutation","trial_index":151,"time_elapsed":2735932,"internal_node_id":"0.0-5.0-47.0"},{"group":"hexagon_bi","fractal_assignment":["../images/ylw_slt.png","../images/pnk_blu.png","../images/cyn_red.png","../images/blu_wht.png","../images/gry_blk.png","../images/org_blu.png"],"mutagen_generator_assignment":[0,1],"goal":3,"start":4,"action_noise":0.2,"location_history":"[4,3]","action_history":"[0]","mutagen_history":"[0]","location_rts":"[2525]","trial_type":"fractal-mutation","trial_index":152,"time_elapsed":2743058,"internal_node_id":"0.0-5.0-48.0"},{"group":"hexagon_bi","fractal_assignment":["../images/ylw_slt.png","../images/pnk_blu.png","../images/cyn_red.png","../images/blu_wht.png","../images/gry_blk.png","../images/org_blu.png"],"mutagen_generator_assignment":[0,1],"goal":1,"start":3,"action_noise":0.2,"location_history":"[3,2,3,4,3,2,3,2,1]","action_history":"[1,0,1,0,1,0,0,0]","mutagen_history":"[1,0,1,0,1,0,0,0]","location_rts":"[1692,310,976,255,1227,866,1011,858]","trial_type":"fractal-mutation","trial_index":153,"time_elapsed":2762751,"internal_node_id":"0.0-5.0-49.0"},{"group":"hexagon_bi","fractal_assignment":["../images/ylw_slt.png","../images/pnk_blu.png","../images/cyn_red.png","../images/blu_wht.png","../images/gry_blk.png","../images/org_blu.png"],"mutagen_generator_assignment":[0,1],"goal":2,"start":1,"action_noise":0.2,"location_history":"[1,0,5,0,5,4,5,4,5,0,5,0,5,0,1,0,5,0,1,2]","action_history":"[1,0,0,0,0,1,1,0,0,1,0,0,0,1,1,0,0,1,0]","mutagen_history":"[1,0,0,0,0,1,1,0,0,1,0,0,0,1,1,0,0,1,0]","location_rts":"[1744,563,1400,2714,1038,1025,2299,520,865,798,889,383,984,937,2182,337,867,1760,1162]","trial_type":"fractal-mutation","trial_index":154,"time_elapsed":2810086,"internal_node_id":"0.0-5.0-50.0"},{"group":"hexagon_bi","fractal_assignment":["../images/ylw_slt.png","../images/pnk_blu.png","../images/cyn_red.png","../images/blu_wht.png","../images/gry_blk.png","../images/org_blu.png"],"mutagen_generator_assignment":[0,1],"goal":0,"start":2,"action_noise":0.2,"location_history":"[2,3,2,1,0]","action_history":"[0,1,0,1]","mutagen_history":"[0,1,0,1]","location_rts":"[3016,803,756,895]","trial_type":"fractal-mutation","trial_index":155,"time_elapsed":2823596,"internal_node_id":"0.0-5.0-51.0"},{"group":"hexagon_bi","fractal_assignment":["../images/ylw_slt.png","../images/pnk_blu.png","../images/cyn_red.png","../images/blu_wht.png","../images/gry_blk.png","../images/org_blu.png"],"mutagen_generator_assignment":[0,1],"goal":5,"start":0,"action_noise":0.2,"location_history":"[0,1,2,1,2,1,2,3,4,5]","action_history":"[0,0,1,1,0,0,1,0,1]","mutagen_history":"[0,0,1,1,0,0,1,0,1]","location_rts":"[2293,1275,501,1141,909,745,1183,540,862]","trial_type":"fractal-mutation","trial_index":156,"time_elapsed":2846731,"internal_node_id":"0.0-5.0-52.0"},{"group":"hexagon_bi","fractal_assignment":["../images/ylw_slt.png","../images/pnk_blu.png","../images/cyn_red.png","../images/blu_wht.png","../images/gry_blk.png","../images/org_blu.png"],"mutagen_generator_assignment":[0,1],"goal":1,"start":5,"action_noise":0.2,"location_history":"[5,0,1]","action_history":"[0,1]","mutagen_history":"[0,1]","location_rts":"[2326,823]","trial_type":"fractal-mutation","trial_index":157,"time_elapsed":2855661,"internal_node_id":"0.0-5.0-53.0"},{"group":"hexagon_bi","fractal_assignment":["../images/ylw_slt.png","../images/pnk_blu.png","../images/cyn_red.png","../images/blu_wht.png","../images/gry_blk.png","../images/org_blu.png"],"mutagen_generator_assignment":[0,1],"goal":3,"start":1,"action_noise":0.2,"location_history":"[1,0,1,2,3]","action_history":"[1,1,0,1]","mutagen_history":"[1,1,0,1]","location_rts":"[3116,1420,862,1356]","trial_type":"fractal-mutation","trial_index":158,"time_elapsed":2870545,"internal_node_id":"0.0-5.0-54.0"},{"group":"hexagon_bi","fractal_assignment":["../images/ylw_slt.png","../images/pnk_blu.png","../images/cyn_red.png","../images/blu_wht.png","../images/gry_blk.png","../images/org_blu.png"],"mutagen_generator_assignment":[0,1],"goal":5,"start":3,"action_noise":0.2,"location_history":"[3,2,3,4,5]","action_history":"[1,0,0,1]","mutagen_history":"[1,0,0,1]","location_rts":"[3615,338,1381,645]","trial_type":"fractal-mutation","trial_index":159,"time_elapsed":2884562,"internal_node_id":"0.0-5.0-55.0"},{"group":"hexagon_bi","fractal_assignment":["../images/ylw_slt.png","../images/pnk_blu.png","../images/cyn_red.png","../images/blu_wht.png","../images/gry_blk.png","../images/org_blu.png"],"mutagen_generator_assignment":[0,1],"goal":4,"start":5,"action_noise":0.2,"location_history":"[5,0,1,2,3,4]","action_history":"[0,1,0,1,0]","mutagen_history":"[0,1,0,1,0]","location_rts":"[1248,895,869,402,1452]","trial_type":"fractal-mutation","trial_index":160,"time_elapsed":2898557,"internal_node_id":"0.0-5.0-56.0"},{"group":"hexagon_bi","fractal_assignment":["../images/ylw_slt.png","../images/pnk_blu.png","../images/cyn_red.png","../images/blu_wht.png","../images/gry_blk.png","../images/org_blu.png"],"mutagen_generator_assignment":[0,1],"goal":0,"start":4,"action_noise":0.2,"location_history":"[4,3,2,1,0]","action_history":"[0,1,0,1]","mutagen_history":"[0,1,0,1]","location_rts":"[1518,847,330,634]","trial_type":"fractal-mutation","trial_index":161,"time_elapsed":2909937,"internal_node_id":"0.0-5.0-57.0"},{"group":"hexagon_bi","fractal_assignment":["../images/ylw_slt.png","../images/pnk_blu.png","../images/cyn_red.png","../images/blu_wht.png","../images/gry_blk.png","../images/org_blu.png"],"mutagen_generator_assignment":[0,1],"goal":2,"start":0,"action_noise":0.2,"location_history":"[0,5,0,1,2]","action_history":"[0,0,1,0]","mutagen_history":"[0,0,1,0]","location_rts":"[3450,1324,805,1235]","trial_type":"fractal-mutation","trial_index":162,"time_elapsed":2924709,"internal_node_id":"0.0-5.0-58.0"},{"group":"hexagon_bi","fractal_assignment":["../images/ylw_slt.png","../images/pnk_blu.png","../images/cyn_red.png","../images/blu_wht.png","../images/gry_blk.png","../images/org_blu.png"],"mutagen_generator_assignment":[0,1],"goal":4,"start":2,"action_noise":0.2,"location_history":"[2,1,0,5,4]","action_history":"[1,1,0,1]","mutagen_history":"[1,1,0,1]","location_rts":"[2609,1598,687,1162]","trial_type":"fractal-mutation","trial_index":163,"time_elapsed":2938871,"internal_node_id":"0.0-5.0-59.0"},{"group":"hexagon_bi","fractal_assignment":["../images/ylw_slt.png","../images/pnk_blu.png","../images/cyn_red.png","../images/blu_wht.png","../images/gry_blk.png","../images/org_blu.png"],"mutagen_generator_assignment":[0,1],"goal":2,"start":4,"action_noise":0.2,"location_history":"[4,3,2]","action_history":"[0,1]","mutagen_history":"[0,1]","location_rts":"[2311,769]","trial_type":"fractal-mutation","trial_index":164,"time_elapsed":2947718,"internal_node_id":"0.0-5.0-60.0"},{"group":"hexagon_bi","fractal_assignment":["../images/ylw_slt.png","../images/pnk_blu.png","../images/cyn_red.png","../images/blu_wht.png","../images/gry_blk.png","../images/org_blu.png"],"mutagen_generator_assignment":[0,1],"goal":3,"start":2,"action_noise":0.2,"location_history":"[2,1,2,1,2,1,0,1,0,5,0,1,0,5,4,3]","action_history":"[1,0,1,0,0,1,1,1,0,0,0,1,1,1,0]","mutagen_history":"[1,0,1,0,0,1,1,1,0,0,0,1,1,1,0]","location_rts":"[2797,2056,394,2065,361,2419,435,978,365,1039,893,666,920,558,299]","trial_type":"fractal-mutation","trial_index":165,"time_elapsed":2984510,"internal_node_id":"0.0-5.0-61.0"},{"group":"hexagon_bi","fractal_assignment":["../images/ylw_slt.png","../images/pnk_blu.png","../images/cyn_red.png","../images/blu_wht.png","../images/gry_blk.png","../images/org_blu.png"],"mutagen_generator_assignment":[0,1],"goal":0,"start":3,"action_noise":0.2,"location_history":"[3,4,3,2,3,4,3,2,1,0]","action_history":"[0,0,1,0,0,0,1,0,1]","mutagen_history":"[0,0,1,0,0,0,1,0,1]","location_rts":"[1592,1218,411,419,1918,2456,318,254,769]","trial_type":"fractal-mutation","trial_index":166,"time_elapsed":3007464,"internal_node_id":"0.0-5.0-62.0"},{"group":"hexagon_bi","fractal_assignment":["../images/ylw_slt.png","../images/pnk_blu.png","../images/cyn_red.png","../images/blu_wht.png","../images/gry_blk.png","../images/org_blu.png"],"mutagen_generator_assignment":[0,1],"goal":5,"start":0,"action_noise":0.2,"location_history":"[0,1,2,3,4,5]","action_history":"[1,0,1,0,1]","mutagen_history":"[1,0,1,0,1]","location_rts":"[2568,809,381,1138,605]","trial_type":"fractal-mutation","trial_index":167,"time_elapsed":3022201,"internal_node_id":"0.0-5.0-63.0"},{"group":"hexagon_bi","fractal_assignment":["../images/ylw_slt.png","../images/pnk_blu.png","../images/cyn_red.png","../images/blu_wht.png","../images/gry_blk.png","../images/org_blu.png"],"mutagen_generator_assignment":[0,1],"goal":1,"start":5,"action_noise":0.2,"location_history":"[5,0,5,4,3,2,1]","action_history":"[0,0,1,0,1,0]","mutagen_history":"[0,0,1,0,1,0]","location_rts":"[2689,1254,343,374,606,279]","trial_type":"fractal-mutation","trial_index":168,"time_elapsed":3037973,"internal_node_id":"0.0-5.0-64.0"},{"group":"hexagon_bi","fractal_assignment":["../images/ylw_slt.png","../images/pnk_blu.png","../images/cyn_red.png","../images/blu_wht.png","../images/gry_blk.png","../images/org_blu.png"],"mutagen_generator_assignment":[0,1],"goal":5,"start":1,"action_noise":0.2,"location_history":"[1,0,5]","action_history":"[1,0]","mutagen_history":"[1,0]","location_rts":"[2430,677]","trial_type":"fractal-mutation","trial_index":169,"time_elapsed":3046851,"internal_node_id":"0.0-5.0-65.0"},{"group":"hexagon_bi","fractal_assignment":["../images/ylw_slt.png","../images/pnk_blu.png","../images/cyn_red.png","../images/blu_wht.png","../images/gry_blk.png","../images/org_blu.png"],"mutagen_generator_assignment":[0,1],"goal":3,"start":5,"action_noise":0.2,"location_history":"[5,0,5,4,3]","action_history":"[0,1,1,0]","mutagen_history":"[0,1,1,0]","location_rts":"[2158,819,4437,268]","trial_type":"fractal-mutation","trial_index":170,"time_elapsed":3062574,"internal_node_id":"0.0-5.0-66.0"},{"group":"hexagon_bi","fractal_assignment":["../images/ylw_slt.png","../images/pnk_blu.png","../images/cyn_red.png","../images/blu_wht.png","../images/gry_blk.png","../images/org_blu.png"],"mutagen_generator_assignment":[0,1],"goal":2,"start":3,"action_noise":0.2,"location_history":"[3,4,3,2]","action_history":"[1,0,1]","mutagen_history":"[1,0,1]","location_rts":"[1670,1219,612]","trial_type":"fractal-mutation","trial_index":171,"time_elapsed":3073020,"internal_node_id":"0.0-5.0-67.0"},{"group":"hexagon_bi","fractal_assignment":["../images/ylw_slt.png","../images/pnk_blu.png","../images/cyn_red.png","../images/blu_wht.png","../images/gry_blk.png","../images/org_blu.png"],"mutagen_generator_assignment":[0,1],"goal":1,"start":2,"action_noise":0.2,"location_history":"[2,1]","action_history":"[0]","mutagen_history":"[0]","location_rts":"[1269]","trial_type":"fractal-mutation","trial_index":172,"time_elapsed":3078888,"internal_node_id":"0.0-5.0-68.0"},{"group":"hexagon_bi","fractal_assignment":["../images/ylw_slt.png","../images/pnk_blu.png","../images/cyn_red.png","../images/blu_wht.png","../images/gry_blk.png","../images/org_blu.png"],"mutagen_generator_assignment":[0,1],"goal":4,"start":1,"action_noise":0.2,"location_history":"[1,2,3,4]","action_history":"[0,1,0]","mutagen_history":"[0,1,0]","location_rts":"[2451,696,1153]","trial_type":"fractal-mutation","trial_index":173,"time_elapsed":3090092,"internal_node_id":"0.0-5.0-69.0"},{"group":"hexagon_bi","fractal_assignment":["../images/ylw_slt.png","../images/pnk_blu.png","../images/cyn_red.png","../images/blu_wht.png","../images/gry_blk.png","../images/org_blu.png"],"mutagen_generator_assignment":[0,1],"goal":0,"start":4,"action_noise":0.2,"location_history":"[4,3,2,1,0]","action_history":"[0,1,0,1]","mutagen_history":"[0,1,0,1]","location_rts":"[2076,650,329,370]","trial_type":"fractal-mutation","trial_index":174,"time_elapsed":3101549,"internal_node_id":"0.0-5.0-70.0"},{"group":"hexagon_bi","fractal_assignment":["../images/ylw_slt.png","../images/pnk_blu.png","../images/cyn_red.png","../images/blu_wht.png","../images/gry_blk.png","../images/org_blu.png"],"mutagen_generator_assignment":[0,1],"goal":3,"start":0,"action_noise":0.2,"location_history":"[0,1,2,3]","action_history":"[1,0,1]","mutagen_history":"[1,0,1]","location_rts":"[3986,946,359]","trial_type":"fractal-mutation","trial_index":175,"time_elapsed":3113789,"internal_node_id":"0.0-5.0-71.0"},{"group":"hexagon_bi","fractal_assignment":["../images/ylw_slt.png","../images/pnk_blu.png","../images/cyn_red.png","../images/blu_wht.png","../images/gry_blk.png","../images/org_blu.png"],"mutagen_generator_assignment":[0,1],"goal":1,"start":3,"action_noise":0.2,"location_history":"[3,4,3,2,1]","action_history":"[1,0,1,0]","mutagen_history":"[1,0,1,0]","location_rts":"[2161,1401,611,411]","trial_type":"fractal-mutation","trial_index":176,"time_elapsed":3126419,"internal_node_id":"0.0-5.0-72.0"},{"group":"hexagon_bi","fractal_assignment":["../images/ylw_slt.png","../images/pnk_blu.png","../images/cyn_red.png","../images/blu_wht.png","../images/gry_blk.png","../images/org_blu.png"],"mutagen_generator_assignment":[0,1],"goal":0,"start":1,"action_noise":0.2,"location_history":"[1,0]","action_history":"[1]","mutagen_history":"[1]","location_rts":"[2060]","trial_type":"fractal-mutation","trial_index":177,"time_elapsed":3133157,"internal_node_id":"0.0-5.0-73.0"},{"group":"hexagon_bi","fractal_assignment":["../images/ylw_slt.png","../images/pnk_blu.png","../images/cyn_red.png","../images/blu_wht.png","../images/gry_blk.png","../images/org_blu.png"],"mutagen_generator_assignment":[0,1],"goal":2,"start":0,"action_noise":0.2,"location_history":"[0,1,2]","action_history":"[1,0]","mutagen_history":"[1,0]","location_rts":"[2971,1069]","trial_type":"fractal-mutation","trial_index":178,"time_elapsed":3142967,"internal_node_id":"0.0-5.0-74.0"},{"group":"hexagon_bi","fractal_assignment":["../images/ylw_slt.png","../images/pnk_blu.png","../images/cyn_red.png","../images/blu_wht.png","../images/gry_blk.png","../images/org_blu.png"],"mutagen_generator_assignment":[0,1],"goal":4,"start":2,"action_noise":0.2,"location_history":"[2,3,2,3,2,3,2,1,2,1,0,5,0,1,2,3,2,1,2,1,0,5,0,1,0,5,4]","action_history":"[1,0,0,1,1,1,1,0,1,1,0,0,1,0,1,0,0,1,0,1,0,1,1,1,0,1]","mutagen_history":"[1,0,0,1,1,1,1,0,1,1,0,0,1,0,1,0,0,1,0,1,0,1,1,1,0,1]","location_rts":"[1729,541,902,845,1845,682,511,1021,355,1777,392,785,1305,827,609,673,1225,688,743,453,1200,1824,1948,1150,432,923]","trial_type":"fractal-mutation","trial_index":179,"time_elapsed":3201455,"internal_node_id":"0.0-5.0-75.0"},{"group":"hexagon_bi","fractal_assignment":["../images/ylw_slt.png","../images/pnk_blu.png","../images/cyn_red.png","../images/blu_wht.png","../images/gry_blk.png","../images/org_blu.png"],"mutagen_generator_assignment":[0,1],"goal":5,"start":4,"action_noise":0.2,"location_history":"[4,5]","action_history":"[1]","mutagen_history":"[1]","location_rts":"[1173]","trial_type":"fractal-mutation","trial_index":180,"time_elapsed":3207304,"internal_node_id":"0.0-5.0-76.0"},{"group":"hexagon_bi","fractal_assignment":["../images/ylw_slt.png","../images/pnk_blu.png","../images/cyn_red.png","../images/blu_wht.png","../images/gry_blk.png","../images/org_blu.png"],"mutagen_generator_assignment":[0,1],"goal":2,"start":5,"action_noise":0.2,"location_history":"[5,0,5,4,3,2]","action_history":"[0,1,1,0,1]","mutagen_history":"[0,1,1,0,1]","location_rts":"[1435,1007,1190,276,401]","trial_type":"fractal-mutation","trial_index":181,"time_elapsed":3220827,"internal_node_id":"0.0-5.0-77.0"},{"group":"hexagon_bi","fractal_assignment":["../images/ylw_slt.png","../images/pnk_blu.png","../images/cyn_red.png","../images/blu_wht.png","../images/gry_blk.png","../images/org_blu.png"],"mutagen_generator_assignment":[0,1],"goal":3,"start":2,"action_noise":0.2,"location_history":"[2,1,0,5,4,3]","action_history":"[0,1,0,1,0]","mutagen_history":"[0,1,0,1,0]","location_rts":"[1769,3023,360,1207,271]","trial_type":"fractal-mutation","trial_index":182,"time_elapsed":3236586,"internal_node_id":"0.0-5.0-78.0"},{"group":"hexagon_bi","fractal_assignment":["../images/ylw_slt.png","../images/pnk_blu.png","../images/cyn_red.png","../images/blu_wht.png","../images/gry_blk.png","../images/org_blu.png"],"mutagen_generator_assignment":[0,1],"goal":1,"start":3,"action_noise":0.2,"location_history":"[3,2,1]","action_history":"[1,0]","mutagen_history":"[1,0]","location_rts":"[2090,288]","trial_type":"fractal-mutation","trial_index":183,"time_elapsed":3244732,"internal_node_id":"0.0-5.0-79.0"},{"group":"hexagon_bi","fractal_assignment":["../images/ylw_slt.png","../images/pnk_blu.png","../images/cyn_red.png","../images/blu_wht.png","../images/gry_blk.png","../images/org_blu.png"],"mutagen_generator_assignment":[0,1],"goal":4,"start":1,"action_noise":0.2,"location_history":"[1,2,1,0,1,2,1,0,1,0,1,2,1,0,1,0,1,0,5,4]","action_history":"[1,0,1,0,1,0,1,0,1,1,1,0,1,1,1,1,1,0,1]","mutagen_history":"[1,0,1,0,1,0,1,0,1,1,1,0,1,1,1,1,1,0,1]","location_rts":"[2839,251,335,272,937,266,345,309,763,287,767,825,265,396,609,504,495,283,777]","trial_type":"fractal-mutation","trial_index":184,"time_elapsed":3281590,"internal_node_id":"0.0-5.0-80.0"},{"group":"hexagon_bi","fractal_assignment":["../images/ylw_slt.png","../images/pnk_blu.png","../images/cyn_red.png","../images/blu_wht.png","../images/gry_blk.png","../images/org_blu.png"],"mutagen_generator_assignment":[0,1],"goal":5,"start":4,"action_noise":0.2,"location_history":"[4,5]","action_history":"[1]","mutagen_history":"[1]","location_rts":"[2015]","trial_type":"fractal-mutation","trial_index":185,"time_elapsed":3288276,"internal_node_id":"0.0-5.0-81.0"},{"group":"hexagon_bi","fractal_assignment":["../images/ylw_slt.png","../images/pnk_blu.png","../images/cyn_red.png","../images/blu_wht.png","../images/gry_blk.png","../images/org_blu.png"],"mutagen_generator_assignment":[0,1],"goal":0,"start":5,"action_noise":0.2,"location_history":"[5,0]","action_history":"[1]","mutagen_history":"[1]","location_rts":"[5177]","trial_type":"fractal-mutation","trial_index":186,"time_elapsed":3298126,"internal_node_id":"0.0-5.0-82.0"},{"group":"hexagon_bi","fractal_assignment":["../images/ylw_slt.png","../images/pnk_blu.png","../images/cyn_red.png","../images/blu_wht.png","../images/gry_blk.png","../images/org_blu.png"],"mutagen_generator_assignment":[0,1],"goal":2,"start":0,"action_noise":0.2,"location_history":"[0,1,2]","action_history":"[0,0]","mutagen_history":"[0,0]","location_rts":"[1864,548]","trial_type":"fractal-mutation","trial_index":187,"time_elapsed":3306216,"internal_node_id":"0.0-5.0-83.0"},{"group":"hexagon_bi","fractal_assignment":["../images/ylw_slt.png","../images/pnk_blu.png","../images/cyn_red.png","../images/blu_wht.png","../images/gry_blk.png","../images/org_blu.png"],"mutagen_generator_assignment":[0,1],"goal":0,"start":2,"action_noise":0.2,"location_history":"[2,1,0]","action_history":"[0,1]","mutagen_history":"[0,1]","location_rts":"[4764,368]","trial_type":"fractal-mutation","trial_index":188,"time_elapsed":3317115,"internal_node_id":"0.0-5.0-84.0"},{"group":"hexagon_bi","fractal_assignment":["../images/ylw_slt.png","../images/pnk_blu.png","../images/cyn_red.png","../images/blu_wht.png","../images/gry_blk.png","../images/org_blu.png"],"mutagen_generator_assignment":[0,1],"goal":5,"start":0,"action_noise":0.2,"location_history":"[0,1,0,5]","action_history":"[1,1,0]","mutagen_history":"[1,1,0]","location_rts":"[2585,1538,279]","trial_type":"fractal-mutation","trial_index":189,"time_elapsed":3328464,"internal_node_id":"0.0-5.0-85.0"},{"group":"hexagon_bi","fractal_assignment":["../images/ylw_slt.png","../images/pnk_blu.png","../images/cyn_red.png","../images/blu_wht.png","../images/gry_blk.png","../images/org_blu.png"],"mutagen_generator_assignment":[0,1],"goal":1,"start":5,"action_noise":0.2,"location_history":"[5,4,5,4,3,2,1]","action_history":"[1,0,1,0,1,0]","mutagen_history":"[1,0,1,0,1,0]","location_rts":"[2146,1195,1276,261,1409,335]","trial_type":"fractal-mutation","trial_index":190,"time_elapsed":3345373,"internal_node_id":"0.0-5.0-86.0"},{"group":"hexagon_bi","fractal_assignment":["../images/ylw_slt.png","../images/pnk_blu.png","../images/cyn_red.png","../images/blu_wht.png","../images/gry_blk.png","../images/org_blu.png"],"mutagen_generator_assignment":[0,1],"goal":4,"start":1,"action_noise":0.2,"location_history":"[1,2,1,0,5,4]","action_history":"[1,0,1,0,1]","mutagen_history":"[1,0,1,0,1]","location_rts":"[1767,415,419,623,515]","trial_type":"fractal-mutation","trial_index":191,"time_elapsed":3358326,"internal_node_id":"0.0-5.0-87.0"},{"group":"hexagon_bi","fractal_assignment":["../images/ylw_slt.png","../images/pnk_blu.png","../images/cyn_red.png","../images/blu_wht.png","../images/gry_blk.png","../images/org_blu.png"],"mutagen_generator_assignment":[0,1],"goal":3,"start":4,"action_noise":0.2,"location_history":"[4,3]","action_history":"[0]","mutagen_history":"[0]","location_rts":"[2373]","trial_type":"fractal-mutation","trial_index":192,"time_elapsed":3365296,"internal_node_id":"0.0-5.0-88.0"},{"group":"hexagon_bi","fractal_assignment":["../images/ylw_slt.png","../images/pnk_blu.png","../images/cyn_red.png","../images/blu_wht.png","../images/gry_blk.png","../images/org_blu.png"],"mutagen_generator_assignment":[0,1],"goal":5,"start":3,"action_noise":0.2,"location_history":"[3,2,1,0,5]","action_history":"[0,0,1,0]","mutagen_history":"[0,0,1,0]","location_rts":"[5267,895,276,442]","trial_type":"fractal-mutation","trial_index":193,"time_elapsed":3380137,"internal_node_id":"0.0-5.0-89.0"},{"group":"hexagon_bi","fractal_assignment":["../images/ylw_slt.png","../images/pnk_blu.png","../images/cyn_red.png","../images/blu_wht.png","../images/gry_blk.png","../images/org_blu.png"],"mutagen_generator_assignment":[0,1],"goal":1,"start":5,"action_noise":0.2,"location_history":"[5,4,3,2,1]","action_history":"[1,0,1,0]","mutagen_history":"[1,0,1,0]","location_rts":"[2378,299,526,274]","trial_type":"fractal-mutation","trial_index":194,"time_elapsed":3391641,"internal_node_id":"0.0-5.0-90.0"},{"group":"hexagon_bi","fractal_assignment":["../images/ylw_slt.png","../images/pnk_blu.png","../images/cyn_red.png","../images/blu_wht.png","../images/gry_blk.png","../images/org_blu.png"],"mutagen_generator_assignment":[0,1],"goal":2,"start":1,"action_noise":0.2,"location_history":"[1,0,1,2]","action_history":"[0,1,0]","mutagen_history":"[0,1,0]","location_rts":"[1779,780,769]","trial_type":"fractal-mutation","trial_index":195,"time_elapsed":3401835,"internal_node_id":"0.0-5.0-91.0"},{"group":"hexagon_bi","fractal_assignment":["../images/ylw_slt.png","../images/pnk_blu.png","../images/cyn_red.png","../images/blu_wht.png","../images/gry_blk.png","../images/org_blu.png"],"mutagen_generator_assignment":[0,1],"goal":4,"start":2,"action_noise":0.2,"location_history":"[2,3,2,3,4]","action_history":"[1,1,1,0]","mutagen_history":"[1,1,1,0]","location_rts":"[4349,992,1084,434]","trial_type":"fractal-mutation","trial_index":196,"time_elapsed":3416812,"internal_node_id":"0.0-5.0-92.0"},{"group":"hexagon_bi","fractal_assignment":["../images/ylw_slt.png","../images/pnk_blu.png","../images/cyn_red.png","../images/blu_wht.png","../images/gry_blk.png","../images/org_blu.png"],"mutagen_generator_assignment":[0,1],"goal":0,"start":4,"action_noise":0.2,"location_history":"[4,3,2,1,0]","action_history":"[0,1,0,1]","mutagen_history":"[0,1,0,1]","location_rts":"[5955,1553,697,476]","trial_type":"fractal-mutation","trial_index":197,"time_elapsed":3433546,"internal_node_id":"0.0-5.0-93.0"},{"group":"hexagon_bi","fractal_assignment":["../images/ylw_slt.png","../images/pnk_blu.png","../images/cyn_red.png","../images/blu_wht.png","../images/gry_blk.png","../images/org_blu.png"],"mutagen_generator_assignment":[0,1],"goal":3,"start":0,"action_noise":0.2,"location_history":"[0,5,4,3]","action_history":"[0,1,0]","mutagen_history":"[0,1,0]","location_rts":"[5101,706,347]","trial_type":"fractal-mutation","trial_index":198,"time_elapsed":3446562,"internal_node_id":"0.0-5.0-94.0"},{"group":"hexagon_bi","fractal_assignment":["../images/ylw_slt.png","../images/pnk_blu.png","../images/cyn_red.png","../images/blu_wht.png","../images/gry_blk.png","../images/org_blu.png"],"mutagen_generator_assignment":[0,1],"goal":0,"start":3,"action_noise":0.2,"location_history":"[3,2,1,0]","action_history":"[1,0,1]","mutagen_history":"[1,0,1]","location_rts":"[1954,572,404]","trial_type":"fractal-mutation","trial_index":199,"time_elapsed":3456430,"internal_node_id":"0.0-5.0-95.0"},{"group":"hexagon_bi","fractal_assignment":["../images/ylw_slt.png","../images/pnk_blu.png","../images/cyn_red.png","../images/blu_wht.png","../images/gry_blk.png","../images/org_blu.png"],"mutagen_generator_assignment":[0,1],"goal":4,"start":0,"action_noise":0.2,"location_history":"[0,5,4]","action_history":"[0,1]","mutagen_history":"[0,1]","location_rts":"[2687,676]","trial_type":"fractal-mutation","trial_index":200,"time_elapsed":3465564,"internal_node_id":"0.0-5.0-96.0"},{"group":"hexagon_bi","fractal_assignment":["../images/ylw_slt.png","../images/pnk_blu.png","../images/cyn_red.png","../images/blu_wht.png","../images/gry_blk.png","../images/org_blu.png"],"mutagen_generator_assignment":[0,1],"goal":5,"start":4,"action_noise":0.2,"location_history":"[4,5]","action_history":"[1]","mutagen_history":"[1]","location_rts":"[1173]","trial_type":"fractal-mutation","trial_index":201,"time_elapsed":3471413,"internal_node_id":"0.0-5.0-97.0"},{"group":"hexagon_bi","fractal_assignment":["../images/ylw_slt.png","../images/pnk_blu.png","../images/cyn_red.png","../images/blu_wht.png","../images/gry_blk.png","../images/org_blu.png"],"mutagen_generator_assignment":[0,1],"goal":2,"start":5,"action_noise":0.2,"location_history":"[5,0,1,0,5,4,3,2]","action_history":"[1,0,0,0,1,0,1]","mutagen_history":"[1,0,0,0,1,0,1]","location_rts":"[4631,292,1160,1122,1357,438,294]","trial_type":"fractal-mutation","trial_index":202,"time_elapsed":3492100,"internal_node_id":"0.0-5.0-98.0"},{"group":"hexagon_bi","fractal_assignment":["../images/ylw_slt.png","../images/pnk_blu.png","../images/cyn_red.png","../images/blu_wht.png","../images/gry_blk.png","../images/org_blu.png"],"mutagen_generator_assignment":[0,1],"goal":1,"start":2,"action_noise":0.2,"location_history":"[2,3,2,1]","action_history":"[0,1,0]","mutagen_history":"[0,1,0]","location_rts":"[1430,805,259]","trial_type":"fractal-mutation","trial_index":203,"time_elapsed":3501451,"internal_node_id":"0.0-5.0-99.0"},{"view_history":"[{\"page_index\":0,\"viewing_time\":4372}]","rt":4373,"trial_type":"instructions","trial_index":204,"time_elapsed":3506825,"internal_node_id":"0.0-6.0"},{"rt":39806,"responses":"{\"Q0\":\"to see if we could eventually remember and figure out where the rooms were even when some disinformation was thrown in?\"}","trial_type":"survey-text","trial_index":205,"time_elapsed":3547640,"internal_node_id":"0.0-7.0-0.0"},{"rt":64873,"responses":"{\"Q0\":\"Also figuring out the relationship and steps needed to form all the things and again with disinformation.  To see even if a step went to the wrong place, it we would go back to it after learning the steps?\"}","trial_type":"survey-text","trial_index":206,"time_elapsed":3613517,"internal_node_id":"0.0-7.0-1.0"},{"rt":54194,"responses":"{\"Q0\":\"<img src='../images/diagrams/hexagon_tri.png'>\"}","trial_type":"survey-multi-choice","trial_index":207,"time_elapsed":3668717,"internal_node_id":"0.0-7.0-2.0"},{"rt":256124,"assignments":["../images/pnk_blu.png","../images/ylw_slt.png","../images/org_blu.png","../images/blu_wht.png","../images/gry_blk.png","../images/cyn_red.png"],"trial_type":"drag-drop-on-image","trial_index":208,"time_elapsed":3925845,"internal_node_id":"0.0-7.0-3.0"},{"rt":7648,"responses":"{\"Q0\":\"3\"}","trial_type":"survey-likert","trial_index":209,"time_elapsed":3934497,"internal_node_id":"0.0-7.0-4.0"},{"rt":79119,"responses":"{\"Q0\":\"you needed to choose the two options in the right sequence, sometimes choosing the same option would bring you back and forth to the same two outcomes.  Once figured out, you could follow the patterns from one starting point to you desired location or outcome.\"}","trial_type":"survey-text","trial_index":210,"time_elapsed":4014620,"internal_node_id":"0.0-7.0-5.0"},{"rt":14540,"responses":"{\"Q0\":\"No\"}","trial_type":"survey-multi-choice","trial_index":211,"time_elapsed":4030162,"internal_node_id":"0.0-7.0-6.0"},{"rt":21777,"responses":"{\"Q0\":\"During these questions/I wasn't aware until you pointed it out\"}","trial_type":"survey-multi-choice","trial_index":212,"time_elapsed":4052948,"internal_node_id":"0.0-7.0-7.0"},{"rt":63857,"responses":"{\"Q0\":\"I am not entirely sure what this means to be honest.  I noticed similarities between the two but not really a connection.  I have to admit I feel a bit lost right now and wondering if I'm missing something I should see.\"}","trial_type":"survey-text","trial_index":213,"time_elapsed":4117808,"internal_node_id":"0.0-7.0-8.0"},{"rt":7884,"responses":"{\"Q0\":\"2\"}","trial_type":"survey-likert","trial_index":214,"time_elapsed":4126697,"internal_node_id":"0.0-7.0-9.0"},{"rt":12853,"responses":"{\"Q0\":\"Same structure\"}","trial_type":"survey-multi-choice","trial_index":215,"time_elapsed":4140553,"internal_node_id":"0.0-7.0-10.0"},{"rt":104937,"responses":"{\"Q0\":\"left (black) door = acid, right (white) door = ray\",\"Q1\":\"Slightly confident\"}","trial_type":"survey-multi-choice","trial_index":216,"time_elapsed":4246500,"internal_node_id":"0.0-7.0-11.0"},{"rt":15923,"responses":"{\"Q0\":\"35-45\",\"Q1\":\"Some college\",\"Q2\":\"Male\",\"Q3\":\"White\"}","trial_type":"survey-multi-choice","trial_index":217,"time_elapsed":4263439,"internal_node_id":"0.0-8.0"},{"rt":84818,"responses":"{\"Q0\":\"I actually started to figure everything out towards the end of both tests today, but was then confused all over again by the questions following. I may be having a hard time remembering which one was acid and the ray for s