[{"view_history":"[{\"page_index\":0,\"viewing_time\":393441},{\"page_index\":1,\"viewing_time\":5879}]","rt":399322,"trial_type":"instructions","trial_index":0,"time_elapsed":399323,"internal_node_id":"0.0-0.0"},{"view_history":"[{\"page_index\":0,\"viewing_time\":8732},{\"page_index\":1,\"viewing_time\":16600}]","rt":25332,"trial_type":"instructions","trial_index":1,"time_elapsed":425656,"internal_node_id":"0.0-1.0"},{"group":"hexagon_tri","room_assignment":["purple","grey","yellow","red","green","blue"],"door_color_assignment":["white","black"],"door_generator_assignment":[1,0],"goal":2,"start":1,"action_noise":0.2,"location_history":"[1,5,0,1,5,4,2]","action_history":"[1,1,1,0,0,1]","door_history":"[0,0,0,1,1,0]","location_rts":"[3430,528,1162,690,982,1130]","trial_type":"two-door-navigation","trial_index":2,"time_elapsed":443126,"internal_node_id":"0.0-2.0-0.0"},{"group":"hexagon_tri","room_assignment":["purple","grey","yellow","red","green","blue"],"door_color_assignment":["white","black"],"door_generator_assignment":[1,0],"goal":0,"start":2,"action_noise":0.2,"location_history":"[2,1,5,0]","action_history":"[0,1,1]","door_history":"[1,0,0]","location_rts":"[2353,1058,438]","trial_type":"two-door-navigation","trial_index":3,"time_elapsed":453492,"internal_node_id":"0.0-2.0-1.0"},{"group":"hexagon_tri","room_assignment":["purple","grey","yellow","red","green","blue"],"door_color_assignment":["white","black"],"door_generator_assignment":[1,0],"goal":5,"start":0,"action_noise":0.2,"location_history":"[0,1,5]","action_history":"[1,1]","door_history":"[0,0]","location_rts":"[1627,514]","trial_type":"two-door-navigation","trial_index":4,"time_elapsed":461150,"internal_node_id":"0.0-2.0-2.0"},{"group":"hexagon_tri","room_assignment":["purple","grey","yellow","red","green","blue"],"door_color_assignment":["white","black"],"door_generator_assignment":[1,0],"goal":3,"start":5,"action_noise":0.2,"location_history":"[5,4,0,5,4,0,1,5,0,5,4,2,3]","action_history":"[0,0,0,0,1,1,1,0,0,0,0,1]","door_history":"[1,1,1,1,0,0,0,1,1,1,1,0]","location_rts":"[5089,591,648,1644,517,535,479,455,696,677,926,872]","trial_type":"two-door-navigation","trial_index":5,"time_elapsed":489880,"internal_node_id":"0.0-2.0-3.0"},{"group":"hexagon_tri","room_assignment":["purple","grey","yellow","red","green","blue"],"door_color_assignment":["white","black"],"door_generator_assignment":[1,0],"goal":4,"start":3,"action_noise":0.2,"location_history":"[3,2,3,2,3,2,1,3,2,1,5,0,5,4]","action_history":"[1,1,1,1,0,0,0,0,0,1,0,0,0]","door_history":"[0,0,0,0,1,1,1,1,1,0,1,1,1]","location_rts":"[1823,709,1122,361,523,881,566,707,841,1153,913,492,1003]","trial_type":"two-door-navigation","trial_index":6,"time_elapsed":517563,"internal_node_id":"0.0-2.0-4.0"},{"group":"hexagon_tri","room_assignment":["purple","grey","yellow","red","green","blue"],"door_color_assignment":["white","black"],"door_generator_assignment":[1,0],"goal":0,"start":4,"action_noise":0.2,"location_history":"[4,0]","action_history":"[0]","door_history":"[1]","location_rts":"[3012]","trial_type":"two-door-navigation","trial_index":7,"time_elapsed":525086,"internal_node_id":"0.0-2.0-5.0"},{"group":"hexagon_tri","room_assignment":["purple","grey","yellow","red","green","blue"],"door_color_assignment":["white","black"],"door_generator_assignment":[1,0],"goal":4,"start":0,"action_noise":0.2,"location_history":"[0,1,3,2,1,3,2,3,4]","action_history":"[0,0,0,0,0,0,0,0]","door_history":"[1,1,1,1,1,1,1,1]","location_rts":"[1370,483,496,490,473,434,425,359]","trial_type":"two-door-navigation","trial_index":8,"time_elapsed":541176,"internal_node_id":"0.0-2.0-6.0"},{"group":"hexagon_tri","room_assignment":["purple","grey","yellow","red","green","blue"],"door_color_assignment":["white","black"],"door_generator_assignment":[1,0],"goal":3,"start":4,"action_noise":0.2,"location_history":"[4,0,1,5,4,2,3]","action_history":"[1,1,1,0,1,1]","door_history":"[0,0,0,1,0,0]","location_rts":"[7415,701,359,640,1024,787]","trial_type":"two-door-navigation","trial_index":9,"time_elapsed":561647,"internal_node_id":"0.0-2.0-7.0"},{"group":"hexagon_tri","room_assignment":["purple","grey","yellow","red","green","blue"],"door_color_assignment":["white","black"],"door_generator_assignment":[1,0],"goal":2,"start":3,"action_noise":0.2,"location_history":"[3,4,2]","action_history":"[1,1]","door_history":"[0,0]","location_rts":"[1539,710]","trial_type":"two-door-navigation","trial_index":10,"time_elapsed":569412,"internal_node_id":"0.0-2.0-8.0"},{"group":"hexagon_tri","room_assignment":["purple","grey","yellow","red","green","blue"],"door_color_assignment":["white","black"],"door_generator_assignment":[1,0],"goal":1,"start":2,"action_noise":0.2,"location_history":"[2,3,2,3,4,2,1]","action_history":"[1,0,1,1,1,0]","door_history":"[0,1,0,0,0,1]","location_rts":"[2811,1073,815,787,1457,458]","trial_type":"two-door-navigation","trial_index":11,"time_elapsed":586365,"internal_node_id":"0.0-2.0-9.0"},{"group":"hexagon_tri","room_assignment":["purple","grey","yellow","red","green","blue"],"door_color_assignment":["white","black"],"door_generator_assignment":[1,0],"goal":5,"start":1,"action_noise":0.2,"location_history":"[1,5]","action_history":"[1]","door_history":"[0]","location_rts":"[1907]","trial_type":"two-door-navigation","trial_index":12,"time_elapsed":592782,"internal_node_id":"0.0-2.0-10.0"},{"group":"hexagon_tri","room_assignment":["purple","grey","yellow","red","green","blue"],"door_color_assignment":["white","black"],"door_generator_assignment":[1,0],"goal":0,"start":5,"action_noise":0.2,"location_history":"[5,0]","action_history":"[1]","door_history":"[0]","location_rts":"[1673]","trial_type":"two-door-navigation","trial_index":13,"time_elapsed":598964,"internal_node_id":"0.0-2.0-11.0"},{"group":"hexagon_tri","room_assignment":["purple","grey","yellow","red","green","blue"],"door_color_assignment":["white","black"],"door_generator_assignment":[1,0],"goal":4,"start":0,"action_noise":0.2,"location_history":"[0,5,4]","action_history":"[0,0]","door_history":"[1,1]","location_rts":"[2307,676]","trial_type":"two-door-navigation","trial_index":14,"time_elapsed":607464,"internal_node_id":"0.0-2.0-12.0"},{"group":"hexagon_tri","room_assignment":["purple","grey","yellow","red","green","blue"],"door_color_assignment":["white","black"],"door_generator_assignment":[1,0],"goal":2,"start":4,"action_noise":0.2,"location_history":"[4,2]","action_history":"[1]","door_history":"[0]","location_rts":"[7856]","trial_type":"two-door-navigation","trial_index":15,"time_elapsed":619826,"internal_node_id":"0.0-2.0-13.0"},{"group":"hexagon_tri","room_assignment":["purple","grey","yellow","red","green","blue"],"door_color_assignment":["white","black"],"door_generator_assignment":[1,0],"goal":1,"start":2,"action_noise":0.2,"location_history":"[2,1]","action_history":"[0]","door_history":"[1]","location_rts":"[2533]","trial_type":"two-door-navigation","trial_index":16,"time_elapsed":626867,"internal_node_id":"0.0-2.0-14.0"},{"group":"hexagon_tri","room_assignment":["purple","grey","yellow","red","green","blue"],"door_color_assignment":["white","black"],"door_generator_assignment":[1,0],"goal":3,"start":1,"action_noise":0.2,"location_history":"[1,3]","action_history":"[0]","door_history":"[1]","location_rts":"[1764]","trial_type":"two-door-navigation","trial_index":17,"time_elapsed":633138,"internal_node_id":"0.0-2.0-15.0"},{"group":"hexagon_tri","room_assignment":["purple","grey","yellow","red","green","blue"],"door_color_assignment":["white","black"],"door_generator_assignment":[1,0],"goal":5,"start":3,"action_noise":0.2,"location_history":"[3,4,0,5]","action_history":"[0,0,1]","door_history":"[1,1,0]","location_rts":"[1398,1068,1195]","trial_type":"two-door-navigation","trial_index":18,"time_elapsed":643317,"internal_node_id":"0.0-2.0-16.0"},{"group":"hexagon_tri","room_assignment":["purple","grey","yellow","red","green","blue"],"door_color_assignment":["white","black"],"door_generator_assignment":[1,0],"goal":0,"start":5,"action_noise":0.2,"location_history":"[5,0]","action_history":"[1]","door_history":"[0]","location_rts":"[1235]","trial_type":"two-door-navigation","trial_index":19,"time_elapsed":649057,"internal_node_id":"0.0-2.0-17.0"},{"group":"hexagon_tri","room_assignment":["purple","grey","yellow","red","green","blue"],"door_color_assignment":["white","black"],"door_generator_assignment":[1,0],"goal":5,"start":0,"action_noise":0.2,"location_history":"[0,1,5]","action_history":"[1,1]","door_history":"[0,0]","location_rts":"[1492,510]","trial_type":"two-door-navigation","trial_index":20,"time_elapsed":656576,"internal_node_id":"0.0-2.0-18.0"},{"group":"hexagon_tri","room_assignment":["purple","grey","yellow","red","green","blue"],"door_color_assignment":["white","black"],"door_generator_assignment":[1,0],"goal":3,"start":5,"action_noise":0.2,"location_history":"[5,4,0,5,4,0,1,3]","action_history":"[0,0,0,0,1,1,1]","door_history":"[1,1,1,1,0,0,0]","location_rts":"[1206,2613,642,728,1002,897,453]","trial_type":"two-door-navigation","trial_index":21,"time_elapsed":674661,"internal_node_id":"0.0-2.0-19.0"},{"group":"hexagon_tri","room_assignment":["purple","grey","yellow","red","green","blue"],"door_color_assignment":["white","black"],"door_generator_assignment":[1,0],"goal":4,"start":3,"action_noise":0.2,"location_history":"[3,4]","action_history":"[1]","door_history":"[0]","location_rts":"[1896]","trial_type":"two-door-navigation","trial_index":22,"time_elapsed":681065,"internal_node_id":"0.0-2.0-20.0"},{"group":"hexagon_tri","room_assignment":["purple","grey","yellow","red","green","blue"],"door_color_assignment":["white","black"],"door_generator_assignment":[1,0],"goal":1,"start":4,"action_noise":0.2,"location_history":"[4,0,1]","action_history":"[0,1]","door_history":"[1,0]","location_rts":"[1903,1007]","trial_type":"two-door-navigation","trial_index":23,"time_elapsed":689495,"internal_node_id":"0.0-2.0-21.0"},{"group":"hexagon_tri","room_assignment":["purple","grey","yellow","red","green","blue"],"door_color_assignment":["white","black"],"door_generator_assignment":[1,0],"goal":2,"start":1,"action_noise":0.2,"location_history":"[1,3,4,2]","action_history":"[0,1,1]","door_history":"[1,0,0]","location_rts":"[2208,960,691]","trial_type":"two-door-navigation","trial_index":24,"time_elapsed":699876,"internal_node_id":"0.0-2.0-22.0"},{"group":"hexagon_tri","room_assignment":["purple","grey","yellow","red","green","blue"],"door_color_assignment":["white","black"],"door_generator_assignment":[1,0],"goal":3,"start":2,"action_noise":0.2,"location_history":"[2,3]","action_history":"[1]","door_history":"[0]","location_rts":"[1201]","trial_type":"two-door-navigation","trial_index":25,"time_elapsed":705586,"internal_node_id":"0.0-2.0-23.0"},{"group":"hexagon_tri","room_assignment":["purple","grey","yellow","red","green","blue"],"door_color_assignment":["white","black"],"door_generator_assignment":[1,0],"goal":5,"start":3,"action_noise":0.2,"location_history":"[3,2,1,5]","action_history":"[0,0,1]","door_history":"[1,1,0]","location_rts":"[1348,1114,764]","trial_type":"two-door-navigation","trial_index":26,"time_elapsed":715335,"internal_node_id":"0.0-2.0-24.0"},{"group":"hexagon_tri","room_assignment":["purple","grey","yellow","red","green","blue"],"door_color_assignment":["white","black"],"door_generator_assignment":[1,0],"goal":4,"start":5,"action_noise":0.2,"location_history":"[5,4]","action_history":"[0]","door_history":"[1]","location_rts":"[1337]","trial_type":"two-door-navigation","trial_index":27,"time_elapsed":721183,"internal_node_id":"0.0-2.0-25.0"},{"group":"hexagon_tri","room_assignment":["purple","grey","yellow","red","green","blue"],"door_color_assignment":["white","black"],"door_generator_assignment":[1,0],"goal":0,"start":4,"action_noise":0.2,"location_history":"[4,0]","action_history":"[0]","door_history":"[1]","location_rts":"[1496]","trial_type":"two-door-navigation","trial_index":28,"time_elapsed":727188,"internal_node_id":"0.0-2.0-26.0"},{"group":"hexagon_tri","room_assignment":["purple","grey","yellow","red","green","blue"],"door_color_assignment":["white","black"],"door_generator_assignment":[1,0],"goal":2,"start":0,"action_noise":0.2,"location_history":"[0,5,4,0,5,0,5,4,2]","action_history":"[0,0,1,0,0,0,0,1]","door_history":"[1,1,0,1,1,1,1,0]","location_rts":"[1669,689,906,1410,807,872,561,1020]","trial_type":"two-door-navigation","trial_index":29,"time_elapsed":746674,"internal_node_id":"0.0-2.0-27.0"},{"group":"hexagon_tri","room_assignment":["purple","grey","yellow","red","green","blue"],"door_color_assignment":["white","black"],"door_generator_assignment":[1,0],"goal":1,"start":2,"action_noise":0.2,"location_history":"[2,1]","action_history":"[0]","door_history":"[1]","location_rts":"[1620]","trial_type":"two-door-navigation","trial_index":30,"time_elapsed":752802,"internal_node_id":"0.0-2.0-28.0"},{"group":"hexagon_tri","room_assignment":["purple","grey","yellow","red","green","blue"],"door_color_assignment":["white","black"],"door_generator_assignment":[1,0],"goal":0,"start":1,"action_noise":0.2,"location_history":"[1,5,4,2,3,4,2,3,2,1,5,0]","action_history":"[1,1,1,1,1,1,1,0,0,1,1]","door_history":"[0,0,0,0,0,0,0,1,1,0,0]","location_rts":"[1261,294,839,1017,575,791,611,458,1086,963,364]","trial_type":"two-door-navigation","trial_index":31,"time_elapsed":775631,"internal_node_id":"0.0-2.0-29.0"},{"group":"hexagon_tri","room_assignment":["purple","grey","yellow","red","green","blue"],"door_color_assignment":["white","black"],"door_generator_assignment":[1,0],"goal":2,"start":0,"action_noise":0.2,"location_history":"[0,5,4,2]","action_history":"[0,0,1]","door_history":"[1,1,0]","location_rts":"[1216,820,909]","trial_type":"two-door-navigation","trial_index":32,"time_elapsed":785100,"internal_node_id":"0.0-2.0-30.0"},{"group":"hexagon_tri","room_assignment":["purple","grey","yellow","red","green","blue"],"door_color_assignment":["white","black"],"door_generator_assignment":[1,0],"goal":4,"start":2,"action_noise":0.2,"location_history":"[2,3,4]","action_history":"[1,1]","door_history":"[0,0]","location_rts":"[1722,579]","trial_type":"two-door-navigation","trial_index":33,"time_elapsed":792919,"internal_node_id":"0.0-2.0-31.0"},{"group":"hexagon_tri","room_assignment":["purple","grey","yellow","red","green","blue"],"door_color_assignment":["white","black"],"door_generator_assignment":[1,0],"goal":1,"start":4,"action_noise":0.2,"location_history":"[4,2,1]","action_history":"[0,0]","door_history":"[1,1]","location_rts":"[1817,895]","trial_type":"two-door-navigation","trial_index":34,"time_elapsed":801139,"internal_node_id":"0.0-2.0-32.0"},{"group":"hexagon_tri","room_assignment":["purple","grey","yellow","red","green","blue"],"door_color_assignment":["white","black"],"door_generator_assignment":[1,0],"goal":3,"start":1,"action_noise":0.2,"location_history":"[1,5,0,1,3]","action_history":"[0,0,0,0]","door_history":"[1,1,1,1]","location_rts":"[1436,599,727,970]","trial_type":"two-door-navigation","trial_index":35,"time_elapsed":812402,"internal_node_id":"0.0-2.0-33.0"},{"group":"hexagon_tri","room_assignment":["purple","grey","yellow","red","green","blue"],"door_color_assignment":["white","black"],"door_generator_assignment":[1,0],"goal":5,"start":3,"action_noise":0.2,"location_history":"[3,4,0,1,5]","action_history":"[0,0,1,1]","door_history":"[1,1,0,0]","location_rts":"[1468,799,1205,452]","trial_type":"two-door-navigation","trial_index":36,"time_elapsed":823852,"internal_node_id":"0.0-2.0-34.0"},{"group":"hexagon_tri","room_assignment":["purple","grey","yellow","red","green","blue"],"door_color_assignment":["white","black"],"door_generator_assignment":[1,0],"goal":2,"start":5,"action_noise":0.2,"location_history":"[5,0,5,4,2]","action_history":"[0,0,0,1]","door_history":"[1,1,1,0]","location_rts":"[1963,718,485,948]","trial_type":"two-door-navigation","trial_index":37,"time_elapsed":835489,"internal_node_id":"0.0-2.0-35.0"},{"group":"hexagon_tri","room_assignment":["purple","grey","yellow","red","green","blue"],"door_color_assignment":["white","black"],"door_generator_assignment":[1,0],"goal":0,"start":2,"action_noise":0.2,"location_history":"[2,1,5,0]","action_history":"[0,1,1]","door_history":"[1,0,0]","location_rts":"[1269,753,297]","trial_type":"two-door-navigation","trial_index":38,"time_elapsed":844333,"internal_node_id":"0.0-2.0-36.0"},{"group":"hexagon_tri","room_assignment":["purple","grey","yellow","red","green","blue"],"door_color_assignment":["white","black"],"door_generator_assignment":[1,0],"goal":4,"start":0,"action_noise":0.2,"location_history":"[0,5,4]","action_history":"[0,0]","door_history":"[1,1]","location_rts":"[1520,672]","trial_type":"two-door-navigation","trial_index":39,"time_elapsed":852045,"internal_node_id":"0.0-2.0-37.0"},{"group":"hexagon_tri","room_assignment":["purple","grey","yellow","red","green","blue"],"door_color_assignment":["white","black"],"door_generator_assignment":[1,0],"goal":5,"start":4,"action_noise":0.2,"location_history":"[4,0,5]","action_history":"[0,0]","door_history":"[1,1]","location_rts":"[1378,522]","trial_type":"two-door-navigation","trial_index":40,"time_elapsed":859461,"internal_node_id":"0.0-2.0-38.0"},{"group":"hexagon_tri","room_assignment":["purple","grey","yellow","red","green","blue"],"door_color_assignment":["white","black"],"door_generator_assignment":[1,0],"goal":1,"start":5,"action_noise":0.2,"location_history":"[5,0,5,4,2,3,2,1]","action_history":"[1,1,1,1,1,0,0]","door_history":"[0,0,0,0,0,1,1]","location_rts":"[2025,489,616,618,639,1907,748]","trial_type":"two-door-navigation","trial_index":41,"time_elapsed":877057,"internal_node_id":"0.0-2.0-39.0"},{"group":"hexagon_tri","room_assignment":["purple","grey","yellow","red","green","blue"],"door_color_assignment":["white","black"],"door_generator_assignment":[1,0],"goal":3,"start":1,"action_noise":0.2,"location_history":"[1,3]","action_history":"[0]","door_history":"[1]","location_rts":"[1263]","trial_type":"two-door-navigation","trial_index":42,"time_elapsed":882825,"internal_node_id":"0.0-2.0-40.0"},{"group":"hexagon_tri","room_assignment":["purple","grey","yellow","red","green","blue"],"door_color_assignment":["white","black"],"door_generator_assignment":[1,0],"goal":1,"start":3,"action_noise":0.2,"location_history":"[3,4,0,1]","action_history":"[0,0,1]","door_history":"[1,1,0]","location_rts":"[1478,981,1359]","trial_type":"two-door-navigation","trial_index":43,"time_elapsed":893171,"internal_node_id":"0.0-2.0-41.0"},{"group":"hexagon_tri","room_assignment":["purple","grey","yellow","red","green","blue"],"door_color_assignment":["white","black"],"door_generator_assignment":[1,0],"goal":0,"start":1,"action_noise":0.2,"location_history":"[1,5,0]","action_history":"[1,1]","door_history":"[0,0]","location_rts":"[1101,258]","trial_type":"two-door-navigation","trial_index":44,"time_elapsed":900044,"internal_node_id":"0.0-2.0-42.0"},{"group":"hexagon_tri","room_assignment":["purple","grey","yellow","red","green","blue"],"door_color_assignment":["white","black"],"door_generator_assignment":[1,0],"goal":4,"start":0,"action_noise":0.2,"location_history":"[0,5,4]","action_history":"[0,0]","door_history":"[1,1]","location_rts":"[1362,739]","trial_type":"two-door-navigation","trial_index":45,"time_elapsed":907661,"internal_node_id":"0.0-2.0-43.0"},{"group":"hexagon_tri","room_assignment":["purple","grey","yellow","red","green","blue"],"door_color_assignment":["white","black"],"door_generator_assignment":[1,0],"goal":2,"start":4,"action_noise":0.2,"location_history":"[4,2]","action_history":"[1]","door_history":"[0]","location_rts":"[1481]","trial_type":"two-door-navigation","trial_index":46,"time_elapsed":913654,"internal_node_id":"0.0-2.0-44.0"},{"group":"hexagon_tri","room_assignment":["purple","grey","yellow","red","green","blue"],"door_color_assignment":["white","black"],"door_generator_assignment":[1,0],"goal":3,"start":2,"action_noise":0.2,"location_history":"[2,3]","action_history":"[1]","door_history":"[0]","location_rts":"[1327]","trial_type":"two-door-navigation","trial_index":47,"time_elapsed":919494,"internal_node_id":"0.0-2.0-45.0"},{"group":"hexagon_tri","room_assignment":["purple","grey","yellow","red","green","blue"],"door_color_assignment":["white","black"],"door_generator_assignment":[1,0],"goal":5,"start":3,"action_noise":0.2,"location_history":"[3,2,1,3,2,1,5]","action_history":"[0,0,1,0,0,1]","door_history":"[1,1,0,1,1,0]","location_rts":"[1168,883,1035,992,1025,442]","trial_type":"two-door-navigation","trial_index":48,"time_elapsed":934581,"internal_node_id":"0.0-2.0-46.0"},{"group":"hexagon_tri","room_assignment":["purple","grey","yellow","red","green","blue"],"door_color_assignment":["white","black"],"door_generator_assignment":[1,0],"goal":4,"start":5,"action_noise":0.2,"location_history":"[5,4]","action_history":"[0]","door_history":"[1]","location_rts":"[1170]","trial_type":"two-door-navigation","trial_index":49,"time_elapsed":940264,"internal_node_id":"0.0-2.0-47.0"},{"group":"hexagon_tri","room_assignment":["purple","grey","yellow","red","green","blue"],"door_color_assignment":["white","black"],"door_generator_assignment":[1,0],"goal":3,"start":4,"action_noise":0.2,"location_history":"[4,2,3]","action_history":"[1,1]","door_history":"[0,0]","location_rts":"[1527,504]","trial_type":"two-door-navigation","trial_index":50,"time_elapsed":947815,"internal_node_id":"0.0-2.0-48.0"},{"group":"hexagon_tri","room_assignment":["purple","grey","yellow","red","green","blue"],"door_color_assignment":["white","black"],"door_generator_assignment":[1,0],"goal":1,"start":3,"action_noise":0.2,"location_history":"[3,4,0,1]","action_history":"[0,0,1]","door_history":"[1,1,0]","location_rts":"[1250,985,1045]","trial_type":"two-door-navigation","trial_index":51,"time_elapsed":957611,"internal_node_id":"0.0-2.0-49.0"},{"group":"hexagon_tri","room_assignment":["purple","grey","yellow","red","green","blue"],"door_color_assignment":["white","black"],"door_generator_assignment":[1,0],"goal":2,"start":1,"action_noise":0.2,"location_history":"[1,3,4,2]","action_history":"[0,1,1]","door_history":"[1,0,0]","location_rts":"[1149,688,571]","trial_type":"two-door-navigation","trial_index":52,"time_elapsed":966537,"internal_node_id":"0.0-2.0-50.0"},{"group":"hexagon_tri","room_assignment":["purple","grey","yellow","red","green","blue"],"door_color_assignment":["white","black"],"door_generator_assignment":[1,0],"goal":0,"start":2,"action_noise":0.2,"location_history":"[2,1,5,0]","action_history":"[0,1,1]","door_history":"[1,0,0]","location_rts":"[1303,867,307]","trial_type":"two-door-navigation","trial_index":53,"time_elapsed":975532,"internal_node_id":"0.0-2.0-51.0"},{"group":"hexagon_tri","room_assignment":["purple","grey","yellow","red","green","blue"],"door_color_assignment":["white","black"],"door_generator_assignment":[1,0],"goal":5,"start":0,"action_noise":0.2,"location_history":"[0,1,5]","action_history":"[1,1]","door_history":"[0,0]","location_rts":"[1180,486]","trial_type":"two-door-navigation","trial_index":54,"time_elapsed":982718,"internal_node_id":"0.0-2.0-52.0"},{"group":"hexagon_tri","room_assignment":["purple","grey","yellow","red","green","blue"],"door_color_assignment":["white","black"],"door_generator_assignment":[1,0],"goal":1,"start":5,"action_noise":0.2,"location_history":"[5,4,0,1]","action_history":"[1,1,1]","door_history":"[0,0,0]","location_rts":"[1265,2092,1010]","trial_type":"two-door-navigation","trial_index":55,"time_elapsed":993605,"internal_node_id":"0.0-2.0-53.0"},{"group":"hexagon_tri","room_assignment":["purple","grey","yellow","red","green","blue"],"door_color_assignment":["white","black"],"door_generator_assignment":[1,0],"goal":3,"start":1,"action_noise":0.2,"location_history":"[1,3]","action_history":"[0]","door_history":"[1]","location_rts":"[1364]","trial_type":"two-door-navigation","trial_index":56,"time_elapsed":999479,"internal_node_id":"0.0-2.0-54.0"},{"group":"hexagon_tri","room_assignment":["purple","grey","yellow","red","green","blue"],"door_color_assignment":["white","black"],"door_generator_assignment":[1,0],"goal":5,"start":3,"action_noise":0.2,"location_history":"[3,2,1,5]","action_history":"[0,0,1]","door_history":"[1,1,0]","location_rts":"[1336,793,778]","trial_type":"two-door-navigation","trial_index":57,"time_elapsed":1008902,"internal_node_id":"0.0-2.0-55.0"},{"group":"hexagon_tri","room_assignment":["purple","grey","yellow","red","green","blue"],"door_color_assignment":["white","black"],"door_generator_assignment":[1,0],"goal":4,"start":5,"action_noise":0.2,"location_history":"[5,4]","action_history":"[0]","door_history":"[1]","location_rts":"[1143]","trial_type":"two-door-navigation","trial_index":58,"time_elapsed":1014556,"internal_node_id":"0.0-2.0-56.0"},{"group":"hexagon_tri","room_assignment":["purple","grey","yellow","red","green","blue"],"door_color_assignment":["white","black"],"door_generator_assignment":[1,0],"goal":0,"start":4,"action_noise":0.2,"location_history":"[4,0]","action_history":"[0]","door_history":"[1]","location_rts":"[1339]","trial_type":"two-door-navigation","trial_index":59,"time_elapsed":1020402,"internal_node_id":"0.0-2.0-57.0"},{"group":"hexagon_tri","room_assignment":["purple","grey","yellow","red","green","blue"],"door_color_assignment":["white","black"],"door_generator_assignment":[1,0],"goal":2,"start":0,"action_noise":0.2,"location_history":"[0,5,4,2]","action_history":"[0,0,1]","door_history":"[1,1,0]","location_rts":"[1878,723,947]","trial_type":"two-door-navigation","trial_index":60,"time_elapsed":1030469,"internal_node_id":"0.0-2.0-58.0"},{"group":"hexagon_tri","room_assignment":["purple","grey","yellow","red","green","blue"],"door_color_assignment":["white","black"],"door_generator_assignment":[1,0],"goal":4,"start":2,"action_noise":0.2,"location_history":"[2,3,4]","action_history":"[1,1]","door_history":"[0,0]","location_rts":"[1378,601]","trial_type":"two-door-navigation","trial_index":61,"time_elapsed":1037965,"internal_node_id":"0.0-2.0-59.0"},{"group":"hexagon_tri","room_assignment":["purple","grey","yellow","red","green","blue"],"door_color_assignment":["white","black"],"door_generator_assignment":[1,0],"goal":2,"start":4,"action_noise":0.2,"location_history":"[4,2]","action_history":"[1]","door_history":"[0]","location_rts":"[1178]","trial_type":"two-door-navigation","trial_index":62,"time_elapsed":1043656,"internal_node_id":"0.0-2.0-60.0"},{"group":"hexagon_tri","room_assignment":["purple","grey","yellow","red","green","blue"],"door_color_assignment":["white","black"],"door_generator_assignment":[1,0],"goal":3,"start":2,"action_noise":0.2,"location_history":"[2,3]","action_history":"[1]","door_history":"[0]","location_rts":"[1205]","trial_type":"two-door-navigation","trial_index":63,"time_elapsed":1049372,"internal_node_id":"0.0-2.0-61.0"},{"group":"hexagon_tri","room_assignment":["purple","grey","yellow","red","green","blue"],"door_color_assignment":["white","black"],"door_generator_assignment":[1,0],"goal":0,"start":3,"action_noise":0.2,"location_history":"[3,2,1,3,2,3,2,1,5,0]","action_history":"[0,0,1,0,0,0,0,1,1]","door_history":"[1,1,0,1,1,1,1,0,0]","location_rts":"[1604,830,1121,1606,688,995,1092,716,399]","trial_type":"two-door-navigation","trial_index":64,"time_elapsed":1070984,"internal_node_id":"0.0-2.0-62.0"},{"group":"hexagon_tri","room_assignment":["purple","grey","yellow","red","green","blue"],"door_color_assignment":["white","black"],"door_generator_assignment":[1,0],"goal":5,"start":0,"action_noise":0.2,"location_history":"[0,1,5]","action_history":"[1,1]","door_history":"[0,0]","location_rts":"[1400,434]","trial_type":"two-door-navigation","trial_index":65,"time_elapsed":1078332,"internal_node_id":"0.0-2.0-63.0"},{"group":"hexagon_tri","room_assignment":["purple","grey","yellow","red","green","blue"],"door_color_assignment":["white","black"],"door_generator_assignment":[1,0],"goal":1,"start":5,"action_noise":0.2,"location_history":"[5,0,1]","action_history":"[1,1]","door_history":"[0,0]","location_rts":"[1189,501]","trial_type":"two-door-navigation","trial_index":66,"time_elapsed":1085533,"internal_node_id":"0.0-2.0-64.0"},{"group":"hexagon_tri","room_assignment":["purple","grey","yellow","red","green","blue"],"door_color_assignment":["white","black"],"door_generator_assignment":[1,0],"goal":5,"start":1,"action_noise":0.2,"location_history":"[1,5]","action_history":"[1]","door_history":"[0]","location_rts":"[963]","trial_type":"two-door-navigation","trial_index":67,"time_elapsed":1091002,"internal_node_id":"0.0-2.0-65.0"},{"group":"hexagon_tri","room_assignment":["purple","grey","yellow","red","green","blue"],"door_color_assignment":["white","black"],"door_generator_assignment":[1,0],"goal":3,"start":5,"action_noise":0.2,"location_history":"[5,4,0,5,4,0,1,5,4,2,3]","action_history":"[0,1,0,0,1,1,1,0,1,1]","door_history":"[1,0,1,1,0,0,0,1,0,0]","location_rts":"[1181,1084,958,1008,783,942,615,303,1286,752]","trial_type":"two-door-navigation","trial_index":68,"time_elapsed":1113501,"internal_node_id":"0.0-2.0-66.0"},{"group":"hexagon_tri","room_assignment":["purple","grey","yellow","red","green","blue"],"door_color_assignment":["white","black"],"door_generator_assignment":[1,0],"goal":2,"start":3,"action_noise":0.2,"location_history":"[3,4,2]","action_history":"[1,1]","door_history":"[0,0]","location_rts":"[1082,737]","trial_type":"two-door-navigation","trial_index":69,"time_elapsed":1120832,"internal_node_id":"0.0-2.0-67.0"},{"group":"hexagon_tri","room_assignment":["purple","grey","yellow","red","green","blue"],"door_color_assignment":["white","black"],"door_generator_assignment":[1,0],"goal":1,"start":2,"action_noise":0.2,"location_history":"[2,3,2,1]","action_history":"[0,0,0]","door_history":"[1,1,1]","location_rts":"[2270,1401,885]","trial_type":"two-door-navigation","trial_index":70,"time_elapsed":1131915,"internal_node_id":"0.0-2.0-68.0"},{"group":"hexagon_tri","room_assignment":["purple","grey","yellow","red","green","blue"],"door_color_assignment":["white","black"],"door_generator_assignment":[1,0],"goal":4,"start":1,"action_noise":0.2,"location_history":"[1,3,2,3,2,3,4]","action_history":"[0,1,1,1,1,1]","door_history":"[1,0,0,0,0,0]","location_rts":"[1133,769,542,815,394,528]","trial_type":"two-door-navigation","trial_index":71,"time_elapsed":1145643,"internal_node_id":"0.0-2.0-69.0"},{"group":"hexagon_tri","room_assignment":["purple","grey","yellow","red","green","blue"],"door_color_assignment":["white","black"],"door_generator_assignment":[1,0],"goal":0,"start":4,"action_noise":0.2,"location_history":"[4,2,1,5,0]","action_history":"[0,0,1,1]","door_history":"[1,1,0,0]","location_rts":"[1050,1225,654,265]","trial_type":"two-door-navigation","trial_index":72,"time_elapsed":1156364,"internal_node_id":"0.0-2.0-70.0"},{"group":"hexagon_tri","room_assignment":["purple","grey","yellow","red","green","blue"],"door_color_assignment":["white","black"],"door_generator_assignment":[1,0],"goal":3,"start":0,"action_noise":0.2,"location_history":"[0,5,4,2,1,5,0,5,4,2,3]","action_history":"[0,0,1,1,1,0,0,0,1,1]","door_history":"[1,1,0,0,0,1,1,1,0,0]","location_rts":"[1251,670,925,667,872,761,821,770,905,631]","trial_type":"two-door-navigation","trial_index":73,"time_elapsed":1178213,"internal_node_id":"0.0-2.0-71.0"},{"group":"hexagon_tri","room_assignment":["purple","grey","yellow","red","green","blue"],"door_color_assignment":["white","black"],"door_generator_assignment":[1,0],"goal":1,"start":3,"action_noise":0.2,"location_history":"[3,2,1]","action_history":"[0,0]","door_history":"[1,1]","location_rts":"[2209,606]","trial_type":"two-door-navigation","trial_index":74,"time_elapsed":1186549,"internal_node_id":"0.0-2.0-72.0"},{"group":"hexagon_tri","room_assignment":["purple","grey","yellow","red","green","blue"],"door_color_assignment":["white","black"],"door_generator_assignment":[1,0],"goal":0,"start":1,"action_noise":0.2,"location_history":"[1,5,0]","action_history":"[1,1]","door_history":"[0,0]","location_rts":"[1248,325]","trial_type":"two-door-navigation","trial_index":75,"time_elapsed":1193637,"internal_node_id":"0.0-2.0-73.0"},{"group":"hexagon_tri","room_assignment":["purple","grey","yellow","red","green","blue"],"door_color_assignment":["white","black"],"door_generator_assignment":[1,0],"goal":2,"start":0,"action_noise":0.2,"location_history":"[0,5,4,0,5,0,5,4,2]","action_history":"[0,0,1,0,0,0,0,1]","door_history":"[1,1,0,1,1,1,1,0]","location_rts":"[1346,671,728,761,590,620,522,889]","trial_type":"two-door-navigation","trial_index":76,"time_elapsed":1211323,"internal_node_id":"0.0-2.0-74.0"},{"group":"hexagon_tri","room_assignment":["purple","grey","yellow","red","green","blue"],"door_color_assignment":["white","black"],"door_generator_assignment":[1,0],"goal":4,"start":2,"action_noise":0.2,"location_history":"[2,3,2,3,2,3,4]","action_history":"[1,1,1,1,1,1]","door_history":"[0,0,0,0,0,0]","location_rts":"[1355,530,428,405,466,1929]","trial_type":"two-door-navigation","trial_index":77,"time_elapsed":1225977,"internal_node_id":"0.0-2.0-75.0"},{"group":"hexagon_tri","room_assignment":["purple","grey","yellow","red","green","blue"],"door_color_assignment":["white","black"],"door_generator_assignment":[1,0],"goal":5,"start":4,"action_noise":0.2,"location_history":"[4,0,5]","action_history":"[0,1]","door_history":"[1,0]","location_rts":"[9134,936]","trial_type":"two-door-navigation","trial_index":78,"time_elapsed":1241567,"internal_node_id":"0.0-2.0-76.0"},{"group":"hexagon_tri","room_assignment":["purple","grey","yellow","red","green","blue"],"door_color_assignment":["white","black"],"door_generator_assignment":[1,0],"goal":2,"start":5,"action_noise":0.2,"location_history":"[5,0,5,4,2]","action_history":"[0,0,0,1]","door_history":"[1,1,1,0]","location_rts":"[1479,664,680,825]","trial_type":"two-door-navigation","trial_index":79,"time_elapsed":1252751,"internal_node_id":"0.0-2.0-77.0"},{"group":"hexagon_tri","room_assignment":["purple","grey","yellow","red","green","blue"],"door_color_assignment":["white","black"],"door_generator_assignment":[1,0],"goal":3,"start":2,"action_noise":0.2,"location_history":"[2,3]","action_history":"[1]","door_history":"[0]","location_rts":"[1225]","trial_type":"two-door-navigation","trial_index":80,"time_elapsed":1258484,"internal_node_id":"0.0-2.0-78.0"},{"group":"hexagon_tri","room_assignment":["purple","grey","yellow","red","green","blue"],"door_color_assignment":["white","black"],"door_generator_assignment":[1,0],"goal":1,"start":3,"action_noise":0.2,"location_history":"[3,2,1]","action_history":"[0,0]","door_history":"[1,1]","location_rts":"[1148,589]","trial_type":"two-door-navigation","trial_index":81,"time_elapsed":1265731,"internal_node_id":"0.0-2.0-79.0"},{"group":"hexagon_tri","room_assignment":["purple","grey","yellow","red","green","blue"],"door_color_assignment":["white","black"],"door_generator_assignment":[1,0],"goal":4,"start":1,"action_noise":0.2,"location_history":"[1,3,4]","action_history":"[0,1]","door_history":"[1,0]","location_rts":"[1173,1488]","trial_type":"two-door-navigation","trial_index":82,"time_elapsed":1273908,"internal_node_id":"0.0-2.0-80.0"},{"group":"hexagon_tri","room_assignment":["purple","grey","yellow","red","green","blue"],"door_color_assignment":["white","black"],"door_generator_assignment":[1,0],"goal":5,"start":4,"action_noise":0.2,"location_history":"[4,2,1,5]","action_history":"[0,0,1]","door_history":"[1,1,0]","location_rts":"[1426,728,768]","trial_type":"two-door-navigation","trial_index":83,"time_elapsed":1283357,"internal_node_id":"0.0-2.0-81.0"},{"group":"hexagon_tri","room_assignment":["purple","grey","yellow","red","green","blue"],"door_color_assignment":["white","black"],"door_generator_assignment":[1,0],"goal":0,"start":5,"action_noise":0.2,"location_history":"[5,0]","action_history":"[1]","door_history":"[0]","location_rts":"[1328]","trial_type":"two-door-navigation","trial_index":84,"time_elapsed":1289193,"internal_node_id":"0.0-2.0-82.0"},{"group":"hexagon_tri","room_assignment":["purple","grey","yellow","red","green","blue"],"door_color_assignment":["white","black"],"door_generator_assignment":[1,0],"goal":2,"start":0,"action_noise":0.2,"location_history":"[0,1,5,4,2]","action_history":"[0,0,0,1]","door_history":"[1,1,1,0]","location_rts":"[999,980,613,641]","trial_type":"two-door-navigation","trial_index":85,"time_elapsed":1299954,"internal_node_id":"0.0-2.0-83.0"},{"group":"hexagon_tri","room_assignment":["purple","grey","yellow","red","green","blue"],"door_color_assignment":["white","black"],"door_generator_assignment":[1,0],"goal":0,"start":2,"action_noise":0.2,"location_history":"[2,1,5,0]","action_history":"[0,1,1]","door_history":"[1,0,0]","location_rts":"[1770,788,286]","trial_type":"two-door-navigation","trial_index":86,"time_elapsed":1309323,"internal_node_id":"0.0-2.0-84.0"},{"group":"hexagon_tri","room_assignment":["purple","grey","yellow","red","green","blue"],"door_color_assignment":["white","black"],"door_generator_assignment":[1,0],"goal":5,"start":0,"action_noise":0.2,"location_history":"[0,1,5]","action_history":"[1,1]","door_history":"[0,0]","location_rts":"[1242,651]","trial_type":"two-door-navigation","trial_index":87,"time_elapsed":1316736,"internal_node_id":"0.0-2.0-85.0"},{"group":"hexagon_tri","room_assignment":["purple","grey","yellow","red","green","blue"],"door_color_assignment":["white","black"],"door_generator_assignment":[1,0],"goal":1,"start":5,"action_noise":0.2,"location_history":"[5,4,2,3,2,1]","action_history":"[1,1,1,0,0]","door_history":"[0,0,0,1,1]","location_rts":"[1206,1583,639,364,702]","trial_type":"two-door-navigation","trial_index":88,"time_elapsed":1329773,"internal_node_id":"0.0-2.0-86.0"},{"group":"hexagon_tri","room_assignment":["purple","grey","yellow","red","green","blue"],"door_color_assignment":["white","black"],"door_generator_assignment":[1,0],"goal":4,"start":1,"action_noise":0.2,"location_history":"[1,3,4]","action_history":"[0,1]","door_history":"[1,0]","location_rts":"[1234,930]","trial_type":"two-door-navigation","trial_index":89,"time_elapsed":1337453,"internal_node_id":"0.0-2.0-87.0"},{"group":"hexagon_tri","room_assignment":["purple","grey","yellow","red","green","blue"],"door_color_assignment":["white","black"],"door_generator_assignment":[1,0],"goal":3,"start":4,"action_noise":0.2,"location_history":"[4,2,3]","action_history":"[1,1]","door_history":"[0,0]","location_rts":"[1346,481]","trial_type":"two-door-navigation","trial_index":90,"time_elapsed":1344797,"internal_node_id":"0.0-2.0-88.0"},{"group":"hexagon_tri","room_assignment":["purple","grey","yellow","red","green","blue"],"door_color_assignment":["white","black"],"door_generator_assignment":[1,0],"goal":5,"start":3,"action_noise":0.2,"location_history":"[3,4,0,1,5]","action_history":"[0,0,1,1]","door_history":"[1,1,0,0]","location_rts":"[1417,881,904,348]","trial_type":"two-door-navigation","trial_index":91,"time_elapsed":1355877,"internal_node_id":"0.0-2.0-89.0"},{"group":"hexagon_tri","room_assignment":["purple","grey","yellow","red","green","blue"],"door_color_assignment":["white","black"],"door_generator_assignment":[1,0],"goal":1,"start":5,"action_noise":0.2,"location_history":"[5,0,1]","action_history":"[1,1]","door_history":"[0,0]","location_rts":"[1768,440]","trial_type":"two-door-navigation","trial_index":92,"time_elapsed":1363608,"internal_node_id":"0.0-2.0-90.0"},{"group":"hexagon_tri","room_assignment":["purple","grey","yellow","red","green","blue"],"door_color_assignment":["white","black"],"door_generator_assignment":[1,0],"goal":2,"start":1,"action_noise":0.2,"location_history":"[1,3,4,2]","action_history":"[0,1,1]","door_history":"[1,0,0]","location_rts":"[1285,862,1123]","trial_type":"two-door-navigation","trial_index":93,"time_elapsed":1373405,"internal_node_id":"0.0-2.0-91.0"},{"group":"hexagon_tri","room_assignment":["purple","grey","yellow","red","green","blue"],"door_color_assignment":["white","black"],"door_generator_assignment":[1,0],"goal":4,"start":2,"action_noise":0.2,"location_history":"[2,3,4]","action_history":"[1,1]","door_history":"[0,0]","location_rts":"[1249,522]","trial_type":"two-door-navigation","trial_index":94,"time_elapsed":1380692,"internal_node_id":"0.0-2.0-92.0"},{"group":"hexagon_tri","room_assignment":["purple","grey","yellow","red","green","blue"],"door_color_assignment":["white","black"],"door_generator_assignment":[1,0],"goal":0,"start":4,"action_noise":0.2,"location_history":"[4,0]","action_history":"[0]","door_history":"[1]","location_rts":"[1498]","trial_type":"two-door-navigation","trial_index":95,"time_elapsed":1386708,"internal_node_id":"0.0-2.0-93.0"},{"group":"hexagon_tri","room_assignment":["purple","grey","yellow","red","green","blue"],"door_color_assignment":["white","black"],"door_generator_assignment":[1,0],"goal":3,"start":0,"action_noise":0.2,"location_history":"[0,5,4,2,1,5,0,5,4,0,5,4,2,1,3]","action_history":"[0,0,1,1,1,0,0,0,1,0,0,1,1,0]","door_history":"[1,1,0,0,0,1,1,1,0,1,1,0,0,1]","location_rts":"[1332,873,646,708,1366,442,627,534,902,1305,551,764,465,1600]","trial_type":"two-door-navigation","trial_index":96,"time_elapsed":1416429,"internal_node_id":"0.0-2.0-94.0"},{"group":"hexagon_tri","room_assignment":["purple","grey","yellow","red","green","blue"],"door_color_assignment":["white","black"],"door_generator_assignment":[1,0],"goal":0,"start":3,"action_noise":0.2,"location_history":"[3,2,1,5,0]","action_history":"[0,0,1,1]","door_history":"[1,1,0,0]","location_rts":"[1313,656,926,250]","trial_type":"two-door-navigation","trial_index":97,"time_elapsed":1427096,"internal_node_id":"0.0-2.0-95.0"},{"group":"hexagon_tri","room_assignment":["purple","grey","yellow","red","green","blue"],"door_color_assignment":["white","black"],"door_generator_assignment":[1,0],"goal":4,"start":0,"action_noise":0.2,"location_history":"[0,5,4]","action_history":"[0,0]","door_history":"[1,1]","location_rts":"[1125,660]","trial_type":"two-door-navigation","trial_index":98,"time_elapsed":1434397,"internal_node_id":"0.0-2.0-96.0"},{"group":"hexagon_tri","room_assignment":["purple","grey","yellow","red","green","blue"],"door_color_assignment":["white","black"],"door_generator_assignment":[1,0],"goal":5,"start":4,"action_noise":0.2,"location_history":"[4,0,1,3,2,1,5]","action_history":"[0,1,1,0,0,1]","door_history":"[1,0,0,1,1,0]","location_rts":"[1288,1019,476,1075,637,600]","trial_type":"two-door-navigation","trial_index":99,"time_elapsed":1449044,"internal_node_id":"0.0-2.0-97.0"},{"group":"hexagon_tri","room_assignment":["purple","grey","yellow","red","green","blue"],"door_color_assignment":["white","black"],"door_generator_assignment":[1,0],"goal":2,"start":5,"action_noise":0.2,"location_history":"[5,0,5,0,5,4,2]","action_history":"[0,0,0,0,0,1]","door_history":"[1,1,1,1,1,0]","location_rts":"[1178,754,1247,496,676,942]","trial_type":"two-door-navigation","trial_index":100,"time_elapsed":1463882,"internal_node_id":"0.0-2.0-98.0"},{"group":"hexagon_tri","room_assignment":["purple","grey","yellow","red","green","blue"],"door_color_assignment":["white","black"],"door_generator_assignment":[1,0],"goal":1,"start":2,"action_noise":0.2,"location_history":"[2,1]","action_history":"[0]","door_history":"[1]","location_rts":"[1060]","trial_type":"two-door-navigation","trial_index":101,"time_elapsed":1469453,"internal_node_id":"0.0-2.0-99.0"},{"view_history":"[{\"page_index\":0,\"viewing_time\":2736}]","rt":2737,"trial_type":"instructions","trial_index":102,"time_elapsed":1473192,"internal_node_id":"0.0-3.0"},{"view_history":"[{\"page_index\":0,\"viewing_time\":2062},{\"page_index\":1,\"viewing_time\":5408}]","rt":7470,"trial_type":"instructions","trial_index":103,"time_elapsed":1481663,"internal_node_id":"0.0-4.0"},{"group":"hexagon_tri","fractal_assignment":["../images/blu_wht.png","../images/org_blu.png","../images/ylw_slt.png","../images/cyn_red.png","../images/pnk_blu.png","../images/gry_blk.png"],"mutagen_generator_assignment":[1,0],"goal":2,"start":1,"action_noise":0.2,"location_history":"[1,5,4,2]","action_history":"[0,1,1]","mutagen_history":"[1,0,0]","location_rts":"[2122,1407,894]","trial_type":"fractal-mutation","trial_index":104,"time_elapsed":1492657,"internal_node_id":"0.0-5.0-0.0"},{"group":"hexagon_tri","fractal_assignment":["../images/blu_wht.png","../images/org_blu.png","../images/ylw_slt.png","../images/cyn_red.png","../images/pnk_blu.png","../images/gry_blk.png"],"mutagen_generator_assignment":[1,0],"goal":0,"start":2,"action_noise":0.2,"location_history":"[2,3,2,1,5,4,0]","action_history":"[1,0,0,0,0,0]","mutagen_history":"[0,1,1,1,1,1]","location_rts":"[3738,1367,610,986,2005,1941]","trial_type":"fractal-mutation","trial_index":105,"time_elapsed":1512947,"internal_node_id":"0.0-5.0-1.0"},{"group":"hexagon_tri","fractal_assignment":["../images/blu_wht.png","../images/org_blu.png","../images/ylw_slt.png","../images/cyn_red.png","../images/pnk_blu.png","../images/gry_blk.png"],"mutagen_generator_assignment":[1,0],"goal":5,"start":0,"action_noise":0.2,"location_history":"[0,1,5]","action_history":"[1,1]","mutagen_history":"[0,0]","location_rts":"[1960,1084]","trial_type":"fractal-mutation","trial_index":106,"time_elapsed":1521536,"internal_node_id":"0.0-5.0-2.0"},{"group":"hexagon_tri","fractal_assignment":["../images/blu_wht.png","../images/org_blu.png","../images/ylw_slt.png","../images/cyn_red.png","../images/pnk_blu.png","../images/gry_blk.png"],"mutagen_generator_assignment":[1,0],"goal":3,"start":5,"action_noise":0.2,"location_history":"[5,4,2,3]","action_history":"[1,1,1]","mutagen_history":"[0,0,0]","location_rts":"[1572,551,725]","trial_type":"fractal-mutation","trial_index":107,"time_elapsed":1530941,"internal_node_id":"0.0-5.0-3.0"},{"group":"hexagon_tri","fractal_assignment":["../images/blu_wht.png","../images/org_blu.png","../images/ylw_slt.png","../images/cyn_red.png","../images/pnk_blu.png","../images/gry_blk.png"],"mutagen_generator_assignment":[1,0],"goal":4,"start":3,"action_noise":0.2,"location_history":"[3,4]","action_history":"[1]","mutagen_history":"[0]","location_rts":"[1367]","trial_type":"fractal-mutation","trial_index":108,"time_elapsed":1536825,"internal_node_id":"0.0-5.0-4.0"},{"group":"hexagon_tri","fractal_assignment":["../images/blu_wht.png","../images/org_blu.png","../images/ylw_slt.png","../images/cyn_red.png","../images/pnk_blu.png","../images/gry_blk.png"],"mutagen_generator_assignment":[1,0],"goal":0,"start":4,"action_noise":0.2,"location_history":"[4,0]","action_history":"[0]","mutagen_history":"[1]","location_rts":"[1594]","trial_type":"fractal-mutation","trial_index":109,"time_elapsed":1542951,"internal_node_id":"0.0-5.0-5.0"},{"group":"hexagon_tri","fractal_assignment":["../images/blu_wht.png","../images/org_blu.png","../images/ylw_slt.png","../images/cyn_red.png","../images/pnk_blu.png","../images/gry_blk.png"],"mutagen_generator_assignment":[1,0],"goal":4,"start":0,"action_noise":0.2,"location_history":"[0,5,4]","action_history":"[1,0]","mutagen_history":"[0,1]","location_rts":"[2547,1999]","trial_type":"fractal-mutation","trial_index":110,"time_elapsed":1553039,"internal_node_id":"0.0-5.0-6.0"},{"group":"hexagon_tri","fractal_assignment":["../images/blu_wht.png","../images/org_blu.png","../images/ylw_slt.png","../images/cyn_red.png","../images/pnk_blu.png","../images/gry_blk.png"],"mutagen_generator_assignment":[1,0],"goal":3,"start":4,"action_noise":0.2,"location_history":"[4,0,1,3]","action_history":"[1,1,0]","mutagen_history":"[0,0,1]","location_rts":"[1460,887,1344]","trial_type":"fractal-mutation","trial_index":111,"time_elapsed":1563288,"internal_node_id":"0.0-5.0-7.0"},{"group":"hexagon_tri","fractal_assignment":["../images/blu_wht.png","../images/org_blu.png","../images/ylw_slt.png","../images/cyn_red.png","../images/pnk_blu.png","../images/gry_blk.png"],"mutagen_generator_assignment":[1,0],"goal":2,"start":3,"action_noise":0.2,"location_history":"[3,2]","action_history":"[0]","mutagen_history":"[1]","location_rts":"[1547]","trial_type":"fractal-mutation","trial_index":112,"time_elapsed":1569367,"internal_node_id":"0.0-5.0-8.0"},{"group":"hexagon_tri","fractal_assignment":["../images/blu_wht.png","../images/org_blu.png","../images/ylw_slt.png","../images/cyn_red.png","../images/pnk_blu.png","../images/gry_blk.png"],"mutagen_generator_assignment":[1,0],"goal":1,"start":2,"action_noise":0.2,"location_history":"[2,3,2,3,4,2,3,4,2,1]","action_history":"[1,1,1,1,1,1,1,1,1]","mutagen_history":"[0,0,0,0,0,0,0,0,0]","location_rts":"[1165,678,557,509,770,599,619,671,667]","trial_type":"fractal-mutation","trial_index":113,"time_elapsed":1588273,"internal_node_id":"0.0-5.0-9.0"},{"group":"hexagon_tri","fractal_assignment":["../images/blu_wht.png","../images/org_blu.png","../images/ylw_slt.png","../images/cyn_red.png","../images/pnk_blu.png","../images/gry_blk.png"],"mutagen_generator_assignment":[1,0],"goal":5,"start":1,"action_noise":0.2,"location_history":"[1,3,4,2,3,4,0,5]","action_history":"[0,1,1,1,1,1,1]","mutagen_history":"[1,0,0,0,0,0,0]","location_rts":"[1290,1934,803,567,553,564,733]","trial_type":"fractal-mutation","trial_index":114,"time_elapsed":1605341,"internal_node_id":"0.0-5.0-10.0"},{"group":"hexagon_tri","fractal_assignment":["../images/blu_wht.png","../images/org_blu.png","../images/ylw_slt.png","../images/cyn_red.png","../images/pnk_blu.png","../images/gry_blk.png"],"mutagen_generator_assignment":[1,0],"goal":0,"start":5,"action_noise":0.2,"location_history":"[5,4,0]","action_history":"[0,0]","mutagen_history":"[1,1]","location_rts":"[1182,851]","trial_type":"fractal-mutation","trial_index":115,"time_elapsed":1612925,"internal_node_id":"0.0-5.0-11.0"},{"group":"hexagon_tri","fractal_assignment":["../images/blu_wht.png","../images/org_blu.png","../images/ylw_slt.png","../images/cyn_red.png","../images/pnk_blu.png","../images/gry_blk.png"],"mutagen_generator_assignment":[1,0],"goal":4,"start":0,"action_noise":0.2,"location_history":"[0,1,5,4]","action_history":"[1,1,0]","mutagen_history":"[0,0,1]","location_rts":"[1774,1862,1362]","trial_type":"fractal-mutation","trial_index":116,"time_elapsed":1624474,"internal_node_id":"0.0-5.0-12.0"},{"group":"hexagon_tri","fractal_assignment":["../images/blu_wht.png","../images/org_blu.png","../images/ylw_slt.png","../images/cyn_red.png","../images/pnk_blu.png","../images/gry_blk.png"],"mutagen_generator_assignment":[1,0],"goal":2,"start":4,"action_noise":0.2,"location_history":"[4,2]","action_history":"[1]","mutagen_history":"[0]","location_rts":"[1919]","trial_type":"fractal-mutation","trial_index":117,"time_elapsed":1630914,"internal_node_id":"0.0-5.0-13.0"},{"group":"hexagon_tri","fractal_assignment":["../images/blu_wht.png","../images/org_blu.png","../images/ylw_slt.png","../images/cyn_red.png","../images/pnk_blu.png","../images/gry_blk.png"],"mutagen_generator_assignment":[1,0],"goal":1,"start":2,"action_noise":0.2,"location_history":"[2,1]","action_history":"[0]","mutagen_history":"[1]","location_rts":"[1849]","trial_type":"fractal-mutation","trial_index":118,"time_elapsed":1637284,"internal_node_id":"0.0-5.0-14.0"},{"group":"hexagon_tri","fractal_assignment":["../images/blu_wht.png","../images/org_blu.png","../images/ylw_slt.png","../images/cyn_red.png","../images/pnk_blu.png","../images/gry_blk.png"],"mutagen_generator_assignment":[1,0],"goal":3,"start":1,"action_noise":0.2,"location_history":"[1,3]","action_history":"[0]","mutagen_history":"[1]","location_rts":"[1456]","trial_type":"fractal-mutation","trial_index":119,"time_elapsed":1643266,"internal_node_id":"0.0-5.0-15.0"},{"group":"hexagon_tri","fractal_assignment":["../images/blu_wht.png","../images/org_blu.png","../images/ylw_slt.png","../images/cyn_red.png","../images/pnk_blu.png","../images/gry_blk.png"],"mutagen_generator_assignment":[1,0],"goal":5,"start":3,"action_noise":0.2,"location_history":"[3,4,0,1,5]","action_history":"[1,1,1,1]","mutagen_history":"[0,0,0,0]","location_rts":"[1506,519,549,525]","trial_type":"fractal-mutation","trial_index":120,"time_elapsed":1653939,"internal_node_id":"0.0-5.0-16.0"},{"group":"hexagon_tri","fractal_assignment":["../images/blu_wht.png","../images/org_blu.png","../images/ylw_slt.png","../images/cyn_red.png","../images/pnk_blu.png","../images/gry_blk.png"],"mutagen_generator_assignment":[1,0],"goal":0,"start":5,"action_noise":0.2,"location_history":"[5,4,0]","action_history":"[0,0]","mutagen_history":"[1,1]","location_rts":"[1074,383]","trial_type":"fractal-mutation","trial_index":121,"time_elapsed":1660947,"internal_node_id":"0.0-5.0-17.0"},{"group":"hexagon_tri","fractal_assignment":["../images/blu_wht.png","../images/org_blu.png","../images/ylw_slt.png","../images/cyn_red.png","../images/pnk_blu.png","../images/gry_blk.png"],"mutagen_generator_assignment":[1,0],"goal":5,"start":0,"action_noise":0.2,"location_history":"[0,1,3,4,2,3,4,2,3,4,2,3,4,2,3,2,3,2,3,4,0,1,3,4,2,1,5]","action_history":"[1,1,1,1,1,1,1,1,1,1,1,1,1,1,0,1,1,0,0,0,0,1,1,1,1,1]","mutagen_history":"[0,0,0,0,0,0,0,0,0,0,0,0,0,0,1,0,0,1,1,1,1,0,0,0,0,0]","location_rts":"[1547,595,811,423,451,417,473,498,530,463,531,528,460,499,945,341,1477,857,800,1433,392,783,1068,440,460,488]","trial_type":"fractal-mutation","trial_index":122,"time_elapsed":1708646,"internal_node_id":"0.0-5.0-18.0"},{"group":"hexagon_tri","fractal_assignment":["../images/blu_wht.png","../images/org_blu.png","../images/ylw_slt.png","../images/cyn_red.png","../images/pnk_blu.png","../images/gry_blk.png"],"mutagen_generator_assignment":[1,0],"goal":3,"start":5,"action_noise":0.2,"location_history":"[5,0,1,5,0,1,5,0,5,0,1,5,0,1,5,4,0,5,4,0,1,3]","action_history":"[1,1,0,1,1,0,1,1,1,1,1,1,1,0,0,0,0,0,0,1,0]","mutagen_history":"[0,0,1,0,0,1,0,0,0,0,0,0,0,1,1,1,1,1,1,0,1]","location_rts":"[1878,621,1462,971,769,845,761,501,472,605,580,1885,623,806,481,284,717,715,1162,215,1494]","trial_type":"fractal-mutation","trial_index":123,"time_elapsed":1751417,"internal_node_id":"0.0-5.0-19.0"},{"group":"hexagon_tri","fractal_assignment":["../images/blu_wht.png","../images/org_blu.png","../images/ylw_slt.png","../images/cyn_red.png","../images/pnk_blu.png","../images/gry_blk.png"],"mutagen_generator_assignment":[1,0],"goal":4,"start":3,"action_noise":0.2,"location_history":"[3,4]","action_history":"[1]","mutagen_history":"[0]","location_rts":"[1579]","trial_type":"fractal-mutation","trial_index":124,"time_elapsed":1757518,"internal_node_id":"0.0-5.0-20.0"},{"group":"hexagon_tri","fractal_assignment":["../images/blu_wht.png","../images/org_blu.png","../images/ylw_slt.png","../images/cyn_red.png","../images/pnk_blu.png","../images/gry_blk.png"],"mutagen_generator_assignment":[1,0],"goal":1,"start":4,"action_noise":0.2,"location_history":"[4,2,3,4,2,3,4,0,5,4,2,1]","action_history":"[1,1,1,1,1,1,1,1,1,1,1]","mutagen_history":"[0,0,0,0,0,0,0,0,0,0,0]","location_rts":"[2479,973,619,434,437,446,339,217,1159,493,405]","trial_type":"fractal-mutation","trial_index":125,"time_elapsed":1780228,"internal_node_id":"0.0-5.0-21.0"},{"group":"hexagon_tri","fractal_assignment":["../images/blu_wht.png","../images/org_blu.png","../images/ylw_slt.png","../images/cyn_red.png","../images/pnk_blu.png","../images/gry_blk.png"],"mutagen_generator_assignment":[1,0],"goal":2,"start":1,"action_noise":0.2,"location_history":"[1,3,2]","action_history":"[0,0]","mutagen_history":"[1,1]","location_rts":"[1217,617]","trial_type":"fractal-mutation","trial_index":126,"time_elapsed":1787609,"internal_node_id":"0.0-5.0-22.0"},{"group":"hexagon_tri","fractal_assignment":["../images/blu_wht.png","../images/org_blu.png","../images/ylw_slt.png","../images/cyn_red.png","../images/pnk_blu.png","../images/gry_blk.png"],"mutagen_generator_assignment":[1,0],"goal":3,"start":2,"action_noise":0.2,"location_history":"[2,1,3]","action_history":"[0,0]","mutagen_history":"[1,1]","location_rts":"[1315,788]","trial_type":"fractal-mutation","trial_index":127,"time_elapsed":1795257,"internal_node_id":"0.0-5.0-23.0"},{"group":"hexagon_tri","fractal_assignment":["../images/blu_wht.png","../images/org_blu.png","../images/ylw_slt.png","../images/cyn_red.png","../images/pnk_blu.png","../images/gry_blk.png"],"mutagen_generator_assignment":[1,0],"goal":5,"start":3,"action_noise":0.2,"location_history":"[3,2,3,4,2,3,4,2,3,2,1,5]","action_history":"[1,1,0,1,1,1,1,1,0,0,1]","mutagen_history":"[0,0,1,0,0,0,0,0,1,1,0]","location_rts":"[1108,513,1168,2477,893,503,486,562,692,319,1466]","trial_type":"fractal-mutation","trial_index":128,"time_elapsed":1820154,"internal_node_id":"0.0-5.0-24.0"},{"group":"hexagon_tri","fractal_assignment":["../images/blu_wht.png","../images/org_blu.png","../images/ylw_slt.png","../images/cyn_red.png","../images/pnk_blu.png","../images/gry_blk.png"],"mutagen_generator_assignment":[1,0],"goal":4,"start":5,"action_noise":0.2,"location_history":"[5,4]","action_history":"[0]","mutagen_history":"[1]","location_rts":"[2098]","trial_type":"fractal-mutation","trial_index":129,"time_elapsed":1826774,"internal_node_id":"0.0-5.0-25.0"},{"group":"hexagon_tri","fractal_assignment":["../images/blu_wht.png","../images/org_blu.png","../images/ylw_slt.png","../images/cyn_red.png","../images/pnk_blu.png","../images/gry_blk.png"],"mutagen_generator_assignment":[1,0],"goal":0,"start":4,"action_noise":0.2,"location_history":"[4,0]","action_history":"[0]","mutagen_history":"[1]","location_rts":"[2276]","trial_type":"fractal-mutation","trial_index":130,"time_elapsed":1833572,"internal_node_id":"0.0-5.0-26.0"},{"group":"hexagon_tri","fractal_assignment":["../images/blu_wht.png","../images/org_blu.png","../images/ylw_slt.png","../images/cyn_red.png","../images/pnk_blu.png","../images/gry_blk.png"],"mutagen_generator_assignment":[1,0],"goal":2,"start":0,"action_noise":0.2,"location_history":"[0,5,4,2]","action_history":"[0,0,1]","mutagen_history":"[1,1,0]","location_rts":"[1256,1301,627]","trial_type":"fractal-mutation","trial_index":131,"time_elapsed":1843324,"internal_node_id":"0.0-5.0-27.0"},{"group":"hexagon_tri","fractal_assignment":["../images/blu_wht.png","../images/org_blu.png","../images/ylw_slt.png","../images/cyn_red.png","../images/pnk_blu.png","../images/gry_blk.png"],"mutagen_generator_assignment":[1,0],"goal":1,"start":2,"action_noise":0.2,"location_history":"[2,1]","action_history":"[0]","mutagen_history":"[1]","location_rts":"[1650]","trial_type":"fractal-mutation","trial_index":132,"time_elapsed":1849501,"internal_node_id":"0.0-5.0-28.0"},{"group":"hexagon_tri","fractal_assignment":["../images/blu_wht.png","../images/org_blu.png","../images/ylw_slt.png","../images/cyn_red.png","../images/pnk_blu.png","../images/gry_blk.png"],"mutagen_generator_assignment":[1,0],"goal":0,"start":1,"action_noise":0.2,"location_history":"[1,5,4,0]","action_history":"[1,0,0]","mutagen_history":"[0,1,1]","location_rts":"[1508,549,335]","trial_type":"fractal-mutation","trial_index":133,"time_elapsed":1858461,"internal_node_id":"0.0-5.0-29.0"},{"group":"hexagon_tri","fractal_assignment":["../images/blu_wht.png","../images/org_blu.png","../images/ylw_slt.png","../images/cyn_red.png","../images/pnk_blu.png","../images/gry_blk.png"],"mutagen_generator_assignment":[1,0],"goal":2,"start":0,"action_noise":0.2,"location_history":"[0,5,4,0,1,3,2]","action_history":"[0,0,0,1,0,0]","mutagen_history":"[1,1,1,0,1,1]","location_rts":"[1136,931,878,422,551,374]","trial_type":"fractal-mutation","trial_index":134,"time_elapsed":1872376,"internal_node_id":"0.0-5.0-30.0"},{"group":"hexagon_tri","fractal_assignment":["../images/blu_wht.png","../images/org_blu.png","../images/ylw_slt.png","../images/cyn_red.png","../images/pnk_blu.png","../images/gry_blk.png"],"mutagen_generator_assignment":[1,0],"goal":4,"start":2,"action_noise":0.2,"location_history":"[2,3,2,3,2,1,5,0,1,3,2,1,5,4]","action_history":"[1,1,0,0,0,1,0,0,0,0,0,1,0]","mutagen_history":"[0,0,1,1,1,0,1,1,1,1,1,0,1]","location_rts":"[1322,1528,662,894,751,481,414,1068,615,1026,582,642,479]","trial_type":"fractal-mutation","trial_index":135,"time_elapsed":1899608,"internal_node_id":"0.0-5.0-31.0"},{"group":"hexagon_tri","fractal_assignment":["../images/blu_wht.png","../images/org_blu.png","../images/ylw_slt.png","../images/cyn_red.png","../images/pnk_blu.png","../images/gry_blk.png"],"mutagen_generator_assignment":[1,0],"goal":1,"start":4,"action_noise":0.2,"location_history":"[4,0,5,0,1]","action_history":"[0,0,1,1]","mutagen_history":"[1,1,0,0]","location_rts":"[2074,281,395,914]","trial_type":"fractal-mutation","trial_index":136,"time_elapsed":1910862,"internal_node_id":"0.0-5.0-32.0"},{"group":"hexagon_tri","fractal_assignment":["../images/blu_wht.png","../images/org_blu.png","../images/ylw_slt.png","../images/cyn_red.png","../images/pnk_blu.png","../images/gry_blk.png"],"mutagen_generator_assignment":[1,0],"goal":3,"start":1,"action_noise":0.2,"location_history":"[1,3]","action_history":"[0]","mutagen_history":"[1]","location_rts":"[1230]","trial_type":"fractal-mutation","trial_index":137,"time_elapsed":1916613,"internal_node_id":"0.0-5.0-33.0"},{"group":"hexagon_tri","fractal_assignment":["../images/blu_wht.png","../images/org_blu.png","../images/ylw_slt.png","../images/cyn_red.png","../images/pnk_blu.png","../images/gry_blk.png"],"mutagen_generator_assignment":[1,0],"goal":5,"start":3,"action_noise":0.2,"location_history":"[3,4,2,3,2,3,2,1,5]","action_history":"[1,1,1,0,0,0,0,1]","mutagen_history":"[0,0,0,1,1,1,1,0]","location_rts":"[1278,1167,1169,630,262,777,457,1012]","trial_type":"fractal-mutation","trial_index":138,"time_elapsed":1935026,"internal_node_id":"0.0-5.0-34.0"},{"group":"hexagon_tri","fractal_assignment":["../images/blu_wht.png","../images/org_blu.png","../images/ylw_slt.png","../images/cyn_red.png","../images/pnk_blu.png","../images/gry_blk.png"],"mutagen_generator_assignment":[1,0],"goal":2,"start":5,"action_noise":0.2,"location_history":"[5,0,1,5,4,2]","action_history":"[1,1,0,0,0]","mutagen_history":"[0,0,1,1,1]","location_rts":"[2075,1682,578,1059,324]","trial_type":"fractal-mutation","trial_index":139,"time_elapsed":1949361,"internal_node_id":"0.0-5.0-35.0"},{"group":"hexagon_tri","fractal_assignment":["../images/blu_wht.png","../images/org_blu.png","../images/ylw_slt.png","../images/cyn_red.png","../images/pnk_blu.png","../images/gry_blk.png"],"mutagen_generator_assignment":[1,0],"goal":0,"start":2,"action_noise":0.2,"location_history":"[2,1,3,4,0]","action_history":"[1,1,1,0]","mutagen_history":"[0,0,0,1]","location_rts":"[1298,2254,1752,1329]","trial_type":"fractal-mutation","trial_index":140,"time_elapsed":1963574,"internal_node_id":"0.0-5.0-36.0"},{"group":"hexagon_tri","fractal_assignment":["../images/blu_wht.png","../images/org_blu.png","../images/ylw_slt.png","../images/cyn_red.png","../images/pnk_blu.png","../images/gry_blk.png"],"mutagen_generator_assignment":[1,0],"goal":4,"start":0,"action_noise":0.2,"location_history":"[0,1,5,4]","action_history":"[1,1,0]","mutagen_history":"[0,0,1]","location_rts":"[1429,1983,495]","trial_type":"fractal-mutation","trial_index":141,"time_elapsed":1974033,"internal_node_id":"0.0-5.0-37.0"},{"group":"hexagon_tri","fractal_assignment":["../images/blu_wht.png","../images/org_blu.png","../images/ylw_slt.png","../images/cyn_red.png","../images/pnk_blu.png","../images/gry_blk.png"],"mutagen_generator_assignment":[1,0],"goal":5,"start":4,"action_noise":0.2,"location_history":"[4,0,1,5]","action_history":"[1,1,1]","mutagen_history":"[0,0,0]","location_rts":"[2515,789,893]","trial_type":"fractal-mutation","trial_index":142,"time_elapsed":1984784,"internal_node_id":"0.0-5.0-38.0"},{"group":"hexagon_tri","fractal_assignment":["../images/blu_wht.png","../images/org_blu.png","../images/ylw_slt.png","../images/cyn_red.png","../images/pnk_blu.png","../images/gry_blk.png"],"mutagen_generator_assignment":[1,0],"goal":1,"start":5,"action_noise":0.2,"location_history":"[5,0,1]","action_history":"[1,1]","mutagen_history":"[0,0]","location_rts":"[1459,607]","trial_type":"fractal-mutation","trial_index":143,"time_elapsed":1992389,"internal_node_id":"0.0-5.0-39.0"},{"group":"hexagon_tri","fractal_assignment":["../images/blu_wht.png","../images/org_blu.png","../images/ylw_slt.png","../images/cyn_red.png","../images/pnk_blu.png","../images/gry_blk.png"],"mutagen_generator_assignment":[1,0],"goal":3,"start":1,"action_noise":0.2,"location_history":"[1,3]","action_history":"[0]","mutagen_history":"[1]","location_rts":"[1231]","trial_type":"fractal-mutation","trial_index":144,"time_elapsed":1998143,"internal_node_id":"0.0-5.0-40.0"},{"group":"hexagon_tri","fractal_assignment":["../images/blu_wht.png","../images/org_blu.png","../images/ylw_slt.png","../images/cyn_red.png","../images/pnk_blu.png","../images/gry_blk.png"],"mutagen_generator_assignment":[1,0],"goal":1,"start":3,"action_noise":0.2,"location_history":"[3,2,1]","action_history":"[0,0]","mutagen_history":"[1,1]","location_rts":"[2285,439]","trial_type":"fractal-mutation","trial_index":145,"time_elapsed":2006413,"internal_node_id":"0.0-5.0-41.0"},{"group":"hexagon_tri","fractal_assignment":["../images/blu_wht.png","../images/org_blu.png","../images/ylw_slt.png","../images/cyn_red.png","../images/pnk_blu.png","../images/gry_blk.png"],"mutagen_generator_assignment":[1,0],"goal":0,"start":1,"action_noise":0.2,"location_history":"[1,5,4,0]","action_history":"[1,0,0]","mutagen_history":"[0,1,1]","location_rts":"[1645,598,398]","trial_type":"fractal-mutation","trial_index":146,"time_elapsed":2015625,"internal_node_id":"0.0-5.0-42.0"},{"group":"hexagon_tri","fractal_assignment":["../images/blu_wht.png","../images/org_blu.png","../images/ylw_slt.png","../images/cyn_red.png","../images/pnk_blu.png","../images/gry_blk.png"],"mutagen_generator_assignment":[1,0],"goal":4,"start":0,"action_noise":0.2,"location_history":"[0,1,5,4]","action_history":"[1,1,0]","mutagen_history":"[0,0,1]","location_rts":"[1611,651,696]","trial_type":"fractal-mutation","trial_index":147,"time_elapsed":2025147,"internal_node_id":"0.0-5.0-43.0"},{"group":"hexagon_tri","fractal_assignment":["../images/blu_wht.png","../images/org_blu.png","../images/ylw_slt.png","../images/cyn_red.png","../images/pnk_blu.png","../images/gry_blk.png"],"mutagen_generator_assignment":[1,0],"goal":2,"start":4,"action_noise":0.2,"location_history":"[4,2]","action_history":"[1]","mutagen_history":"[0]","location_rts":"[2144]","trial_type":"fractal-mutation","trial_index":148,"time_elapsed":2031812,"internal_node_id":"0.0-5.0-44.0"},{"group":"hexagon_tri","fractal_assignment":["../images/blu_wht.png","../images/org_blu.png","../images/ylw_slt.png","../images/cyn_red.png","../images/pnk_blu.png","../images/gry_blk.png"],"mutagen_generator_assignment":[1,0],"goal":3,"start":2,"action_noise":0.2,"location_history":"[2,1,3]","action_history":"[0,0]","mutagen_history":"[1,1]","location_rts":"[1087,630]","trial_type":"fractal-mutation","trial_index":149,"time_elapsed":2039073,"internal_node_id":"0.0-5.0-45.0"},{"group":"hexagon_tri","fractal_assignment":["../images/blu_wht.png","../images/org_blu.png","../images/ylw_slt.png","../images/cyn_red.png","../images/pnk_blu.png","../images/gry_blk.png"],"mutagen_generator_assignment":[1,0],"goal":5,"start":3,"action_noise":0.2,"location_history":"[3,4,2,3,4,0,5]","action_history":"[1,0,0,0,0,0]","mutagen_history":"[0,1,1,1,1,1]","location_rts":"[1924,1528,261,819,1017,861]","trial_type":"fractal-mutation","trial_index":150,"time_elapsed":2055101,"internal_node_id":"0.0-5.0-46.0"},{"group":"hexagon_tri","fractal_assignment":["../images/blu_wht.png","../images/org_blu.png","../images/ylw_slt.png","../images/cyn_red.png","../images/pnk_blu.png","../images/gry_blk.png"],"mutagen_generator_assignment":[1,0],"goal":4,"start":5,"action_noise":0.2,"location_history":"[5,4]","action_history":"[0]","mutagen_history":"[1]","location_rts":"[1624]","trial_type":"fractal-mutation","trial_index":151,"time_elapsed":2061248,"internal_node_id":"0.0-5.0-47.0"},{"group":"hexagon_tri","fractal_assignment":["../images/blu_wht.png","../images/org_blu.png","../images/ylw_slt.png","../images/cyn_red.png","../images/pnk_blu.png","../images/gry_blk.png"],"mutagen_generator_assignment":[1,0],"goal":3,"start":4,"action_noise":0.2,"location_history":"[4,0,1,3]","action_history":"[0,0,0]","mutagen_history":"[1,1,1]","location_rts":"[2033,780,1026]","trial_type":"fractal-mutation","trial_index":152,"time_elapsed":2071658,"internal_node_id":"0.0-5.0-48.0"},{"group":"hexagon_tri","fractal_assignment":["../images/blu_wht.png","../images/org_blu.png","../images/ylw_slt.png","../images/cyn_red.png","../images/pnk_blu.png","../images/gry_blk.png"],"mutagen_generator_assignment":[1,0],"goal":1,"start":3,"action_noise":0.2,"location_history":"[3,4,2,1]","action_history":"[0,1,0]","mutagen_history":"[1,0,1]","location_rts":"[1818,1057,1071]","trial_type":"fractal-mutation","trial_index":153,"time_elapsed":2082160,"internal_node_id":"0.0-5.0-49.0"},{"group":"hexagon_tri","fractal_assignment":["../images/blu_wht.png","../images/org_blu.png","../images/ylw_slt.png","../images/cyn_red.png","../images/pnk_blu.png","../images/gry_blk.png"],"mutagen_generator_assignment":[1,0],"goal":2,"start":1,"action_noise":0.2,"location_history":"[1,5,0,1,3,2]","action_history":"[0,1,1,0,0]","mutagen_history":"[1,0,0,1,1]","location_rts":"[1069,667,653,589,724]","trial_type":"fractal-mutation","trial_index":154,"time_elapsed":2094460,"internal_node_id":"0.0-5.0-50.0"},{"group":"hexagon_tri","fractal_assignment":["../images/blu_wht.png","../images/org_blu.png","../images/ylw_slt.png","../images/cyn_red.png","../images/pnk_blu.png","../images/gry_blk.png"],"mutagen_generator_assignment":[1,0],"goal":0,"start":2,"action_noise":0.2,"location_history":"[2,1,5,0]","action_history":"[0,1,0]","mutagen_history":"[1,0,1]","location_rts":"[1689,572,486]","trial_type":"fractal-mutation","trial_index":155,"time_elapsed":2103768,"internal_node_id":"0.0-5.0-51.0"},{"group":"hexagon_tri","fractal_assignment":["../images/blu_wht.png","../images/org_blu.png","../images/ylw_slt.png","../images/cyn_red.png","../images/pnk_blu.png","../images/gry_blk.png"],"mutagen_generator_assignment":[1,0],"goal":5,"start":0,"action_noise":0.2,"location_history":"[0,1,5]","action_history":"[1,1]","mutagen_history":"[0,0]","location_rts":"[1508,903]","trial_type":"fractal-mutation","trial_index":156,"time_elapsed":2111716,"internal_node_id":"0.0-5.0-52.0"},{"group":"hexagon_tri","fractal_assignment":["../images/blu_wht.png","../images/org_blu.png","../images/ylw_slt.png","../images/cyn_red.png","../images/pnk_blu.png","../images/gry_blk.png"],"mutagen_generator_assignment":[1,0],"goal":1,"start":5,"action_noise":0.2,"location_history":"[5,0,1]","action_history":"[1,1]","mutagen_history":"[0,0]","location_rts":"[1296,523]","trial_type":"fractal-mutation","trial_index":157,"time_elapsed":2119078,"internal_node_id":"0.0-5.0-53.0"},{"group":"hexagon_tri","fractal_assignment":["../images/blu_wht.png","../images/org_blu.png","../images/ylw_slt.png","../images/cyn_red.png","../images/pnk_blu.png","../images/gry_blk.png"],"mutagen_generator_assignment":[1,0],"goal":3,"start":1,"action_noise":0.2,"location_history":"[1,3]","action_history":"[0]","mutagen_history":"[1]","location_rts":"[1038]","trial_type":"fractal-mutation","trial_index":158,"time_elapsed":2124638,"internal_node_id":"0.0-5.0-54.0"},{"group":"hexagon_tri","fractal_assignment":["../images/blu_wht.png","../images/org_blu.png","../images/ylw_slt.png","../images/cyn_red.png","../images/pnk_blu.png","../images/gry_blk.png"],"mutagen_generator_assignment":[1,0],"goal":5,"start":3,"action_noise":0.2,"location_history":"[3,4,2,3,4,0,5]","action_history":"[1,1,1,1,0,1]","mutagen_history":"[0,0,0,0,1,0]","location_rts":"[1100,1232,801,1193,892,284]","trial_type":"fractal-mutation","trial_index":159,"time_elapsed":2139743,"internal_node_id":"0.0-5.0-55.0"},{"group":"hexagon_tri","fractal_assignment":["../images/blu_wht.png","../images/org_blu.png","../images/ylw_slt.png","../images/cyn_red.png","../images/pnk_blu.png","../images/gry_blk.png"],"mutagen_generator_assignment":[1,0],"goal":4,"start":5,"action_noise":0.2,"location_history":"[5,4]","action_history":"[0]","mutagen_history":"[1]","location_rts":"[1109]","trial_type":"fractal-mutation","trial_index":160,"time_elapsed":2145373,"internal_node_id":"0.0-5.0-56.0"},{"group":"hexagon_tri","fractal_assignment":["../images/blu_wht.png","../images/org_blu.png","../images/ylw_slt.png","../images/cyn_red.png","../images/pnk_blu.png","../images/gry_blk.png"],"mutagen_generator_assignment":[1,0],"goal":0,"start":4,"action_noise":0.2,"location_history":"[4,2,1,3,2,1,5,4,0]","action_history":"[0,0,0,0,0,1,0,0]","mutagen_history":"[1,1,1,1,1,0,1,1]","location_rts":"[893,1052,1411,580,723,820,540,360]","trial_type":"fractal-mutation","trial_index":161,"time_elapsed":2163420,"internal_node_id":"0.0-5.0-57.0"},{"group":"hexagon_tri","fractal_assignment":["../images/blu_wht.png","../images/org_blu.png","../images/ylw_slt.png","../images/cyn_red.png","../images/pnk_blu.png","../images/gry_blk.png"],"mutagen_generator_assignment":[1,0],"goal":2,"start":0,"action_noise":0.2,"location_history":"[0,1,3,4,0,5,4,0,1,3,2]","action_history":"[0,0,0,0,0,0,0,1,0,0]","mutagen_history":"[1,1,1,1,1,1,1,0,1,1]","location_rts":"[1928,1137,608,826,710,733,315,480,656,316]","trial_type":"fractal-mutation","trial_index":162,"time_elapsed":2184825,"internal_node_id":"0.0-5.0-58.0"},{"group":"hexagon_tri","fractal_assignment":["../images/blu_wht.png","../images/org_blu.png","../images/ylw_slt.png","../images/cyn_red.png","../images/pnk_blu.png","../images/gry_blk.png"],"mutagen_generator_assignment":[1,0],"goal":4,"start":2,"action_noise":0.2,"location_history":"[2,3,4]","action_history":"[0,0]","mutagen_history":"[1,1]","location_rts":"[2090,1216]","trial_type":"fractal-mutation","trial_index":163,"time_elapsed":2193675,"internal_node_id":"0.0-5.0-59.0"},{"group":"hexagon_tri","fractal_assignment":["../images/blu_wht.png","../images/org_blu.png","../images/ylw_slt.png","../images/cyn_red.png","../images/pnk_blu.png","../images/gry_blk.png"],"mutagen_generator_assignment":[1,0],"goal":2,"start":4,"action_noise":0.2,"location_history":"[4,0,1,3,4,0,5,0,5,0,5,0,1,3,2]","action_history":"[0,1,0,0,0,0,0,0,1,0,1,1,0,0]","mutagen_history":"[1,0,1,1,1,1,1,1,0,1,0,0,1,1]","location_rts":"[1136,1338,830,482,777,613,690,301,579,323,756,341,595,174]","trial_type":"fractal-mutation","trial_index":164,"time_elapsed":2220390,"internal_node_id":"0.0-5.0-60.0"},{"group":"hexagon_tri","fractal_assignment":["../images/blu_wht.png","../images/org_blu.png","../images/ylw_slt.png","../images/cyn_red.png","../images/pnk_blu.png","../images/gry_blk.png"],"mutagen_generator_assignment":[1,0],"goal":3,"start":2,"action_noise":0.2,"location_history":"[2,1,3]","action_history":"[0,0]","mutagen_history":"[1,1]","location_rts":"[1238,677]","trial_type":"fractal-mutation","trial_index":165,"time_elapsed":2227844,"internal_node_id":"0.0-5.0-61.0"},{"group":"hexagon_tri","fractal_assignment":["../images/blu_wht.png","../images/org_blu.png","../images/ylw_slt.png","../images/cyn_red.png","../images/pnk_blu.png","../images/gry_blk.png"],"mutagen_generator_assignment":[1,0],"goal":0,"start":3,"action_noise":0.2,"location_history":"[3,4,0]","action_history":"[1,0]","mutagen_history":"[0,1]","location_rts":"[1494,1043]","trial_type":"fractal-mutation","trial_index":166,"time_elapsed":2235918,"internal_node_id":"0.0-5.0-62.0"},{"group":"hexagon_tri","fractal_assignment":["../images/blu_wht.png","../images/org_blu.png","../images/ylw_slt.png","../images/cyn_red.png","../images/pnk_blu.png","../images/gry_blk.png"],"mutagen_generator_assignment":[1,0],"goal":5,"start":0,"action_noise":0.2,"location_history":"[0,1,5]","action_history":"[1,1]","mutagen_history":"[0,0]","location_rts":"[1500,829]","trial_type":"fractal-mutation","trial_index":167,"time_elapsed":2243790,"internal_node_id":"0.0-5.0-63.0"},{"group":"hexagon_tri","fractal_assignment":["../images/blu_wht.png","../images/org_blu.png","../images/ylw_slt.png","../images/cyn_red.png","../images/pnk_blu.png","../images/gry_blk.png"],"mutagen_generator_assignment":[1,0],"goal":1,"start":5,"action_noise":0.2,"location_history":"[5,0,1]","action_history":"[1,1]","mutagen_history":"[0,0]","location_rts":"[1357,603]","trial_type":"fractal-mutation","trial_index":168,"time_elapsed":2251292,"internal_node_id":"0.0-5.0-64.0"},{"group":"hexagon_tri","fractal_assignment":["../images/blu_wht.png","../images/org_blu.png","../images/ylw_slt.png","../images/cyn_red.png","../images/pnk_blu.png","../images/gry_blk.png"],"mutagen_generator_assignment":[1,0],"goal":5,"start":1,"action_noise":0.2,"location_history":"[1,3,4,2,3,4,2,3,2,1,5]","action_history":"[1,1,1,1,1,1,1,1,1,1]","mutagen_history":"[0,0,0,0,0,0,0,0,0,0]","location_rts":"[1183,1447,2305,814,736,443,393,974,448,911]","trial_type":"fractal-mutation","trial_index":169,"time_elapsed":2274618,"internal_node_id":"0.0-5.0-65.0"},{"group":"hexagon_tri","fractal_assignment":["../images/blu_wht.png","../images/org_blu.png","../images/ylw_slt.png","../images/cyn_red.png","../images/pnk_blu.png","../images/gry_blk.png"],"mutagen_generator_assignment":[1,0],"goal":3,"start":5,"action_noise":0.2,"location_history":"[5,0,1,3]","action_history":"[1,1,0]","mutagen_history":"[0,0,1]","location_rts":"[1265,557,1338]","trial_type":"fractal-mutation","trial_index":170,"time_elapsed":2284329,"internal_node_id":"0.0-5.0-66.0"},{"group":"hexagon_tri","fractal_assignment":["../images/blu_wht.png","../images/org_blu.png","../images/ylw_slt.png","../images/cyn_red.png","../images/pnk_blu.png","../images/gry_blk.png"],"mutagen_generator_assignment":[1,0],"goal":2,"start":3,"action_noise":0.2,"location_history":"[3,2]","action_history":"[0]","mutagen_history":"[1]","location_rts":"[985]","trial_type":"fractal-mutation","trial_index":171,"time_elapsed":2289839,"internal_node_id":"0.0-5.0-67.0"},{"group":"hexagon_tri","fractal_assignment":["../images/blu_wht.png","../images/org_blu.png","../images/ylw_slt.png","../images/cyn_red.png","../images/pnk_blu.png","../images/gry_blk.png"],"mutagen_generator_assignment":[1,0],"goal":1,"start":2,"action_noise":0.2,"location_history":"[2,1]","action_history":"[0]","mutagen_history":"[1]","location_rts":"[2390]","trial_type":"fractal-mutation","trial_index":172,"time_elapsed":2296753,"internal_node_id":"0.0-5.0-68.0"},{"group":"hexagon_tri","fractal_assignment":["../images/blu_wht.png","../images/org_blu.png","../images/ylw_slt.png","../images/cyn_red.png","../images/pnk_blu.png","../images/gry_blk.png"],"mutagen_generator_assignment":[1,0],"goal":4,"start":1,"action_noise":0.2,"location_history":"[1,5,4]","action_history":"[1,0]","mutagen_history":"[0,1]","location_rts":"[1363,464]","trial_type":"fractal-mutation","trial_index":173,"time_elapsed":2304121,"internal_node_id":"0.0-5.0-69.0"},{"group":"hexagon_tri","fractal_assignment":["../images/blu_wht.png","../images/org_blu.png","../images/ylw_slt.png","../images/cyn_red.png","../images/pnk_blu.png","../images/gry_blk.png"],"mutagen_generator_assignment":[1,0],"goal":0,"start":4,"action_noise":0.2,"location_history":"[4,0]","action_history":"[1]","mutagen_history":"[0]","location_rts":"[2817]","trial_type":"fractal-mutation","trial_index":174,"time_elapsed":2311457,"internal_node_id":"0.0-5.0-70.0"},{"group":"hexagon_tri","fractal_assignment":["../images/blu_wht.png","../images/org_blu.png","../images/ylw_slt.png","../images/cyn_red.png","../images/pnk_blu.png","../images/gry_blk.png"],"mutagen_generator_assignment":[1,0],"goal":3,"start":0,"action_noise":0.2,"location_history":"[0,1,3]","action_history":"[1,0]","mutagen_history":"[0,1]","location_rts":"[1891,1174]","trial_type":"fractal-mutation","trial_index":175,"time_elapsed":2320055,"internal_node_id":"0.0-5.0-71.0"},{"group":"hexagon_tri","fractal_assignment":["../images/blu_wht.png","../images/org_blu.png","../images/ylw_slt.png","../images/cyn_red.png","../images/pnk_blu.png","../images/gry_blk.png"],"mutagen_generator_assignment":[1,0],"goal":1,"start":3,"action_noise":0.2,"location_history":"[3,4,2,1]","action_history":"[0,1,0]","mutagen_history":"[1,0,1]","location_rts":"[1835,1170,621]","trial_type":"fractal-mutation","trial_index":176,"time_elapsed":2330244,"internal_node_id":"0.0-5.0-72.0"},{"group":"hexagon_tri","fractal_assignment":["../images/blu_wht.png","../images/org_blu.png","../images/ylw_slt.png","../images/cyn_red.png","../images/pnk_blu.png","../images/gry_blk.png"],"mutagen_generator_assignment":[1,0],"goal":0,"start":1,"action_noise":0.2,"location_history":"[1,5,0]","action_history":"[1,0]","mutagen_history":"[0,1]","location_rts":"[1469,433]","trial_type":"fractal-mutation","trial_index":177,"time_elapsed":2337712,"internal_node_id":"0.0-5.0-73.0"},{"group":"hexagon_tri","fractal_assignment":["../images/blu_wht.png","../images/org_blu.png","../images/ylw_slt.png","../images/cyn_red.png","../images/pnk_blu.png","../images/gry_blk.png"],"mutagen_generator_assignment":[1,0],"goal":2,"start":0,"action_noise":0.2,"location_history":"[0,1,3,4,0,5,0,1,3,2]","action_history":"[1,0,0,1,1,1,0,0,0]","mutagen_history":"[0,1,1,0,0,0,1,1,1]","location_rts":"[1947,557,613,1310,1628,1126,1169,1476,636]","trial_type":"fractal-mutation","trial_index":178,"time_elapsed":2360857,"internal_node_id":"0.0-5.0-74.0"},{"group":"hexagon_tri","fractal_assignment":["../images/blu_wht.png","../images/org_blu.png","../images/ylw_slt.png","../images/cyn_red.png","../images/pnk_blu.png","../images/gry_blk.png"],"mutagen_generator_assignment":[1,0],"goal":4,"start":2,"action_noise":0.2,"location_history":"[2,1,3,2,3,4]","action_history":"[1,0,0,0,1]","mutagen_history":"[0,1,1,1,0]","location_rts":"[1193,873,1178,407,388]","trial_type":"fractal-mutation","trial_index":179,"time_elapsed":2373491,"internal_node_id":"0.0-5.0-75.0"},{"group":"hexagon_tri","fractal_assignment":["../images/blu_wht.png","../images/org_blu.png","../images/ylw_slt.png","../images/cyn_red.png","../images/pnk_blu.png","../images/gry_blk.png"],"mutagen_generator_assignment":[1,0],"goal":5,"start":4,"action_noise":0.2,"location_history":"[4,2,1,5]","action_history":"[1,0,1]","mutagen_history":"[0,1,0]","location_rts":"[2104,1058,451]","trial_type":"fractal-mutation","trial_index":180,"time_elapsed":2383655,"internal_node_id":"0.0-5.0-76.0"},{"group":"hexagon_tri","fractal_assignment":["../images/blu_wht.png","../images/org_blu.png","../images/ylw_slt.png","../images/cyn_red.png","../images/pnk_blu.png","../images/gry_blk.png"],"mutagen_generator_assignment":[1,0],"goal":2,"start":5,"action_noise":0.2,"location_history":"[5,4,2]","action_history":"[0,1]","mutagen_history":"[1,0]","location_rts":"[2940,343]","trial_type":"fractal-mutation","trial_index":181,"time_elapsed":2392485,"internal_node_id":"0.0-5.0-77.0"},{"group":"hexagon_tri","fractal_assignment":["../images/blu_wht.png","../images/org_blu.png","../images/ylw_slt.png","../images/cyn_red.png","../images/pnk_blu.png","../images/gry_blk.png"],"mutagen_generator_assignment":[1,0],"goal":3,"start":2,"action_noise":0.2,"location_history":"[2,3]","action_history":"[0]","mutagen_history":"[1]","location_rts":"[1004]","trial_type":"fractal-mutation","trial_index":182,"time_elapsed":2398016,"internal_node_id":"0.0-5.0-78.0"},{"group":"hexagon_tri","fractal_assignment":["../images/blu_wht.png","../images/org_blu.png","../images/ylw_slt.png","../images/cyn_red.png","../images/pnk_blu.png","../images/gry_blk.png"],"mutagen_generator_assignment":[1,0],"goal":1,"start":3,"action_noise":0.2,"location_history":"[3,2,1]","action_history":"[0,0]","mutagen_history":"[1,1]","location_rts":"[1412,372]","trial_type":"fractal-mutation","trial_index":183,"time_elapsed":2405342,"internal_node_id":"0.0-5.0-79.0"},{"group":"hexagon_tri","fractal_assignment":["../images/blu_wht.png","../images/org_blu.png","../images/ylw_slt.png","../images/cyn_red.png","../images/pnk_blu.png","../images/gry_blk.png"],"mutagen_generator_assignment":[1,0],"goal":4,"start":1,"action_noise":0.2,"location_history":"[1,5,4]","action_history":"[1,0]","mutagen_history":"[0,1]","location_rts":"[1189,415]","trial_type":"fractal-mutation","trial_index":184,"time_elapsed":2412486,"internal_node_id":"0.0-5.0-80.0"},{"group":"hexagon_tri","fractal_assignment":["../images/blu_wht.png","../images/org_blu.png","../images/ylw_slt.png","../images/cyn_red.png","../images/pnk_blu.png","../images/gry_blk.png"],"mutagen_generator_assignment":[1,0],"goal":5,"start":4,"action_noise":0.2,"location_history":"[4,0,1,5]","action_history":"[0,0,1]","mutagen_history":"[1,1,0]","location_rts":"[2476,475,849]","trial_type":"fractal-mutation","trial_index":185,"time_elapsed":2422845,"internal_node_id":"0.0-5.0-81.0"},{"group":"hexagon_tri","fractal_assignment":["../images/blu_wht.png","../images/org_blu.png","../images/ylw_slt.png","../images/cyn_red.png","../images/pnk_blu.png","../images/gry_blk.png"],"mutagen_generator_assignment":[1,0],"goal":0,"start":5,"action_noise":0.2,"location_history":"[5,4,0]","action_history":"[0,0]","mutagen_history":"[1,1]","location_rts":"[1389,380]","trial_type":"fractal-mutation","trial_index":186,"time_elapsed":2430164,"internal_node_id":"0.0-5.0-82.0"},{"group":"hexagon_tri","fractal_assignment":["../images/blu_wht.png","../images/org_blu.png","../images/ylw_slt.png","../images/cyn_red.png","../images/pnk_blu.png","../images/gry_blk.png"],"mutagen_generator_assignment":[1,0],"goal":2,"start":0,"action_noise":0.2,"location_history":"[0,5,4,0,1,5,4,2]","action_history":"[0,1,0,1,0,1,1]","mutagen_history":"[1,0,1,0,1,0,0]","location_rts":"[1239,1044,1078,421,1054,2352,958]","trial_type":"fractal-mutation","trial_index":187,"time_elapsed":2448939,"internal_node_id":"0.0-5.0-83.0"},{"group":"hexagon_tri","fractal_assignment":["../images/blu_wht.png","../images/org_blu.png","../images/ylw_slt.png","../images/cyn_red.png","../images/pnk_blu.png","../images/gry_blk.png"],"mutagen_generator_assignment":[1,0],"goal":0,"start":2,"action_noise":0.2,"location_history":"[2,3,4,0]","action_history":"[1,0,1]","mutagen_history":"[0,1,0]","location_rts":"[2097,1724,359]","trial_type":"fractal-mutation","trial_index":188,"time_elapsed":2459683,"internal_node_id":"0.0-5.0-84.0"},{"group":"hexagon_tri","fractal_assignment":["../images/blu_wht.png","../images/org_blu.png","../images/ylw_slt.png","../images/cyn_red.png","../images/pnk_blu.png","../images/gry_blk.png"],"mutagen_generator_assignment":[1,0],"goal":5,"start":0,"action_noise":0.2,"location_history":"[0,1,5]","action_history":"[1,0]","mutagen_history":"[0,1]","location_rts":"[1388,651]","trial_type":"fractal-mutation","trial_index":189,"time_elapsed":2467264,"internal_node_id":"0.0-5.0-85.0"},{"group":"hexagon_tri","fractal_assignment":["../images/blu_wht.png","../images/org_blu.png","../images/ylw_slt.png","../images/cyn_red.png","../images/pnk_blu.png","../images/gry_blk.png"],"mutagen_generator_assignment":[1,0],"goal":1,"start":5,"action_noise":0.2,"location_history":"[5,4,2,3,4,2,3,2,1]","action_history":"[0,1,0,1,1,1,0,0]","mutagen_history":"[1,0,1,0,0,0,1,1]","location_rts":"[1738,311,1206,795,1780,1206,928,397]","trial_type":"fractal-mutation","trial_index":190,"time_elapsed":2487276,"internal_node_id":"0.0-5.0-86.0"},{"group":"hexagon_tri","fractal_assignment":["../images/blu_wht.png","../images/org_blu.png","../images/ylw_slt.png","../images/cyn_red.png","../images/pnk_blu.png","../images/gry_blk.png"],"mutagen_generator_assignment":[1,0],"goal":4,"start":1,"action_noise":0.2,"location_history":"[1,5,4]","action_history":"[1,0]","mutagen_history":"[0,1]","location_rts":"[1548,381]","trial_type":"fractal-mutation","trial_index":191,"time_elapsed":2494745,"internal_node_id":"0.0-5.0-87.0"},{"group":"hexagon_tri","fractal_assignment":["../images/blu_wht.png","../images/org_blu.png","../images/ylw_slt.png","../images/cyn_red.png","../images/pnk_blu.png","../images/gry_blk.png"],"mutagen_generator_assignment":[1,0],"goal":3,"start":4,"action_noise":0.2,"location_history":"[4,2,1,3]","action_history":"[1,0,0]","mutagen_history":"[0,1,1]","location_rts":"[2347,1118,753]","trial_type":"fractal-mutation","trial_index":192,"time_elapsed":2505513,"internal_node_id":"0.0-5.0-88.0"},{"group":"hexagon_tri","fractal_assignment":["../images/blu_wht.png","../images/org_blu.png","../images/ylw_slt.png","../images/cyn_red.png","../images/pnk_blu.png","../images/gry_blk.png"],"mutagen_generator_assignment":[1,0],"goal":5,"start":3,"action_noise":0.2,"location_history":"[3,4,0,5]","action_history":"[1,1,1]","mutagen_history":"[0,0,0]","location_rts":"[1154,1829,911]","trial_type":"fractal-mutation","trial_index":193,"time_elapsed":2515964,"internal_node_id":"0.0-5.0-89.0"},{"group":"hexagon_tri","fractal_assignment":["../images/blu_wht.png","../images/org_blu.png","../images/ylw_slt.png","../images/cyn_red.png","../images/pnk_blu.png","../images/gry_blk.png"],"mutagen_generator_assignment":[1,0],"goal":1,"start":5,"action_noise":0.2,"location_history":"[5,0,5,0,5,0,5,0,1]","action_history":"[1,0,1,0,1,1,1,1]","mutagen_history":"[0,1,0,1,0,0,0,0]","location_rts":"[1304,895,1043,596,899,447,1191,766]","trial_type":"fractal-mutation","trial_index":194,"time_elapsed":2534752,"internal_node_id":"0.0-5.0-90.0"},{"group":"hexagon_tri","fractal_assignment":["../images/blu_wht.png","../images/org_blu.png","../images/ylw_slt.png","../images/cyn_red.png","../images/pnk_blu.png","../images/gry_blk.png"],"mutagen_generator_assignment":[1,0],"goal":2,"start":1,"action_noise":0.2,"location_history":"[1,3,2]","action_history":"[0,0]","mutagen_history":"[1,1]","location_rts":"[1050,532]","trial_type":"fractal-mutation","trial_index":195,"time_elapsed":2541876,"internal_node_id":"0.0-5.0-91.0"},{"group":"hexagon_tri","fractal_assignment":["../images/blu_wht.png","../images/org_blu.png","../images/ylw_slt.png","../images/cyn_red.png","../images/pnk_blu.png","../images/gry_blk.png"],"mutagen_generator_assignment":[1,0],"goal":4,"start":2,"action_noise":0.2,"location_history":"[2,1,5,4]","action_history":"[0,1,0]","mutagen_history":"[1,0,1]","location_rts":"[1687,604,408]","trial_type":"fractal-mutation","trial_index":196,"time_elapsed":2551141,"internal_node_id":"0.0-5.0-92.0"},{"group":"hexagon_tri","fractal_assignment":["../images/blu_wht.png","../images/org_blu.png","../images/ylw_slt.png","../images/cyn_red.png","../images/pnk_blu.png","../images/gry_blk.png"],"mutagen_generator_assignment":[1,0],"goal":0,"start":4,"action_noise":0.2,"location_history":"[4,0]","action_history":"[0]","mutagen_history":"[1]","location_rts":"[2173]","trial_type":"fractal-mutation","trial_index":197,"time_elapsed":2557843,"internal_node_id":"0.0-5.0-93.0"},{"group":"hexagon_tri","fractal_assignment":["../images/blu_wht.png","../images/org_blu.png","../images/ylw_slt.png","../images/cyn_red.png","../images/pnk_blu.png","../images/gry_blk.png"],"mutagen_generator_assignment":[1,0],"goal":3,"start":0,"action_noise":0.2,"location_history":"[0,5,4,2,1,5,0,5,0,1,3]","action_history":"[0,0,1,0,0,0,0,1,1,0]","mutagen_history":"[1,1,0,1,1,1,1,0,0,1]","location_rts":"[1241,1214,931,1002,931,1049,718,917,856,599]","trial_type":"fractal-mutation","trial_index":198,"time_elapsed":2581008,"internal_node_id":"0.0-5.0-94.0"},{"group":"hexagon_tri","fractal_assignment":["../images/blu_wht.png","../images/org_blu.png","../images/ylw_slt.png","../images/cyn_red.png","../images/pnk_blu.png","../images/gry_blk.png"],"mutagen_generator_assignment":[1,0],"goal":0,"start":3,"action_noise":0.2,"location_history":"[3,4,0]","action_history":"[1,0]","mutagen_history":"[0,1]","location_rts":"[1275,568]","trial_type":"fractal-mutation","trial_index":199,"time_elapsed":2588395,"internal_node_id":"0.0-5.0-95.0"},{"group":"hexagon_tri","fractal_assignment":["../images/blu_wht.png","../images/org_blu.png","../images/ylw_slt.png","../images/cyn_red.png","../images/pnk_blu.png","../images/gry_blk.png"],"mutagen_generator_assignment":[1,0],"goal":4,"start":0,"action_noise":0.2,"location_history":"[0,5,4]","action_history":"[0,0]","mutagen_history":"[1,1]","location_rts":"[1719,1170]","trial_type":"fractal-mutation","trial_index":200,"time_elapsed":2596834,"internal_node_id":"0.0-5.0-96.0"},{"group":"hexagon_tri","fractal_assignment":["../images/blu_wht.png","../images/org_blu.png","../images/ylw_slt.png","../images/cyn_red.png","../images/pnk_blu.png","../images/gry_blk.png"],"mutagen_generator_assignment":[1,0],"goal":5,"start":4,"action_noise":0.2,"location_history":"[4,2,1,3,2,3,2,3,2,3,4,0,5]","action_history":"[1,0,1,0,1,0,1,0,0,1,1,0]","mutagen_history":"[0,1,0,1,0,1,0,1,1,0,0,1]","location_rts":"[3425,1125,441,1916,378,1371,289,647,267,213,1507,1590]","trial_type":"fractal-mutation","trial_index":201,"time_elapsed":2625725,"internal_node_id":"0.0-5.0-97.0"},{"group":"hexagon_tri","fractal_assignment":["../images/blu_wht.png","../images/org_blu.png","../images/ylw_slt.png","../images/cyn_red.png","../images/pnk_blu.png","../images/gry_blk.png"],"mutagen_generator_assignment":[1,0],"goal":2,"start":5,"action_noise":0.2,"location_history":"[5,0,5,4,2]","action_history":"[1,0,0,1]","mutagen_history":"[0,1,1,0]","location_rts":"[1885,624,1010,1360]","trial_type":"fractal-mutation","trial_index":202,"time_elapsed":2638176,"internal_node_id":"0.0-5.0-98.0"},{"group":"hexagon_tri","fractal_assignment":["../images/blu_wht.png","../images/org_blu.png","../images/ylw_slt.png","../images/cyn_red.png","../images/pnk_blu.png","../images/gry_blk.png"],"mutagen_generator_assignment":[1,0],"goal":1,"start":2,"action_noise":0.2,"location_history":"[2,3,2,1]","action_history":"[1,0,0]","mutagen_history":"[0,1,1]","location_rts":"[1348,912,271]","trial_type":"fractal-mutation","trial_index":203,"time_elapsed":2647268,"internal_node_id":"0.0-5.0-99.0"},{"view_history":"[{\"page_index\":0,\"viewing_time\":2833}]","rt":2835,"trial_type":"instructions","trial_index":204,"time_elapsed":2651104,"internal_node_id":"0.0-6.0"},{"rt":24713,"responses":"{\"Q0\":\"Pattern recognition \"}","trial_type":"survey-text","trial_index":205,"time_elapsed":2676825,"internal_node_id":"0.0-7.0-0.0"},{"rt":13309,"responses":"{\"Q0\":\"Same as first\"}","trial_type":"survey-text","trial_index":206,"time_elapsed":2691134,"internal_node_id":"0.0-7.0-1.0"},{"rt":33493,"responses":"{\"Q0\":\"<img src='../images/diagrams/hexagon_tri.png'>\"}","trial_type":"survey-multi-choice","trial_index":207,"time_elapsed":2725632,"internal_node_id":"0.0-7.0-2.0"},{"rt":67878,"assignments":["../images/blu_wht.png","../images/gry_blk.png","../images/cyn_red.png","../images/ylw_slt.png","../images/org_blu.png","../images/pnk_blu.png"],"trial_type":"drag-drop-on-image","trial_index":208,"time_elapsed":2794512,"internal_node_id":"0.0-7.0-3.0"},{"rt":7428,"responses":"{\"Q0\":\"2\"}","trial_type":"survey-likert","trial_index":209,"time_elapsed":2802944,"internal_node_id":"0.0-7.0-4.0"},{"rt":39389,"responses":"{\"Q0\":\"They seemed to have similar configurations/groupings\"}","trial_type":"survey-text","trial_index":210,"time_elapsed":2843335,"internal_node_id":"0.0-7.0-5.0"},{"rt":8285,"responses":"{\"Q0\":\"Yes\"}","trial_type":"survey-multi-choice","trial_index":211,"time_elapsed":2852623,"internal_node_id":"0.0-7.0-6.0"},{"rt":10715,"responses":"{\"Q0\":\"During session 1\"}","trial_type":"survey-multi-choice","trial_index":212,"time_elapsed":2864343,"internal_node_id":"0.0-7.0-7.0"},{"rt":54807,"responses":"{\"Q0\":\"One button kinda changed groups, while the other button cycled the selected group.\"}","trial_type":"survey-text","trial_index":213,"time_elapsed":2920150,"internal_node_id":"0.0-7.0-8.0"},{"rt":6405,"responses":"{\"Q0\":\"2\"}","trial_type":"survey-likert","trial_index":214,"time_elapsed":2927558,"internal_node_id":"0.0-7.0-9.0"},{"rt":5959,"responses":"{\"Q0\":\"Same structure\"}","trial_type":"survey-multi-choice","trial_index":215,"time_elapsed":2934520,"internal_node_id":"0.0-7.0-10.0"},{"rt":42371,"responses":"{\"Q0\":\"left (white) door = ray, right (black) door = acid\",\"Q1\":\"Moderately confident\"}","trial_type":"survey-multi-choice","trial_index":216,"time_elapsed":2977896,"internal_node_id":"0.0-7.0-11.0"},{"rt":11893,"responses":"{\"Q0\":\"25-35\",\"Q1\":\"Associates or other two-year degree\",\"Q2\":\"Male\",\"Q3\":\"White\"}","trial_type":"survey-multi-choice","trial_index":217,"time_elapsed":2990800,"internal_node_id":"0.0-8.0"},{"rt":5965,"responses":"{\"Q0\":\"Nope\"}","trial_type":"survey-text","trial_index":218,"time_elapsed":2997767,"internal_node_id":"0.0-9.0"}]