[{"view_history":"[{\"page_index\":0,\"viewing_time\":3090},{\"page_index\":1,\"viewing_time\":5423}]","rt":8513,"trial_type":"instructions","trial_index":0,"time_elapsed":8514,"internal_node_id":"0.0-0.0"},{"view_history":"[{\"page_index\":0,\"viewing_time\":2686},{\"page_index\":1,\"viewing_time\":2857}]","rt":5543,"trial_type":"instructions","trial_index":1,"time_elapsed":15058,"internal_node_id":"0.0-1.0"},{"group":"hexagon_tri","room_assignment":["green","blue","grey","yellow","red","purple"],"door_color_assignment":["black","white"],"door_generator_assignment":[1,0],"goal":2,"start":1,"action_noise":0.2,"location_history":"[1,5,0,5,4,0,5,0,1,5,0,1,5,0,1,5,4,0,5,4,0,5,4,0,5,0,5,0,1,5,0,1,5,4,2]","action_history":"[1,1,0,0,0,0,1,1,1,1,1,1,1,1,1,1,0,0,0,0,0,0,0,0,0,0,0,1,1,1,1,1,1,1]","door_history":"[0,0,1,1,1,1,0,0,0,0,0,0,0,0,0,0,1,1,1,1,1,1,1,1,1,1,1,0,0,0,0,0,0,0]","location_rts":"[774,278,176,29,725,430,82,215,254,219,86,155,124,163,196,184,69,105,77,158,121,39,492,141,104,314,279,69,80,202,195,88,117,102]","trial_type":"two-door-navigation","trial_index":2,"time_elapsed":60264,"internal_node_id":"0.0-2.0-0.0"},{"group":"hexagon_tri","room_assignment":["green","blue","grey","yellow","red","purple"],"door_color_assignment":["black","white"],"door_generator_assignment":[1,0],"goal":0,"start":2,"action_noise":0.2,"location_history":"[2,1,5,4,0]","action_history":"[1,1,0,0]","door_history":"[0,0,1,1]","location_rts":"[629,181,93,138]","trial_type":"two-door-navigation","trial_index":3,"time_elapsed":68917,"internal_node_id":"0.0-2.0-1.0"},{"group":"hexagon_tri","room_assignment":["green","blue","grey","yellow","red","purple"],"door_color_assignment":["black","white"],"door_generator_assignment":[1,0],"goal":5,"start":0,"action_noise":0.2,"location_history":"[0,1,5]","action_history":"[1,1]","door_history":"[0,0]","location_rts":"[351,267]","trial_type":"two-door-navigation","trial_index":4,"time_elapsed":75101,"internal_node_id":"0.0-2.0-2.0"},{"group":"hexagon_tri","room_assignment":["green","blue","grey","yellow","red","purple"],"door_color_assignment":["black","white"],"door_generator_assignment":[1,0],"goal":3,"start":5,"action_noise":0.2,"location_history":"[5,4,2,1,3]","action_history":"[1,1,0,0]","door_history":"[0,0,1,1]","location_rts":"[616,298,140,119]","trial_type":"two-door-navigation","trial_index":5,"time_elapsed":83890,"internal_node_id":"0.0-2.0-3.0"},{"group":"hexagon_tri","room_assignment":["green","blue","grey","yellow","red","purple"],"door_color_assignment":["black","white"],"door_generator_assignment":[1,0],"goal":4,"start":3,"action_noise":0.2,"location_history":"[3,4]","action_history":"[1]","door_history":"[0]","location_rts":"[597]","trial_type":"two-door-navigation","trial_index":6,"time_elapsed":89016,"internal_node_id":"0.0-2.0-4.0"},{"group":"hexagon_tri","room_assignment":["green","blue","grey","yellow","red","purple"],"door_color_assignment":["black","white"],"door_generator_assignment":[1,0],"goal":0,"start":4,"action_noise":0.2,"location_history":"[4,0]","action_history":"[0]","door_history":"[1]","location_rts":"[391]","trial_type":"two-door-navigation","trial_index":7,"time_elapsed":93938,"internal_node_id":"0.0-2.0-5.0"},{"group":"hexagon_tri","room_assignment":["green","blue","grey","yellow","red","purple"],"door_color_assignment":["black","white"],"door_generator_assignment":[1,0],"goal":4,"start":0,"action_noise":0.2,"location_history":"[0,1,3,2,3,4]","action_history":"[1,0,0,1,1]","door_history":"[0,1,1,0,0]","location_rts":"[289,271,332,162,116]","trial_type":"two-door-navigation","trial_index":8,"time_elapsed":103752,"internal_node_id":"0.0-2.0-6.0"},{"group":"hexagon_tri","room_assignment":["green","blue","grey","yellow","red","purple"],"door_color_assignment":["black","white"],"door_generator_assignment":[1,0],"goal":3,"start":4,"action_noise":0.2,"location_history":"[4,0,5,0,1,5,0,1,5,0,5,4,0,1,3]","action_history":"[0,0,1,1,1,1,1,1,1,1,0,0,0,0]","door_history":"[1,1,0,0,0,0,0,0,0,0,1,1,1,1]","location_rts":"[553,324,417,271,140,159,116,134,207,135,116,314,242,970]","trial_type":"two-door-navigation","trial_index":9,"time_elapsed":125740,"internal_node_id":"0.0-2.0-7.0"},{"group":"hexagon_tri","room_assignment":["green","blue","grey","yellow","red","purple"],"door_color_assignment":["black","white"],"door_generator_assignment":[1,0],"goal":2,"start":3,"action_noise":0.2,"location_history":"[3,4,0,5,0,5,4,2]","action_history":"[1,1,0,0,1,1,1]","door_history":"[0,0,1,1,0,0,0]","location_rts":"[1028,140,227,99,383,1677,3365]","trial_type":"two-door-navigation","trial_index":10,"time_elapsed":151561,"internal_node_id":"0.0-2.0-8.0"},{"group":"hexagon_tri","room_assignment":["green","blue","grey","yellow","red","purple"],"door_color_assignment":["black","white"],"door_generator_assignment":[1,0],"goal":1,"start":2,"action_noise":0.2,"location_history":"[2,1]","action_history":"[1]","door_history":"[0]","location_rts":"[6184]","trial_type":"two-door-navigation","trial_index":11,"time_elapsed":162378,"internal_node_id":"0.0-2.0-9.0"},{"group":"hexagon_tri","room_assignment":["green","blue","grey","yellow","red","purple"],"door_color_assignment":["black","white"],"door_generator_assignment":[1,0],"goal":5,"start":1,"action_noise":0.2,"location_history":"[1,5]","action_history":"[1]","door_history":"[0]","location_rts":"[620]","trial_type":"two-door-navigation","trial_index":12,"time_elapsed":167528,"internal_node_id":"0.0-2.0-10.0"},{"group":"hexagon_tri","room_assignment":["green","blue","grey","yellow","red","purple"],"door_color_assignment":["black","white"],"door_generator_assignment":[1,0],"goal":0,"start":5,"action_noise":0.2,"location_history":"[5,0]","action_history":"[0]","door_history":"[1]","location_rts":"[399]","trial_type":"two-door-navigation","trial_index":13,"time_elapsed":172456,"internal_node_id":"0.0-2.0-11.0"},{"group":"hexagon_tri","room_assignment":["green","blue","grey","yellow","red","purple"],"door_color_assignment":["black","white"],"door_generator_assignment":[1,0],"goal":4,"start":0,"action_noise":0.2,"location_history":"[0,1,5,4]","action_history":"[1,1,0]","door_history":"[0,0,1]","location_rts":"[425,186,191]","trial_type":"two-door-navigation","trial_index":14,"time_elapsed":179837,"internal_node_id":"0.0-2.0-12.0"},{"group":"hexagon_tri","room_assignment":["green","blue","grey","yellow","red","purple"],"door_color_assignment":["black","white"],"door_generator_assignment":[1,0],"goal":2,"start":4,"action_noise":0.2,"location_history":"[4,0,5,4,2]","action_history":"[1,1,1,1]","door_history":"[0,0,0,0]","location_rts":"[743,211,363,364]","trial_type":"two-door-navigation","trial_index":15,"time_elapsed":189128,"internal_node_id":"0.0-2.0-13.0"},{"group":"hexagon_tri","room_assignment":["green","blue","grey","yellow","red","purple"],"door_color_assignment":["black","white"],"door_generator_assignment":[1,0],"goal":1,"start":2,"action_noise":0.2,"location_history":"[2,3,2,1]","action_history":"[1,1,0]","door_history":"[0,0,1]","location_rts":"[581,406,149]","trial_type":"two-door-navigation","trial_index":16,"time_elapsed":196845,"internal_node_id":"0.0-2.0-14.0"},{"group":"hexagon_tri","room_assignment":["green","blue","grey","yellow","red","purple"],"door_color_assignment":["black","white"],"door_generator_assignment":[1,0],"goal":3,"start":1,"action_noise":0.2,"location_history":"[1,3]","action_history":"[0]","door_history":"[1]","location_rts":"[301]","trial_type":"two-door-navigation","trial_index":17,"time_elapsed":201672,"internal_node_id":"0.0-2.0-15.0"},{"group":"hexagon_tri","room_assignment":["green","blue","grey","yellow","red","purple"],"door_color_assignment":["black","white"],"door_generator_assignment":[1,0],"goal":5,"start":3,"action_noise":0.2,"location_history":"[3,4,0,1,5]","action_history":"[1,0,1,1]","door_history":"[0,1,0,0]","location_rts":"[351,274,196,2352]","trial_type":"two-door-navigation","trial_index":18,"time_elapsed":214670,"internal_node_id":"0.0-2.0-16.0"},{"group":"hexagon_tri","room_assignment":["green","blue","grey","yellow","red","purple"],"door_color_assignment":["black","white"],"door_generator_assignment":[1,0],"goal":0,"start":5,"action_noise":0.2,"location_history":"[5,0]","action_history":"[1]","door_history":"[0]","location_rts":"[6666]","trial_type":"two-door-navigation","trial_index":19,"time_elapsed":226865,"internal_node_id":"0.0-2.0-17.0"},{"group":"hexagon_tri","room_assignment":["green","blue","grey","yellow","red","purple"],"door_color_assignment":["black","white"],"door_generator_assignment":[1,0],"goal":5,"start":0,"action_noise":0.2,"location_history":"[0,5]","action_history":"[0]","door_history":"[1]","location_rts":"[321]","trial_type":"two-door-navigation","trial_index":20,"time_elapsed":231719,"internal_node_id":"0.0-2.0-18.0"},{"group":"hexagon_tri","room_assignment":["green","blue","grey","yellow","red","purple"],"door_color_assignment":["black","white"],"door_generator_assignment":[1,0],"goal":3,"start":5,"action_noise":0.2,"location_history":"[5,0,5,4,2,1,3]","action_history":"[0,0,0,0,0,0]","door_history":"[1,1,1,1,1,1]","location_rts":"[529,353,309,328,281,483]","trial_type":"two-door-navigation","trial_index":21,"time_elapsed":243651,"internal_node_id":"0.0-2.0-19.0"},{"group":"hexagon_tri","room_assignment":["green","blue","grey","yellow","red","purple"],"door_color_assignment":["black","white"],"door_generator_assignment":[1,0],"goal":4,"start":3,"action_noise":0.2,"location_history":"[3,4]","action_history":"[1]","door_history":"[0]","location_rts":"[354]","trial_type":"two-door-navigation","trial_index":22,"time_elapsed":248532,"internal_node_id":"0.0-2.0-20.0"},{"group":"hexagon_tri","room_assignment":["green","blue","grey","yellow","red","purple"],"door_color_assignment":["black","white"],"door_generator_assignment":[1,0],"goal":1,"start":4,"action_noise":0.2,"location_history":"[4,2,3,4,2,1]","action_history":"[1,1,1,1,1]","door_history":"[0,0,0,0,0]","location_rts":"[422,323,267,217,304]","trial_type":"two-door-navigation","trial_index":23,"time_elapsed":258698,"internal_node_id":"0.0-2.0-21.0"},{"group":"hexagon_tri","room_assignment":["green","blue","grey","yellow","red","purple"],"door_color_assignment":["black","white"],"door_generator_assignment":[1,0],"goal":2,"start":1,"action_noise":0.2,"location_history":"[1,3,2]","action_history":"[0,0]","door_history":"[1,1]","location_rts":"[462,320]","trial_type":"two-door-navigation","trial_index":24,"time_elapsed":265034,"internal_node_id":"0.0-2.0-22.0"},{"group":"hexagon_tri","room_assignment":["green","blue","grey","yellow","red","purple"],"door_color_assignment":["black","white"],"door_generator_assignment":[1,0],"goal":3,"start":2,"action_noise":0.2,"location_history":"[2,1,5,0,5,0,5,0,1,3]","action_history":"[0,1,1,1,1,1,1,1,0]","door_history":"[1,0,0,0,0,0,0,0,1]","location_rts":"[545,279,323,336,360,525,374,842,356]","trial_type":"two-door-navigation","trial_index":25,"time_elapsed":281705,"internal_node_id":"0.0-2.0-23.0"},{"group":"hexagon_tri","room_assignment":["green","blue","grey","yellow","red","purple"],"door_color_assignment":["black","white"],"door_generator_assignment":[1,0],"goal":5,"start":3,"action_noise":0.2,"location_history":"[3,4,0,5]","action_history":"[1,1,0]","door_history":"[0,0,1]","location_rts":"[902,371,540]","trial_type":"two-door-navigation","trial_index":26,"time_elapsed":290098,"internal_node_id":"0.0-2.0-24.0"},{"group":"hexagon_tri","room_assignment":["green","blue","grey","yellow","red","purple"],"door_color_assignment":["black","white"],"door_generator_assignment":[1,0],"goal":4,"start":5,"action_noise":0.2,"location_history":"[5,4]","action_history":"[0]","door_history":"[1]","location_rts":"[673]","trial_type":"two-door-navigation","trial_index":27,"time_elapsed":295303,"internal_node_id":"0.0-2.0-25.0"},{"group":"hexagon_tri","room_assignment":["green","blue","grey","yellow","red","purple"],"door_color_assignment":["black","white"],"door_generator_assignment":[1,0],"goal":0,"start":4,"action_noise":0.2,"location_history":"[4,2,1,3,2,1,3,4,0]","action_history":"[1,0,0,0,0,1,1,0]","door_history":"[0,1,1,1,1,0,0,1]","location_rts":"[358,468,342,108,205,172,182,146]","trial_type":"two-door-navigation","trial_index":28,"time_elapsed":309000,"internal_node_id":"0.0-2.0-26.0"},{"group":"hexagon_tri","room_assignment":["green","blue","grey","yellow","red","purple"],"door_color_assignment":["black","white"],"door_generator_assignment":[1,0],"goal":2,"start":0,"action_noise":0.2,"location_history":"[0,5,4,0,1,5,0,1,3,2]","action_history":"[0,0,0,1,1,0,1,0,0]","door_history":"[1,1,1,0,0,1,0,1,1]","location_rts":"[385,184,143,26,175,577,355,153,49]","trial_type":"two-door-navigation","trial_index":29,"time_elapsed":323780,"internal_node_id":"0.0-2.0-27.0"},{"group":"hexagon_tri","room_assignment":["green","blue","grey","yellow","red","purple"],"door_color_assignment":["black","white"],"door_generator_assignment":[1,0],"goal":1,"start":2,"action_noise":0.2,"location_history":"[2,3,4,0,5,4,0,5,4,2,3,2,3,2,3,2,3,4,0,1]","action_history":"[1,1,0,0,0,0,0,0,1,1,1,1,1,1,1,1,1,1,1]","door_history":"[0,0,1,1,1,1,1,1,0,0,0,0,0,0,0,0,0,0,0]","location_rts":"[350,95,107,179,150,118,229,120,40,130,112,19,120,44,489,176,103,110,180]","trial_type":"two-door-navigation","trial_index":30,"time_elapsed":349676,"internal_node_id":"0.0-2.0-28.0"},{"group":"hexagon_tri","room_assignment":["green","blue","grey","yellow","red","purple"],"door_color_assignment":["black","white"],"door_generator_assignment":[1,0],"goal":0,"start":1,"action_noise":0.2,"location_history":"[1,5,4,0]","action_history":"[0,0,0]","door_history":"[1,1,1]","location_rts":"[1328,143,295]","trial_type":"two-door-navigation","trial_index":31,"time_elapsed":359009,"internal_node_id":"0.0-2.0-29.0"},{"group":"hexagon_tri","room_assignment":["green","blue","grey","yellow","red","purple"],"door_color_assignment":["black","white"],"door_generator_assignment":[1,0],"goal":2,"start":0,"action_noise":0.2,"location_history":"[0,1,5,0,1,5,4,2]","action_history":"[1,1,1,1,1,1,1]","door_history":"[0,0,0,0,0,0,0]","location_rts":"[3128,227,100,338,513,345,11855]","trial_type":"two-door-navigation","trial_index":32,"time_elapsed":387051,"internal_node_id":"0.0-2.0-30.0"},{"group":"hexagon_tri","room_assignment":["green","blue","grey","yellow","red","purple"],"door_color_assignment":["black","white"],"door_generator_assignment":[1,0],"goal":4,"start":2,"action_noise":0.2,"location_history":"[2,1,5,0,1,5,0,1,5,0,5,4]","action_history":"[1,1,1,1,1,1,1,0,0,0,0]","door_history":"[0,0,0,0,0,0,0,1,1,1,1]","location_rts":"[673,127,40,81,37,42,429,108,852,707,210]","trial_type":"two-door-navigation","trial_index":33,"time_elapsed":405112,"internal_node_id":"0.0-2.0-31.0"},{"group":"hexagon_tri","room_assignment":["green","blue","grey","yellow","red","purple"],"door_color_assignment":["black","white"],"door_generator_assignment":[1,0],"goal":1,"start":4,"action_noise":0.2,"location_history":"[4,0,5,4,2,3,2,3,2,3,4,2,3,4,0,1]","action_history":"[0,0,0,1,1,1,1,1,1,1,1,1,1,1,1]","door_history":"[1,1,1,0,0,0,0,0,0,0,0,0,0,0,0]","location_rts":"[16477,409,203,480,209,172,141,97,142,72,150,77,110,113,81]","trial_type":"two-door-navigation","trial_index":34,"time_elapsed":442928,"internal_node_id":"0.0-2.0-32.0"},{"group":"hexagon_tri","room_assignment":["green","blue","grey","yellow","red","purple"],"door_color_assignment":["black","white"],"door_generator_assignment":[1,0],"goal":3,"start":1,"action_noise":0.2,"location_history":"[1,3]","action_history":"[0]","door_history":"[1]","location_rts":"[442]","trial_type":"two-door-navigation","trial_index":35,"time_elapsed":448671,"internal_node_id":"0.0-2.0-33.0"},{"group":"hexagon_tri","room_assignment":["green","blue","grey","yellow","red","purple"],"door_color_assignment":["black","white"],"door_generator_assignment":[1,0],"goal":5,"start":3,"action_noise":0.2,"location_history":"[3,2,3,4,2,3,4,2,1,5]","action_history":"[0,1,1,1,1,1,1,1,1]","door_history":"[1,0,0,0,0,0,0,0,0]","location_rts":"[6297,283,166,126,82,36,97,74,80]","trial_type":"two-door-navigation","trial_index":36,"time_elapsed":468654,"internal_node_id":"0.0-2.0-34.0"},{"group":"hexagon_tri","room_assignment":["green","blue","grey","yellow","red","purple"],"door_color_assignment":["black","white"],"door_generator_assignment":[1,0],"goal":2,"start":5,"action_noise":0.2,"location_history":"[5,4,0,5,4,2]","action_history":"[0,0,0,0,1]","door_history":"[1,1,1,1,0]","location_rts":"[342,548,163,256,77]","trial_type":"two-door-navigation","trial_index":37,"time_elapsed":478655,"internal_node_id":"0.0-2.0-35.0"},{"group":"hexagon_tri","room_assignment":["green","blue","grey","yellow","red","purple"],"door_color_assignment":["black","white"],"door_generator_assignment":[1,0],"goal":0,"start":2,"action_noise":0.2,"location_history":"[2,1,5,0]","action_history":"[0,1,1]","door_history":"[1,0,0]","location_rts":"[313,91,136]","trial_type":"two-door-navigation","trial_index":38,"time_elapsed":485782,"internal_node_id":"0.0-2.0-36.0"},{"group":"hexagon_tri","room_assignment":["green","blue","grey","yellow","red","purple"],"door_color_assignment":["black","white"],"door_generator_assignment":[1,0],"goal":4,"start":0,"action_noise":0.2,"location_history":"[0,5,4]","action_history":"[0,0]","door_history":"[1,1]","location_rts":"[9510,278]","trial_type":"two-door-navigation","trial_index":39,"time_elapsed":502009,"internal_node_id":"0.0-2.0-37.0"},{"group":"hexagon_tri","room_assignment":["green","blue","grey","yellow","red","purple"],"door_color_assignment":["black","white"],"door_generator_assignment":[1,0],"goal":5,"start":4,"action_noise":0.2,"location_history":"[4,2,1,3,4,0,1,5]","action_history":"[1,1,1,1,1,1,1]","door_history":"[0,0,0,0,0,0,0]","location_rts":"[461,222,333,179,102,110,102]","trial_type":"two-door-navigation","trial_index":40,"time_elapsed":514194,"internal_node_id":"0.0-2.0-38.0"},{"group":"hexagon_tri","room_assignment":["green","blue","grey","yellow","red","purple"],"door_color_assignment":["black","white"],"door_generator_assignment":[1,0],"goal":1,"start":5,"action_noise":0.2,"location_history":"[5,0,1]","action_history":"[0,1]","door_history":"[1,0]","location_rts":"[355,189]","trial_type":"two-door-navigation","trial_index":41,"time_elapsed":520294,"internal_node_id":"0.0-2.0-39.0"},{"group":"hexagon_tri","room_assignment":["green","blue","grey","yellow","red","purple"],"door_color_assignment":["black","white"],"door_generator_assignment":[1,0],"goal":3,"start":1,"action_noise":0.2,"location_history":"[1,5,0,5,4,2,1,5,0,1,5,0,1,5,4,2,1,3]","action_history":"[1,0,0,0,1,1,1,1,1,1,1,1,1,0,0,0,0]","door_history":"[0,1,1,1,0,0,0,0,0,0,0,0,0,1,1,1,1]","location_rts":"[336,115,73,121,131,173,192,180,205,148,61,181,133,215,180,177,435]","trial_type":"two-door-navigation","trial_index":42,"time_elapsed":544240,"internal_node_id":"0.0-2.0-40.0"},{"group":"hexagon_tri","room_assignment":["green","blue","grey","yellow","red","purple"],"door_color_assignment":["black","white"],"door_generator_assignment":[1,0],"goal":1,"start":3,"action_noise":0.2,"location_history":"[3,2,3,4,0,1]","action_history":"[1,1,1,1,1]","door_history":"[0,0,0,0,0]","location_rts":"[8294,176,111,39,81]","trial_type":"two-door-navigation","trial_index":43,"time_elapsed":561998,"internal_node_id":"0.0-2.0-41.0"},{"group":"hexagon_tri","room_assignment":["green","blue","grey","yellow","red","purple"],"door_color_assignment":["black","white"],"door_generator_assignment":[1,0],"goal":0,"start":1,"action_noise":0.2,"location_history":"[1,3,2,1,3,2,1,3,2,1,3,2,1,3,2,3,4,2,3,4,2,3,4,2,3,2,3,4,2,1,3,2,1,3,4,2,3,2,1,3,2,1,5,4,0]","action_history":"[0,0,0,0,0,0,0,0,0,0,0,0,0,0,1,1,1,1,1,1,1,1,1,1,1,1,1,1,0,0,0,0,0,0,0,0,0,0,0,0,0,0,0,0]","door_history":"[1,1,1,1,1,1,1,1,1,1,1,1,1,1,0,0,0,0,0,0,0,0,0,0,0,0,0,0,1,1,1,1,1,1,1,1,1,1,1,1,1,1,1,1]","location_rts":"[401,174,107,117,76,154,50,53,165,81,94,91,136,86,1411,190,50,809,174,69,55,54,60,54,54,96,109,138,35,98,142,136,124,48,241,138,45,40,141,101,78,127,8,497]","trial_type":"two-door-navigation","trial_index":44,"time_elapsed":618240,"internal_node_id":"0.0-2.0-42.0"},{"group":"hexagon_tri","room_assignment":["green","blue","grey","yellow","red","purple"],"door_color_assignment":["black","white"],"door_generator_assignment":[1,0],"goal":4,"start":0,"action_noise":0.2,"location_history":"[0,1,5,0,5,4]","action_history":"[1,1,1,1,1]","door_history":"[0,0,0,0,0]","location_rts":"[482,70,1009,1846,285]","trial_type":"two-door-navigation","trial_index":45,"time_elapsed":632670,"internal_node_id":"0.0-2.0-43.0"},{"group":"hexagon_tri","room_assignment":["green","blue","grey","yellow","red","purple"],"door_color_assignment":["black","white"],"door_generator_assignment":[1,0],"goal":2,"start":4,"action_noise":0.2,"location_history":"[4,2]","action_history":"[1]","door_history":"[0]","location_rts":"[2400]","trial_type":"two-door-navigation","trial_index":46,"time_elapsed":640673,"internal_node_id":"0.0-2.0-44.0"},{"group":"hexagon_tri","room_assignment":["green","blue","grey","yellow","red","purple"],"door_color_assignment":["black","white"],"door_generator_assignment":[1,0],"goal":3,"start":2,"action_noise":0.2,"location_history":"[2,1,3]","action_history":"[0,0]","door_history":"[1,1]","location_rts":"[6175,226]","trial_type":"two-door-navigation","trial_index":47,"time_elapsed":653632,"internal_node_id":"0.0-2.0-45.0"},{"group":"hexagon_tri","room_assignment":["green","blue","grey","yellow","red","purple"],"door_color_assignment":["black","white"],"door_generator_assignment":[1,0],"goal":5,"start":3,"action_noise":0.2,"location_history":"[3,4,2,3,4,2,3,4,2,3,4,2,3,4,0,5]","action_history":"[1,1,1,1,1,1,1,1,1,1,1,1,1,0,0]","door_history":"[0,0,0,0,0,0,0,0,0,0,0,0,0,1,1]","location_rts":"[350,380,928,568,356,339,367,237,220,177,176,34,155,452,114]","trial_type":"two-door-navigation","trial_index":48,"time_elapsed":677361,"internal_node_id":"0.0-2.0-46.0"},{"group":"hexagon_tri","room_assignment":["green","blue","grey","yellow","red","purple"],"door_color_assignment":["black","white"],"door_generator_assignment":[1,0],"goal":4,"start":5,"action_noise":0.2,"location_history":"[5,4]","action_history":"[1]","door_history":"[0]","location_rts":"[359]","trial_type":"two-door-navigation","trial_index":49,"time_elapsed":682247,"internal_node_id":"0.0-2.0-47.0"},{"group":"hexagon_tri","room_assignment":["green","blue","grey","yellow","red","purple"],"door_color_assignment":["black","white"],"door_generator_assignment":[1,0],"goal":3,"start":4,"action_noise":0.2,"location_history":"[4,2,3]","action_history":"[1,1]","door_history":"[0,0]","location_rts":"[393,364]","trial_type":"two-door-navigation","trial_index":50,"time_elapsed":688560,"internal_node_id":"0.0-2.0-48.0"},{"group":"hexagon_tri","room_assignment":["green","blue","grey","yellow","red","purple"],"door_color_assignment":["black","white"],"door_generator_assignment":[1,0],"goal":1,"start":3,"action_noise":0.2,"location_history":"[3,2,3,2,1]","action_history":"[0,0,0,0]","door_history":"[1,1,1,1]","location_rts":"[312,183,107,62]","trial_type":"two-door-navigation","trial_index":51,"time_elapsed":696825,"internal_node_id":"0.0-2.0-49.0"},{"group":"hexagon_tri","room_assignment":["green","blue","grey","yellow","red","purple"],"door_color_assignment":["black","white"],"door_generator_assignment":[1,0],"goal":2,"start":1,"action_noise":0.2,"location_history":"[1,5,0,1,5,4,0,1,5,0,5,0,1,5,0,1,5,0,5,0,1,5,4,0,5,0,5,4,0,5,4,0,5,4,0,5,4,0,1,5,4,2]","action_history":"[1,1,1,1,1,1,1,1,1,1,1,1,1,1,1,1,1,1,1,1,1,0,0,0,0,0,0,0,0,0,0,0,0,0,0,0,0,0,0,0,0]","door_history":"[0,0,0,0,0,0,0,0,0,0,0,0,0,0,0,0,0,0,0,0,0,1,1,1,1,1,1,1,1,1,1,1,1,1,1,1,1,1,1,1,1]","location_rts":"[386,166,45,4336,167,29,92,6,52,446,131,65,93,34,62,44,128,127,86,150,76,26,117,36,86,154,61,155,75,317,174,108,229,206,251,307,160,47,492,134,159]","trial_type":"two-door-navigation","trial_index":52,"time_elapsed":752369,"internal_node_id":"0.0-2.0-50.0"},{"group":"hexagon_tri","room_assignment":["green","blue","grey","yellow","red","purple"],"door_color_assignment":["black","white"],"door_generator_assignment":[1,0],"goal":0,"start":2,"action_noise":0.2,"location_history":"[2,1,3,2,1,3,2,3,2,3,2,1,5,4,0]","action_history":"[0,0,0,0,0,0,0,0,0,0,1,1,1,1]","door_history":"[1,1,1,1,1,1,1,1,1,1,0,0,0,0]","location_rts":"[417,93,117,177,94,80,115,22,139,704,48,65,30,145]","trial_type":"two-door-navigation","trial_index":53,"time_elapsed":772501,"internal_node_id":"0.0-2.0-51.0"},{"group":"hexagon_tri","room_assignment":["green","blue","grey","yellow","red","purple"],"door_color_assignment":["black","white"],"door_generator_assignment":[1,0],"goal":5,"start":0,"action_noise":0.2,"location_history":"[0,1,5]","action_history":"[1,1]","door_history":"[0,0]","location_rts":"[265,150]","trial_type":"two-door-navigation","trial_index":54,"time_elapsed":778473,"internal_node_id":"0.0-2.0-52.0"},{"group":"hexagon_tri","room_assignment":["green","blue","grey","yellow","red","purple"],"door_color_assignment":["black","white"],"door_generator_assignment":[1,0],"goal":1,"start":5,"action_noise":0.2,"location_history":"[5,0,1]","action_history":"[1,1]","door_history":"[0,0]","location_rts":"[295,272]","trial_type":"two-door-navigation","trial_index":55,"time_elapsed":784601,"internal_node_id":"0.0-2.0-53.0"},{"group":"hexagon_tri","room_assignment":["green","blue","grey","yellow","red","purple"],"door_color_assignment":["black","white"],"door_generator_assignment":[1,0],"goal":3,"start":1,"action_noise":0.2,"location_history":"[1,3]","action_history":"[1]","door_history":"[0]","location_rts":"[271]","trial_type":"two-door-navigation","trial_index":56,"time_elapsed":789402,"internal_node_id":"0.0-2.0-54.0"},{"group":"hexagon_tri","room_assignment":["green","blue","grey","yellow","red","purple"],"door_color_assignment":["black","white"],"door_generator_assignment":[1,0],"goal":5,"start":3,"action_noise":0.2,"location_history":"[3,4,2,3,4,0,5]","action_history":"[1,1,1,1,1,0]","door_history":"[0,0,0,0,0,1]","location_rts":"[301,152,107,112,170,492]","trial_type":"two-door-navigation","trial_index":57,"time_elapsed":800402,"internal_node_id":"0.0-2.0-55.0"},{"group":"hexagon_tri","room_assignment":["green","blue","grey","yellow","red","purple"],"door_color_assignment":["black","white"],"door_generator_assignment":[1,0],"goal":4,"start":5,"action_noise":0.2,"location_history":"[5,4]","action_history":"[0]","door_history":"[1]","location_rts":"[358]","trial_type":"two-door-navigation","trial_index":58,"time_elapsed":805291,"internal_node_id":"0.0-2.0-56.0"},{"group":"hexagon_tri","room_assignment":["green","blue","grey","yellow","red","purple"],"door_color_assignment":["black","white"],"door_generator_assignment":[1,0],"goal":0,"start":4,"action_noise":0.2,"location_history":"[4,2,1,3,2,1,5,0]","action_history":"[0,0,0,0,0,1,1]","door_history":"[1,1,1,1,1,0,0]","location_rts":"[268,196,127,89,193,131,205]","trial_type":"two-door-navigation","trial_index":59,"time_elapsed":817186,"internal_node_id":"0.0-2.0-57.0"},{"group":"hexagon_tri","room_assignment":["green","blue","grey","yellow","red","purple"],"door_color_assignment":["black","white"],"door_generator_assignment":[1,0],"goal":2,"start":0,"action_noise":0.2,"location_history":"[0,1,3,4,2]","action_history":"[1,1,1,1]","door_history":"[0,0,0,0]","location_rts":"[395,275,175,161]","trial_type":"two-door-navigation","trial_index":60,"time_elapsed":825790,"internal_node_id":"0.0-2.0-58.0"},{"group":"hexagon_tri","room_assignment":["green","blue","grey","yellow","red","purple"],"door_color_assignment":["black","white"],"door_generator_assignment":[1,0],"goal":4,"start":2,"action_noise":0.2,"location_history":"[2,3,2,1,5,4]","action_history":"[1,1,1,1,0]","door_history":"[0,0,0,0,1]","location_rts":"[290,117,108,736,256]","trial_type":"two-door-navigation","trial_index":61,"time_elapsed":835934,"internal_node_id":"0.0-2.0-59.0"},{"group":"hexagon_tri","room_assignment":["green","blue","grey","yellow","red","purple"],"door_color_assignment":["black","white"],"door_generator_assignment":[1,0],"goal":2,"start":4,"action_noise":0.2,"location_history":"[4,0,5,4,2]","action_history":"[0,0,0,0]","door_history":"[1,1,1,1]","location_rts":"[343,152,110,133]","trial_type":"two-door-navigation","trial_index":62,"time_elapsed":844279,"internal_node_id":"0.0-2.0-60.0"},{"group":"hexagon_tri","room_assignment":["green","blue","grey","yellow","red","purple"],"door_color_assignment":["black","white"],"door_generator_assignment":[1,0],"goal":3,"start":2,"action_noise":0.2,"location_history":"[2,1,5,0,1,5,0,1,5,0,1,3]","action_history":"[1,1,1,1,1,1,1,1,1,1,1]","door_history":"[0,0,0,0,0,0,0,0,0,0,0]","location_rts":"[289,173,159,154,154,146,144,160,128,380,207]","trial_type":"two-door-navigation","trial_index":63,"time_elapsed":861157,"internal_node_id":"0.0-2.0-61.0"},{"group":"hexagon_tri","room_assignment":["green","blue","grey","yellow","red","purple"],"door_color_assignment":["black","white"],"door_generator_assignment":[1,0],"goal":0,"start":3,"action_noise":0.2,"location_history":"[3,4,2,1,3,4,0]","action_history":"[1,1,1,1,1,1]","door_history":"[0,0,0,0,0,0]","location_rts":"[418,138,89,119,156,90]","trial_type":"two-door-navigation","trial_index":64,"time_elapsed":871823,"internal_node_id":"0.0-2.0-62.0"},{"group":"hexagon_tri","room_assignment":["green","blue","grey","yellow","red","purple"],"door_color_assignment":["black","white"],"door_generator_assignment":[1,0],"goal":5,"start":0,"action_noise":0.2,"location_history":"[0,1,5]","action_history":"[1,1]","door_history":"[0,0]","location_rts":"[349,111]","trial_type":"two-door-navigation","trial_index":65,"time_elapsed":878671,"internal_node_id":"0.0-2.0-63.0"},{"group":"hexagon_tri","room_assignment":["green","blue","grey","yellow","red","purple"],"door_color_assignment":["black","white"],"door_generator_assignment":[1,0],"goal":1,"start":5,"action_noise":0.2,"location_history":"[5,0,1]","action_history":"[1,1]","door_history":"[0,0]","location_rts":"[4248,185]","trial_type":"two-door-navigation","trial_index":66,"time_elapsed":889649,"internal_node_id":"0.0-2.0-64.0"},{"group":"hexagon_tri","room_assignment":["green","blue","grey","yellow","red","purple"],"door_color_assignment":["black","white"],"door_generator_assignment":[1,0],"goal":5,"start":1,"action_noise":0.2,"location_history":"[1,5]","action_history":"[1]","door_history":"[0]","location_rts":"[707]","trial_type":"two-door-navigation","trial_index":67,"time_elapsed":894883,"internal_node_id":"0.0-2.0-65.0"},{"group":"hexagon_tri","room_assignment":["green","blue","grey","yellow","red","purple"],"door_color_assignment":["black","white"],"door_generator_assignment":[1,0],"goal":3,"start":5,"action_noise":0.2,"location_history":"[5,0,1,5,0,1,3]","action_history":"[1,1,1,1,1,1]","door_history":"[0,0,0,0,0,0]","location_rts":"[1018,413,385,317,210,178]","trial_type":"two-door-navigation","trial_index":68,"time_elapsed":907057,"internal_node_id":"0.0-2.0-66.0"},{"group":"hexagon_tri","room_assignment":["green","blue","grey","yellow","red","purple"],"door_color_assignment":["black","white"],"door_generator_assignment":[1,0],"goal":2,"start":3,"action_noise":0.2,"location_history":"[3,2]","action_history":"[0]","door_history":"[1]","location_rts":"[360]","trial_type":"two-door-navigation","trial_index":69,"time_elapsed":912670,"internal_node_id":"0.0-2.0-67.0"},{"group":"hexagon_tri","room_assignment":["green","blue","grey","yellow","red","purple"],"door_color_assignment":["black","white"],"door_generator_assignment":[1,0],"goal":1,"start":2,"action_noise":0.2,"location_history":"[2,1]","action_history":"[1]","door_history":"[0]","location_rts":"[692]","trial_type":"two-door-navigation","trial_index":70,"time_elapsed":918897,"internal_node_id":"0.0-2.0-68.0"},{"group":"hexagon_tri","room_assignment":["green","blue","grey","yellow","red","purple"],"door_color_assignment":["black","white"],"door_generator_assignment":[1,0],"goal":4,"start":1,"action_noise":0.2,"location_history":"[1,3,4]","action_history":"[1,1]","door_history":"[0,0]","location_rts":"[7210,257]","trial_type":"two-door-navigation","trial_index":71,"time_elapsed":932696,"internal_node_id":"0.0-2.0-69.0"},{"group":"hexagon_tri","room_assignment":["green","blue","grey","yellow","red","purple"],"door_color_assignment":["black","white"],"door_generator_assignment":[1,0],"goal":0,"start":4,"action_noise":0.2,"location_history":"[4,2,1,5,0]","action_history":"[1,1,1,1]","door_history":"[0,0,0,0]","location_rts":"[304,181,4636,335]","trial_type":"two-door-navigation","trial_index":72,"time_elapsed":946193,"internal_node_id":"0.0-2.0-70.0"},{"group":"hexagon_tri","room_assignment":["green","blue","grey","yellow","red","purple"],"door_color_assignment":["black","white"],"door_generator_assignment":[1,0],"goal":3,"start":0,"action_noise":0.2,"location_history":"[0,5,4,2,3]","action_history":"[1,1,1,1]","door_history":"[0,0,0,0]","location_rts":"[1164,234,124,111]","trial_type":"two-door-navigation","trial_index":73,"time_elapsed":955428,"internal_node_id":"0.0-2.0-71.0"},{"group":"hexagon_tri","room_assignment":["green","blue","grey","yellow","red","purple"],"door_color_assignment":["black","white"],"door_generator_assignment":[1,0],"goal":1,"start":3,"action_noise":0.2,"location_history":"[3,4,2,3,4,0,1]","action_history":"[1,1,1,1,1,1]","door_history":"[0,0,0,0,0,0]","location_rts":"[312,298,311,158,127,128]","trial_type":"two-door-navigation","trial_index":74,"time_elapsed":966422,"internal_node_id":"0.0-2.0-72.0"},{"group":"hexagon_tri","room_assignment":["green","blue","grey","yellow","red","purple"],"door_color_assignment":["black","white"],"door_generator_assignment":[1,0],"goal":0,"start":1,"action_noise":0.2,"location_history":"[1,5,0]","action_history":"[1,1]","door_history":"[0,0]","location_rts":"[299,146]","trial_type":"two-door-navigation","trial_index":75,"time_elapsed":972421,"internal_node_id":"0.0-2.0-73.0"},{"group":"hexagon_tri","room_assignment":["green","blue","grey","yellow","red","purple"],"door_color_assignment":["black","white"],"door_generator_assignment":[1,0],"goal":2,"start":0,"action_noise":0.2,"location_history":"[0,1,5,0,1,3,4,0,5,4,0,5,4,2]","action_history":"[1,1,1,1,1,1,0,0,0,0,0,0,0]","door_history":"[0,0,0,0,0,0,1,1,1,1,1,1,1]","location_rts":"[338,221,242,90,122,574,596,250,128,157,61,55,132]","trial_type":"two-door-navigation","trial_index":76,"time_elapsed":992233,"internal_node_id":"0.0-2.0-74.0"},{"group":"hexagon_tri","room_assignment":["green","blue","grey","yellow","red","purple"],"door_color_assignment":["black","white"],"door_generator_assignment":[1,0],"goal":4,"start":2,"action_noise":0.2,"location_history":"[2,1,5,0,1,5,0,1,5,0,1,5,0,5,0,1,5,0,5,0,5,4]","action_history":"[1,1,1,1,1,1,1,1,1,1,1,1,1,1,1,1,1,1,1,1,1]","door_history":"[0,0,0,0,0,0,0,0,0,0,0,0,0,0,0,0,0,0,0,0,0]","location_rts":"[294,96,88,145,52,72,155,76,133,84,67,83,101,99,34,408,262,58,116,32,72]","trial_type":"two-door-navigation","trial_index":77,"time_elapsed":1020010,"internal_node_id":"0.0-2.0-75.0"},{"group":"hexagon_tri","room_assignment":["green","blue","grey","yellow","red","purple"],"door_color_assignment":["black","white"],"door_generator_assignment":[1,0],"goal":5,"start":4,"action_noise":0.2,"location_history":"[4,2,3,4,2,3,2,3,4,2,1,5]","action_history":"[1,1,1,1,1,1,1,1,1,1,1]","door_history":"[0,0,0,0,0,0,0,0,0,0,0]","location_rts":"[583,131,6,222,305,774,124,110,413,207,100]","trial_type":"two-door-navigation","trial_index":78,"time_elapsed":1037761,"internal_node_id":"0.0-2.0-76.0"},{"group":"hexagon_tri","room_assignment":["green","blue","grey","yellow","red","purple"],"door_color_assignment":["black","white"],"door_generator_assignment":[1,0],"goal":2,"start":5,"action_noise":0.2,"location_history":"[5,0,1,5,4,2]","action_history":"[1,1,1,1,1]","door_history":"[0,0,0,0,0]","location_rts":"[478,99,99,43,119]","trial_type":"two-door-navigation","trial_index":79,"time_elapsed":1047234,"internal_node_id":"0.0-2.0-77.0"},{"group":"hexagon_tri","room_assignment":["green","blue","grey","yellow","red","purple"],"door_color_assignment":["black","white"],"door_generator_assignment":[1,0],"goal":3,"start":2,"action_noise":0.2,"location_history":"[2,3]","action_history":"[0]","door_history":"[1]","location_rts":"[513]","trial_type":"two-door-navigation","trial_index":80,"time_elapsed":1052276,"internal_node_id":"0.0-2.0-78.0"},{"group":"hexagon_tri","room_assignment":["green","blue","grey","yellow","red","purple"],"door_color_assignment":["black","white"],"door_generator_assignment":[1,0],"goal":1,"start":3,"action_noise":0.2,"location_history":"[3,4,0,5,4,0,5,4,2,3,4,2,3,2,1]","action_history":"[0,0,0,0,0,0,0,1,1,1,1,1,0,0]","door_history":"[1,1,1,1,1,1,1,0,0,0,0,0,1,1]","location_rts":"[387,108,51,89,58,55,56,370,173,96,212,259,92,254]","trial_type":"two-door-navigation","trial_index":81,"time_elapsed":1072395,"internal_node_id":"0.0-2.0-79.0"},{"group":"hexagon_tri","room_assignment":["green","blue","grey","yellow","red","purple"],"door_color_assignment":["black","white"],"door_generator_assignment":[1,0],"goal":4,"start":1,"action_noise":0.2,"location_history":"[1,5,4]","action_history":"[1,1]","door_history":"[0,0]","location_rts":"[1201,8]","trial_type":"two-door-navigation","trial_index":82,"time_elapsed":1079165,"internal_node_id":"0.0-2.0-80.0"},{"group":"hexagon_tri","room_assignment":["green","blue","grey","yellow","red","purple"],"door_color_assignment":["black","white"],"door_generator_assignment":[1,0],"goal":5,"start":4,"action_noise":0.2,"location_history":"[4,0,5]","action_history":"[0,0]","door_history":"[1,1]","location_rts":"[329,154]","trial_type":"two-door-navigation","trial_index":83,"time_elapsed":1085195,"internal_node_id":"0.0-2.0-81.0"},{"group":"hexagon_tri","room_assignment":["green","blue","grey","yellow","red","purple"],"door_color_assignment":["black","white"],"door_generator_assignment":[1,0],"goal":0,"start":5,"action_noise":0.2,"location_history":"[5,0]","action_history":"[1]","door_history":"[0]","location_rts":"[289]","trial_type":"two-door-navigation","trial_index":84,"time_elapsed":1090012,"internal_node_id":"0.0-2.0-82.0"},{"group":"hexagon_tri","room_assignment":["green","blue","grey","yellow","red","purple"],"door_color_assignment":["black","white"],"door_generator_assignment":[1,0],"goal":2,"start":0,"action_noise":0.2,"location_history":"[0,1,3,4,2]","action_history":"[1,0,0,0]","door_history":"[0,1,1,1]","location_rts":"[252,82,114,135]","trial_type":"two-door-navigation","trial_index":85,"time_elapsed":1098204,"internal_node_id":"0.0-2.0-83.0"},{"group":"hexagon_tri","room_assignment":["green","blue","grey","yellow","red","purple"],"door_color_assignment":["black","white"],"door_generator_assignment":[1,0],"goal":0,"start":2,"action_noise":0.2,"location_history":"[2,3,4,2,1,5,0]","action_history":"[1,1,1,1,1,0]","door_history":"[0,0,0,0,0,1]","location_rts":"[253,130,186,135,183,152]","trial_type":"two-door-navigation","trial_index":86,"time_elapsed":1108895,"internal_node_id":"0.0-2.0-84.0"},{"group":"hexagon_tri","room_assignment":["green","blue","grey","yellow","red","purple"],"door_color_assignment":["black","white"],"door_generator_assignment":[1,0],"goal":5,"start":0,"action_noise":0.2,"location_history":"[0,5]","action_history":"[0]","door_history":"[1]","location_rts":"[274]","trial_type":"two-door-navigation","trial_index":87,"time_elapsed":1113699,"internal_node_id":"0.0-2.0-85.0"},{"group":"hexagon_tri","room_assignment":["green","blue","grey","yellow","red","purple"],"door_color_assignment":["black","white"],"door_generator_assignment":[1,0],"goal":1,"start":5,"action_noise":0.2,"location_history":"[5,4,0,1]","action_history":"[0,0,0]","door_history":"[1,1,1]","location_rts":"[325,124,113]","trial_type":"two-door-navigation","trial_index":88,"time_elapsed":1120842,"internal_node_id":"0.0-2.0-86.0"},{"group":"hexagon_tri","room_assignment":["green","blue","grey","yellow","red","purple"],"door_color_assignment":["black","white"],"door_generator_assignment":[1,0],"goal":4,"start":1,"action_noise":0.2,"location_history":"[1,3,4]","action_history":"[0,0]","door_history":"[1,1]","location_rts":"[283,164]","trial_type":"two-door-navigation","trial_index":89,"time_elapsed":1126844,"internal_node_id":"0.0-2.0-87.0"},{"group":"hexagon_tri","room_assignment":["green","blue","grey","yellow","red","purple"],"door_color_assignment":["black","white"],"door_generator_assignment":[1,0],"goal":3,"start":4,"action_noise":0.2,"location_history":"[4,0,5,4,0,5,0,1,5,0,1,3]","action_history":"[0,0,0,0,1,1,1,1,1,1,1]","door_history":"[1,1,1,1,0,0,0,0,0,0,0]","location_rts":"[314,87,203,124,133,237,241,238,204,180,173]","trial_type":"two-door-navigation","trial_index":90,"time_elapsed":1143759,"internal_node_id":"0.0-2.0-88.0"},{"group":"hexagon_tri","room_assignment":["green","blue","grey","yellow","red","purple"],"door_color_assignment":["black","white"],"door_generator_assignment":[1,0],"goal":5,"start":3,"action_noise":0.2,"location_history":"[3,4,0,1,5]","action_history":"[1,1,1,1]","door_history":"[0,0,0,0]","location_rts":"[301,57,65,69]","trial_type":"two-door-navigation","trial_index":91,"time_elapsed":1153670,"internal_node_id":"0.0-2.0-89.0"},{"group":"hexagon_tri","room_assignment":["green","blue","grey","yellow","red","purple"],"door_color_assignment":["black","white"],"door_generator_assignment":[1,0],"goal":1,"start":5,"action_noise":0.2,"location_history":"[5,0,1]","action_history":"[1,1]","door_history":"[0,0]","location_rts":"[408,387]","trial_type":"two-door-navigation","trial_index":92,"time_elapsed":1160027,"internal_node_id":"0.0-2.0-90.0"},{"group":"hexagon_tri","room_assignment":["green","blue","grey","yellow","red","purple"],"door_color_assignment":["black","white"],"door_generator_assignment":[1,0],"goal":2,"start":1,"action_noise":0.2,"location_history":"[1,3,2]","action_history":"[0,0]","door_history":"[1,1]","location_rts":"[450,290]","trial_type":"two-door-navigation","trial_index":93,"time_elapsed":1166325,"internal_node_id":"0.0-2.0-91.0"},{"group":"hexagon_tri","room_assignment":["green","blue","grey","yellow","red","purple"],"door_color_assignment":["black","white"],"door_generator_assignment":[1,0],"goal":4,"start":2,"action_noise":0.2,"location_history":"[2,1,3,2,3,2,1,5,0,1,3,4]","action_history":"[0,0,0,0,0,0,0,0,0,0,0]","door_history":"[1,1,1,1,1,1,1,1,1,1,1]","location_rts":"[276,222,126,141,115,175,185,89,151,140,358]","trial_type":"two-door-navigation","trial_index":94,"time_elapsed":1183092,"internal_node_id":"0.0-2.0-92.0"},{"group":"hexagon_tri","room_assignment":["green","blue","grey","yellow","red","purple"],"door_color_assignment":["black","white"],"door_generator_assignment":[1,0],"goal":0,"start":4,"action_noise":0.2,"location_history":"[4,0]","action_history":"[0]","door_history":"[1]","location_rts":"[361]","trial_type":"two-door-navigation","trial_index":95,"time_elapsed":1187983,"internal_node_id":"0.0-2.0-93.0"},{"group":"hexagon_tri","room_assignment":["green","blue","grey","yellow","red","purple"],"door_color_assignment":["black","white"],"door_generator_assignment":[1,0],"goal":3,"start":0,"action_noise":0.2,"location_history":"[0,5,4,0,5,4,2,3]","action_history":"[0,0,0,0,0,0,1]","door_history":"[1,1,1,1,1,1,0]","location_rts":"[228,446,143,8,464,118,166]","trial_type":"two-door-navigation","trial_index":96,"time_elapsed":1200256,"internal_node_id":"0.0-2.0-94.0"},{"group":"hexagon_tri","room_assignment":["green","blue","grey","yellow","red","purple"],"door_color_assignment":["black","white"],"door_generator_assignment":[1,0],"goal":0,"start":3,"action_noise":0.2,"location_history":"[3,4,0]","action_history":"[1,1]","door_history":"[0,0]","location_rts":"[355,122]","trial_type":"two-door-navigation","trial_index":97,"time_elapsed":1206284,"internal_node_id":"0.0-2.0-95.0"},{"group":"hexagon_tri","room_assignment":["green","blue","grey","yellow","red","purple"],"door_color_assignment":["black","white"],"door_generator_assignment":[1,0],"goal":4,"start":0,"action_noise":0.2,"location_history":"[0,1,5,0,1,3,2,1,5,4]","action_history":"[1,1,1,1,0,0,0,0,0]","door_history":"[0,0,0,0,1,1,1,1,1]","location_rts":"[266,82,154,125,149,130,93,82,98]","trial_type":"two-door-navigation","trial_index":98,"time_elapsed":1220189,"internal_node_id":"0.0-2.0-96.0"},{"group":"hexagon_tri","room_assignment":["green","blue","grey","yellow","red","purple"],"door_color_assignment":["black","white"],"door_generator_assignment":[1,0],"goal":5,"start":4,"action_noise":0.2,"location_history":"[4,2,1,5]","action_history":"[0,0,0]","door_history":"[1,1,1]","location_rts":"[253,142,123]","trial_type":"two-door-navigation","trial_index":99,"time_elapsed":1227284,"internal_node_id":"0.0-2.0-97.0"},{"group":"hexagon_tri","room_assignment":["green","blue","grey","yellow","red","purple"],"door_color_assignment":["black","white"],"door_generator_assignment":[1,0],"goal":2,"start":5,"action_noise":0.2,"location_history":"[5,4,0,5,4,2]","action_history":"[0,0,0,0,0]","door_history":"[1,1,1,1,1]","location_rts":"[318,222,27,398,189]","trial_type":"two-door-navigation","trial_index":100,"time_elapsed":1237074,"internal_node_id":"0.0-2.0-98.0"},{"group":"hexagon_tri","room_assignment":["green","blue","grey","yellow","red","purple"],"door_color_assignment":["black","white"],"door_generator_assignment":[1,0],"goal":1,"start":2,"action_noise":0.2,"location_history":"[2,1]","action_history":"[0]","door_history":"[1]","location_rts":"[294]","trial_type":"two-door-navigation","trial_index":101,"time_elapsed":1241896,"internal_node_id":"0.0-2.0-99.0"},{"view_history":"[{\"page_index\":0,\"viewing_time\":2568}]","rt":2569,"trial_type":"instructions","trial_index":102,"time_elapsed":1245466,"internal_node_id":"0.0-3.0"},{"view_history":"[{\"page_index\":0,\"viewing_time\":1399},{\"page_index\":1,\"viewing_time\":2536}]","rt":3936,"trial_type":"instructions","trial_index":103,"time_elapsed":1250401,"internal_node_id":"0.0-4.0"},{"group":"hexagon_bi","fractal_assignment":["../images/cyn_red.png","../images/gry_blk.png","../images/pnk_blu.png","../images/blu_wht.png","../images/ylw_slt.png","../images/org_blu.png"],"mutagen_generator_assignment":[1,0],"goal":2,"start":1,"action_noise":0.2,"location_history":"[1,0,1,0,1,0,1,2]","action_history":"[1,1,1,1,1,1,0]","mutagen_history":"[0,0,0,0,0,0,1]","location_rts":"[3790,472,310,52,148,9,102]","trial_type":"fractal-mutation","trial_index":104,"time_elapsed":1266191,"internal_node_id":"0.0-5.0-0.0"},{"group":"hexagon_bi","fractal_assignment":["../images/cyn_red.png","../images/gry_blk.png","../images/pnk_blu.png","../images/blu_wht.png","../images/ylw_slt.png","../images/org_blu.png"],"mutagen_generator_assignment":[1,0],"goal":0,"start":2,"action_noise":0.2,"location_history":"[2,1,2,1,2,1,2,1,0]","action_history":"[0,0,0,0,0,0,0,0]","mutagen_history":"[1,1,1,1,1,1,1,1]","location_rts":"[383,140,7,33,785,112,1130,89]","trial_type":"fractal-mutation","trial_index":105,"time_elapsed":1280871,"internal_node_id":"0.0-5.0-1.0"},{"group":"hexagon_bi","fractal_assignment":["../images/cyn_red.png","../images/gry_blk.png","../images/pnk_blu.png","../images/blu_wht.png","../images/ylw_slt.png","../images/org_blu.png"],"mutagen_generator_assignment":[1,0],"goal":5,"start":0,"action_noise":0.2,"location_history":"[0,5]","action_history":"[0]","mutagen_history":"[1]","location_rts":"[305]","trial_type":"fractal-mutation","trial_index":106,"time_elapsed":1285738,"internal_node_id":"0.0-5.0-2.0"},{"group":"hexagon_bi","fractal_assignment":["../images/cyn_red.png","../images/gry_blk.png","../images/pnk_blu.png","../images/blu_wht.png","../images/ylw_slt.png","../images/org_blu.png"],"mutagen_generator_assignment":[1,0],"goal":3,"start":5,"action_noise":0.2,"location_history":"[5,0,5,0,5,4,3]","action_history":"[0,0,0,0,0,0]","mutagen_history":"[1,1,1,1,1,1]","location_rts":"[364,139,142,124,97,108]","trial_type":"fractal-mutation","trial_index":107,"time_elapsed":1296568,"internal_node_id":"0.0-5.0-3.0"},{"group":"hexagon_bi","fractal_assignment":["../images/cyn_red.png","../images/gry_blk.png","../images/pnk_blu.png","../images/blu_wht.png","../images/ylw_slt.png","../images/org_blu.png"],"mutagen_generator_assignment":[1,0],"goal":4,"start":3,"action_noise":0.2,"location_history":"[3,4]","action_history":"[1]","mutagen_history":"[0]","location_rts":"[443]","trial_type":"fractal-mutation","trial_index":108,"time_elapsed":1301556,"internal_node_id":"0.0-5.0-4.0"},{"group":"hexagon_bi","fractal_assignment":["../images/cyn_red.png","../images/gry_blk.png","../images/pnk_blu.png","../images/blu_wht.png","../images/ylw_slt.png","../images/org_blu.png"],"mutagen_generator_assignment":[1,0],"goal":0,"start":4,"action_noise":0.2,"location_history":"[4,3,2,3,2,3,2,3,2,3,2,3,2,3,4,5,4,3,4,3,4,5,4,3,4,3,4,3,4,5,4,5,0]","action_history":"[1,1,1,1,1,1,1,1,1,1,1,1,1,0,0,0,0,0,0,0,0,0,0,0,0,0,0,0,1,1,1,1]","mutagen_history":"[0,0,0,0,0,0,0,0,0,0,0,0,0,1,1,1,1,1,1,1,1,1,1,1,1,1,1,1,0,0,0,0]","location_rts":"[411,72,171,134,95,66,161,166,173,115,147,181,16,178,146,105,184,133,113,110,70,76,120,62,118,112,282,680,985,299,64,255]","trial_type":"fractal-mutation","trial_index":109,"time_elapsed":1344551,"internal_node_id":"0.0-5.0-5.0"},{"group":"hexagon_bi","fractal_assignment":["../images/cyn_red.png","../images/gry_blk.png","../images/pnk_blu.png","../images/blu_wht.png","../images/ylw_slt.png","../images/org_blu.png"],"mutagen_generator_assignment":[1,0],"goal":4,"start":0,"action_noise":0.2,"location_history":"[0,1,0,1,0,1,0,5,0,5,4]","action_history":"[1,1,1,1,1,1,0,0,0,0]","mutagen_history":"[0,0,0,0,0,0,1,1,1,1]","location_rts":"[369,64,8,130,123,117,65,64,55,34]","trial_type":"fractal-mutation","trial_index":110,"time_elapsed":1359546,"internal_node_id":"0.0-5.0-6.0"},{"group":"hexagon_bi","fractal_assignment":["../images/cyn_red.png","../images/gry_blk.png","../images/pnk_blu.png","../images/blu_wht.png","../images/ylw_slt.png","../images/org_blu.png"],"mutagen_generator_assignment":[1,0],"goal":3,"start":4,"action_noise":0.2,"location_history":"[4,5,4,5,0,1,0,1,0,5,4,5,4,5,0,5,0,1,0,1,0,5,0,5,4,3]","action_history":"[1,1,1,1,1,1,1,1,1,1,1,1,1,1,0,0,0,0,0,0,0,0,0,0,0]","mutagen_history":"[0,0,0,0,0,0,0,0,0,0,0,0,0,0,1,1,1,1,1,1,1,1,1,1,1]","location_rts":"[327,110,207,0,130,131,177,161,163,167,15,69,76,83,178,99,27,89,46,78,75,64,117,82,191]","trial_type":"fractal-mutation","trial_index":111,"time_elapsed":1392052,"internal_node_id":"0.0-5.0-7.0"},{"group":"hexagon_bi","fractal_assignment":["../images/cyn_red.png","../images/gry_blk.png","../images/pnk_blu.png","../images/blu_wht.png","../images/ylw_slt.png","../images/org_blu.png"],"mutagen_generator_assignment":[1,0],"goal":2,"start":3,"action_noise":0.2,"location_history":"[3,4,3,4,3,4,3,4,3,4,3,4,3,4,3,4,5,0,1,0,1,0,1,0,1,2]","action_history":"[0,0,0,0,0,0,0,0,0,0,0,0,0,0,0,0,0,1,1,1,1,1,1,1,1]","mutagen_history":"[1,1,1,1,1,1,1,1,1,1,1,1,1,1,1,1,1,0,0,0,0,0,0,0,0]","location_rts":"[395,73,168,138,110,192,236,10,36,217,221,59,200,178,38,202,44,21,252,61,223,205,24,13,8]","trial_type":"fractal-mutation","trial_index":112,"time_elapsed":1425130,"internal_node_id":"0.0-5.0-8.0"},{"group":"hexagon_bi","fractal_assignment":["../images/cyn_red.png","../images/gry_blk.png","../images/pnk_blu.png","../images/blu_wht.png","../images/ylw_slt.png","../images/org_blu.png"],"mutagen_generator_assignment":[1,0],"goal":1,"start":2,"action_noise":0.2,"location_history":"[2,1]","action_history":"[0]","mutagen_history":"[1]","location_rts":"[94]","trial_type":"fractal-mutation","trial_index":113,"time_elapsed":1429788,"internal_node_id":"0.0-5.0-9.0"},{"group":"hexagon_bi","fractal_assignment":["../images/cyn_red.png","../images/gry_blk.png","../images/pnk_blu.png","../images/blu_wht.png","../images/ylw_slt.png","../images/org_blu.png"],"mutagen_generator_assignment":[1,0],"goal":5,"start":1,"action_noise":0.2,"location_history":"[1,0,1,2,1,2,3,4,3,4,5]","action_history":"[1,1,0,0,0,0,0,0,0,1]","mutagen_history":"[0,0,1,1,1,1,1,1,1,0]","location_rts":"[436,27,58,139,240,87,147,89,180,86]","trial_type":"fractal-mutation","trial_index":114,"time_elapsed":1445287,"internal_node_id":"0.0-5.0-10.0"},{"group":"hexagon_bi","fractal_assignment":["../images/cyn_red.png","../images/gry_blk.png","../images/pnk_blu.png","../images/blu_wht.png","../images/ylw_slt.png","../images/org_blu.png"],"mutagen_generator_assignment":[1,0],"goal":0,"start":5,"action_noise":0.2,"location_history":"[5,0]","action_history":"[0]","mutagen_history":"[1]","location_rts":"[360]","trial_type":"fractal-mutation","trial_index":115,"time_elapsed":1450205,"internal_node_id":"0.0-5.0-11.0"},{"group":"hexagon_bi","fractal_assignment":["../images/cyn_red.png","../images/gry_blk.png","../images/pnk_blu.png","../images/blu_wht.png","../images/ylw_slt.png","../images/org_blu.png"],"mutagen_generator_assignment":[1,0],"goal":4,"start":0,"action_noise":0.2,"location_history":"[0,5,0,5,4]","action_history":"[0,0,0,1]","mutagen_history":"[1,1,1,0]","location_rts":"[387,67,197,436]","trial_type":"fractal-mutation","trial_index":116,"time_elapsed":1459008,"internal_node_id":"0.0-5.0-12.0"},{"group":"hexagon_bi","fractal_assignment":["../images/cyn_red.png","../images/gry_blk.png","../images/pnk_blu.png","../images/blu_wht.png","../images/ylw_slt.png","../images/org_blu.png"],"mutagen_generator_assignment":[1,0],"goal":2,"start":4,"action_noise":0.2,"location_history":"[4,5,0,5,4,5,4,3,4,5,0,1,2]","action_history":"[0,0,0,1,1,1,0,0,0,0,0,0]","mutagen_history":"[1,1,1,0,0,0,1,1,1,1,1,1]","location_rts":"[296,193,44,151,281,173,672,21,542,178,182,175]","trial_type":"fractal-mutation","trial_index":117,"time_elapsed":1478040,"internal_node_id":"0.0-5.0-13.0"},{"group":"hexagon_bi","fractal_assignment":["../images/cyn_red.png","../images/gry_blk.png","../images/pnk_blu.png","../images/blu_wht.png","../images/ylw_slt.png","../images/org_blu.png"],"mutagen_generator_assignment":[1,0],"goal":1,"start":2,"action_noise":0.2,"location_history":"[2,1]","action_history":"[0]","mutagen_history":"[1]","location_rts":"[5]","trial_type":"fractal-mutation","trial_index":118,"time_elapsed":1482605,"internal_node_id":"0.0-5.0-14.0"},{"group":"hexagon_bi","fractal_assignment":["../images/cyn_red.png","../images/gry_blk.png","../images/pnk_blu.png","../images/blu_wht.png","../images/ylw_slt.png","../images/org_blu.png"],"mutagen_generator_assignment":[1,0],"goal":3,"start":1,"action_noise":0.2,"location_history":"[1,2,3]","action_history":"[0,0]","mutagen_history":"[1,1]","location_rts":"[320,134]","trial_type":"fractal-mutation","trial_index":119,"time_elapsed":1488670,"internal_node_id":"0.0-5.0-15.0"},{"group":"hexagon_bi","fractal_assignment":["../images/cyn_red.png","../images/gry_blk.png","../images/pnk_blu.png","../images/blu_wht.png","../images/ylw_slt.png","../images/org_blu.png"],"mutagen_generator_assignment":[1,0],"goal":5,"start":3,"action_noise":0.2,"location_history":"[3,4,3,4,3,4,5]","action_history":"[0,0,0,0,1,1]","mutagen_history":"[1,1,1,1,0,0]","location_rts":"[392,57,156,11,77,218]","trial_type":"fractal-mutation","trial_index":120,"time_elapsed":1499387,"internal_node_id":"0.0-5.0-16.0"},{"group":"hexagon_bi","fractal_assignment":["../images/cyn_red.png","../images/gry_blk.png","../images/pnk_blu.png","../images/blu_wht.png","../images/ylw_slt.png","../images/org_blu.png"],"mutagen_generator_assignment":[1,0],"goal":0,"start":5,"action_noise":0.2,"location_history":"[5,0]","action_history":"[0]","mutagen_history":"[1]","location_rts":"[2273]","trial_type":"fractal-mutation","trial_index":121,"time_elapsed":1506225,"internal_node_id":"0.0-5.0-17.0"},{"group":"hexagon_bi","fractal_assignment":["../images/cyn_red.png","../images/gry_blk.png","../images/pnk_blu.png","../images/blu_wht.png","../images/ylw_slt.png","../images/org_blu.png"],"mutagen_generator_assignment":[1,0],"goal":5,"start":0,"action_noise":0.2,"location_history":"[0,5]","action_history":"[0]","mutagen_history":"[1]","location_rts":"[358]","trial_type":"fractal-mutation","trial_index":122,"time_elapsed":1511142,"internal_node_id":"0.0-5.0-18.0"},{"group":"hexagon_bi","fractal_assignment":["../images/cyn_red.png","../images/gry_blk.png","../images/pnk_blu.png","../images/blu_wht.png","../images/ylw_slt.png","../images/org_blu.png"],"mutagen_generator_assignment":[1,0],"goal":3,"start":5,"action_noise":0.2,"location_history":"[5,0,5,0,5,0,5,0,1,0,5,4,5,4,5,4,5,4,5,4,5,4,5,0,5,0,5,0,5,0,5,4,5,4,5,4,5,4,3]","action_history":"[0,0,0,0,0,1,1,1,1,1,1,1,1,1,1,1,1,1,1,1,1,1,0,0,0,0,0,0,0,0,1,1,1,1,1,1,1,0]","mutagen_history":"[1,1,1,1,1,0,0,0,0,0,0,0,0,0,0,0,0,0,0,0,0,0,1,1,1,1,1,1,1,1,0,0,0,0,0,0,0,1]","location_rts":"[266,73,188,139,141,511,126,131,131,75,163,349,681,76,75,205,126,17,23,83,27,139,171,533,50,57,109,43,122,667,509,85,164,145,134,89,299,34]","trial_type":"fractal-mutation","trial_index":123,"time_elapsed":1561333,"internal_node_id":"0.0-5.0-19.0"},{"group":"hexagon_bi","fractal_assignment":["../images/cyn_red.png","../images/gry_blk.png","../images/pnk_blu.png","../images/blu_wht.png","../images/ylw_slt.png","../images/org_blu.png"],"mutagen_generator_assignment":[1,0],"goal":4,"start":3,"action_noise":0.2,"location_history":"[3,2,1,0,5,0,5,0,5,0,1,0,1,0,1,2,3,2,3,4]","action_history":"[0,0,0,0,0,0,0,0,0,0,0,1,1,1,1,1,1,1,0]","mutagen_history":"[1,1,1,1,1,1,1,1,1,1,1,0,0,0,0,0,0,0,1]","location_rts":"[509,124,259,19,215,185,220,151,211,39,75,166,201,170,233,178,184,160,0]","trial_type":"fractal-mutation","trial_index":124,"time_elapsed":1588082,"internal_node_id":"0.0-5.0-20.0"},{"group":"hexagon_bi","fractal_assignment":["../images/cyn_red.png","../images/gry_blk.png","../images/pnk_blu.png","../images/blu_wht.png","../images/ylw_slt.png","../images/org_blu.png"],"mutagen_generator_assignment":[1,0],"goal":1,"start":4,"action_noise":0.2,"location_history":"[4,3,4,3,4,5,4,5,4,5,4,5,4,5,0,5,0,1]","action_history":"[0,0,0,0,0,1,1,1,1,1,1,1,1,1,1,0,0]","mutagen_history":"[1,1,1,1,1,0,0,0,0,0,0,0,0,0,0,1,1]","location_rts":"[300,169,227,7,165,216,196,241,349,198,202,223,167,308,102,47,259]","trial_type":"fractal-mutation","trial_index":125,"time_elapsed":1612746,"internal_node_id":"0.0-5.0-21.0"},{"group":"hexagon_bi","fractal_assignment":["../images/cyn_red.png","../images/gry_blk.png","../images/pnk_blu.png","../images/blu_wht.png","../images/ylw_slt.png","../images/org_blu.png"],"mutagen_generator_assignment":[1,0],"goal":2,"start":1,"action_noise":0.2,"location_history":"[1,0,5,4,3,4,3,2]","action_history":"[0,0,0,0,0,0,1]","mutagen_history":"[1,1,1,1,1,1,0]","location_rts":"[362,111,89,93,134,143,8]","trial_type":"fractal-mutation","trial_index":126,"time_elapsed":1624562,"internal_node_id":"0.0-5.0-22.0"},{"group":"hexagon_bi","fractal_assignment":["../images/cyn_red.png","../images/gry_blk.png","../images/pnk_blu.png","../images/blu_wht.png","../images/ylw_slt.png","../images/org_blu.png"],"mutagen_generator_assignment":[1,0],"goal":3,"start":2,"action_noise":0.2,"location_history":"[2,1,2,1,2,1,2,3]","action_history":"[0,0,0,0,0,0,0]","mutagen_history":"[1,1,1,1,1,1,1]","location_rts":"[299,130,80,77,24,127,144]","trial_type":"fractal-mutation","trial_index":127,"time_elapsed":1636346,"internal_node_id":"0.0-5.0-23.0"},{"group":"hexagon_bi","fractal_assignment":["../images/cyn_red.png","../images/gry_blk.png","../images/pnk_blu.png","../images/blu_wht.png","../images/ylw_slt.png","../images/org_blu.png"],"mutagen_generator_assignment":[1,0],"goal":5,"start":3,"action_noise":0.2,"location_history":"[3,2,1,2,1,0,1,0,5]","action_history":"[0,0,0,0,0,0,1,1]","mutagen_history":"[1,1,1,1,1,1,0,0]","location_rts":"[252,145,14,12,179,182,69,55]","trial_type":"fractal-mutation","trial_index":128,"time_elapsed":1649159,"internal_node_id":"0.0-5.0-24.0"},{"group":"hexagon_bi","fractal_assignment":["../images/cyn_red.png","../images/gry_blk.png","../images/pnk_blu.png","../images/blu_wht.png","../images/ylw_slt.png","../images/org_blu.png"],"mutagen_generator_assignment":[1,0],"goal":4,"start":5,"action_noise":0.2,"location_history":"[5,4]","action_history":"[0]","mutagen_history":"[1]","location_rts":"[345]","trial_type":"fractal-mutation","trial_index":129,"time_elapsed":1654065,"internal_node_id":"0.0-5.0-25.0"},{"group":"hexagon_bi","fractal_assignment":["../images/cyn_red.png","../images/gry_blk.png","../images/pnk_blu.png","../images/blu_wht.png","../images/ylw_slt.png","../images/org_blu.png"],"mutagen_generator_assignment":[1,0],"goal":0,"start":4,"action_noise":0.2,"location_history":"[4,3,4,3,4,3,4,3,2,1,0]","action_history":"[0,0,0,0,0,0,1,1,1,1]","mutagen_history":"[1,1,1,1,1,1,0,0,0,0]","location_rts":"[324,156,166,43,38,69,73,54,130,122]","trial_type":"fractal-mutation","trial_index":130,"time_elapsed":1669234,"internal_node_id":"0.0-5.0-26.0"},{"group":"hexagon_bi","fractal_assignment":["../images/cyn_red.png","../images/gry_blk.png","../images/pnk_blu.png","../images/blu_wht.png","../images/ylw_slt.png","../images/org_blu.png"],"mutagen_generator_assignment":[1,0],"goal":2,"start":0,"action_noise":0.2,"location_history":"[0,5,4,3,4,5,0,5,4,5,4,3,2]","action_history":"[0,0,0,0,0,0,0,1,1,1,0,0]","mutagen_history":"[1,1,1,1,1,1,1,0,0,0,1,1]","location_rts":"[258,160,125,180,165,62,181,104,199,140,92,262]","trial_type":"fractal-mutation","trial_index":131,"time_elapsed":1687310,"internal_node_id":"0.0-5.0-27.0"},{"group":"hexagon_bi","fractal_assignment":["../images/cyn_red.png","../images/gry_blk.png","../images/pnk_blu.png","../images/blu_wht.png","../images/ylw_slt.png","../images/org_blu.png"],"mutagen_generator_assignment":[1,0],"goal":1,"start":2,"action_noise":0.2,"location_history":"[2,3,4,3,4,3,2,3,4,5,4,3,4,5,0,5,4,5,4,5,4,3,4,3,4,3,4,3,4,5,0,1]","action_history":"[0,0,0,0,1,1,1,1,1,0,0,0,0,0,0,1,1,1,1,1,0,0,0,0,0,0,0,0,0,0,0]","mutagen_history":"[1,1,1,1,0,0,0,0,0,1,1,1,1,1,1,0,0,0,0,0,1,1,1,1,1,1,1,1,1,1,1]","location_rts":"[110,148,729,97,126,25,1,135,179,18,116,51,115,156,116,133,60,112,62,37,200,39,75,161,127,24,30,162,39,218,160]","trial_type":"fractal-mutation","trial_index":132,"time_elapsed":1727136,"internal_node_id":"0.0-5.0-28.0"},{"group":"hexagon_bi","fractal_assignment":["../images/cyn_red.png","../images/gry_blk.png","../images/pnk_blu.png","../images/blu_wht.png","../images/ylw_slt.png","../images/org_blu.png"],"mutagen_generator_assignment":[1,0],"goal":0,"start":1,"action_noise":0.2,"location_history":"[1,2,1,2,1,2,3,2,1,0]","action_history":"[0,0,0,0,0,0,1,1,1]","mutagen_history":"[1,1,1,1,1,1,0,0,0]","location_rts":"[463,137,43,35,171,150,190,31,41]","trial_type":"fractal-mutation","trial_index":133,"time_elapsed":1741342,"internal_node_id":"0.0-5.0-29.0"},{"group":"hexagon_bi","fractal_assignment":["../images/cyn_red.png","../images/gry_blk.png","../images/pnk_blu.png","../images/blu_wht.png","../images/ylw_slt.png","../images/org_blu.png"],"mutagen_generator_assignment":[1,0],"goal":2,"start":0,"action_noise":0.2,"location_history":"[0,5,0,5,0,5,0,5,0,1,2]","action_history":"[0,0,0,0,0,0,0,0,0,0]","mutagen_history":"[1,1,1,1,1,1,1,1,1,1]","location_rts":"[363,123,9,51,23,214,171,172,71,177]","trial_type":"fractal-mutation","trial_index":134,"time_elapsed":1756791,"internal_node_id":"0.0-5.0-30.0"},{"group":"hexagon_bi","fractal_assignment":["../images/cyn_red.png","../images/gry_blk.png","../images/pnk_blu.png","../images/blu_wht.png","../images/ylw_slt.png","../images/org_blu.png"],"mutagen_generator_assignment":[1,0],"goal":4,"start":2,"action_noise":0.2,"location_history":"[2,3,4]","action_history":"[1,1]","mutagen_history":"[0,0]","location_rts":"[383,81]","trial_type":"fractal-mutation","trial_index":135,"time_elapsed":1762833,"internal_node_id":"0.0-5.0-31.0"},{"group":"hexagon_bi","fractal_assignment":["../images/cyn_red.png","../images/gry_blk.png","../images/pnk_blu.png","../images/blu_wht.png","../images/ylw_slt.png","../images/org_blu.png"],"mutagen_generator_assignment":[1,0],"goal":1,"start":4,"action_noise":0.2,"location_history":"[4,5,0,5,0,5,4,3,4,5,0,5,0,5,0,5,0,1]","action_history":"[0,0,0,0,0,0,0,0,0,0,0,0,0,0,0,0,0]","mutagen_history":"[1,1,1,1,1,1,1,1,1,1,1,1,1,1,1,1,1]","location_rts":"[201,8,24,38,94,48,78,84,83,37,42,38,73,16,47,14,59]","trial_type":"fractal-mutation","trial_index":136,"time_elapsed":1785280,"internal_node_id":"0.0-5.0-32.0"},{"group":"hexagon_bi","fractal_assignment":["../images/cyn_red.png","../images/gry_blk.png","../images/pnk_blu.png","../images/blu_wht.png","../images/ylw_slt.png","../images/org_blu.png"],"mutagen_generator_assignment":[1,0],"goal":3,"start":1,"action_noise":0.2,"location_history":"[1,0,5,4,3]","action_history":"[0,0,0,0]","mutagen_history":"[1,1,1,1]","location_rts":"[468,77,43,64]","trial_type":"fractal-mutation","trial_index":137,"time_elapsed":1793664,"internal_node_id":"0.0-5.0-33.0"},{"group":"hexagon_bi","fractal_assignment":["../images/cyn_red.png","../images/gry_blk.png","../images/pnk_blu.png","../images/blu_wht.png","../images/ylw_slt.png","../images/org_blu.png"],"mutagen_generator_assignment":[1,0],"goal":5,"start":3,"action_noise":0.2,"location_history":"[3,4,3,4,3,4,3,4,3,2,3,2,3,2,3,4,5]","action_history":"[0,0,0,0,0,0,1,1,1,1,1,1,1,1,1,1]","mutagen_history":"[1,1,1,1,1,1,0,0,0,0,0,0,0,0,0,0]","location_rts":"[502,99,44,56,131,151,159,155,155,92,98,113,112,117,161,193]","trial_type":"fractal-mutation","trial_index":138,"time_elapsed":1816237,"internal_node_id":"0.0-5.0-34.0"},{"group":"hexagon_bi","fractal_assignment":["../images/cyn_red.png","../images/gry_blk.png","../images/pnk_blu.png","../images/blu_wht.png","../images/ylw_slt.png","../images/org_blu.png"],"mutagen_generator_assignment":[1,0],"goal":2,"start":5,"action_noise":0.2,"location_history":"[5,0,5,0,5,0,1,2]","action_history":"[0,0,0,0,0,0,0]","mutagen_history":"[1,1,1,1,1,1,1]","location_rts":"[1589,139,42,71,284,126,98]","trial_type":"fractal-mutation","trial_index":139,"time_elapsed":1829485,"internal_node_id":"0.0-5.0-35.0"},{"group":"hexagon_bi","fractal_assignment":["../images/cyn_red.png","../images/gry_blk.png","../images/pnk_blu.png","../images/blu_wht.png","../images/ylw_slt.png","../images/org_blu.png"],"mutagen_generator_assignment":[1,0],"goal":0,"start":2,"action_noise":0.2,"location_history":"[2,3,4,5,4,5,4,5,0]","action_history":"[1,1,1,1,1,1,1,1]","mutagen_history":"[0,0,0,0,0,0,0,0]","location_rts":"[1543,42,72,102,9,183,463,201]","trial_type":"fractal-mutation","trial_index":140,"time_elapsed":1843927,"internal_node_id":"0.0-5.0-36.0"},{"group":"hexagon_bi","fractal_assignment":["../images/cyn_red.png","../images/gry_blk.png","../images/pnk_blu.png","../images/blu_wht.png","../images/ylw_slt.png","../images/org_blu.png"],"mutagen_generator_assignment":[1,0],"goal":4,"start":0,"action_noise":0.2,"location_history":"[0,1,0,1,0,5,0,5,0,5,0,1,2,1,2,3,2,3,4]","action_history":"[1,1,1,1,0,0,0,0,0,0,0,0,0,0,1,1,1,1]","mutagen_history":"[0,0,0,0,1,1,1,1,1,1,1,1,1,1,0,0,0,0]","location_rts":"[262,119,98,202,6734,58,30,257,478,44,205,454,13,139,111,30,336,89]","trial_type":"fractal-mutation","trial_index":141,"time_elapsed":1875961,"internal_node_id":"0.0-5.0-37.0"},{"group":"hexagon_bi","fractal_assignment":["../images/cyn_red.png","../images/gry_blk.png","../images/pnk_blu.png","../images/blu_wht.png","../images/ylw_slt.png","../images/org_blu.png"],"mutagen_generator_assignment":[1,0],"goal":5,"start":4,"action_noise":0.2,"location_history":"[4,3,2,1,2,1,2,1,2,1,2,1,2,1,0,1,0,5]","action_history":"[0,0,0,0,0,0,0,0,0,0,0,0,0,1,1,1,1]","mutagen_history":"[1,1,1,1,1,1,1,1,1,1,1,1,1,0,0,0,0]","location_rts":"[1940,177,154,74,209,105,66,87,92,151,230,193,79,37,386,257,508]","trial_type":"fractal-mutation","trial_index":142,"time_elapsed":1902084,"internal_node_id":"0.0-5.0-38.0"},{"group":"hexagon_bi","fractal_assignment":["../images/cyn_red.png","../images/gry_blk.png","../images/pnk_blu.png","../images/blu_wht.png","../images/ylw_slt.png","../images/org_blu.png"],"mutagen_generator_assignment":[1,0],"goal":1,"start":5,"action_noise":0.2,"location_history":"[5,4,5,4,3,4,5,0,5,0,5,4,3,4,3,4,5,4,5,4,5,4,5,0,5,0,5,4,5,4,3,4,5,0,5,4,3,4,3,4,3,4,5,0,5,0,1]","action_history":"[1,1,1,1,1,0,0,0,0,0,0,0,0,0,0,1,1,1,1,1,1,1,0,0,0,0,0,0,0,0,0,0,0,0,0,0,0,0,0,0,0,0,0,0,0,1]","mutagen_history":"[0,0,0,0,0,1,1,1,1,1,1,1,1,1,1,0,0,0,0,0,0,0,1,1,1,1,1,1,1,1,1,1,1,1,1,1,1,1,1,1,1,1,1,1,1,0]","location_rts":"[1230,259,276,42,303,929,170,165,81,183,78,160,221,78,102,160,13,162,111,139,246,257,776,35,98,162,260,129,216,66,6340,96,123,261,4255,209,0,117,198,305,72,105,49,73,482,283]","trial_type":"fractal-mutation","trial_index":143,"time_elapsed":1985862,"internal_node_id":"0.0-5.0-39.0"},{"group":"hexagon_bi","fractal_assignment":["../images/cyn_red.png","../images/gry_blk.png","../images/pnk_blu.png","../images/blu_wht.png","../images/ylw_slt.png","../images/org_blu.png"],"mutagen_generator_assignment":[1,0],"goal":3,"start":1,"action_noise":0.2,"location_history":"[1,0,5,4,3]","action_history":"[1,1,1,1]","mutagen_history":"[0,0,0,0]","location_rts":"[659,168,172,13]","trial_type":"fractal-mutation","trial_index":144,"time_elapsed":1994526,"internal_node_id":"0.0-5.0-40.0"},{"group":"hexagon_bi","fractal_assignment":["../images/cyn_red.png","../images/gry_blk.png","../images/pnk_blu.png","../images/blu_wht.png","../images/ylw_slt.png","../images/org_blu.png"],"mutagen_generator_assignment":[1,0],"goal":1,"start":3,"action_noise":0.2,"location_history":"[3,4,5,4,5,4,5,0,5,0,5,0,5,0,5,4,5,4,3,4,5,4,5,4,5,4,3,4,3,4,3,4,5,0,1]","action_history":"[1,1,1,1,1,1,0,0,0,0,0,0,0,0,1,1,1,1,1,1,1,1,1,1,1,0,0,0,0,0,0,0,0,0]","mutagen_history":"[0,0,0,0,0,0,1,1,1,1,1,1,1,1,0,0,0,0,0,0,0,0,0,0,0,1,1,1,1,1,1,1,1,1]","location_rts":"[1664,7906,189,198,59,152,1750,123,9,244,329,59,1884,148,69,17,160,124,95,22,176,107,135,71,71,468,100,130,38,25,150,156,11,284]","trial_type":"fractal-mutation","trial_index":145,"time_elapsed":2050762,"internal_node_id":"0.0-5.0-41.0"},{"group":"hexagon_bi","fractal_assignment":["../images/cyn_red.png","../images/gry_blk.png","../images/pnk_blu.png","../images/blu_wht.png","../images/ylw_slt.png","../images/org_blu.png"],"mutagen_generator_assignment":[1,0],"goal":0,"start":1,"action_noise":0.2,"location_history":"[1,2,1,0]","action_history":"[0,0,0]","mutagen_history":"[1,1,1]","location_rts":"[461,61,34]","trial_type":"fractal-mutation","trial_index":146,"time_elapsed":2057998,"internal_node_id":"0.0-5.0-42.0"},{"group":"hexagon_bi","fractal_assignment":["../images/cyn_red.png","../images/gry_blk.png","../images/pnk_blu.png","../images/blu_wht.png","../images/ylw_slt.png","../images/org_blu.png"],"mutagen_generator_assignment":[1,0],"goal":4,"start":0,"action_noise":0.2,"location_history":"[0,5,0,5,0,1,0,5,4]","action_history":"[0,0,0,0,1,1,1,1]","mutagen_history":"[1,1,1,1,0,0,0,0]","location_rts":"[440,138,41,18,661,370,535,187]","trial_type":"fractal-mutation","trial_index":147,"time_elapsed":2072260,"internal_node_id":"0.0-5.0-43.0"},{"group":"hexagon_bi","fractal_assignment":["../images/cyn_red.png","../images/gry_blk.png","../images/pnk_blu.png","../images/blu_wht.png","../images/ylw_slt.png","../images/org_blu.png"],"mutagen_generator_assignment":[1,0],"goal":2,"start":4,"action_noise":0.2,"location_history":"[4,3,4,3,4,5,0,5,0,1,2]","action_history":"[0,0,0,0,0,0,0,0,0,0]","mutagen_history":"[1,1,1,1,1,1,1,1,1,1]","location_rts":"[279,44,128,28,208,9,121,46,178,14]","trial_type":"fractal-mutation","trial_index":148,"time_elapsed":2087392,"internal_node_id":"0.0-5.0-44.0"},{"group":"hexagon_bi","fractal_assignment":["../images/cyn_red.png","../images/gry_blk.png","../images/pnk_blu.png","../images/blu_wht.png","../images/ylw_slt.png","../images/org_blu.png"],"mutagen_generator_assignment":[1,0],"goal":3,"start":2,"action_noise":0.2,"location_history":"[2,1,2,3]","action_history":"[0,0,0]","mutagen_history":"[1,1,1]","location_rts":"[556,109,309]","trial_type":"fractal-mutation","trial_index":149,"time_elapsed":2095041,"internal_node_id":"0.0-5.0-45.0"},{"group":"hexagon_bi","fractal_assignment":["../images/cyn_red.png","../images/gry_blk.png","../images/pnk_blu.png","../images/blu_wht.png","../images/ylw_slt.png","../images/org_blu.png"],"mutagen_generator_assignment":[1,0],"goal":5,"start":3,"action_noise":0.2,"location_history":"[3,4,3,4,3,4,3,4,5]","action_history":"[0,0,0,0,0,0,0,0]","mutagen_history":"[1,1,1,1,1,1,1,1]","location_rts":"[332,57,84,104,94,98,90,41]","trial_type":"fractal-mutation","trial_index":150,"time_elapsed":2107894,"internal_node_id":"0.0-5.0-46.0"},{"group":"hexagon_bi","fractal_assignment":["../images/cyn_red.png","../images/gry_blk.png","../images/pnk_blu.png","../images/blu_wht.png","../images/ylw_slt.png","../images/org_blu.png"],"mutagen_generator_assignment":[1,0],"goal":4,"start":5,"action_noise":0.2,"location_history":"[5,0,5,0,5,4]","action_history":"[0,0,0,0,0]","mutagen_history":"[1,1,1,1,1]","location_rts":"[305,107,71,123,0]","trial_type":"fractal-mutation","trial_index":151,"time_elapsed":2117300,"internal_node_id":"0.0-5.0-47.0"},{"group":"hexagon_bi","fractal_assignment":["../images/cyn_red.png","../images/gry_blk.png","../images/pnk_blu.png","../images/blu_wht.png","../images/ylw_slt.png","../images/org_blu.png"],"mutagen_generator_assignment":[1,0],"goal":3,"start":4,"action_noise":0.2,"location_history":"[4,5,4,5,4,5,4,3]","action_history":"[1,1,1,1,1,1,1]","mutagen_history":"[0,0,0,0,0,0,0]","location_rts":"[844,56,207,20,14,39,27]","trial_type":"fractal-mutation","trial_index":152,"time_elapsed":2129279,"internal_node_id":"0.0-5.0-48.0"},{"group":"hexagon_bi","fractal_assignment":["../images/cyn_red.png","../images/gry_blk.png","../images/pnk_blu.png","../images/blu_wht.png","../images/ylw_slt.png","../images/org_blu.png"],"mutagen_generator_assignment":[1,0],"goal":1,"start":3,"action_noise":0.2,"location_history":"[3,4,5,0,1]","action_history":"[1,1,1,1]","mutagen_history":"[0,0,0,0]","location_rts":"[454,34,95,93]","trial_type":"fractal-mutation","trial_index":153,"time_elapsed":2137614,"internal_node_id":"0.0-5.0-49.0"},{"group":"hexagon_bi","fractal_assignment":["../images/cyn_red.png","../images/gry_blk.png","../images/pnk_blu.png","../images/blu_wht.png","../images/ylw_slt.png","../images/org_blu.png"],"mutagen_generator_assignment":[1,0],"goal":2,"start":1,"action_noise":0.2,"location_history":"[1,2]","action_history":"[0]","mutagen_history":"[1]","location_rts":"[6]","trial_type":"fractal-mutation","trial_index":154,"time_elapsed":2142190,"internal_node_id":"0.0-5.0-50.0"},{"group":"hexagon_bi","fractal_assignment":["../images/cyn_red.png","../images/gry_blk.png","../images/pnk_blu.png","../images/blu_wht.png","../images/ylw_slt.png","../images/org_blu.png"],"mutagen_generator_assignment":[1,0],"goal":0,"start":2,"action_noise":0.2,"location_history":"[2,1,2,1,2,1,0]","action_history":"[0,0,0,0,0,0]","mutagen_history":"[1,1,1,1,1,1]","location_rts":"[281,130,133,144,12,179]","trial_type":"fractal-mutation","trial_index":155,"time_elapsed":2152900,"internal_node_id":"0.0-5.0-51.0"},{"group":"hexagon_bi","fractal_assignment":["../images/cyn_red.png","../images/gry_blk.png","../images/pnk_blu.png","../images/blu_wht.png","../images/ylw_slt.png","../images/org_blu.png"],"mutagen_generator_assignment":[1,0],"goal":5,"start":0,"action_noise":0.2,"location_history":"[0,5]","action_history":"[0]","mutagen_history":"[1]","location_rts":"[359]","trial_type":"fractal-mutation","trial_index":156,"time_elapsed":2157827,"internal_node_id":"0.0-5.0-52.0"},{"group":"hexagon_bi","fractal_assignment":["../images/cyn_red.png","../images/gry_blk.png","../images/pnk_blu.png","../images/blu_wht.png","../images/ylw_slt.png","../images/org_blu.png"],"mutagen_generator_assignment":[1,0],"goal":1,"start":5,"action_noise":0.2,"location_history":"[5,0,5,4,3,4,3,2,3,4,5,4,5,4,3,2,3,2,1]","action_history":"[0,0,0,0,0,0,0,1,1,1,1,1,1,1,1,1,1,1]","mutagen_history":"[1,1,1,1,1,1,1,0,0,0,0,0,0,0,0,0,0,0]","location_rts":"[51,262,69,42,27,64,8,181,179,50,56,27,69,108,68,67,43,64]","trial_type":"fractal-mutation","trial_index":157,"time_elapsed":2181591,"internal_node_id":"0.0-5.0-53.0"},{"group":"hexagon_bi","fractal_assignment":["../images/cyn_red.png","../images/gry_blk.png","../images/pnk_blu.png","../images/blu_wht.png","../images/ylw_slt.png","../images/org_blu.png"],"mutagen_generator_assignment":[1,0],"goal":3,"start":1,"action_noise":0.2,"location_history":"[1,0,1,0,1,0,5,4,5,0,5,0,5,0,1,2,1,2,1,2,1,2,1,0,5,4,5,0,5,4,3]","action_history":"[1,1,1,1,1,1,1,1,0,0,0,0,0,0,0,0,0,0,0,0,0,0,0,0,1,1,1,1,1,1]","mutagen_history":"[0,0,0,0,0,0,0,0,1,1,1,1,1,1,1,1,1,1,1,1,1,1,1,1,0,0,0,0,0,0]","location_rts":"[306,51,190,174,37,94,129,127,650,187,50,127,172,145,121,183,58,91,119,122,118,97,92,102,198,51,145,92,24,103]","trial_type":"fractal-mutation","trial_index":158,"time_elapsed":2220724,"internal_node_id":"0.0-5.0-54.0"},{"group":"hexagon_bi","fractal_assignment":["../images/cyn_red.png","../images/gry_blk.png","../images/pnk_blu.png","../images/blu_wht.png","../images/ylw_slt.png","../images/org_blu.png"],"mutagen_generator_assignment":[1,0],"goal":5,"start":3,"action_noise":0.2,"location_history":"[3,4,3,4,5]","action_history":"[0,0,0,0]","mutagen_history":"[1,1,1,1]","location_rts":"[337,0,160,21]","trial_type":"fractal-mutation","trial_index":159,"time_elapsed":2228973,"internal_node_id":"0.0-5.0-55.0"},{"group":"hexagon_bi","fractal_assignment":["../images/cyn_red.png","../images/gry_blk.png","../images/pnk_blu.png","../images/blu_wht.png","../images/ylw_slt.png","../images/org_blu.png"],"mutagen_generator_assignment":[1,0],"goal":4,"start":5,"action_noise":0.2,"location_history":"[5,4]","action_history":"[0]","mutagen_history":"[1]","location_rts":"[377]","trial_type":"fractal-mutation","trial_index":160,"time_elapsed":2233916,"internal_node_id":"0.0-5.0-56.0"},{"group":"hexagon_bi","fractal_assignment":["../images/cyn_red.png","../images/gry_blk.png","../images/pnk_blu.png","../images/blu_wht.png","../images/ylw_slt.png","../images/org_blu.png"],"mutagen_generator_assignment":[1,0],"goal":0,"start":4,"action_noise":0.2,"location_history":"[4,3,4,3,4,3,2,1,0]","action_history":"[0,0,0,0,0,0,0,0]","mutagen_history":"[1,1,1,1,1,1,1,1]","location_rts":"[287,9,167,23,153,8,38,65]","trial_type":"fractal-mutation","trial_index":161,"time_elapsed":2246623,"internal_node_id":"0.0-5.0-57.0"},{"group":"hexagon_bi","fractal_assignment":["../images/cyn_red.png","../images/gry_blk.png","../images/pnk_blu.png","../images/blu_wht.png","../images/ylw_slt.png","../images/org_blu.png"],"mutagen_generator_assignment":[1,0],"goal":2,"start":0,"action_noise":0.2,"location_history":"[0,5,0,5,0,5,4,5,0,5,4,3,4,5,4,5,4,5,4,5,4,5,4,5,4,5,4,5,4,5,0,1,2]","action_history":"[0,0,0,0,0,0,0,0,0,0,0,0,1,1,1,1,1,1,1,1,1,1,1,1,1,1,1,1,1,1,0,0]","mutagen_history":"[1,1,1,1,1,1,1,1,1,1,1,1,0,0,0,0,0,0,0,0,0,0,0,0,0,0,0,0,0,0,1,1]","location_rts":"[318,141,1,170,30,49,104,55,53,72,78,116,684,22,90,100,18,86,97,175,50,110,122,85,115,77,120,10,170,50,734,44]","trial_type":"fractal-mutation","trial_index":162,"time_elapsed":2287739,"internal_node_id":"0.0-5.0-58.0"},{"group":"hexagon_bi","fractal_assignment":["../images/cyn_red.png","../images/gry_blk.png","../images/pnk_blu.png","../images/blu_wht.png","../images/ylw_slt.png","../images/org_blu.png"],"mutagen_generator_assignment":[1,0],"goal":4,"start":2,"action_noise":0.2,"location_history":"[2,1,0,5,0,1,2,3,2,1,2,1,0,1,0,1,0,1,0,1,0,1,2,3,4]","action_history":"[0,0,0,0,0,0,0,0,0,0,0,1,1,1,1,1,1,1,1,1,1,1,1,1]","mutagen_history":"[1,1,1,1,1,1,1,1,1,1,1,0,0,0,0,0,0,0,0,0,0,0,0,0]","location_rts":"[395,108,70,419,41,19,149,193,61,129,117,202,13,151,185,493,176,97,7,40,60,77,13,25]","trial_type":"fractal-mutation","trial_index":163,"time_elapsed":2319579,"internal_node_id":"0.0-5.0-59.0"},{"group":"hexagon_bi","fractal_assignment":["../images/cyn_red.png","../images/gry_blk.png","../images/pnk_blu.png","../images/blu_wht.png","../images/ylw_slt.png","../images/org_blu.png"],"mutagen_generator_assignment":[1,0],"goal":2,"start":4,"action_noise":0.2,"location_history":"[4,3,4,3,4,5,4,3,2]","action_history":"[0,0,0,0,0,0,0,0]","mutagen_history":"[1,1,1,1,1,1,1,1]","location_rts":"[416,218,192,192,197,166,183,9]","trial_type":"fractal-mutation","trial_index":164,"time_elapsed":2333114,"internal_node_id":"0.0-5.0-60.0"},{"group":"hexagon_bi","fractal_assignment":["../images/cyn_red.png","../images/gry_blk.png","../images/pnk_blu.png","../images/blu_wht.png","../images/ylw_slt.png","../images/org_blu.png"],"mutagen_generator_assignment":[1,0],"goal":3,"start":2,"action_noise":0.2,"location_history":"[2,1,2,3]","action_history":"[0,0,0]","mutagen_history":"[1,1,1]","location_rts":"[416,117,1339]","trial_type":"fractal-mutation","trial_index":165,"time_elapsed":2341659,"internal_node_id":"0.0-5.0-61.0"},{"group":"hexagon_bi","fractal_assignment":["../images/cyn_red.png","../images/gry_blk.png","../images/pnk_blu.png","../images/blu_wht.png","../images/ylw_slt.png","../images/org_blu.png"],"mutagen_generator_assignment":[1,0],"goal":0,"start":3,"action_noise":0.2,"location_history":"[3,4,3,2,1,2,1,2,1,0]","action_history":"[0,0,0,0,0,0,0,0,0]","mutagen_history":"[1,1,1,1,1,1,1,1,1]","location_rts":"[478,101,146,160,148,185,209,150,43]","trial_type":"fractal-mutation","trial_index":166,"time_elapsed":2356293,"internal_node_id":"0.0-5.0-62.0"},{"group":"hexagon_bi","fractal_assignment":["../images/cyn_red.png","../images/gry_blk.png","../images/pnk_blu.png","../images/blu_wht.png","../images/ylw_slt.png","../images/org_blu.png"],"mutagen_generator_assignment":[1,0],"goal":5,"start":0,"action_noise":0.2,"location_history":"[0,1,2,1,2,1,2,1,2,3,4,5]","action_history":"[0,0,0,0,0,0,0,0,0,0,0]","mutagen_history":"[1,1,1,1,1,1,1,1,1,1,1]","location_rts":"[371,190,143,134,190,13,221,130,73,199,184]","trial_type":"fractal-mutation","trial_index":167,"time_elapsed":2373361,"internal_node_id":"0.0-5.0-63.0"},{"group":"hexagon_bi","fractal_assignment":["../images/cyn_red.png","../images/gry_blk.png","../images/pnk_blu.png","../images/blu_wht.png","../images/ylw_slt.png","../images/org_blu.png"],"mutagen_generator_assignment":[1,0],"goal":1,"start":5,"action_noise":0.2,"location_history":"[5,4,5,0,1]","action_history":"[1,1,1,1]","mutagen_history":"[0,0,0,0]","location_rts":"[415,7,149,24]","trial_type":"fractal-mutation","trial_index":168,"time_elapsed":2381612,"internal_node_id":"0.0-5.0-64.0"},{"group":"hexagon_bi","fractal_assignment":["../images/cyn_red.png","../images/gry_blk.png","../images/pnk_blu.png","../images/blu_wht.png","../images/ylw_slt.png","../images/org_blu.png"],"mutagen_generator_assignment":[1,0],"goal":5,"start":1,"action_noise":0.2,"location_history":"[1,2,1,2,3,2,1,2,1,2,1,0,5]","action_history":"[0,0,0,0,0,0,0,0,0,0,0,0]","mutagen_history":"[1,1,1,1,1,1,1,1,1,1,1,1]","location_rts":"[329,80,60,88,142,106,127,142,119,144,72,114]","trial_type":"fractal-mutation","trial_index":169,"time_elapsed":2399298,"internal_node_id":"0.0-5.0-65.0"},{"group":"hexagon_bi","fractal_assignment":["../images/cyn_red.png","../images/gry_blk.png","../images/pnk_blu.png","../images/blu_wht.png","../images/ylw_slt.png","../images/org_blu.png"],"mutagen_generator_assignment":[1,0],"goal":3,"start":5,"action_noise":0.2,"location_history":"[5,4,3]","action_history":"[0,0]","mutagen_history":"[1,1]","location_rts":"[475,271]","trial_type":"fractal-mutation","trial_index":170,"time_elapsed":2405659,"internal_node_id":"0.0-5.0-66.0"},{"group":"hexagon_bi","fractal_assignment":["../images/cyn_red.png","../images/gry_blk.png","../images/pnk_blu.png","../images/blu_wht.png","../images/ylw_slt.png","../images/org_blu.png"],"mutagen_generator_assignment":[1,0],"goal":2,"start":3,"action_noise":0.2,"location_history":"[3,4,3,4,3,4,5,0,5,0,5,0,5,0,5,0,5,4,5,4,5,4,3,2]","action_history":"[0,0,0,0,0,0,0,0,0,0,0,0,0,0,0,0,1,1,1,1,1,1,1]","mutagen_history":"[1,1,1,1,1,1,1,1,1,1,1,1,1,1,1,1,0,0,0,0,0,0,0]","location_rts":"[366,79,120,83,104,75,97,167,134,127,66,85,115,100,114,55,60,85,69,37,151,187,202]","trial_type":"fractal-mutation","trial_index":171,"time_elapsed":2436003,"internal_node_id":"0.0-5.0-67.0"},{"group":"hexagon_bi","fractal_assignment":["../images/cyn_red.png","../images/gry_blk.png","../images/pnk_blu.png","../images/blu_wht.png","../images/ylw_slt.png","../images/org_blu.png"],"mutagen_generator_assignment":[1,0],"goal":1,"start":2,"action_noise":0.2,"location_history":"[2,3,2,1]","action_history":"[1,1,1]","mutagen_history":"[0,0,0]","location_rts":"[390,214,158]","trial_type":"fractal-mutation","trial_index":172,"time_elapsed":2443394,"internal_node_id":"0.0-5.0-68.0"},{"group":"hexagon_bi","fractal_assignment":["../images/cyn_red.png","../images/gry_blk.png","../images/pnk_blu.png","../images/blu_wht.png","../images/ylw_slt.png","../images/org_blu.png"],"mutagen_generator_assignment":[1,0],"goal":4,"start":1,"action_noise":0.2,"location_history":"[1,0,1,0,1,2,3,2,3,2,1,0,1,2,1,2,1,2,1,0,5,0,5,0,5,4]","action_history":"[1,1,1,1,1,1,1,1,1,1,1,1,0,0,0,0,0,0,0,0,0,0,0,0,0]","mutagen_history":"[0,0,0,0,0,0,0,0,0,0,0,0,1,1,1,1,1,1,1,1,1,1,1,1,1]","location_rts":"[382,1878,220,50,8,194,122,7,93,88,93,61,505,110,84,84,51,81,49,14,35,65,74,40,28]","trial_type":"fractal-mutation","trial_index":173,"time_elapsed":2477612,"internal_node_id":"0.0-5.0-69.0"},{"group":"hexagon_bi","fractal_assignment":["../images/cyn_red.png","../images/gry_blk.png","../images/pnk_blu.png","../images/blu_wht.png","../images/ylw_slt.png","../images/org_blu.png"],"mutagen_generator_assignment":[1,0],"goal":0,"start":4,"action_noise":0.2,"location_history":"[4,5,0]","action_history":"[0,0]","mutagen_history":"[1,1]","location_rts":"[514,93]","trial_type":"fractal-mutation","trial_index":174,"time_elapsed":2483844,"internal_node_id":"0.0-5.0-70.0"},{"group":"hexagon_bi","fractal_assignment":["../images/cyn_red.png","../images/gry_blk.png","../images/pnk_blu.png","../images/blu_wht.png","../images/ylw_slt.png","../images/org_blu.png"],"mutagen_generator_assignment":[1,0],"goal":3,"start":0,"action_noise":0.2,"location_history":"[0,5,4,3]","action_history":"[0,0,0]","mutagen_history":"[1,1,1]","location_rts":"[311,181,212]","trial_type":"fractal-mutation","trial_index":175,"time_elapsed":2491214,"internal_node_id":"0.0-5.0-71.0"},{"group":"hexagon_bi","fractal_assignment":["../images/cyn_red.png","../images/gry_blk.png","../images/pnk_blu.png","../images/blu_wht.png","../images/ylw_slt.png","../images/org_blu.png"],"mutagen_generator_assignment":[1,0],"goal":1,"start":3,"action_noise":0.2,"location_history":"[3,4,3,4,3,4,3,4,5,4,5,0,5,4,3,4,3,4,3,4,3,4,3,4,5,0,5,0,1]","action_history":"[0,0,0,0,0,0,0,0,0,0,0,0,0,0,0,0,0,0,0,0,0,0,0,0,0,0,0,0]","mutagen_history":"[1,1,1,1,1,1,1,1,1,1,1,1,1,1,1,1,1,1,1,1,1,1,1,1,1,1,1,1]","location_rts":"[262,101,3816,896,34,55,143,95,52,176,64,12,44,193,86,135,174,210,58,29,55,73,192,47,162,93,115,170]","trial_type":"fractal-mutation","trial_index":176,"time_elapsed":2531842,"internal_node_id":"0.0-5.0-72.0"},{"group":"hexagon_bi","fractal_assignment":["../images/cyn_red.png","../images/gry_blk.png","../images/pnk_blu.png","../images/blu_wht.png","../images/ylw_slt.png","../images/org_blu.png"],"mutagen_generator_assignment":[1,0],"goal":0,"start":1,"action_noise":0.2,"location_history":"[1,2,3,2,1,2,1,2,1,2,1,2,1,2,1,2,1,2,3,4,3,2,3,2,3,2,3,2,3,4,5,4,3,2,3,2,3,2,1,0]","action_history":"[0,0,0,0,0,0,0,0,0,0,0,0,0,0,0,0,0,0,0,0,1,1,1,1,1,1,1,1,1,1,1,1,1,1,1,1,0,0,0]","mutagen_history":"[1,1,1,1,1,1,1,1,1,1,1,1,1,1,1,1,1,1,1,1,0,0,0,0,0,0,0,0,0,0,0,0,0,0,0,0,1,1,1]","location_rts":"[405,33,8,120,166,64,13,111,24,51,40,47,79,143,72,111,94,79,75,45,135,169,158,165,176,203,24,72,155,161,119,152,150,107,152,190,1052,54,46]","trial_type":"fractal-mutation","trial_index":177,"time_elapsed":2581505,"internal_node_id":"0.0-5.0-73.0"},{"group":"hexagon_bi","fractal_assignment":["../images/cyn_red.png","../images/gry_blk.png","../images/pnk_blu.png","../images/blu_wht.png","../images/ylw_slt.png","../images/org_blu.png"],"mutagen_generator_assignment":[1,0],"goal":2,"start":0,"action_noise":0.2,"location_history":"[0,5,0,1,2]","action_history":"[0,0,0,0]","mutagen_history":"[1,1,1,1]","location_rts":"[280,36,25,114]","trial_type":"fractal-mutation","trial_index":178,"time_elapsed":2589693,"internal_node_id":"0.0-5.0-74.0"},{"group":"hexagon_bi","fractal_assignment":["../images/cyn_red.png","../images/gry_blk.png","../images/pnk_blu.png","../images/blu_wht.png","../images/ylw_slt.png","../images/org_blu.png"],"mutagen_generator_assignment":[1,0],"goal":4,"start":2,"action_noise":0.2,"location_history":"[2,3,2,1,2,1,2,1,0,5,0,5,4]","action_history":"[0,0,0,0,0,0,0,0,0,0,0,0]","mutagen_history":"[1,1,1,1,1,1,1,1,1,1,1,1]","location_rts":"[257,134,30,42,62,175,110,100,119,111,163,9]","trial_type":"fractal-mutation","trial_index":179,"time_elapsed":2607184,"internal_node_id":"0.0-5.0-75.0"},{"group":"hexagon_bi","fractal_assignment":["../images/cyn_red.png","../images/gry_blk.png","../images/pnk_blu.png","../images/blu_wht.png","../images/ylw_slt.png","../images/org_blu.png"],"mutagen_generator_assignment":[1,0],"goal":5,"start":4,"action_noise":0.2,"location_history":"[4,3,2,3,4,3,4,3,2,1,2,1,2,1,2,3,4,5]","action_history":"[0,0,0,0,0,0,0,0,0,0,0,0,0,0,0,0,0]","mutagen_history":"[1,1,1,1,1,1,1,1,1,1,1,1,1,1,1,1,1]","location_rts":"[260,154,164,33,189,122,131,63,75,191,47,57,61,81,50,77,74]","trial_type":"fractal-mutation","trial_index":180,"time_elapsed":2630455,"internal_node_id":"0.0-5.0-76.0"},{"group":"hexagon_bi","fractal_assignment":["../images/cyn_red.png","../images/gry_blk.png","../images/pnk_blu.png","../images/blu_wht.png","../images/ylw_slt.png","../images/org_blu.png"],"mutagen_generator_assignment":[1,0],"goal":2,"start":5,"action_noise":0.2,"location_history":"[5,0,5,0,5,0,5,0,5,4,3,2]","action_history":"[0,0,0,0,0,0,0,0,0,0,1]","mutagen_history":"[1,1,1,1,1,1,1,1,1,1,0]","location_rts":"[83,154,158,171,8,35,17,53,170,138,79]","trial_type":"fractal-mutation","trial_index":181,"time_elapsed":2646626,"internal_node_id":"0.0-5.0-77.0"},{"group":"hexagon_bi","fractal_assignment":["../images/cyn_red.png","../images/gry_blk.png","../images/pnk_blu.png","../images/blu_wht.png","../images/ylw_slt.png","../images/org_blu.png"],"mutagen_generator_assignment":[1,0],"goal":3,"start":2,"action_noise":0.2,"location_history":"[2,1,2,1,2,1,2,1,2,3]","action_history":"[0,0,0,0,0,0,0,0,1]","mutagen_history":"[1,1,1,1,1,1,1,1,0]","location_rts":"[476,38,80,61,99,47,106,114,75]","trial_type":"fractal-mutation","trial_index":182,"time_elapsed":2660721,"internal_node_id":"0.0-5.0-78.0"},{"group":"hexagon_bi","fractal_assignment":["../images/cyn_red.png","../images/gry_blk.png","../images/pnk_blu.png","../images/blu_wht.png","../images/ylw_slt.png","../images/org_blu.png"],"mutagen_generator_assignment":[1,0],"goal":1,"start":3,"action_noise":0.2,"location_history":"[3,4,3,4,3,4,3,4,3,4,3,4,3,2,3,2,3,2,3,2,3,4,5,4,5,4,3,2,1]","action_history":"[0,0,0,0,0,0,0,0,0,0,0,0,1,1,1,1,1,1,1,1,1,1,1,0,0,0,0,0]","mutagen_history":"[1,1,1,1,1,1,1,1,1,1,1,1,0,0,0,0,0,0,0,0,0,0,0,1,1,1,1,1]","location_rts":"[345,121,104,28,117,114,68,64,59,81,160,169,207,211,37,110,120,139,40,62,96,141,68,199,92,63,114,42]","trial_type":"fractal-mutation","trial_index":183,"time_elapsed":2698671,"internal_node_id":"0.0-5.0-79.0"},{"group":"hexagon_bi","fractal_assignment":["../images/cyn_red.png","../images/gry_blk.png","../images/pnk_blu.png","../images/blu_wht.png","../images/ylw_slt.png","../images/org_blu.png"],"mutagen_generator_assignment":[1,0],"goal":4,"start":1,"action_noise":0.2,"location_history":"[1,0,1,2,1,2,1,2,1,2,1,2,1,0,5,0,5,0,5,0,5,0,5,0,1,2,3,2,3,2,3,2,3,2,3,4]","action_history":"[1,1,0,0,0,0,0,0,0,0,0,0,0,0,0,0,0,0,0,0,0,0,1,1,1,1,1,1,1,1,1,1,1,1,0]","mutagen_history":"[0,0,1,1,1,1,1,1,1,1,1,1,1,1,1,1,1,1,1,1,1,1,0,0,0,0,0,0,0,0,0,0,0,0,1]","location_rts":"[454,64,94,11,82,40,70,2848,2944,81,125,141,165,116,136,123,147,137,3,142,21,1180,119,24,73,12,68,272,17,113,9,31,4,21,40]","trial_type":"fractal-mutation","trial_index":184,"time_elapsed":2755367,"internal_node_id":"0.0-5.0-80.0"},{"group":"hexagon_bi","fractal_assignment":["../images/cyn_red.png","../images/gry_blk.png","../images/pnk_blu.png","../images/blu_wht.png","../images/ylw_slt.png","../images/org_blu.png"],"mutagen_generator_assignment":[1,0],"goal":5,"start":4,"action_noise":0.2,"location_history":"[4,3,4,3,4,3,4,3,2,1,2,1,2,1,2,1,2,3,4,3,4,5]","action_history":"[0,0,0,0,0,0,0,0,0,0,0,0,0,0,0,0,0,0,0,0,1]","mutagen_history":"[1,1,1,1,1,1,1,1,1,1,1,1,1,1,1,1,1,1,1,1,0]","location_rts":"[287,135,165,30,70,8,34,22,76,88,56,111,110,170,59,113,79,114,92,54,113]","trial_type":"fractal-mutation","trial_index":185,"time_elapsed":2783009,"internal_node_id":"0.0-5.0-81.0"},{"group":"hexagon_bi","fractal_assignment":["../images/cyn_red.png","../images/gry_blk.png","../images/pnk_blu.png","../images/blu_wht.png","../images/ylw_slt.png","../images/org_blu.png"],"mutagen_generator_assignment":[1,0],"goal":0,"start":5,"action_noise":0.2,"location_history":"[5,4,5,0]","action_history":"[1,1,1]","mutagen_history":"[0,0,0]","location_rts":"[412,7,31]","trial_type":"fractal-mutation","trial_index":186,"time_elapsed":2790080,"internal_node_id":"0.0-5.0-82.0"},{"group":"hexagon_bi","fractal_assignment":["../images/cyn_red.png","../images/gry_blk.png","../images/pnk_blu.png","../images/blu_wht.png","../images/ylw_slt.png","../images/org_blu.png"],"mutagen_generator_assignment":[1,0],"goal":2,"start":0,"action_noise":0.2,"location_history":"[0,1,0,5,4,5,4,5,4,5,4,5,4,5,0,1,0,1,0,1,0,5,4,5,0,5,0,1,0,5,0,1,0,5,0,1,2]","action_history":"[1,1,1,1,1,1,1,1,1,1,1,1,1,1,1,1,1,1,1,1,0,0,0,0,0,0,0,0,0,0,0,0,0,0,0,0]","mutagen_history":"[0,0,0,0,0,0,0,0,0,0,0,0,0,0,0,0,0,0,0,0,1,1,1,1,1,1,1,1,1,1,1,1,1,1,1,1]","location_rts":"[377,0,165,13,49,195,173,174,28,80,112,123,166,202,188,119,60,129,202,164,125,196,107,10,20,122,20,13,39,209,179,209,201,159,163,90]","trial_type":"fractal-mutation","trial_index":187,"time_elapsed":2835816,"internal_node_id":"0.0-5.0-83.0"},{"group":"hexagon_bi","fractal_assignment":["../images/cyn_red.png","../images/gry_blk.png","../images/pnk_blu.png","../images/blu_wht.png","../images/ylw_slt.png","../images/org_blu.png"],"mutagen_generator_assignment":[1,0],"goal":0,"start":2,"action_noise":0.2,"location_history":"[2,1,2,3,4,3,4,3,4,3,4,3,4,5,0]","action_history":"[0,0,0,0,0,0,0,0,0,0,0,0,0,0]","mutagen_history":"[1,1,1,1,1,1,1,1,1,1,1,1,1,1]","location_rts":"[11084,31,72,118,168,134,45,145,43,25,41,36,115,104]","trial_type":"fractal-mutation","trial_index":188,"time_elapsed":2866277,"internal_node_id":"0.0-5.0-84.0"},{"group":"hexagon_bi","fractal_assignment":["../images/cyn_red.png","../images/gry_blk.png","../images/pnk_blu.png","../images/blu_wht.png","../images/ylw_slt.png","../images/org_blu.png"],"mutagen_generator_assignment":[1,0],"goal":5,"start":0,"action_noise":0.2,"location_history":"[0,1,2,1,0,1,2,1,0,5]","action_history":"[1,1,1,1,1,1,1,1,0]","mutagen_history":"[0,0,0,0,0,0,0,0,1]","location_rts":"[251,67,187,14,7,8,133,27,1866]","trial_type":"fractal-mutation","trial_index":189,"time_elapsed":2881705,"internal_node_id":"0.0-5.0-85.0"},{"group":"hexagon_bi","fractal_assignment":["../images/cyn_red.png","../images/gry_blk.png","../images/pnk_blu.png","../images/blu_wht.png","../images/ylw_slt.png","../images/org_blu.png"],"mutagen_generator_assignment":[1,0],"goal":1,"start":5,"action_noise":0.2,"location_history":"[5,0,5,4,5,4,5,4,5,4,5,4,5,0,5,0,5,4,3,4,5,0,1]","action_history":"[0,0,1,1,1,1,1,1,1,1,1,1,0,0,0,0,0,0,0,0,0,0]","mutagen_history":"[1,1,0,0,0,0,0,0,0,0,0,0,1,1,1,1,1,1,1,1,1,1]","location_rts":"[1275,83,178,128,5527,213,326,68,123,84,41,183,137,165,124,102,52,158,87,126,153,65]","trial_type":"fractal-mutation","trial_index":190,"time_elapsed":2921366,"internal_node_id":"0.0-5.0-86.0"},{"group":"hexagon_bi","fractal_assignment":["../images/cyn_red.png","../images/gry_blk.png","../images/pnk_blu.png","../images/blu_wht.png","../images/ylw_slt.png","../images/org_blu.png"],"mutagen_generator_assignment":[1,0],"goal":4,"start":1,"action_noise":0.2,"location_history":"[1,2,1,2,1,2,1,2,1,0,1,2,1,2,3,4]","action_history":"[0,0,0,0,0,0,0,0,0,0,0,0,0,0,0]","mutagen_history":"[1,1,1,1,1,1,1,1,1,1,1,1,1,1,1]","location_rts":"[537,48,141,140,67,190,121,132,135,210,187,232,75,106,129]","trial_type":"fractal-mutation","trial_index":191,"time_elapsed":2943179,"internal_node_id":"0.0-5.0-87.0"},{"group":"hexagon_bi","fractal_assignment":["../images/cyn_red.png","../images/gry_blk.png","../images/pnk_blu.png","../images/blu_wht.png","../images/ylw_slt.png","../images/org_blu.png"],"mutagen_generator_assignment":[1,0],"goal":3,"start":4,"action_noise":0.2,"location_history":"[4,3]","action_history":"[0]","mutagen_history":"[1]","location_rts":"[3745]","trial_type":"fractal-mutation","trial_index":192,"time_elapsed":2951487,"internal_node_id":"0.0-5.0-88.0"},{"group":"hexagon_bi","fractal_assignment":["../images/cyn_red.png","../images/gry_blk.png","../images/pnk_blu.png","../images/blu_wht.png","../images/ylw_slt.png","../images/org_blu.png"],"mutagen_generator_assignment":[1,0],"goal":5,"start":3,"action_noise":0.2,"location_history":"[3,4,3,4,5]","action_history":"[0,0,0,0]","mutagen_history":"[1,1,1,1]","location_rts":"[588,180,35,83]","trial_type":"fractal-mutation","trial_index":193,"time_elapsed":2960105,"internal_node_id":"0.0-5.0-89.0"},{"group":"hexagon_bi","fractal_assignment":["../images/cyn_red.png","../images/gry_blk.png","../images/pnk_blu.png","../images/blu_wht.png","../images/ylw_slt.png","../images/org_blu.png"],"mutagen_generator_assignment":[1,0],"goal":1,"start":5,"action_noise":0.2,"location_history":"[5,0,5,4,3,4,3,4,3,4,3,2,1]","action_history":"[0,0,0,0,0,0,0,0,0,0,1,1]","mutagen_history":"[1,1,1,1,1,1,1,1,1,1,0,0]","location_rts":"[475,124,113,139,116,224,182,124,115,126,208,292]","trial_type":"fractal-mutation","trial_index":194,"time_elapsed":2978501,"internal_node_id":"0.0-5.0-90.0"},{"group":"hexagon_bi","fractal_assignment":["../images/cyn_red.png","../images/gry_blk.png","../images/pnk_blu.png","../images/blu_wht.png","../images/ylw_slt.png","../images/org_blu.png"],"mutagen_generator_assignment":[1,0],"goal":2,"start":1,"action_noise":0.2,"location_history":"[1,0,5,0,5,0,5,0,5,0,5,0,1,2]","action_history":"[0,0,0,0,0,0,0,0,0,0,0,0,0]","mutagen_history":"[1,1,1,1,1,1,1,1,1,1,1,1,1]","location_rts":"[358,26,150,78,86,114,18,52,69,52,113,114,16]","trial_type":"fractal-mutation","trial_index":195,"time_elapsed":2996979,"internal_node_id":"0.0-5.0-91.0"},{"group":"hexagon_bi","fractal_assignment":["../images/cyn_red.png","../images/gry_blk.png","../images/pnk_blu.png","../images/blu_wht.png","../images/ylw_slt.png","../images/org_blu.png"],"mutagen_generator_assignment":[1,0],"goal":4,"start":2,"action_noise":0.2,"location_history":"[2,1,0,5,0,5,0,5,4]","action_history":"[0,0,0,0,0,0,0,0]","mutagen_history":"[1,1,1,1,1,1,1,1]","location_rts":"[186,50,147,96,165,180,110,248]","trial_type":"fractal-mutation","trial_index":196,"time_elapsed":3010113,"internal_node_id":"0.0-5.0-92.0"},{"group":"hexagon_bi","fractal_assignment":["../images/cyn_red.png","../images/gry_blk.png","../images/pnk_blu.png","../images/blu_wht.png","../images/ylw_slt.png","../images/org_blu.png"],"mutagen_generator_assignment":[1,0],"goal":0,"start":4,"action_noise":0.2,"location_history":"[4,3,4,3,4,5,0]","action_history":"[0,0,0,0,0,0]","mutagen_history":"[1,1,1,1,1,1]","location_rts":"[1635,53,25,69,632,130]","