[{"view_history":"[{\"page_index\":0,\"viewing_time\":324844},{\"page_index\":1,\"viewing_time\":5112}]","rt":329958,"trial_type":"instructions","trial_index":0,"time_elapsed":329960,"internal_node_id":"0.0-0.0"},{"view_history":"[{\"page_index\":0,\"viewing_time\":3193},{\"page_index\":1,\"viewing_time\":17568}]","rt":20763,"trial_type":"instructions","trial_index":1,"time_elapsed":351730,"internal_node_id":"0.0-1.0"},{"group":"hexagon_tri","room_assignment":["blue","grey","yellow","red","green","purple"],"door_color_assignment":["white","black"],"door_generator_assignment":[0,1],"goal":2,"start":1,"action_noise":0.2,"location_history":"[1,3,2]","action_history":"[0,0]","door_history":"[0,0]","location_rts":"[3769,738]","trial_type":"two-door-navigation","trial_index":2,"time_elapsed":361864,"internal_node_id":"0.0-2.0-0.0"},{"group":"hexagon_tri","room_assignment":["blue","grey","yellow","red","green","purple"],"door_color_assignment":["white","black"],"door_generator_assignment":[0,1],"goal":0,"start":2,"action_noise":0.2,"location_history":"[2,1,5,0]","action_history":"[1,1,1]","door_history":"[1,1,1]","location_rts":"[2537,1252,530]","trial_type":"two-door-navigation","trial_index":3,"time_elapsed":372828,"internal_node_id":"0.0-2.0-1.0"},{"group":"hexagon_tri","room_assignment":["blue","grey","yellow","red","green","purple"],"door_color_assignment":["white","black"],"door_generator_assignment":[0,1],"goal":5,"start":0,"action_noise":0.2,"location_history":"[0,5]","action_history":"[0]","door_history":"[0]","location_rts":"[2648]","trial_type":"two-door-navigation","trial_index":4,"time_elapsed":380025,"internal_node_id":"0.0-2.0-2.0"},{"group":"hexagon_tri","room_assignment":["blue","grey","yellow","red","green","purple"],"door_color_assignment":["white","black"],"door_generator_assignment":[0,1],"goal":3,"start":5,"action_noise":0.2,"location_history":"[5,4,2,3]","action_history":"[1,1,1]","door_history":"[1,1,1]","location_rts":"[2950,621,2216]","trial_type":"two-door-navigation","trial_index":5,"time_elapsed":392437,"internal_node_id":"0.0-2.0-3.0"},{"group":"hexagon_tri","room_assignment":["blue","grey","yellow","red","green","purple"],"door_color_assignment":["white","black"],"door_generator_assignment":[0,1],"goal":4,"start":3,"action_noise":0.2,"location_history":"[3,2,1,3,2,3,2,1,5,0,1,3,2,1,3,2,3,4]","action_history":"[1,1,1,0,0,0,0,1,1,1,0,0,0,0,0,1,1]","door_history":"[1,1,1,0,0,0,0,1,1,1,0,0,0,0,0,1,1]","location_rts":"[3246,649,1000,948,576,672,1273,2666,332,355,1720,404,473,889,488,819,577]","trial_type":"two-door-navigation","trial_index":6,"time_elapsed":430748,"internal_node_id":"0.0-2.0-4.0"},{"group":"hexagon_tri","room_assignment":["blue","grey","yellow","red","green","purple"],"door_color_assignment":["white","black"],"door_generator_assignment":[0,1],"goal":0,"start":4,"action_noise":0.2,"location_history":"[4,0]","action_history":"[0]","door_history":"[0]","location_rts":"[4173]","trial_type":"two-door-navigation","trial_index":7,"time_elapsed":439476,"internal_node_id":"0.0-2.0-5.0"},{"group":"hexagon_tri","room_assignment":["blue","grey","yellow","red","green","purple"],"door_color_assignment":["white","black"],"door_generator_assignment":[0,1],"goal":4,"start":0,"action_noise":0.2,"location_history":"[0,5,4]","action_history":"[0,0]","door_history":"[0,0]","location_rts":"[2506,1759]","trial_type":"two-door-navigation","trial_index":8,"time_elapsed":449356,"internal_node_id":"0.0-2.0-6.0"},{"group":"hexagon_tri","room_assignment":["blue","grey","yellow","red","green","purple"],"door_color_assignment":["white","black"],"door_generator_assignment":[0,1],"goal":3,"start":4,"action_noise":0.2,"location_history":"[4,0,1,5,4,2,3]","action_history":"[1,1,0,0,1,1]","door_history":"[1,1,0,0,1,1]","location_rts":"[7145,551,1416,3737,2526,714]","trial_type":"two-door-navigation","trial_index":9,"time_elapsed":476600,"internal_node_id":"0.0-2.0-7.0"},{"group":"hexagon_tri","room_assignment":["blue","grey","yellow","red","green","purple"],"door_color_assignment":["white","black"],"door_generator_assignment":[0,1],"goal":2,"start":3,"action_noise":0.2,"location_history":"[3,4,2]","action_history":"[1,1]","door_history":"[1,1]","location_rts":"[4496,417]","trial_type":"two-door-navigation","trial_index":10,"time_elapsed":487137,"internal_node_id":"0.0-2.0-8.0"},{"group":"hexagon_tri","room_assignment":["blue","grey","yellow","red","green","purple"],"door_color_assignment":["white","black"],"door_generator_assignment":[0,1],"goal":1,"start":2,"action_noise":0.2,"location_history":"[2,1]","action_history":"[0]","door_history":"[0]","location_rts":"[9394]","trial_type":"two-door-navigation","trial_index":11,"time_elapsed":501078,"internal_node_id":"0.0-2.0-9.0"},{"group":"hexagon_tri","room_assignment":["blue","grey","yellow","red","green","purple"],"door_color_assignment":["white","black"],"door_generator_assignment":[0,1],"goal":5,"start":1,"action_noise":0.2,"location_history":"[1,5]","action_history":"[1]","door_history":"[1]","location_rts":"[21950]","trial_type":"two-door-navigation","trial_index":12,"time_elapsed":527582,"internal_node_id":"0.0-2.0-10.0"},{"group":"hexagon_tri","room_assignment":["blue","grey","yellow","red","green","purple"],"door_color_assignment":["white","black"],"door_generator_assignment":[0,1],"goal":0,"start":5,"action_noise":0.2,"location_history":"[5,0]","action_history":"[1]","door_history":"[1]","location_rts":"[1408]","trial_type":"two-door-navigation","trial_index":13,"time_elapsed":533542,"internal_node_id":"0.0-2.0-11.0"},{"group":"hexagon_tri","room_assignment":["blue","grey","yellow","red","green","purple"],"door_color_assignment":["white","black"],"door_generator_assignment":[0,1],"goal":4,"start":0,"action_noise":0.2,"location_history":"[0,1,5,4]","action_history":"[1,1,1]","door_history":"[1,1,1]","location_rts":"[3210,1817,419]","trial_type":"two-door-navigation","trial_index":14,"time_elapsed":545611,"internal_node_id":"0.0-2.0-12.0"},{"group":"hexagon_tri","room_assignment":["blue","grey","yellow","red","green","purple"],"door_color_assignment":["white","black"],"door_generator_assignment":[0,1],"goal":2,"start":4,"action_noise":0.2,"location_history":"[4,2]","action_history":"[1]","door_history":"[1]","location_rts":"[2497]","trial_type":"two-door-navigation","trial_index":15,"time_elapsed":552653,"internal_node_id":"0.0-2.0-13.0"},{"group":"hexagon_tri","room_assignment":["blue","grey","yellow","red","green","purple"],"door_color_assignment":["white","black"],"door_generator_assignment":[0,1],"goal":1,"start":2,"action_noise":0.2,"location_history":"[2,1]","action_history":"[0]","door_history":"[0]","location_rts":"[1642]","trial_type":"two-door-navigation","trial_index":16,"time_elapsed":558840,"internal_node_id":"0.0-2.0-14.0"},{"group":"hexagon_tri","room_assignment":["blue","grey","yellow","red","green","purple"],"door_color_assignment":["white","black"],"door_generator_assignment":[0,1],"goal":3,"start":1,"action_noise":0.2,"location_history":"[1,3]","action_history":"[0]","door_history":"[0]","location_rts":"[4871]","trial_type":"two-door-navigation","trial_index":17,"time_elapsed":568254,"internal_node_id":"0.0-2.0-15.0"},{"group":"hexagon_tri","room_assignment":["blue","grey","yellow","red","green","purple"],"door_color_assignment":["white","black"],"door_generator_assignment":[0,1],"goal":5,"start":3,"action_noise":0.2,"location_history":"[3,4,2,3,4,2,1,5]","action_history":"[1,1,1,1,1,0,1]","door_history":"[1,1,1,1,1,0,1]","location_rts":"[2218,451,605,622,711,1161,623]","trial_type":"two-door-navigation","trial_index":18,"time_elapsed":585462,"internal_node_id":"0.0-2.0-16.0"},{"group":"hexagon_tri","room_assignment":["blue","grey","yellow","red","green","purple"],"door_color_assignment":["white","black"],"door_generator_assignment":[0,1],"goal":0,"start":5,"action_noise":0.2,"location_history":"[5,4,0]","action_history":"[1,1]","door_history":"[1,1]","location_rts":"[33836,865]","trial_type":"two-door-navigation","trial_index":19,"time_elapsed":625737,"internal_node_id":"0.0-2.0-17.0"},{"group":"hexagon_tri","room_assignment":["blue","grey","yellow","red","green","purple"],"door_color_assignment":["white","black"],"door_generator_assignment":[0,1],"goal":5,"start":0,"action_noise":0.2,"location_history":"[0,5]","action_history":"[1]","door_history":"[1]","location_rts":"[8097]","trial_type":"two-door-navigation","trial_index":20,"time_elapsed":638400,"internal_node_id":"0.0-2.0-18.0"},{"group":"hexagon_tri","room_assignment":["blue","grey","yellow","red","green","purple"],"door_color_assignment":["white","black"],"door_generator_assignment":[0,1],"goal":3,"start":5,"action_noise":0.2,"location_history":"[5,4,0,1,3]","action_history":"[0,0,0,0]","door_history":"[0,0,0,0]","location_rts":"[3313,620,525,843]","trial_type":"two-door-navigation","trial_index":21,"time_elapsed":651386,"internal_node_id":"0.0-2.0-19.0"},{"group":"hexagon_tri","room_assignment":["blue","grey","yellow","red","green","purple"],"door_color_assignment":["white","black"],"door_generator_assignment":[0,1],"goal":4,"start":3,"action_noise":0.2,"location_history":"[3,4]","action_history":"[1]","door_history":"[1]","location_rts":"[1728]","trial_type":"two-door-navigation","trial_index":22,"time_elapsed":657678,"internal_node_id":"0.0-2.0-20.0"},{"group":"hexagon_tri","room_assignment":["blue","grey","yellow","red","green","purple"],"door_color_assignment":["white","black"],"door_generator_assignment":[0,1],"goal":1,"start":4,"action_noise":0.2,"location_history":"[4,0,1]","action_history":"[0,0]","door_history":"[0,0]","location_rts":"[2386,480]","trial_type":"two-door-navigation","trial_index":23,"time_elapsed":666161,"internal_node_id":"0.0-2.0-21.0"},{"group":"hexagon_tri","room_assignment":["blue","grey","yellow","red","green","purple"],"door_color_assignment":["white","black"],"door_generator_assignment":[0,1],"goal":2,"start":1,"action_noise":0.2,"location_history":"[1,5,4,0,5,4,2]","action_history":"[0,0,0,0,0,1]","door_history":"[0,0,0,0,0,1]","location_rts":"[25583,606,464,680,755,1486]","trial_type":"two-door-navigation","trial_index":24,"time_elapsed":705580,"internal_node_id":"0.0-2.0-22.0"},{"group":"hexagon_tri","room_assignment":["blue","grey","yellow","red","green","purple"],"door_color_assignment":["white","black"],"door_generator_assignment":[0,1],"goal":3,"start":2,"action_noise":0.2,"location_history":"[2,3]","action_history":"[1]","door_history":"[1]","location_rts":"[2628]","trial_type":"two-door-navigation","trial_index":25,"time_elapsed":712768,"internal_node_id":"0.0-2.0-23.0"},{"group":"hexagon_tri","room_assignment":["blue","grey","yellow","red","green","purple"],"door_color_assignment":["white","black"],"door_generator_assignment":[0,1],"goal":5,"start":3,"action_noise":0.2,"location_history":"[3,2,3,2,1,5]","action_history":"[1,1,0,0,1]","door_history":"[1,1,0,0,1]","location_rts":"[2456,493,2236,399,762]","trial_type":"two-door-navigation","trial_index":26,"time_elapsed":727865,"internal_node_id":"0.0-2.0-24.0"},{"group":"hexagon_tri","room_assignment":["blue","grey","yellow","red","green","purple"],"door_color_assignment":["white","black"],"door_generator_assignment":[0,1],"goal":4,"start":5,"action_noise":0.2,"location_history":"[5,4]","action_history":"[1]","door_history":"[1]","location_rts":"[2694]","trial_type":"two-door-navigation","trial_index":27,"time_elapsed":735111,"internal_node_id":"0.0-2.0-25.0"},{"group":"hexagon_tri","room_assignment":["blue","grey","yellow","red","green","purple"],"door_color_assignment":["white","black"],"door_generator_assignment":[0,1],"goal":0,"start":4,"action_noise":0.2,"location_history":"[4,2,1,5,0]","action_history":"[1,1,1,1]","door_history":"[1,1,1,1]","location_rts":"[1236,427,1136,367]","trial_type":"two-door-navigation","trial_index":28,"time_elapsed":745992,"internal_node_id":"0.0-2.0-26.0"},{"group":"hexagon_tri","room_assignment":["blue","grey","yellow","red","green","purple"],"door_color_assignment":["white","black"],"door_generator_assignment":[0,1],"goal":2,"start":0,"action_noise":0.2,"location_history":"[0,5,4,0,5,4,2]","action_history":"[0,0,0,0,0,1]","door_history":"[0,0,0,0,0,1]","location_rts":"[3682,798,731,627,536,598]","trial_type":"two-door-navigation","trial_index":29,"time_elapsed":762717,"internal_node_id":"0.0-2.0-27.0"},{"group":"hexagon_tri","room_assignment":["blue","grey","yellow","red","green","purple"],"door_color_assignment":["white","black"],"door_generator_assignment":[0,1],"goal":1,"start":2,"action_noise":0.2,"location_history":"[2,1]","action_history":"[0]","door_history":"[0]","location_rts":"[1510]","trial_type":"two-door-navigation","trial_index":30,"time_elapsed":768770,"internal_node_id":"0.0-2.0-28.0"},{"group":"hexagon_tri","room_assignment":["blue","grey","yellow","red","green","purple"],"door_color_assignment":["white","black"],"door_generator_assignment":[0,1],"goal":0,"start":1,"action_noise":0.2,"location_history":"[1,5,0]","action_history":"[1,1]","door_history":"[1,1]","location_rts":"[18320,1183]","trial_type":"two-door-navigation","trial_index":31,"time_elapsed":794294,"internal_node_id":"0.0-2.0-29.0"},{"group":"hexagon_tri","room_assignment":["blue","grey","yellow","red","green","purple"],"door_color_assignment":["white","black"],"door_generator_assignment":[0,1],"goal":2,"start":0,"action_noise":0.2,"location_history":"[0,5,4,2]","action_history":"[0,0,1]","door_history":"[0,0,1]","location_rts":"[2171,1057,2457]","trial_type":"two-door-navigation","trial_index":32,"time_elapsed":806604,"internal_node_id":"0.0-2.0-30.0"},{"group":"hexagon_tri","room_assignment":["blue","grey","yellow","red","green","purple"],"door_color_assignment":["white","black"],"door_generator_assignment":[0,1],"goal":4,"start":2,"action_noise":0.2,"location_history":"[2,3,4]","action_history":"[1,1]","door_history":"[1,1]","location_rts":"[2480,673]","trial_type":"two-door-navigation","trial_index":33,"time_elapsed":815334,"internal_node_id":"0.0-2.0-31.0"},{"group":"hexagon_tri","room_assignment":["blue","grey","yellow","red","green","purple"],"door_color_assignment":["white","black"],"door_generator_assignment":[0,1],"goal":1,"start":4,"action_noise":0.2,"location_history":"[4,0,5,4,0,5,4,2,3,2,1]","action_history":"[0,0,0,0,1,1,1,0,0,1]","door_history":"[0,0,0,0,1,1,1,0,0,1]","location_rts":"[4017,883,960,1663,911,1344,1270,621,1322,2032]","trial_type":"two-door-navigation","trial_index":34,"time_elapsed":844241,"internal_node_id":"0.0-2.0-32.0"},{"group":"hexagon_tri","room_assignment":["blue","grey","yellow","red","green","purple"],"door_color_assignment":["white","black"],"door_generator_assignment":[0,1],"goal":3,"start":1,"action_noise":0.2,"location_history":"[1,5,4,0,1,5,4,2,3]","action_history":"[0,0,0,0,0,0,0,1]","door_history":"[0,0,0,0,0,0,0,1]","location_rts":"[2509,592,782,806,1994,559,507,1420]","trial_type":"two-door-navigation","trial_index":35,"time_elapsed":865259,"internal_node_id":"0.0-2.0-33.0"},{"group":"hexagon_tri","room_assignment":["blue","grey","yellow","red","green","purple"],"door_color_assignment":["white","black"],"door_generator_assignment":[0,1],"goal":5,"start":3,"action_noise":0.2,"location_history":"[3,4,2,1,5]","action_history":"[1,1,1,1]","door_history":"[1,1,1,1]","location_rts":"[3400,678,1110,815]","trial_type":"two-door-navigation","trial_index":36,"time_elapsed":878942,"internal_node_id":"0.0-2.0-34.0"},{"group":"hexagon_tri","room_assignment":["blue","grey","yellow","red","green","purple"],"door_color_assignment":["white","black"],"door_generator_assignment":[0,1],"goal":2,"start":5,"action_noise":0.2,"location_history":"[5,0,5,0,5,4,0,5,0,5,0,1,5,0,5,4,2]","action_history":"[0,0,1,0,0,0,0,0,0,1,1,0,0,0,1,1]","door_history":"[0,0,1,0,0,0,0,0,0,1,1,0,0,0,1,1]","location_rts":"[2642,1207,1341,681,618,631,561,545,502,435,1396,1681,624,519,842,382]","trial_type":"two-door-navigation","trial_index":37,"time_elapsed":913678,"internal_node_id":"0.0-2.0-35.0"},{"group":"hexagon_tri","room_assignment":["blue","grey","yellow","red","green","purple"],"door_color_assignment":["white","black"],"door_generator_assignment":[0,1],"goal":0,"start":2,"action_noise":0.2,"location_history":"[2,3,4,2,1,5,0]","action_history":"[1,1,1,0,1,1]","door_history":"[1,1,1,0,1,1]","location_rts":"[3541,901,1888,1996,923,687]","trial_type":"two-door-navigation","trial_index":38,"time_elapsed":933423,"internal_node_id":"0.0-2.0-36.0"},{"group":"hexagon_tri","room_assignment":["blue","grey","yellow","red","green","purple"],"door_color_assignment":["white","black"],"door_generator_assignment":[0,1],"goal":4,"start":0,"action_noise":0.2,"location_history":"[0,5,0,1,5,4]","action_history":"[0,1,1,1,0]","door_history":"[0,1,1,1,0]","location_rts":"[13159,1249,449,1614,1198]","trial_type":"two-door-navigation","trial_index":39,"time_elapsed":959758,"internal_node_id":"0.0-2.0-37.0"},{"group":"hexagon_tri","room_assignment":["blue","grey","yellow","red","green","purple"],"door_color_assignment":["white","black"],"door_generator_assignment":[0,1],"goal":5,"start":4,"action_noise":0.2,"location_history":"[4,0,5]","action_history":"[1,0]","door_history":"[1,0]","location_rts":"[1851,7843]","trial_type":"two-door-navigation","trial_index":40,"time_elapsed":975039,"internal_node_id":"0.0-2.0-38.0"},{"group":"hexagon_tri","room_assignment":["blue","grey","yellow","red","green","purple"],"door_color_assignment":["white","black"],"door_generator_assignment":[0,1],"goal":1,"start":5,"action_noise":0.2,"location_history":"[5,4,0,5,0,1]","action_history":"[0,0,0,1,1]","door_history":"[0,0,0,1,1]","location_rts":"[1612,754,639,1126,470]","trial_type":"two-door-navigation","trial_index":41,"time_elapsed":988404,"internal_node_id":"0.0-2.0-39.0"},{"group":"hexagon_tri","room_assignment":["blue","grey","yellow","red","green","purple"],"door_color_assignment":["white","black"],"door_generator_assignment":[0,1],"goal":3,"start":1,"action_noise":0.2,"location_history":"[1,3]","action_history":"[1]","door_history":"[1]","location_rts":"[4135]","trial_type":"two-door-navigation","trial_index":42,"time_elapsed":997086,"internal_node_id":"0.0-2.0-40.0"},{"group":"hexagon_tri","room_assignment":["blue","grey","yellow","red","green","purple"],"door_color_assignment":["white","black"],"door_generator_assignment":[0,1],"goal":1,"start":3,"action_noise":0.2,"location_history":"[3,2,1]","action_history":"[0,0]","door_history":"[0,0]","location_rts":"[2166,599]","trial_type":"two-door-navigation","trial_index":43,"time_elapsed":1005491,"internal_node_id":"0.0-2.0-41.0"},{"group":"hexagon_tri","room_assignment":["blue","grey","yellow","red","green","purple"],"door_color_assignment":["white","black"],"door_generator_assignment":[0,1],"goal":0,"start":1,"action_noise":0.2,"location_history":"[1,5,0]","action_history":"[1,1]","door_history":"[1,1]","location_rts":"[2147,1284]","trial_type":"two-door-navigation","trial_index":44,"time_elapsed":1014509,"internal_node_id":"0.0-2.0-42.0"},{"group":"hexagon_tri","room_assignment":["blue","grey","yellow","red","green","purple"],"door_color_assignment":["white","black"],"door_generator_assignment":[0,1],"goal":4,"start":0,"action_noise":0.2,"location_history":"[0,1,5,0,1,5,4]","action_history":"[0,1,1,1,1,1]","door_history":"[0,1,1,1,1,1]","location_rts":"[5041,2767,344,403,882,408]","trial_type":"two-door-navigation","trial_index":45,"time_elapsed":1034105,"internal_node_id":"0.0-2.0-43.0"},{"group":"hexagon_tri","room_assignment":["blue","grey","yellow","red","green","purple"],"door_color_assignment":["white","black"],"door_generator_assignment":[0,1],"goal":2,"start":4,"action_noise":0.2,"location_history":"[4,2]","action_history":"[0]","door_history":"[0]","location_rts":"[87256]","trial_type":"two-door-navigation","trial_index":46,"time_elapsed":1125914,"internal_node_id":"0.0-2.0-44.0"},{"group":"hexagon_tri","room_assignment":["blue","grey","yellow","red","green","purple"],"door_color_assignment":["white","black"],"door_generator_assignment":[0,1],"goal":3,"start":2,"action_noise":0.2,"location_history":"[2,3]","action_history":"[1]","door_history":"[1]","location_rts":"[2870]","trial_type":"two-door-navigation","trial_index":47,"time_elapsed":1133338,"internal_node_id":"0.0-2.0-45.0"},{"group":"hexagon_tri","room_assignment":["blue","grey","yellow","red","green","purple"],"door_color_assignment":["white","black"],"door_generator_assignment":[0,1],"goal":5,"start":3,"action_noise":0.2,"location_history":"[3,4,2,3,2,1,5]","action_history":"[1,1,1,0,0,1]","door_history":"[1,1,1,0,0,1]","location_rts":"[2375,713,543,1707,558,872]","trial_type":"two-door-navigation","trial_index":48,"time_elapsed":1149850,"internal_node_id":"0.0-2.0-46.0"},{"group":"hexagon_tri","room_assignment":["blue","grey","yellow","red","green","purple"],"door_color_assignment":["white","black"],"door_generator_assignment":[0,1],"goal":4,"start":5,"action_noise":0.2,"location_history":"[5,0,1,5,4]","action_history":"[1,1,1,1]","door_history":"[1,1,1,1]","location_rts":"[2336,519,830,435]","trial_type":"two-door-navigation","trial_index":49,"time_elapsed":1161674,"internal_node_id":"0.0-2.0-47.0"},{"group":"hexagon_tri","room_assignment":["blue","grey","yellow","red","green","purple"],"door_color_assignment":["white","black"],"door_generator_assignment":[0,1],"goal":3,"start":4,"action_noise":0.2,"location_history":"[4,2,3]","action_history":"[1,1]","door_history":"[1,1]","location_rts":"[6533,1854]","trial_type":"two-door-navigation","trial_index":50,"time_elapsed":1175640,"internal_node_id":"0.0-2.0-48.0"},{"group":"hexagon_tri","room_assignment":["blue","grey","yellow","red","green","purple"],"door_color_assignment":["white","black"],"door_generator_assignment":[0,1],"goal":1,"start":3,"action_noise":0.2,"location_history":"[3,4,2,1]","action_history":"[0,0,0]","door_history":"[0,0,0]","location_rts":"[2605,1497,496]","trial_type":"two-door-navigation","trial_index":51,"time_elapsed":1186873,"internal_node_id":"0.0-2.0-49.0"},{"group":"hexagon_tri","room_assignment":["blue","grey","yellow","red","green","purple"],"door_color_assignment":["white","black"],"door_generator_assignment":[0,1],"goal":2,"start":1,"action_noise":0.2,"location_history":"[1,5,0,5,4,0,1,3,2]","action_history":"[0,0,0,0,0,0,0,0]","door_history":"[0,0,0,0,0,0,0,0]","location_rts":"[2502,643,440,795,725,539,1692,650]","trial_type":"two-door-navigation","trial_index":52,"time_elapsed":1206679,"internal_node_id":"0.0-2.0-50.0"},{"group":"hexagon_tri","room_assignment":["blue","grey","yellow","red","green","purple"],"door_color_assignment":["white","black"],"door_generator_assignment":[0,1],"goal":0,"start":2,"action_noise":0.2,"location_history":"[2,1,5,4,2,3,4,2,3,4,2,1,3,4,2,1,5,0]","action_history":"[0,1,1,1,1,1,1,1,1,1,0,1,1,1,0,1,1]","door_history":"[0,1,1,1,1,1,1,1,1,1,0,1,1,1,0,1,1]","location_rts":"[4534,845,391,768,386,394,442,479,471,659,838,1082,2423,719,2687,1166,405]","trial_type":"two-door-navigation","trial_index":53,"time_elapsed":1246609,"internal_node_id":"0.0-2.0-51.0"},{"group":"hexagon_tri","room_assignment":["blue","grey","yellow","red","green","purple"],"door_color_assignment":["white","black"],"door_generator_assignment":[0,1],"goal":5,"start":0,"action_noise":0.2,"location_history":"[0,5]","action_history":"[1]","door_history":"[1]","location_rts":"[2402]","trial_type":"two-door-navigation","trial_index":54,"time_elapsed":1253574,"internal_node_id":"0.0-2.0-52.0"},{"group":"hexagon_tri","room_assignment":["blue","grey","yellow","red","green","purple"],"door_color_assignment":["white","black"],"door_generator_assignment":[0,1],"goal":1,"start":5,"action_noise":0.2,"location_history":"[5,4,0,5,4,0,1]","action_history":"[0,0,0,0,0,1]","door_history":"[0,0,0,0,0,1]","location_rts":"[2390,392,1052,932,1023,1005]","trial_type":"two-door-navigation","trial_index":55,"time_elapsed":1270166,"internal_node_id":"0.0-2.0-53.0"},{"group":"hexagon_tri","room_assignment":["blue","grey","yellow","red","green","purple"],"door_color_assignment":["white","black"],"door_generator_assignment":[0,1],"goal":3,"start":1,"action_noise":0.2,"location_history":"[1,3]","action_history":"[0]","door_history":"[0]","location_rts":"[2103]","trial_type":"two-door-navigation","trial_index":56,"time_elapsed":1276843,"internal_node_id":"0.0-2.0-54.0"},{"group":"hexagon_tri","room_assignment":["blue","grey","yellow","red","green","purple"],"door_color_assignment":["white","black"],"door_generator_assignment":[0,1],"goal":5,"start":3,"action_noise":0.2,"location_history":"[3,2,3,4,2,1,5]","action_history":"[1,1,0,1,0,1]","door_history":"[1,1,0,1,0,1]","location_rts":"[1633,1097,1907,2429,1732,459]","trial_type":"two-door-navigation","trial_index":57,"time_elapsed":1295866,"internal_node_id":"0.0-2.0-55.0"},{"group":"hexagon_tri","room_assignment":["blue","grey","yellow","red","green","purple"],"door_color_assignment":["white","black"],"door_generator_assignment":[0,1],"goal":4,"start":5,"action_noise":0.2,"location_history":"[5,4]","action_history":"[1]","door_history":"[1]","location_rts":"[6142]","trial_type":"two-door-navigation","trial_index":58,"time_elapsed":1306562,"internal_node_id":"0.0-2.0-56.0"},{"group":"hexagon_tri","room_assignment":["blue","grey","yellow","red","green","purple"],"door_color_assignment":["white","black"],"door_generator_assignment":[0,1],"goal":0,"start":4,"action_noise":0.2,"location_history":"[4,0]","action_history":"[1]","door_history":"[1]","location_rts":"[2974]","trial_type":"two-door-navigation","trial_index":59,"time_elapsed":1314297,"internal_node_id":"0.0-2.0-57.0"},{"group":"hexagon_tri","room_assignment":["blue","grey","yellow","red","green","purple"],"door_color_assignment":["white","black"],"door_generator_assignment":[0,1],"goal":2,"start":0,"action_noise":0.2,"location_history":"[0,5,4,2]","action_history":"[0,0,1]","door_history":"[0,0,1]","location_rts":"[1456,2614,1705]","trial_type":"two-door-navigation","trial_index":60,"time_elapsed":1326696,"internal_node_id":"0.0-2.0-58.0"},{"group":"hexagon_tri","room_assignment":["blue","grey","yellow","red","green","purple"],"door_color_assignment":["white","black"],"door_generator_assignment":[0,1],"goal":4,"start":2,"action_noise":0.2,"location_history":"[2,3,2,3,2,1,3,2,1,5,0,1,5,0,5,4]","action_history":"[1,1,1,0,0,1,0,0,1,1,1,1,1,1,0]","door_history":"[1,1,1,0,0,1,0,0,1,1,1,1,1,1,0]","location_rts":"[2652,919,1115,794,1162,804,1126,1271,400,454,424,720,362,434,1379]","trial_type":"two-door-navigation","trial_index":61,"time_elapsed":1359813,"internal_node_id":"0.0-2.0-59.0"},{"group":"hexagon_tri","room_assignment":["blue","grey","yellow","red","green","purple"],"door_color_assignment":["white","black"],"door_generator_assignment":[0,1],"goal":2,"start":4,"action_noise":0.2,"location_history":"[4,0,5,4,0,1,5,4,2]","action_history":"[0,0,0,0,1,0,0,0]","door_history":"[0,0,0,0,1,0,0,0]","location_rts":"[2441,8819,1155,3677,1341,667,398,519]","trial_type":"two-door-navigation","trial_index":62,"time_elapsed":1390776,"internal_node_id":"0.0-2.0-60.0"},{"group":"hexagon_tri","room_assignment":["blue","grey","yellow","red","green","purple"],"door_color_assignment":["white","black"],"door_generator_assignment":[0,1],"goal":3,"start":2,"action_noise":0.2,"location_history":"[2,1,3]","action_history":"[1,0]","door_history":"[1,0]","location_rts":"[9337,2646]","trial_type":"two-door-navigation","trial_index":63,"time_elapsed":1408322,"internal_node_id":"0.0-2.0-61.0"},{"group":"hexagon_tri","room_assignment":["blue","grey","yellow","red","green","purple"],"door_color_assignment":["white","black"],"door_generator_assignment":[0,1],"goal":0,"start":3,"action_noise":0.2,"location_history":"[3,4,2,3,2,1,5,4,2,3,2,1,3,4,2,3,2,1,5,0]","action_history":"[1,1,1,1,0,1,1,1,1,0,0,1,1,1,1,0,0,1,1]","door_history":"[1,1,1,1,0,1,1,1,1,0,0,1,1,1,1,0,0,1,1]","location_rts":"[1897,764,1098,862,1228,565,339,514,405,2203,675,1392,490,552,1422,1019,617,1332,702]","trial_type":"two-door-navigation","trial_index":64,"time_elapsed":1449622,"internal_node_id":"0.0-2.0-62.0"},{"group":"hexagon_tri","room_assignment":["blue","grey","yellow","red","green","purple"],"door_color_assignment":["white","black"],"door_generator_assignment":[0,1],"goal":5,"start":0,"action_noise":0.2,"location_history":"[0,5]","action_history":"[1]","door_history":"[1]","location_rts":"[5395]","trial_type":"two-door-navigation","trial_index":65,"time_elapsed":1459570,"internal_node_id":"0.0-2.0-63.0"},{"group":"hexagon_tri","room_assignment":["blue","grey","yellow","red","green","purple"],"door_color_assignment":["white","black"],"door_generator_assignment":[0,1],"goal":1,"start":5,"action_noise":0.2,"location_history":"[5,4,0,5,4,2,3,2,1]","action_history":"[0,0,0,0,1,0,0,0]","door_history":"[0,0,0,0,1,0,0,0]","location_rts":"[1586,532,432,2095,829,1306,791,407]","trial_type":"two-door-navigation","trial_index":66,"time_elapsed":1479418,"internal_node_id":"0.0-2.0-64.0"},{"group":"hexagon_tri","room_assignment":["blue","grey","yellow","red","green","purple"],"door_color_assignment":["white","black"],"door_generator_assignment":[0,1],"goal":5,"start":1,"action_noise":0.2,"location_history":"[1,3,4,2,1,5]","action_history":"[1,1,1,0,1]","door_history":"[1,1,1,0,1]","location_rts":"[1414,1668,966,1487,622]","trial_type":"two-door-navigation","trial_index":67,"time_elapsed":1494274,"internal_node_id":"0.0-2.0-65.0"},{"group":"hexagon_tri","room_assignment":["blue","grey","yellow","red","green","purple"],"door_color_assignment":["white","black"],"door_generator_assignment":[0,1],"goal":3,"start":5,"action_noise":0.2,"location_history":"[5,4,0,5,0,1,3]","action_history":"[0,0,0,0,1,0]","door_history":"[0,0,0,0,1,0]","location_rts":"[2976,833,822,623,692,1997]","trial_type":"two-door-navigation","trial_index":68,"time_elapsed":1512009,"internal_node_id":"0.0-2.0-66.0"},{"group":"hexagon_tri","room_assignment":["blue","grey","yellow","red","green","purple"],"door_color_assignment":["white","black"],"door_generator_assignment":[0,1],"goal":2,"start":3,"action_noise":0.2,"location_history":"[3,4,0,5,4,0,1,3,2]","action_history":"[0,0,0,0,0,0,0,0]","door_history":"[0,0,0,0,0,0,0,0]","location_rts":"[4481,537,536,1050,8218,2496,1500,468]","trial_type":"two-door-navigation","trial_index":69,"time_elapsed":1543333,"internal_node_id":"0.0-2.0-67.0"},{"group":"hexagon_tri","room_assignment":["blue","grey","yellow","red","green","purple"],"door_color_assignment":["white","black"],"door_generator_assignment":[0,1],"goal":1,"start":2,"action_noise":0.2,"location_history":"[2,1]","action_history":"[0]","door_history":"[0]","location_rts":"[1422]","trial_type":"two-door-navigation","trial_index":70,"time_elapsed":1549308,"internal_node_id":"0.0-2.0-68.0"},{"group":"hexagon_tri","room_assignment":["blue","grey","yellow","red","green","purple"],"door_color_assignment":["white","black"],"door_generator_assignment":[0,1],"goal":4,"start":1,"action_noise":0.2,"location_history":"[1,3,2,3,4]","action_history":"[0,1,1,1]","door_history":"[0,1,1,1]","location_rts":"[4695,1032,561,400]","trial_type":"two-door-navigation","trial_index":71,"time_elapsed":1563674,"internal_node_id":"0.0-2.0-69.0"},{"group":"hexagon_tri","room_assignment":["blue","grey","yellow","red","green","purple"],"door_color_assignment":["white","black"],"door_generator_assignment":[0,1],"goal":0,"start":4,"action_noise":0.2,"location_history":"[4,0]","action_history":"[0]","door_history":"[0]","location_rts":"[3812]","trial_type":"two-door-navigation","trial_index":72,"time_elapsed":1572031,"internal_node_id":"0.0-2.0-70.0"},{"group":"hexagon_tri","room_assignment":["blue","grey","yellow","red","green","purple"],"door_color_assignment":["white","black"],"door_generator_assignment":[0,1],"goal":3,"start":0,"action_noise":0.2,"location_history":"[0,5,0,1,3]","action_history":"[1,1,1,0]","door_history":"[1,1,1,0]","location_rts":"[2536,3598,644,1020]","trial_type":"two-door-navigation","trial_index":73,"time_elapsed":1587511,"internal_node_id":"0.0-2.0-71.0"},{"group":"hexagon_tri","room_assignment":["blue","grey","yellow","red","green","purple"],"door_color_assignment":["white","black"],"door_generator_assignment":[0,1],"goal":1,"start":3,"action_noise":0.2,"location_history":"[3,4,2,1]","action_history":"[0,0,0]","door_history":"[0,0,0]","location_rts":"[2948,594,843]","trial_type":"two-door-navigation","trial_index":74,"time_elapsed":1598552,"internal_node_id":"0.0-2.0-72.0"},{"group":"hexagon_tri","room_assignment":["blue","grey","yellow","red","green","purple"],"door_color_assignment":["white","black"],"door_generator_assignment":[0,1],"goal":0,"start":1,"action_noise":0.2,"location_history":"[1,5,0]","action_history":"[1,1]","door_history":"[1,1]","location_rts":"[3849,522]","trial_type":"two-door-navigation","trial_index":75,"time_elapsed":1608542,"internal_node_id":"0.0-2.0-73.0"},{"group":"hexagon_tri","room_assignment":["blue","grey","yellow","red","green","purple"],"door_color_assignment":["white","black"],"door_generator_assignment":[0,1],"goal":2,"start":0,"action_noise":0.2,"location_history":"[0,5,4,0,1,5,0,5,0,5,4,0,5,0,1,3,2]","action_history":"[0,0,0,0,0,0,0,1,0,0,0,0,1,1,0,0]","door_history":"[0,0,0,0,0,0,0,1,0,0,0,0,1,1,0,0]","location_rts":"[1755,844,840,12159,1491,447,389,1217,929,526,422,1551,910,424,1215,374]","trial_type":"two-door-navigation","trial_index":76,"time_elapsed":1654266,"internal_node_id":"0.0-2.0-74.0"},{"group":"hexagon_tri","room_assignment":["blue","grey","yellow","red","green","purple"],"door_color_assignment":["white","black"],"door_generator_assignment":[0,1],"goal":4,"start":2,"action_noise":0.2,"location_history":"[2,3,4]","action_history":"[1,1]","door_history":"[1,1]","location_rts":"[3568,939]","trial_type":"two-door-navigation","trial_index":77,"time_elapsed":1664381,"internal_node_id":"0.0-2.0-75.0"},{"group":"hexagon_tri","room_assignment":["blue","grey","yellow","red","green","purple"],"door_color_assignment":["white","black"],"door_generator_assignment":[0,1],"goal":5,"start":4,"action_noise":0.2,"location_history":"[4,2,1,5]","action_history":"[1,1,1]","door_history":"[1,1,1]","location_rts":"[15938,1936,694]","trial_type":"two-door-navigation","trial_index":78,"time_elapsed":1689576,"internal_node_id":"0.0-2.0-76.0"},{"group":"hexagon_tri","room_assignment":["blue","grey","yellow","red","green","purple"],"door_color_assignment":["white","black"],"door_generator_assignment":[0,1],"goal":2,"start":5,"action_noise":0.2,"location_history":"[5,0,5,4,2]","action_history":"[0,0,0,0]","door_history":"[0,0,0,0]","location_rts":"[2200,622,7423,922]","trial_type":"two-door-navigation","trial_index":79,"time_elapsed":1708411,"internal_node_id":"0.0-2.0-77.0"},{"group":"hexagon_tri","room_assignment":["blue","grey","yellow","red","green","purple"],"door_color_assignment":["white","black"],"door_generator_assignment":[0,1],"goal":3,"start":2,"action_noise":0.2,"location_history":"[2,3]","action_history":"[0]","door_history":"[0]","location_rts":"[2977]","trial_type":"two-door-navigation","trial_index":80,"time_elapsed":1716294,"internal_node_id":"0.0-2.0-78.0"},{"group":"hexagon_tri","room_assignment":["blue","grey","yellow","red","green","purple"],"door_color_assignment":["white","black"],"door_generator_assignment":[0,1],"goal":1,"start":3,"action_noise":0.2,"location_history":"[3,4,0,5,4,0,5,0,5,0,1]","action_history":"[0,0,1,0,0,0,1,1,1,1]","door_history":"[0,0,1,0,0,0,1,1,1,1]","location_rts":"[13661,544,1406,2398,1218,449,1174,394,497,385]","trial_type":"two-door-navigation","trial_index":81,"time_elapsed":1753422,"internal_node_id":"0.0-2.0-79.0"},{"group":"hexagon_tri","room_assignment":["blue","grey","yellow","red","green","purple"],"door_color_assignment":["white","black"],"door_generator_assignment":[0,1],"goal":4,"start":1,"action_noise":0.2,"location_history":"[1,3,2,3,2,1,5,0,1,5,0,1,5,0,5,4]","action_history":"[0,0,1,1,1,1,1,1,1,1,1,1,1,0,0]","door_history":"[0,0,1,1,1,1,1,1,1,1,1,1,1,0,0]","location_rts":"[7617,620,2070,348,630,406,325,421,435,343,353,957,496,608,712]","trial_type":"two-door-navigation","trial_index":82,"time_elapsed":1788897,"internal_node_id":"0.0-2.0-80.0"},{"group":"hexagon_tri","room_assignment":["blue","grey","yellow","red","green","purple"],"door_color_assignment":["white","black"],"door_generator_assignment":[0,1],"goal":5,"start":4,"action_noise":0.2,"location_history":"[4,2,3,2,3,2,1,5]","action_history":"[1,0,0,0,0,0,1]","door_history":"[1,0,0,0,0,0,1]","location_rts":"[3558,4612,1203,720,709,465,1232]","trial_type":"two-door-navigation","trial_index":83,"time_elapsed":1812184,"internal_node_id":"0.0-2.0-81.0"},{"group":"hexagon_tri","room_assignment":["blue","grey","yellow","red","green","purple"],"door_color_assignment":["white","black"],"door_generator_assignment":[0,1],"goal":0,"start":5,"action_noise":0.2,"location_history":"[5,4,2,3,4,0]","action_history":"[0,1,0,0,0]","door_history":"[0,1,0,0,0]","location_rts":"[3476,1530,2059,646,659]","trial_type":"two-door-navigation","trial_index":84,"time_elapsed":1829271,"internal_node_id":"0.0-2.0-82.0"},{"group":"hexagon_tri","room_assignment":["blue","grey","yellow","red","green","purple"],"door_color_assignment":["white","black"],"door_generator_assignment":[0,1],"goal":2,"start":0,"action_noise":0.2,"location_history":"[0,5,4,2]","action_history":"[0,1,1]","door_history":"[0,1,1]","location_rts":"[2082,1285,1138]","trial_type":"two-door-navigation","trial_index":85,"time_elapsed":1840421,"internal_node_id":"0.0-2.0-83.0"},{"group":"hexagon_tri","room_assignment":["blue","grey","yellow","red","green","purple"],"door_color_assignment":["white","black"],"door_generator_assignment":[0,1],"goal":0,"start":2,"action_noise":0.2,"location_history":"[2,3,2,1,5,0]","action_history":"[0,0,0,1,1]","door_history":"[0,0,0,1,1]","location_rts":"[2095,480,603,771,365]","trial_type":"two-door-navigation","trial_index":86,"time_elapsed":1853468,"internal_node_id":"0.0-2.0-84.0"},{"group":"hexagon_tri","room_assignment":["blue","grey","yellow","red","green","purple"],"door_color_assignment":["white","black"],"door_generator_assignment":[0,1],"goal":5,"start":0,"action_noise":0.2,"location_history":"[0,1,5]","action_history":"[1,1]","door_history":"[1,1]","location_rts":"[2030,969]","trial_type":"two-door-navigation","trial_index":87,"time_elapsed":1862046,"internal_node_id":"0.0-2.0-85.0"},{"group":"hexagon_tri","room_assignment":["blue","grey","yellow","red","green","purple"],"door_color_assignment":["white","black"],"door_generator_assignment":[0,1],"goal":1,"start":5,"action_noise":0.2,"location_history":"[5,0,5,4,0,1]","action_history":"[0,0,0,0,1]","door_history":"[0,0,0,0,1]","location_rts":"[1734,401,502,429,1090]","trial_type":"two-door-navigation","trial_index":88,"time_elapsed":1874989,"internal_node_id":"0.0-2.0-86.0"},{"group":"hexagon_tri","room_assignment":["blue","grey","yellow","red","green","purple"],"door_color_assignment":["white","black"],"door_generator_assignment":[0,1],"goal":4,"start":1,"action_noise":0.2,"location_history":"[1,5,0,1,5,4]","action_history":"[1,1,1,0,0]","door_history":"[1,1,1,0,0]","location_rts":"[3743,367,444,1277,508]","trial_type":"two-door-navigation","trial_index":89,"time_elapsed":1890033,"internal_node_id":"0.0-2.0-87.0"},{"group":"hexagon_tri","room_assignment":["blue","grey","yellow","red","green","purple"],"door_color_assignment":["white","black"],"door_generator_assignment":[0,1],"goal":3,"start":4,"action_noise":0.2,"location_history":"[4,2,3]","action_history":"[1,1]","door_history":"[1,1]","location_rts":"[2149,638]","trial_type":"two-door-navigation","trial_index":90,"time_elapsed":1898412,"internal_node_id":"0.0-2.0-88.0"},{"group":"hexagon_tri","room_assignment":["blue","grey","yellow","red","green","purple"],"door_color_assignment":["white","black"],"door_generator_assignment":[0,1],"goal":5,"start":3,"action_noise":0.2,"location_history":"[3,2,1,5]","action_history":"[0,0,1]","door_history":"[0,0,1]","location_rts":"[4242,390,670]","trial_type":"two-door-navigation","trial_index":91,"time_elapsed":1910335,"internal_node_id":"0.0-2.0-89.0"},{"group":"hexagon_tri","room_assignment":["blue","grey","yellow","red","green","purple"],"door_color_assignment":["white","black"],"door_generator_assignment":[0,1],"goal":1,"start":5,"action_noise":0.2,"location_history":"[5,4,0,5,4,2,1]","action_history":"[0,0,0,0,1,0]","door_history":"[0,0,0,0,1,0]","location_rts":"[1871,459,1020,789,798,1004]","trial_type":"two-door-navigation","trial_index":92,"time_elapsed":1926038,"internal_node_id":"0.0-2.0-90.0"},{"group":"hexagon_tri","room_assignment":["blue","grey","yellow","red","green","purple"],"door_color_assignment":["white","black"],"door_generator_assignment":[0,1],"goal":2,"start":1,"action_noise":0.2,"location_history":"[1,3,2]","action_history":"[0,0]","door_history":"[0,0]","location_rts":"[2169,290]","trial_type":"two-door-navigation","trial_index":93,"time_elapsed":1934083,"internal_node_id":"0.0-2.0-91.0"},{"group":"hexagon_tri","room_assignment":["blue","grey","yellow","red","green","purple"],"door_color_assignment":["white","black"],"door_generator_assignment":[0,1],"goal":4,"start":2,"action_noise":0.2,"location_history":"[2,3,4]","action_history":"[1,1]","door_history":"[1,1]","location_rts":"[3003,1079]","trial_type":"two-door-navigation","trial_index":94,"time_elapsed":1943759,"internal_node_id":"0.0-2.0-92.0"},{"group":"hexagon_tri","room_assignment":["blue","grey","yellow","red","green","purple"],"door_color_assignment":["white","black"],"door_generator_assignment":[0,1],"goal":0,"start":4,"action_noise":0.2,"location_history":"[4,0]","action_history":"[0]","door_history":"[0]","location_rts":"[4237]","trial_type":"two-door-navigation","trial_index":95,"time_elapsed":1952572,"internal_node_id":"0.0-2.0-93.0"},{"group":"hexagon_tri","room_assignment":["blue","grey","yellow","red","green","purple"],"door_color_assignment":["white","black"],"door_generator_assignment":[0,1],"goal":3,"start":0,"action_noise":0.2,"location_history":"[0,5,4,2,3]","action_history":"[0,0,1,1]","door_history":"[0,0,1,1]","location_rts":"[1743,1310,908,462]","trial_type":"two-door-navigation","trial_index":96,"time_elapsed":1964662,"internal_node_id":"0.0-2.0-94.0"},{"group":"hexagon_tri","room_assignment":["blue","grey","yellow","red","green","purple"],"door_color_assignment":["white","black"],"door_generator_assignment":[0,1],"goal":0,"start":3,"action_noise":0.2,"location_history":"[3,4,0]","action_history":"[0,0]","door_history":"[0,0]","location_rts":"[2411,823]","trial_type":"two-door-navigation","trial_index":97,"time_elapsed":1973506,"internal_node_id":"0.0-2.0-95.0"},{"group":"hexagon_tri","room_assignment":["blue","grey","yellow","red","green","purple"],"door_color_assignment":["white","black"],"door_generator_assignment":[0,1],"goal":4,"start":0,"action_noise":0.2,"location_history":"[0,1,5,0,1,5,4]","action_history":"[1,1,1,1,1,1]","door_history":"[1,1,1,1,1,1]","location_rts":"[2631,978,425,495,1275,415]","trial_type":"two-door-navigation","trial_index":98,"time_elapsed":1989474,"internal_node_id":"0.0-2.0-96.0"},{"group":"hexagon_tri","room_assignment":["blue","grey","yellow","red","green","purple"],"door_color_assignment":["white","black"],"door_generator_assignment":[0,1],"goal":5,"start":4,"action_noise":0.2,"location_history":"[4,0,1,3,2,3,2,1,3,4,0,1,5]","action_history":"[0,0,0,0,0,0,0,1,1,1,1,1]","door_history":"[0,0,0,0,0,0,0,1,1,1,1,1]","location_rts":"[3069,439,2564,1104,357,416,697,791,698,804,1219,1290]","trial_type":"two-door-navigation","trial_index":99,"time_elapsed":2019073,"internal_node_id":"0.0-2.0-97.0"},{"group":"hexagon_tri","room_assignment":["blue","grey","yellow","red","green","purple"],"door_color_assignment":["white","black"],"door_generator_assignment":[0,1],"goal":2,"start":5,"action_noise":0.2,"location_history":"[5,4,0,5,0,1,3,2]","action_history":"[0,0,0,0,1,0,0]","door_history":"[0,0,0,0,1,0,0]","location_rts":"[1364,557,1570,683,604,1477,632]","trial_type":"two-door-navigation","trial_index":100,"time_elapsed":2036700,"internal_node_id":"0.0-2.0-98.0"},{"group":"hexagon_tri","room_assignment":["blue","grey","yellow","red","green","purple"],"door_color_assignment":["white","black"],"door_generator_assignment":[0,1],"goal":1,"start":2,"action_noise":0.2,"location_history":"[2,1]","action_history":"[0]","door_history":"[0]","location_rts":"[1406]","trial_type":"two-door-navigation","trial_index":101,"time_elapsed":2042653,"internal_node_id":"0.0-2.0-99.0"},{"view_history":"[{\"page_index\":0,\"viewing_time\":2367}]","rt":2368,"trial_type":"instructions","trial_index":102,"time_elapsed":2046023,"internal_node_id":"0.0-3.0"},{"view_history":"[{\"page_index\":0,\"viewing_time\":1892},{\"page_index\":1,\"viewing_time\":436302}]","rt":438196,"trial_type":"instructions","trial_index":103,"time_elapsed":2485221,"internal_node_id":"0.0-4.0"},{"group":"hexagon_tri","fractal_assignment":["../images/org_blu.png","../images/pnk_blu.png","../images/blu_wht.png","../images/cyn_red.png","../images/gry_blk.png","../images/ylw_slt.png"],"mutagen_generator_assignment":[0,1],"goal":2,"start":1,"action_noise":0.2,"location_history":"[1,5,4,0,1,5,4,2]","action_history":"[1,0,0,1,1,1,1]","mutagen_history":"[1,0,0,1,1,1,1]","location_rts":"[12097,1411,1026,632,379,376,487]","trial_type":"fractal-mutation","trial_index":104,"time_elapsed":2512847,"internal_node_id":"0.0-5.0-0.0"},{"group":"hexagon_tri","fractal_assignment":["../images/org_blu.png","../images/pnk_blu.png","../images/blu_wht.png","../images/cyn_red.png","../images/gry_blk.png","../images/ylw_slt.png"],"mutagen_generator_assignment":[0,1],"goal":0,"start":2,"action_noise":0.2,"location_history":"[2,1,3,2,3,4,2,3,2,3,4,0]","action_history":"[0,0,0,1,1,0,1,1,1,1,0]","mutagen_history":"[0,0,0,1,1,0,1,1,1,1,0]","location_rts":"[1356,880,478,875,912,871,509,324,357,414,494]","trial_type":"fractal-mutation","trial_index":105,"time_elapsed":2535901,"internal_node_id":"0.0-5.0-1.0"},{"group":"hexagon_tri","fractal_assignment":["../images/org_blu.png","../images/pnk_blu.png","../images/blu_wht.png","../images/cyn_red.png","../images/gry_blk.png","../images/ylw_slt.png"],"mutagen_generator_assignment":[0,1],"goal":5,"start":0,"action_noise":0.2,"location_history":"[0,1,3,2,1,5]","action_history":"[1,0,0,1,1]","mutagen_history":"[1,0,0,1,1]","location_rts":"[2462,799,1211,827,470]","trial_type":"fractal-mutation","trial_index":106,"time_elapsed":2550637,"internal_node_id":"0.0-5.0-2.0"},{"group":"hexagon_tri","fractal_assignment":["../images/org_blu.png","../images/pnk_blu.png","../images/blu_wht.png","../images/cyn_red.png","../images/gry_blk.png","../images/ylw_slt.png"],"mutagen_generator_assignment":[0,1],"goal":3,"start":5,"action_noise":0.2,"location_history":"[5,4,2,3]","action_history":"[0,1,1]","mutagen_history":"[0,1,1]","location_rts":"[2228,2168,451]","trial_type":"fractal-mutation","trial_index":107,"time_elapsed":2562282,"internal_node_id":"0.0-5.0-3.0"},{"group":"hexagon_tri","fractal_assignment":["../images/org_blu.png","../images/pnk_blu.png","../images/blu_wht.png","../images/cyn_red.png","../images/gry_blk.png","../images/ylw_slt.png"],"mutagen_generator_assignment":[0,1],"goal":4,"start":3,"action_noise":0.2,"location_history":"[3,2,1,5,0,1,3,4]","action_history":"[0,0,0,0,1,0,1]","mutagen_history":"[0,0,0,0,1,0,1]","location_rts":"[3741,2105,3135,8763,3866,1849,771]","trial_type":"fractal-mutation","trial_index":108,"time_elapsed":2597582,"internal_node_id":"0.0-5.0-4.0"},{"group":"hexagon_tri","fractal_assignment":["../images/org_blu.png","../images/pnk_blu.png","../images/blu_wht.png","../images/cyn_red.png","../images/gry_blk.png","../images/ylw_slt.png"],"mutagen_generator_assignment":[0,1],"goal":0,"start":4,"action_noise":0.2,"location_history":"[4,2,3,4,2,1,5,4,0]","action_history":"[1,1,1,0,0,0,0,0]","mutagen_history":"[1,1,1,0,0,0,0,0]","location_rts":"[4136,907,569,439,1614,482,704,1398]","trial_type":"fractal-mutation","trial_index":109,"time_elapsed":2620004,"internal_node_id":"0.0-5.0-5.0"},{"group":"hexagon_tri","fractal_assignment":["../images/org_blu.png","../images/pnk_blu.png","../images/blu_wht.png","../images/cyn_red.png","../images/gry_blk.png","../images/ylw_slt.png"],"mutagen_generator_assignment":[0,1],"goal":4,"start":0,"action_noise":0.2,"location_history":"[0,5,4]","action_history":"[0,0]","mutagen_history":"[0,0]","location_rts":"[2138,480]","trial_type":"fractal-mutation","trial_index":110,"time_elapsed":2628303,"internal_node_id":"0.0-5.0-6.0"},{"group":"hexagon_tri","fractal_assignment":["../images/org_blu.png","../images/pnk_blu.png","../images/blu_wht.png","../images/cyn_red.png","../images/gry_blk.png","../images/ylw_slt.png"],"mutagen_generator_assignment":[0,1],"goal":3,"start":4,"action_noise":0.2,"location_history":"[4,2,3]","action_history":"[1,1]","mutagen_history":"[1,1]","location_rts":"[1015,387]","trial_type":"fractal-mutation","trial_index":111,"time_elapsed":2635423,"internal_node_id":"0.0-5.0-7.0"},{"group":"hexagon_tri","fractal_assignment":["../images/org_blu.png","../images/pnk_blu.png","../images/blu_wht.png","../images/cyn_red.png","../images/gry_blk.png","../images/ylw_slt.png"],"mutagen_generator_assignment":[0,1],"goal":2,"start":3,"action_noise":0.2,"location_history":"[3,4,0,5,0,1,3,4,2]","action_history":"[1,1,1,1,1,0,1,1]","mutagen_history":"[1,1,1,1,1,0,1,1]","location_rts":"[1437,403,419,431,393,520,739,465]","trial_type":"fractal-mutation","trial_index":112,"time_elapsed":2652594,"internal_node_id":"0.0-5.0-8.0"},{"group":"hexagon_tri","fractal_assignment":["../images/org_blu.png","../images/pnk_blu.png","../images/blu_wht.png","../images/cyn_red.png","../images/gry_blk.png","../images/ylw_slt.png"],"mutagen_generator_assignment":[0,1],"goal":1,"start":2,"action_noise":0.2,"location_history":"[2,3,2,1]","action_history":"[1,0,0]","mutagen_history":"[1,0,0]","location_rts":"[3230,373,762]","trial_type":"fractal-mutation","trial_index":113,"time_elapsed":2663773,"internal_node_id":"0.0-5.0-9.0"},{"group":"hexagon_tri","fractal_assignment":["../images/org_blu.png","../images/pnk_blu.png","../images/blu_wht.png","../images/cyn_red.png","../images/gry_blk.png","../images/ylw_slt.png"],"mutagen_generator_assignment":[0,1],"goal":5,"start":1,"action_noise":0.2,"location_history":"[1,5]","action_history":"[0]","mutagen_history":"[0]","location_rts":"[8749]","trial_type":"fractal-mutation","trial_index":114,"time_elapsed":2677246,"internal_node_id":"0.0-5.0-10.0"},{"group":"hexagon_tri","fractal_assignment":["../images/org_blu.png","../images/pnk_blu.png","../images/blu_wht.png","../images/cyn_red.png","../images/gry_blk.png","../images/ylw_slt.png"],"mutagen_generator_assignment":[0,1],"goal":0,"start":5,"action_noise":0.2,"location_history":"[5,0]","action_history":"[0]","mutagen_history":"[0]","location_rts":"[892]","trial_type":"fractal-mutation","trial_index":115,"time_elapsed":2682714,"internal_node_id":"0.0-5.0-11.0"},{"group":"hexagon_tri","fractal_assignment":["../images/org_blu.png","../images/pnk_blu.png","../images/blu_wht.png","../images/cyn_red.png","../images/gry_blk.png","../images/ylw_slt.png"],"mutagen_generator_assignment":[0,1],"goal":4,"start":0,"action_noise":0.2,"location_history":"[0,1,3,2,3,4]","action_history":"[1,0,1,1,1]","mutagen_history":"[1,0,1,1,1]","location_rts":"[5472,1068,505,366,448]","trial_type":"fractal-mutation","trial_index":116,"time_elapsed":2699497,"internal_node_id":"0.0-5.0-12.0"},{"group":"hexagon_tri","fractal_assignment":["../images/org_blu.png","../images/pnk_blu.png","../images/blu_wht.png","../images/cyn_red.png","../images/gry_blk.png","../images/ylw_slt.png"],"mutagen_generator_assignment":[0,1],"goal":2,"start":4,"action_noise":0.2,"location_history":"[4,2]","action_history":"[1]","mutagen_history":"[1]","location_rts":"[1175]","trial_type":"fractal-mutation","trial_index":117,"time_elapsed":2705306,"internal_node_id":"0.0-5.0-13.0"},{"group":"hexagon_tri","fractal_assignment":["../images/org_blu.png","../images/pnk_blu.png","../images/blu_wht.png","../images/cyn_red.png","../images/gry_blk.png","../images/ylw_slt.png"],"mutagen_generator_assignment":[0,1],"goal":1,"start":2,"action_noise":0.2,"location_history":"[2,1]","action_history":"[0]","mutagen_history":"[0]","location_rts":"[1177]","trial_type":"fractal-mutation","trial_index":118,"time_elapsed":2711074,"internal_node_id":"0.0-5.0-14.0"},{"group":"hexagon_tri","fractal_assignment":["../images/org_blu.png","../images/pnk_blu.png","../images/blu_wht.png","../images/cyn_red.png","../images/gry_blk.png","../images/ylw_slt.png"],"mutagen_generator_assignment":[0,1],"goal":3,"start":1,"action_noise":0.2,"location_history":"[1,5,0,1,5,0,5,4,0,1,5,0,5,4,2,3]","action_history":"[1,1,1,1,0,0,0,1,1,1,1,1,0,1,1]","mutagen_history":"[1,1,1,1,0,0,0,1,1,1,1,1,0,1,1]","location_rts":"[1671,859,934,652,395,974,605,890,500,400,491,474,488,1053,536]","trial_type":"fractal-mutation","trial_index":119,"time_elapsed":2741811,"internal_node_id":"0.0-5.0-15.0"},{"group":"hexagon_tri","fractal_assignment":["../images/org_blu.png","../images/pnk_blu.png","../images/blu_wht.png","../images/cyn_red.png","../images/gry_blk.png","../images/ylw_slt.png"],"mutagen_generator_assignment":[0,1],"goal":5,"start":3,"action_noise":0.2,"location_history":"[3,2,3,4,2,3,4,0,1,3,4,2,3,4,0,1,3,2,1,5]","action_history":"[0,1,1,1,1,0,0,1,1,1,1,1,1,0,1,1,0,0,0]","mutagen_history":"[0,1,1,1,1,0,0,1,1,1,1,1,1,0,1,1,0,0,0]","location_rts":"[1093,1094,481,881,718,461,284,1251,823,715,1162,596,360,528,1201,1031,705,399,359]","trial_type":"fractal-mutation","trial_index":120,"time_elapsed":2780067,"internal_node_id":"0.0-5.0-16.0"},{"group":"hexagon_tri","fractal_assignment":["../images/org_blu.png","../images/pnk_blu.png","../images/blu_wht.png","../images/cyn_red.png","../images/gry_blk.png","../images/ylw_slt.png"],"mutagen_generator_assignment":[0,1],"goal":0,"start":5,"action_noise":0.2,"location_history":"[5,4,0]","action_history":"[0,0]","mutagen_history":"[0,0]","location_rts":"[19809,1059]","trial_type":"fractal-mutation","trial_index":121,"time_elapsed":2806605,"internal_node_id":"0.0-5.0-17.0"},{"group":"hexagon_tri","fractal_assignment":["../images/org_blu.png","../images/pnk_blu.png","../images/blu_wht.png","../images/cyn_red.png","../images/gry_blk.png","../images/ylw_slt.png"],"mutagen_generator_assignment":[0,1],"goal":5,"start":0,"action_noise":0.2,"location_history":"[0,1,3,2,1,5]","action_history":"[1,0,0,0,1]","mutagen_history":"[1,0,0,0,1]","location_rts":"[3365,1525,797,482,577]","trial_type":"fractal-mutation","trial_index":122,"time_elapsed":2822332,"internal_node_id":"0.0-5.0-18.0"},{"group":"hexagon_tri","fractal_assignment":["../images/org_blu.png","../images/pnk_blu.png","../images/blu_wht.png","../images/cyn_red.png","../images/gry_blk.png","../images/ylw_slt.png"],"mutagen_generator_assignment":[0,1],"goal":3,"start":5,"action_noise":0.2,"location_history":"[5,0,5,4,2,3]","action_history":"[1,0,0,1,1]","mutagen_history":"[1,0,0,1,1]","location_rts":"[1436,1223,512,953,390]","trial_type":"fractal-mutation","trial_index":123,"time_elapsed":2835786,"internal_node_id":"0.0-5.0-19.0"},{"group":"hexagon_tri","fractal_assignment":["../images/org_blu.png","../images/pnk_blu.png","../images/blu_wht.png","../images/cyn_red.png","../images/gry_blk.png","../images/ylw_slt.png"],"mutagen_generator_assignment":[0,1],"goal":4,"start":3,"action_noise":0.2,"location_history":"[3,2,3,4]","action_history":"[0,1,1]","mutagen_history":"[0,1,1]","location_rts":"[739,555,270]","trial_type":"fractal-mutation","trial_index":124,"time_elapsed":2844162,"internal_node_id":"0.0-5.0-20.0"},{"group":"hexagon_tri","fractal_assignment":["../images/org_blu.png","../images/pnk_blu.png","../images/blu_wht.png","../images/cyn_red.png","../images/gry_blk.png","../images/ylw_slt.png"],"mutagen_generator_assignment":[0,1],"goal":1,"start":4,"action_noise":0.2,"location_history":"[4,0,5,0,5,4,0,1]","action_history":"[1,1,1,1,0,1,1]","mutagen_history":"[1,1,1,1,0,1,1]","location_rts":"[1930,1689,463,893,374,916,435]","trial_type":"fractal-mutation","trial_index":125,"time_elapsed":2862005,"internal_node_id":"0.0-5.0-21.0"},{"group":"hexagon_tri","fractal_assignment":["../images/org_blu.png","../images/pnk_blu.png","../images/blu_wht.png","../images/cyn_red.png","../images/gry_blk.png","../images/ylw_slt.png"],"mutagen_generator_assignment":[0,1],"goal":2,"start":1,"action_noise":0.2,"location_history":"[1,5,0,5,0,1,5,0,5,4,0,1,5,0,1,3,4,2]","action_history":"[1,0,1,1,1,1,1,0,0,1,1,1,1,0,0,1,1]","mutagen_history":"[1,0,1,1,1,1,1,0,0,1,1,1,1,0,0,1,1]","location_rts":"[1889,1260,1465,566,501,1279,514,582,520,862,782,628,434,611,580,706,715]","trial_type":"fractal-mutation","trial_index":126,"time_elapsed":2897802,"internal_node_id":"0.0-5.0-22.0"},{"group":"hexagon_tri","fractal_assignment":["../images/org_blu.png","../images/pnk_blu.png","../images/blu_wht.png","../images/cyn_red.png","../images/gry_blk.png","../images/ylw_slt.png"],"mutagen_generator_assignment":[0,1],"goal":3,"start":2,"action_noise":0.2,"location_history":"[2,1,5,0,5,0,5,4,0,5,0,5,4,0,5,4,0,5,0,1,5,0,5,0,1,3]","action_history":"[1,1,1,1,0,0,0,1,1,1,0,0,0,0,0,1,1,1,1,1,1,1,1,1,0]","mutagen_history":"[1,1,1,1,0,0,0,1,1,1,0,0,0,0,0,1,1,1,1,1,1,1,1,1,0]","location_rts":"[1457,395,307,793,565,846,704,781,326,397,436,405,1420,605,389,516,901,482,532,1001,483,393,525,502,551]","trial_type":"fractal-mutation","trial_index":127,"time_elapsed":2944106,"internal_node_id":"0.0-5.0-23.0"},{"group":"hexagon_tri","fractal_assignment":["../images/org_blu.png","../images/pnk_blu.png","../images/blu_wht.png","../images/cyn_red.png","../images/gry_blk.png","../images/ylw_slt.png"],"mutagen_generator_assignment":[0,1],"goal":5,"start":3,"action_noise":0.2,"location_history":"[3,4,0,1,5]","action_history":"[1,0,1,1]","mutagen_history":"[1,0,1,1]","location_rts":"[1955,2208,1165,663]","trial_type":"fractal-mutation","trial_index":128,"time_elapsed":2957905,"internal_node_id":"0.0-5.0-24.0"},{"group":"hexagon_tri","fractal_assignment":["../images/org_blu.png","../images/pnk_blu.png","../images/blu_wht.png","../images/cyn_red.png","../images/gry_blk.png","../images/ylw_slt.png"],"mutagen_generator_assignment":[0,1],"goal":4,"start":5,"action_noise":0.2,"location_history":"[5,0,5,4]","action_history":"[1,0,0]","mutagen_history":"[1,0,0]","location_rts":"[1893,2403,462]","trial_type":"fractal-mutation","trial_index":129,"time_elapsed":2969434,"internal_node_id":"0.0-5.0-25.0"},{"group":"hexagon_tri","fractal_assignment":["../images/org_blu.png","../images/pnk_blu.png","../images/blu_wht.png","../images/cyn_red.png","../images/gry_blk.png","../images/ylw_slt.png"],"mutagen_generator_assignment":[0,1],"goal":0,"start":4,"action_noise":0.2,"location_history":"[4,0]","action_history":"[0]","mutagen_history":"[0]","location_rts":"[1507]","trial_type":"fractal-mutation","trial_index":130,"time_elapsed":2975558,"internal_node_id":"0.0-5.0-26.0"},{"group":"hexagon_tri","fractal_assignment":["../images/org_blu.png","../images/pnk_blu.png","../images/blu_wht.png","../images/cyn_red.png","../images/gry_blk.png","../images/ylw_slt.png"],"mutagen_generator_assignment":[0,1],"goal":2,"start":0,"action_noise":0.2,"location_history":"[0,5,4,2]","action_history":"[0,0,1]","mutagen_history":"[0,0,1]","location_rts":"[1958,638,635]","trial_type":"fractal-mutation","trial_index":131,"time_elapsed":2985588,"internal_node_id":"0.0-5.0-27.0"},{"group":"hexagon_tri","fractal_assignment":["../images/org_blu.png","../images/pnk_blu.png","../images/blu_wht.png","../images/cyn_red.png","../images/gry_blk.png","../images/ylw_slt.png"],"mutagen_generator_assignment":[0,1],"goal":1,"start":2,"action_noise":0.2,"location_history":"[2,1]","action_history":"[0]","mutagen_history":"[0]","location_rts":"[1782]","trial_type":"fractal-mutation","trial_index":132,"time_elapsed":2991957,"internal_node_id":"0.0-5.0-28.0"},{"group":"hexagon_tri","fractal_assignment":["../images/org_blu.png","../images/pnk_blu.png","../images/blu_wht.png","../images/cyn_red.png","../images/gry_blk.png","../images/ylw_slt.png"],"mutagen_generator_assignment":[0,1],"goal":0,"start":1,"action_noise":0.2,"location_history":"[1,5,4,0]","action_history":"[1,0,0]","mutagen_history":"[1,0,0]","location_rts":"[1366,477,443]","trial_type":"fractal-mutation","trial_index":133,"time_elapsed":3001014,"internal_node_id":"0.0-5.0-29.0"},{"group":"hexagon_tri","fractal_assignment":["../images/org_blu.png","../images/pnk_blu.png","../images/blu_wht.png","../images/cyn_red.png","../images/gry_blk.png","../images/ylw_slt.png"],"mutagen_generator_assignment":[0,1],"goal":2,"start":0,"action_noise":0.2,"location_history":"[0,5,4,2]","action_history":"[0,0,1]","mutagen_history":"[0,0,1]","location_rts":"[3027,846,524]","trial_type":"fractal-mutation","trial_index":134,"time_elapsed":3012184,"internal_node_id":"0.0-5.0-30.0"},{"group":"hexagon_tri","fractal_assignment":["../images/org_blu.png","../images/pnk_blu.png","../images/blu_wht.png","../images/cyn_red.png","../images/gry_blk.png","../images/ylw_slt.png"],"mutagen_generator_assignment":[0,1],"goal":4,"start":2,"action_noise":0.2,"location_history":"[2,3,2,1,3,2,1,5,4]","action_history":"[1,0,0,0,0,0,1,0]","mutagen_history":"[1,0,0,0,0,0,1,0]","location_rts":"[8245,952,463,513,592,533,522,433]","trial_type":"fractal-mutation","trial_index":135,"time_elapsed":3036652,"internal_node_id":"0.0-5.0-31.0"},{"group":"hexagon_tri","fractal_assignment":["../images/org_blu.png","../images/pnk_blu.png","../images/blu_wht.png","../images/cyn_red.png","../images/gry_blk.png","../images/ylw_slt.png"],"mutagen_generator_assignment":[0,1],"goal":1,"start":4,"action_noise":0.2,"location_history":"[4,2,1]","action_history":"[1,0]","mutagen_history":"[1,0]","location_rts":"[1606,799]","trial_type":"fractal-mutation","trial_index":136,"time_elapsed":3044715,"internal_node_id":"0.0-5.0-32.0"},{"group":"hexagon_tri","fractal_assignment":["../images/org_blu.png","../images/pnk_blu.png","../images/blu_wht.png","../images/cyn_red.png","../images/gry_blk.png","../images/ylw_slt.png"],"mutagen_generator_assignment":[0,1],"goal":3,"start":1,"action_noise":0.2,"location_history":"[1,3]","action_history":"[0]","mutagen_history":"[0]","location_rts":"[2289]","trial_type":"fractal-mutation","trial_index":137,"time_elapsed":3051576,"internal_node_id":"0.0-5.0-33.0"},{"group":"hexagon_tri","fractal_assignment":["../images/org_blu.png","../images/pnk_blu.png","../images/blu_wht.png","../images/cyn_red.png","../images/gry_blk.png","../images/ylw_slt.png"],"mutagen_generator_assignment":[0,1],"goal":5,"start":3,"action_noise":0.2,"location_history":"[3,2,3,4,2,3,4,0,1,3,4,2,3,4,0,1,5]","action_history":"[0,1,1,1,1,1,0,1,1,1,1,1,1,0,1,0]","mutagen_history":"[0,1,1,1,1,1,0,1,1,1,1,1,1,0,1,0]","location_rts":"[1327,553,435,1772,809,435,615,743,876,909,540,843,707,414,1096,3015]","trial_type":"fractal-mutation","trial_index":138,"time_elapsed":3087502,"internal_node_id":"0.0-5.0-34.0"},{"group":"hexagon_tri","fractal_assignment":["../images/org_blu.png","../images/pnk_blu.png","../images/blu_wht.png","../images/cyn_red.png","../images/gry_blk.png","../images/ylw_slt.png"],"mutagen_generator_assignment":[0,1],"goal":2,"start":5,"action_noise":0.2,"location_history":"[5,0,1,5,0,1,3,4,0,1,3,2]","action_history":"[1,1,1,1,0,0,1,1,1,0,0]","mutagen_history":"[1,1,1,1,0,0,1,1,1,0,0]","location_rts":"[25991,1044,2959,608,439,922,499,529,419,645,594]","trial_type":"fractal-mutation","trial_index":139,"time_elapsed":3137633,"internal_node_id":"0.0-5.0-35.0"},{"group":"hexagon_tri","fractal_assignment":["../images/org_blu.png","../images/pnk_blu.png","../images/blu_wht.png","../images/cyn_red.png","../images/gry_blk.png","../images/ylw_slt.png"],"mutagen_generator_assignment":[0,1],"goal":0,"start":2,"action_noise":0.2,"location_history":"[2,3,2,1,3,4,2,1,3,2,1,5,4,0]","action_history":"[0,0,0,0,1,0,0,0,1,1,1,0,0]","mutagen_history":"[0,0,0,0,1,0,0,0,1,1,1,0,0]","location_rts":"[1641,973,702,707,581,592,799,556,803,382,1150,576,1100]","trial_type":"fractal-mutation","trial_index":140,"time_elapsed":3165855,"internal_node_id":"0.0-5.0-36.0"},{"group":"hexagon_tri","fractal_assignment":["../images/org_blu.png","../images/pnk_blu.png","../images/blu_wht.png","../images/cyn_red.png","../images/gry_blk.png","../images/ylw_slt.png"],"mutagen_generator_assignment":[0,1],"goal":4,"start":0,"action_noise":0.2,"location_history":"[0,1,3,4]","action_history":"[1,1,1]","mutagen_history":"[1,1,1]","location_rts":"[988,2358,554]","trial_type":"fractal-mutation","trial_index":141,"time_elapsed":3176540,"internal_node_id":"0.0-5.0-37.0"},{"group":"hexagon_tri","fractal_assignment":["../images/org_blu.png","../images/pnk_blu.png","../images/blu_wht.png","../images/cyn_red.png","../images/gry_blk.png","../images/ylw_slt.png"],"mutagen_generator_assignment":[0,1],"goal":5,"start":4,"action_noise":0.2,"location_history":"[4,0,1,3,2,1,5]","action_history":"[0,1,0,0,1,1]","mutagen_history":"[0,1,0,0,1,1]","location_rts":"[4064,3176,1415,618,521,363]","trial_type":"fractal-mutation","trial_index":142,"time_elapsed":3196598,"internal_node_id":"0.0-5.0-38.0"},{"group":"hexagon_tri","fractal_assignment":["../images/org_blu.png","../images/pnk_blu.png","../images/blu_wht.png","../images/cyn_red.png","../images/gry_blk.png","../images/ylw_slt.png"],"mutagen_generator_assignment":[0,1],"goal":1,"start":5,"action_noise":0.2,"location_history":"[5,0,1]","action_history":"[1,1]","mutagen_history":"[1,1]","location_rts":"[1349,836]","trial_type":"fractal-mutation","trial_index":143,"time_elapsed":3204429,"internal_node_id":"0.0-5.0-39.0"},{"group":"hexagon_tri","fractal_assignment":["../images/org_blu.png","../images/pnk_blu.png","../images/blu_wht.png","../images/cyn_red.png","../images/gry_blk.png","../images/ylw_slt.png"],"mutagen_generator_assignment":[0,1],"goal":3,"start":1,"action_noise":0.2,"location_history":"[1,3]","action_history":"[0]","mutagen_history":"[0]","location_rts":"[1146]","trial_type":"fractal-mutation","trial_index":144,"time_elapsed":3210140,"internal_node_id":"0.0-5.0-40.0"},{"group":"hexagon_tri","fractal_assignment":["../images/org_blu.png","../images/pnk_blu.png","../images/blu_wht.png","../images/cyn_red.png","../images/gry_blk.png","../images/ylw_slt.png"],"mutagen_generator_assignment":[0,1],"goal":1,"start":3,"action_noise":0.2,"location_history":"[3,4,0,1]","action_history":"[1,1,1]","mutagen_history":"[1,1,1]","location_rts":"[3060,578,650]","trial_type":"fractal-mutation","trial_index":145,"time_elapsed":3221207,"internal_node_id":"0.0-5.0-41.0"},{"group":"hexagon_tri","fractal_assignment":["../images/org_blu.png","../images/pnk_blu.png","../images/blu_wht.png","../images/cyn_red.png","../images/gry_blk.png","../images/ylw_slt.png"],"mutagen_generator_assignment":[0,1],"goal":0,"start":1,"action_noise":0.2,"location_history":"[1,3,2,1,3,4,0]","action_history":"[0,0,0,0,1,0]","mutagen_history":"[0,0,0,0,1,0]","location_rts":"[1840,941,1019,948,550,544]","trial_type":"fractal-mutation","trial_index":146,"time_elapsed":3237071,"internal_node_id":"0.0-5.0-42.0"},{"group":"hexagon_tri","fractal_assignment":["../images/org_blu.png","../images/pnk_blu.png","../images/blu_wht.png","../images/cyn_red.png","../images/gry_blk.png","../images/ylw_slt.png"],"mutagen_generator_assignment":[0,1],"goal":4,"start":0,"action_noise":0.2,"location_history":"[0,1,5,4]","action_history":"[1,1,0]","mutagen_history":"[1,1,0]","location_rts":"[22882,844,1495]","trial_type":"fractal-mutation","trial_index":147,"time_elapsed":3269730,"internal_node_id":"0.0-5.0-43.0"},{"group":"hexagon_tri","fractal_assignment":["../images/org_blu.png","../images/pnk_blu.png","../images/blu_wht.png","../images/cyn_red.png","../images/gry_blk.png","../images/ylw_slt.png"],"mutagen_generator_assignment":[0,1],"goal":2,"start":4,"action_noise":0.2,"location_history":"[4,2]","action_history":"[1]","mutagen_history":"[1]","location_rts":"[1028]","trial_type":"fractal-mutation","trial_index":148,"time_elapsed":3275361,"internal_node_id":"0.0-5.0-44.0"},{"group":"hexagon_tri","fractal_assignment":["../images/org_blu.png","../images/pnk_blu.png","../images/blu_wht.png","../images/cyn_red.png","../images/gry_blk.png","../images/ylw_slt.png"],"mutagen_generator_assignment":[0,1],"goal":3,"start":2,"action_noise":0.2,"location_history":"[2,3]","action_history":"[1]","mutagen_history":"[1]","location_rts":"[3514]","trial_type":"fractal-mutation","trial_index":149,"time_elapsed":3283479,"internal_node_id":"0.0-5.0-45.0"},{"group":"hexagon_tri","fractal_assignment":["../images/org_blu.png","../images/pnk_blu.png","../images/blu_wht.png","../images/cyn_red.png","../images/gry_blk.png","../images/ylw_slt.png"],"mutagen_generator_assignment":[0,1],"goal":5,"start":3,"action_noise":0.2,"location_history":"[3,2,3,2,3,2,1,5]","action_history":"[0,0,0,1,1,1,1]","mutagen_history":"[0,0,0,1,1,1,1]","location_rts":"[972,487,538,695,478,491,1609]","trial_type":"fractal-mutation","trial_index":150,"time_elapsed":3299925,"internal_node_id":"0.0-5.0-46.0"},{"group":"hexagon_tri","fractal_assignment":["../images/org_blu.png","../images/pnk_blu.png","../images/blu_wht.png","../images/cyn_red.png","../images/gry_blk.png","../images/ylw_slt.png"],"mutagen_generator_assignment":[0,1],"goal":4,"start":5,"action_noise":0.2,"location_history":"[5,4]","action_history":"[0]","mutagen_history":"[0]","location_rts":"[1341]","trial_type":"fractal-mutation","trial_index":151,"time_elapsed":3305871,"internal_node_id":"0.0-5.0-47.0"},{"group":"hexagon_tri","fractal_assignment":["../images/org_blu.png","../images/pnk_blu.png","../images/blu_wht.png","../images/cyn_red.png","../images/gry_blk.png","../images/ylw_slt.png"],"mutagen_generator_assignment":[0,1],"goal":3,"start":4,"action_noise":0.2,"location_history":"[4,2,3]","action_history":"[1,1]","mutagen_history":"[1,1]","location_rts":"[1037,537]","trial_type":"fractal-mutation","trial_index":152,"time_elapsed":3313123,"internal_node_id":"0.0-5.0-48.0"},{"group":"hexagon_tri","fractal_assignment":["../images/org_blu.png","../images/pnk_blu.png","../images/blu_wht.png","../images/cyn_red.png","../images/gry_blk.png","../images/ylw_slt.png"],"mutagen_generator_assignment":[0,1],"goal":1,"start":3,"action_noise":0.2,"location_history":"[3,2,3,4,2,3,4,0,5,0,1]","action_history":"[0,1,1,1,1,1,0,0,1,1]","mutagen_history":"[0,1,1,1,1,1,0,0,1,1]","location_rts":"[1927,725,325,443,567,485,366,1742,1013,683]","trial_type":"fractal-mutation","trial_index":153,"time_elapsed":3335703,"internal_node_id":"0.0-5.0-49.0"},{"group":"hexagon_tri","fractal_assignment":["../images/org_blu.png","../images/pnk_blu.png","../images/blu_wht.png","../images/cyn_red.png","../images/gry_blk.png","../images/ylw_slt.png"],"mutagen_generator_assignment":[0,1],"goal":2,"start":1,"action_noise":0.2,"location_history":"[1,5,4,2]","action_history":"[1,1,1]","mutagen_history":"[1,1,1]","location_rts":"[1470,619,570]","trial_type":"fractal-mutation","trial_index":154,"time_elapsed":3345143,"internal_node_id":"0.0-5.0-50.0"},{"group":"hexagon_tri","fractal_assignment":["../images/org_blu.png","../images/pnk_blu.png","../images/blu_wht.png","../images/cyn_red.png","../images/gry_blk.png","../images/ylw_slt.png"],"mutagen_generator_assignment":[0,1],"goal":0,"start":2,"action_noise":0.2,"location_history":"[2,1,5,0]","action_history":"[0,1,1]","mutagen_history":"[0,1,1]","location_rts":"[740,830,1524]","trial_type":"fractal-mutation","trial_index":155,"time_elapsed":3355014,"internal_node_id":"0.0-5.0-51.0"},{"group":"hexagon_tri","fractal_assignment":["../images/org_blu.png","../images/pnk_blu.png","../images/blu_wht.png","../images/cyn_red.png","../images/gry_blk.png","../images/ylw_slt.png"],"mutagen_generator_assignment":[0,1],"goal":5,"start":0,"action_noise":0.2,"location_history":"[0,5]","action_history":"[0]","mutagen_history":"[0]","location_rts":"[1527]","trial_type":"fractal-mutation","trial_index":156,"time_elapsed":3361133,"internal_node_id":"0.0-5.0-52.0"},{"group":"hexagon_tri","fractal_assignment":["../images/org_blu.png","../images/pnk_blu.png","../images/blu_wht.png","../images/cyn_red.png","../images/gry_blk.png","../images/ylw_slt.png"],"mutagen_generator_assignment":[0,1],"goal":1,"start":5,"action_noise":0.2,"location_history":"[5,0,1]","action_history":"[1,1]","mutagen_history":"[1,1]","location_rts":"[787,416]","trial_type":"fractal-mutation","trial_index":157,"time_elapsed":3368030,"internal_node_id":"0.0-5.0-53.0"},{"group":"hexagon_tri","fractal_assignment":["../images/org_blu.png","../images/pnk_blu.png","../images/blu_wht.png","../images/cyn_red.png","../images/gry_blk.png","../images/ylw_slt.png"],"mutagen_generator_assignment":[0,1],"goal":3,"start":1,"action_noise":0.2,"location_history":"[1,3]","action_history":"[0]","mutagen_history":"[0]","location_rts":"[706]","trial_type":"fractal-mutation","trial_index":158,"time_elapsed":3373360,"internal_node_id":"0.0-5.0-54.0"},{"group":"hexagon_tri","fractal_assignment":["../images/org_blu.png","../images/pnk_blu.png","../images/blu_wht.png","../images/cyn_red.png","../images/gry_blk.png","../images/ylw_slt.png"],"mutagen_generator_assignment":[0,1],"goal":5,"start":3,"action_noise":0.2,"location_history":"[3,2,3,2,1,5]","action_history":"[1,0,0,0,1]","mutagen_history":"[1,0,0,0,1]","location_rts":"[801,416,332,597,1384]","trial_type":"fractal-mutation","trial_index":159,"time_elapsed":3385969,"internal_node_id":"0.0-5.0-55.0"},{"group":"hexagon_tri","fractal_assignment":["../images/org_blu.png","../images/pnk_blu.png","../images/blu_wht.png","../images/cyn_red.png","../images/gry_blk.png","../images/ylw_slt.png"],"mutagen_generator_assignment":[0,1],"goal":4,"start":5,"action_noise":0.2,"location_history":"[5,4]","action_history":"[0]","mutagen_history":"[0]","location_rts":"[19046]","trial_type":"fractal-mutation","trial_index":160,"time_elapsed":3409644,"internal_node_id":"0.0-5.0-56.0"},{"group":"hexagon_tri","fractal_assignment":["../images/org_blu.png","../images/pnk_blu.png","../images/blu_wht.png","../images/cyn_red.png","../images/gry_blk.png","../images/ylw_slt.png"],"mutagen_generator_assignment":[0,1],"goal":0,"start":4,"action_noise":0.2,"location_history":"[4,0]","action_history":"[0]","mutagen_history":"[0]","location_rts":"[899]","trial_type":"fractal-mutation","trial_index":161,"time_elapsed":3415155,"internal_node_id":"0.0-5.0-57.0"},{"group":"hexagon_tri","fractal_assignment":["../images/org_blu.png","../images/pnk_blu.png","../images/blu_wht.png","../images/cyn_red.png","../images/gry_blk.png","../images/ylw_slt.png"],"mutagen_generator_assignment":[0,1],"goal":2,"start":0,"action_noise":0.2,"location_history":"[0,1,5,4,2]","action_history":"[1,1,1,1]","mutagen_history":"[1,1,1,1]","location_rts":"[837,852,577,1034]","trial_type":"fractal-mutation","trial_index":162,"time_elapsed":3426322,"internal_node_id":"0.0-5.0-58.0"},{"group":"hexagon_tri","fractal_assignment":["../images/org_blu.png","../images/pnk_blu.png","../images/blu_wht.png","../images/cyn_red.png","../images/gry_blk.png","../images/ylw_slt.png"],"mutagen_generator_assignment":[0,1],"goal":4,"start":2,"action_noise":0.2,"location_history":"[2,3,4]","action_history":"[1,0]","mutagen_history":"[1,0]","location_rts":"[245842,1530]","trial_type":"fractal-mutation","trial_index":163,"time_elapsed":3679449,"internal_node_id":"0.0-5.0-59.0"},{"group":"hexagon_tri","fractal_assignment":["../images/org_blu.png","../images/pnk_blu.png","../images/blu_wht.png","../images/cyn_red.png","../images/gry_blk.png","../images/ylw_slt.png"],"mutagen_generator_assignment":[0,1],"goal":2,"start":4,"action_noise":0.2,"location_history":"[4,0,5,0,5,0,1,5,4,2]","action_history":"[1,0,0,0,1,1,1,0,1]","mutagen_history":"[1,0,0,0,1,1,1,0,1]","location_rts":"[6724,1652,850,603,418,428,499,704,1019]","trial_type":"fractal-mutation","trial_index":164,"time_elapsed":3706284,"internal_node_id":"0.0-5.0-60.0"},{"group":"hexagon_tri","fractal_assignment":["../images/org_blu.png","../images/pnk_blu.png","../images/blu_wht.png","../images/cyn_red.png","../images/gry_blk.png","../images/ylw_slt.png"],"mutagen_generator_assignment":[0,1],"goal":3,"start":2,"action_noise":0.2,"location_history":"[2,3]","action_history":"[0]","mutagen_history":"[0]","location_rts":"[1144179]","trial_type":"fractal-mutation","trial_index":165,"time_elapsed":4855769,"internal_node_id":"0.0-5.0-61.0"},{"group":"hexagon_tri","fractal_assignment":["../images/org_blu.png","../images/pnk_blu.png","../images/blu_wht.png","../images/cyn_red.png","../images/gry_blk.png","../images/ylw_slt.png"],"mutagen_generator_assignment":[0,1],"goal":0,"start":3,"action_noise":0.2,"location_history":"[3,4,0]","action_history":"[1,0]","mutagen_history":"[1,0]","location_rts":"[1037,516]","trial_type":"fractal-mutation","trial_index":166,"time_elapsed":4862980,"internal_node_id":"0.0-5.0-62.0"},{"group":"hexagon_tri","fractal_assignment":["../images/org_blu.png","../images/pnk_blu.png","../images/blu_wht.png","../images/cyn_red.png","../images/gry_blk.png","../images/ylw_slt.png"],"mutagen_generator_assignment":[0,1],"goal":5,"start":0,"action_noise":0.2,"location_history":"[0,1,3,4,2,1,5]","action_history":"[1,0,1,1,1,1]","mutagen_history":"[1,0,1,1,1,1]","location_rts":"[1010,659,601,327,418,566]","trial_type":"fractal-mutation","trial_index":167,"time_elapsed":4876626,"internal_node_id":"0.0-5.0-63.0"},{"group":"hexagon_tri","fractal_assignment":["../images/org_blu.png","../images/pnk_blu.png","../images/blu_wht.png","../images/cyn_red.png","../images/gry_blk.png","../images/ylw_slt.png"],"mutagen_generator_assignment":[0,1],"goal":1,"start":5,"action_noise":0.2,"location_history":"[5,4,2,1]","action_history":"[0,1,1]","mutagen_history":"[0,1,1]","location_rts":"[736,931,799]","trial_type":"fractal-mutation","trial_index":168,"time_elapsed":4885829,"internal_node_id":"0.0-5.0-64.0"},{"group":"hexagon_tri","fractal_assignment":["../images/org_blu.png","../images/pnk_blu.png","../images/blu_wht.png","../images/cyn_red.png","../images/gry_blk.png","../images/ylw_slt.png"],"mutagen_generator_assignment":[0,1],"goal":5,"start":1,"action_noise":0.2,"location_history":"[1,5]","action_history":"[1]","mutagen_history":"[1]","location_rts":"[4467]","trial_type":"fractal-mutation","trial_index":169,"time_elapsed":4895051,"internal_node_id":"0.0-5.0-65.0"},{"group":"hexagon_tri","fractal_assignment":["../images/org_blu.png","../images/pnk_blu.png","../images/blu_wht.png","../images/cyn_red.png","../images/gry_blk.png","../images/ylw_slt.png"],"mutagen_generator_assignment":[0,1],"goal":3,"start":5,"action_noise":0.2,"location_history":"[5,0,1,5,0,1,3]","action_history":"[1,1,1,1,1,0]","mutagen_history":"[1,1,1,1,1,0]","location_rts":"[2383,6784,1150,635,830,507]","trial_type":"fractal-mutation","trial_index":170,"time_elapsed":4917338,"internal_node_id":"0.0-5.0-66.0"},{"group":"hexagon_tri","fractal_assignment":["../images/org_blu.png","../images/pnk_blu.png","../images/blu_wht.png","../images/cyn_red.png","../images/gry_blk.png","../images/ylw_slt.png"],"mutagen_generator_assignment":[0,1],"goal":2,"start":3,"action_noise":0.2,"location_history":"[3,4,0,5,0,5,4,0,5,4,2]","action_history":"[1,1,1,1,0,0,0,0,0,1]","mutagen_history":"[1,1,1,1,0,0,0,0,0,1]","location_rts":"[1264,398,375,576,494,575,742,599,359,291]","trial_type":"fractal-mutation","trial_index":171,"time_elapsed":4937425,"internal_node_id":"0.0-5.0-67.0"},{"group":"hexagon_tri","fractal_assignment":["../images/org_blu.png","../images/pnk_blu.png","../images/blu_wht.png","../images/cyn_red.png","../images/gry_blk.png","../images/ylw_slt.png"],"mutagen_generator_assignment":[0,1],"goal":1,"start":2,"action_noise":0.2,"location_history":"[2,3,2,1]","action_history":"[1,0,0]","mutagen_history":"[1,0,0]","location_rts":"[3110,875,839]","trial_type":"fractal-mutation","trial_index":172,"time_elapsed":4949023,"internal_node_id":"0.0-5.0-68.0"},{"group":"hexagon_tri","fractal_assignment":["../images/org_blu.png","../images/pnk_blu.png","../images/blu_wht.png","../images/cyn_red.png","../images/gry_blk.png","../images/ylw_slt.png"],"mutagen_generator_assignment":[0,1],"goal":4,"start":1,"action_noise":0.2,"location_history":"[1,5,0,5,4]","action_history":"[1,0,0,0]","mutagen_history":"[1,0,0,0]","location_rts":"[1285,826,570,520]","trial_type":"fractal-mutation","trial_index":173,"time_elapsed":4960086,"internal_node_id":"0.0-5.0-69.0"},{"group":"hexagon_tri","fractal_assignment":["../images/org_blu.png","../images/pnk_blu.png","../images/blu_wht.png","../images/cyn_red.png","../images/gry_blk.png","../images/ylw_slt.png"],"mutagen_generator_assignment":[0,1],"goal":0,"start":4,"action_noise":0.2,"location_history":"[4,0]","action_history":"[0]","mutagen_history":"[0]","location_rts":"[2330]","trial_type":"fractal-mutation","trial_index":174,"time_elapsed":4967307,"internal_node_id":"0.0-5.0-70.0"},{"group":"hexagon_tri","fractal_assignment":["../images/org_blu.png","../images/pnk_blu.png","../images/blu_wht.png","../images/cyn_red.png","../images/gry_blk.png","../images/ylw_slt.png"],"mutagen_generator_assignment":[0,1],"goal":3,"start":0,"action_noise":0.2,"location_history":"[0,1,3]","action_history":"[1,0]","mutagen_history":"[1,0]","location_rts":"[3532,1719]","trial_type":"fractal-mutation","trial_index":175,"time_elapsed":4978748,"internal_node_id":"0.0-5.0-71.0"},{"group":"hexagon_tri","fractal_assignment":["../images/org_blu.png","../images/pnk_blu.png","../images/blu_wht.png","../images/cyn_red.png","../images/gry_blk.png","../images/ylw_slt.png"],"mutagen_generator_assignment":[0,1],"goal":1,"start":3,"action_noise":0.2,"location_history":"[3,4,0,5,0,1]","action_history":"[1,0,0,1,1]","mutagen_history":"[1,0,0,1,1]","location_rts":"[1019,727,346,1035,983]","trial_type":"fractal-mutation","trial_index":176,"time_elapsed":4991919,"internal_node_id":"0.0-5.0-72.0"},{"group":"hexagon_tri","fractal_assignment":["../images/org_blu.png","../images/pnk_blu.png","../images/blu_wht.png","../images/cyn_red.png","../images/gry_blk.png","../images/ylw_slt.png"],"mutagen_generator_assignment":[0,1],"goal":0,"start":1,"action_noise":0.2,"location_history":"[1,3,2,1,5,4,2,1,3,4,0]","action_history":"[0,0,0,1,1,0,0,0,0,0]","mutagen_history":"[0,0,0,1,1,0,0,0,0,0]","location_rts":"[716,1019,438,446,459,553,764,412,569,653]","trial_type":"fractal-mutation","trial_index":177,"time_elapsed":5012196,"internal_node_id":"0.0-5.0-73.0"},{"group":"hexagon_tri","fractal_assignment":["../images/org_blu.png","../images/pnk_blu.png","../images/blu_wht.png","../images/cyn_red.png","../images/gry_blk.png","../images/ylw_slt.png"],"mutagen_generator_assignment":[0,1],"goal":2,"start":0,"action_noise":0.2,"location_history":"[0,5,4,0,1,5,0,1,3,4,2]","action_history":"[1,0,1,1,1,1,1,0,1,1]","mutagen_history":"[1,0,1,1,1,1,1,0,1,1]","location_rts":"[1284,957,744,370,476,1260,441,523,308,450]","trial_type":"fractal-mutation","trial_index":178,"time_elapsed":5033388,"internal_node_id":"0.0-5.0-74.0"},{"group":"hexagon_tri","fractal_assignment":["../images/org_blu.png","../images/pnk_blu.png","../images/blu_wht.png","../images/cyn_red.png","../images/gry_blk.png","../images/ylw_slt.png"],"mutagen_generator_assignment":[0,1],"goal":4,"start":2,"action_noise":0.2,"location_history":"[2,1,3,2,1,5,4]","action_history":"[0,0,0,0,1,0]","mutagen_history":"[0,0,0,0,1,0]","location_rts":"[1869,1123,1111,560,482,418]","trial_type":"fractal-mutation","trial_index":179,"time_elapsed":5048996,"internal_node_id":"0.0-5.0-75.0"},{"group":"hexagon_tri","fractal_assignment":["../images/org_blu.png","../images/pnk_blu.png","../images/blu_wht.png","../images/cyn_red.png","../images/gry_blk.png","../images/ylw_slt.png"],"mutagen_generator_assignment":[0,1],"goal":5,"start":4,"action_noise":0.2,"location_history":"[4,0,5]","action_history":"[1,0]","mutagen_history":"[1,0]","location_rts":"[842,998]","trial_type":"fractal-mutation","trial_index":180,"time_elapsed":5056538,"internal_node_id":"0.0-5.0-76.0"},{"group":"hexagon_tri","fractal_assignment":["../images/org_blu.png","../images/pnk_blu.png","../images/blu_wht.png","../images/cyn_red.png","../images/gry_blk.png","../images/ylw_slt.png"],"mutagen_generator_assignment":[0,1],"goal":2,"start":5,"action_noise":0.2,"location_history":"[5,0,5,4,2]","action_history":"[1,0,0,1]","mutagen_history":"[1,0,0,1]","location_rts":"[691,919,573,638]","trial_type":"fractal-mutation","trial_index":181,"time_elapsed":5067271,"internal_node_id":"0.0-5.0-77.0"},{"group":"hexagon_tri","fractal_assignment":["../images/org_blu.png","../images/pnk_blu.png","../images/blu_wht.png","../images/cyn_red.png","../images/gry_blk.png","../images/ylw_slt.png"],"mutagen_generator_assignment":[0,1],"goal":3,"start":2,"action_noise":0.2,"location_history":"[2,1,3]","action_history":"[0,0]","mutagen_history":"[0,0]","location_rts":"[1053,542]","trial_type":"fractal-mutation","trial_index":182,"time_elapsed":5074587,"internal_node_id":"0.0-5.0-78.0"},{"group":"hexagon_tri","fractal_assignment":["../images/org_blu.png","../images/pnk_blu.png","../images/blu_wht.png","../images/cyn_red.png","../images/gry_blk.png","../images/ylw_slt.png"],"mutagen_generator_assignment":[0,1],"goal":1,"start":3,"action_noise":0.2,"location_history":"[3,2,1]","action_history":"[1,0]","mutagen_history":"[1,0]","location_rts":"[815,491]","trial_type":"fractal-mutation","trial_index":183,"time_elapsed":5081622,"internal_node_id":"0.0-5.0-79.0"},{"group":"hexagon_tri","fractal_assignment":["../images/org_blu.png","../images/pnk_blu.png","../images/blu_wht.png","../images/cyn_red.png","../images/gry_blk.png","../images/ylw_slt.png"],"mutagen_generator_assignment":[0,1],"goal":4,"start":1,"action_noise":0.2,"location_history":"[1,3,4]","action_history":"[0,1]","mutagen_history":"[0,1]","location_rts":"[1261,691]","trial_type":"fractal-mutation","trial_index":184,"time_elapsed":5089277,"internal_node_id":"0.0-5.0-80.0"},{"group":"hexagon_tri","fractal_assignment":["../images/org_blu.png","../images/pnk_blu.png","../images/blu_wht.png","../images/cyn_red.png","../images/gry_blk.png","../images/ylw_slt.png"],"mutagen_generator_assignment":[0,1],"goal":5,"start":4,"action_noise":0.2,"location_history":"[4,2,1,5]","action_history":"[0,0,1]","mutagen_history":"[0,0,1]","location_rts":"[2478,733,470]","trial_type":"fractal-mutation","trial_index":185,"time_elapsed":5099715,"internal_node_id":"0.0-5.0-81.0"},{"group":"hexagon_tri","fractal_assignment":["../images/org_blu.png","../images/pnk_blu.png","../images/blu_wht.png","../images/cyn_red.png","../images/gry_blk.png","../images/ylw_slt.png"],"mutagen_generator_assignment":[0,1],"goal":0,"start":5,"action_noise":0.2,"location_history":"[5,0]","action_history":"[0]","mutagen_history":"[0]","location_rts":"[808]","trial_type":"fractal-mutation","trial_index":186,"time_elapsed":5105099,"internal_node_id":"0.0-5.0-82.0"},{"group":"hexagon_tri","fractal_assignment":["../images/org_blu.png","../images/pnk_blu.png","../images/blu_wht.png","../images/cyn_red.png","../images/gry_blk.png","../images/ylw_slt.png"],"mutagen_generator_assignment":[0,1],"goal":2,"start":0,"action_noise":0.2,"location_history":"[0,1,3,2]","action_history":"[1,0,1]","mutagen_history":"[1,0,1]","location_rts":"[829,558,458]","trial_type":"fractal-mutation","trial_index":187,"time_elapsed":5113742,"internal_node_id":"0.0-5.0-83.0"},{"group":"hexagon_tri","fractal_assignment":["../images/org_blu.png","../images/pnk_blu.png","../images/blu_wht.png","../images/cyn_red.png","../images/gry_blk.png","../images/ylw_slt.png"],"mutagen_generator_assignment":[0,1],"goal":0,"start":2,"action_noise":0.2,"location_history":"[2,1,3,4,2,1,5,4,2,1,3,2,3,4,0]","action_history":"[0,0,0,1,0,0,0,1,0,0,0,0,1,0]","mutagen_history":"[0,0,0,1,0,0,0,1,0,0,0,0,1,0]","location_rts":"[909,1017,1150,527,938,726,5714,516,1315,415,375,362,439,590]","trial_type":"fractal-mutation","trial_index":188,"time_elapsed":5147579,"internal_node_id":"0.0-5.0-84.0"},{"group":"hexagon_tri","fractal_assignment":["../images/org_blu.png","../images/pnk_blu.png","../images/blu_wht.png","../images/cyn_red.png","../images/gry_blk.png","../images/ylw_slt.png"],"mutagen_generator_assignment":[0,1],"goal":5,"start":0,"action_noise":0.2,"location_history":"[0,5]","action_history":"[1]","mutagen_history":"[1]","location_rts":"[1220]","trial_type":"fractal-mutation","trial_index":189,"time_elapsed":5153435,"internal_node_id":"0.0-5.0-85.0"},{"group":"hexagon_tri","fractal_assignment":["../images/org_blu.png","../images/pnk_blu.png","../images/blu_wht.png","../images/cyn_red.png","../images/gry_blk.png","../images/ylw_slt.png"],"mutagen_generator_assignment":[0,1],"goal":1,"start":5,"action_noise":0.2,"location_history":"[5,4,0,5,0,5,0,1]","action_history":"[0,0,0,1,1,1,1]","mutagen_history":"[0,0,0,1,1,1,1]","location_rts":"[681,965,687,450,757,510,384]","trial_type":"fractal-mutation","trial_index":190,"time_elapsed":5169127,"internal_node_id":"0.0-5.0-86.0"},{"group":"hexagon_tri","fractal_assignment":["../images/org_blu.png","../images/pnk_blu.png","../images/blu_wht.png","../images/cyn_red.png","../images/gry_blk.png","../images/ylw_slt.png"],"mutagen_generator_assignment":[0,1],"goal":4,"start":1,"action_noise":0.2,"location_history":"[1,5,0,1,3,2,3,4]","action_history":"[0,0,0,0,0,0,1]","mutagen_history":"[0,0,0,0,0,0,1]","location_rts":"[917,793,562,486,468,492,817]","trial_type":"fractal-mutation","trial_index":191,"time_elapsed":5184803,"internal_node_id":"0.0-5.0-87.0"},{"group":"hexagon_tri","fractal_assignment":["../images/org_blu.png","../images/pnk_blu.png","../images/blu_wht.png","../images/cyn_red.png","../images/gry_blk.png","../images/ylw_slt.png"],"mutagen_generator_assignment":[0,1],"goal":3,"start":4,"action_noise":0.2,"location_history":"[4,0,5,4,0,5,0,1,5,0,5,4,2,3]","action_history":"[0,0,1,1,1,1,1,1,1,1,0,0,1]","mutagen_history":"[0,0,1,1,1,1,1,1,1,1,0,0,1]","location_rts":"[1583,851,841,816,608,707,10873,7696,507,873,370,815,702]","trial_type":"fractal-mutation","trial_index":192,"time_elapsed":5229866,"internal_node_id":"0.0-5.0-88.0"},{"group":"hexagon_tri","fractal_assignment":["../images/org_blu.png","../images/pnk_blu.png","../images/blu_wht.png","../images/cyn_red.png","../images/gry_blk.png","../images/ylw_slt.png"],"mutagen_generator_assignment":[0,1],"goal":5,"start":3,"action_noise":0.2,"location_history":"[3,2,3,4,0,1,5]","action_history":"[0,1,1,1,1,1]","mutagen_history":"[0,1,1,1,1,1]","location_rts":"[844,788,402,374,481,716]","trial_type":"fractal-mutation","trial_index":193,"time_elapsed":5243578,"internal_node_id":"0.0-5.0-89.0"},{"group":"hexagon_tri","fractal_assignment":["../images/org_blu.png","../images/pnk_blu.png","../images/blu_wht.png","../images/cyn_red.png","../images/gry_blk.png","../images/ylw_slt.png"],"mutagen_generator_assignment":[0,1],"goal":1,"start":5,"action_noise":0.2,"location_history":"[5,4,2,3,4,0,1]","action_history":"[0,1,1,1,0,1]","mutagen_history":"[0,1,1,1,0,1]","location_rts":"[749,514,480,392,702,501]","trial_type":"fractal-mutation","trial_index":194,"time_elapsed":5256983,"internal_node_id":"0.0-5.0-90.0"},{"group":"hexagon_tri","fractal_assignment":["../images/org_blu.png","../images/pnk_blu.png","../images/blu_wht.png","../images/cyn_red.png","../images/gry_blk.png","../images/ylw_slt.png"],"mutagen_generator_assignment":[0,1],"goal":2,"start":1,"action_noise":0.2,"location_history":"[1,5,4,2]","action_history":"[1,0,1]","mutagen_history":"[1,0,1]","location_rts":"[1605,506,511]","trial_type":"fractal-mutation","trial_index":195,"time_elapsed":5266415,"internal_node_id":"0.0-5.0-91.0"},{"group":"hexagon_tri","fractal_assignment":["../images/org_blu.png","../images/pnk_blu.png","../images/blu_wht.png","../images/cyn_red.png","../images/gry_blk.png","../images/ylw_slt.png"],"mutagen_generator_assignment":[0,1],"goal":4,"start":2,"action_noise":0.2,"location_history":"[2,1,3,2,1,3,2,1,5,0,5,0,5,0,1,5,4]","action_history":"[1,0,0,0,0,0,1,1,0,0,0,0,1,1,0,0]","mutagen_history":"[1,0,0,0,0,0,1,1,0,0,0,0,1,1,0,0]","location_rts":"[4136,550,418,531,473,537,445,685,1378,609,497,392,432,614,700,509]","trial_type":"fractal-mutation","trial_index":196,"time_elapsed":5300107,"internal_node_id":"0.0-5.0-92.0"},{"group":"hexagon_tri","fractal_assignment":["../images/org_blu.png","../images/pnk_blu.png","../images/blu_wht.png","../images/cyn_red.png","../images/gry_blk.png","../images/ylw_slt.png"],"mutagen_generator_assignment":[0,1],"goal":0,"start":4,"action_noise":0.2,"location_history":"[4,2,1,5,4,2,1,3,2,3,2,3,4,2,3,2,3,2,1,3,2,1,5,4,0]","action_history":"[1,0,0,0,0,0,0,0,0,1,1,1,1,0,0,0,0,0,0,0,0,1,0,0]","mutagen_history":"[1,0,0,0,0,0,0,0,0,1,1,1,1,0,0,0,0,0,0,0,0,1,0,0]","location_rts":"[661,541,628,441,511,877,405,364,3082,880,362,402,414,710,369,313,440,392,697,605,452,486,702,545]","trial_type":"fractal-mutation","trial_index":197,"time_elapsed":5345052,"internal_node_id":"0.0-5.0-93.0"},{"group":"hexagon_tri","fractal_assignment":["../images/org_blu.png","../images/pnk_blu.png","../images/blu_wht.png","../images/cyn_red.png","../images/gry_blk.png","../images/ylw_slt.png"],"mutagen_generator_assignment":[0,1],"goal":3,"start":0,"action_noise":0.2,"location_history":"[0,1,3]","action_history":"[1,0]","mutagen_history":"[1,0]","location_rts":"[1019,4910]","trial_type":"fractal-mutation","trial_index":198,"time_elapsed":5356705,"internal_node_id":"0.0-5.0-94.0"},{"group":"hexagon_tri","fractal_assignment":["../images/org_blu.png","../images/pnk_blu.png","../images/blu_wht.png","../images/cyn_red.png","../images/gry_blk.png","../images/ylw_slt.png"],"mutagen_generator_assignment":[0,1],"goal":0,"start":3,"action_noise":0.2,"location_history":"[3,2,1,3,4,0]","action_history":"[0,0,0,1,0]","mutagen_history":"[0,0,0,1,0]","location_rts":"[1096,494,1779,439,881]","trial_type":"fractal-mutation","trial_index":199,"time_elapsed":5370470,"internal_node_id":"0.0-5.0-95.0"},{"group":"hexagon_tri","fractal_assignment":["../images/org_blu.png","../images/pnk_blu.png","../images/blu_wht.png","../images/cyn_red.png","../images/gry_blk.png","../images/ylw_slt.png"],"mutagen_generator_assignment":[0,1],"goal":4,"start":0,"action_noise":0.2,"location_history":"[0,5,4]","action_history":"[0,0]","mutagen_history":"[0,0]","location_rts":"[3399,426]","trial_type":"fractal-mutation","trial_index":200,"time_elapsed":5379951,"internal_node_id":"0.0-5.0-96.0"},{"group":"hexagon_tri","fractal_assignment":["../images/org_blu.png","../images/pnk_blu.png","../images/blu_wht.png","../images/cyn_red.png","../images/gry_blk.png","../images/ylw_slt.png"],"mutagen_generator_assignment":[0,1],"goal":5,"start":4,"action_noise":0.2,"location_history":"[4,2,3,4,2,3,4,0,5]","action_history":"[1,0,0,0,0,1,1,0]","mutagen_history":"[1,0,0,0,0,1,1,0]","location_rts":"[846,451,342,410,430,414,308,1201]","trial_type":"fractal-mutation","trial_index":201,"time_elapsed":5397272,"internal_node_id":"0.0-5.0-97.0"},{"group":"hexagon_tri","fractal_assignment":["../images/org_blu.png","../images/pnk_blu.png","../images/blu_wht.png","../images/cyn_red.png","../images/gry_blk.png","../images/ylw_slt.png"],"mutagen_generator_assignment":[0,1],"goal":2,"start":5,"action_noise":0.2,"location_history":"[5,0,5,4,0,5,4,2]","action_history":"[1,1,0,0,0,0,1]","mutagen_history":"[1,1,0,0,0,0,1]","location_rts":"[738,1134,695,1387,547,606,378]","trial_type":"fractal-mutation","trial_index":202,"time_elapsed":5415393,"internal_node_id":"0.0-5.0-98.0"},{"group":"hexagon_tri","fractal_assignment":["../images/org_blu.png","../images/pnk_blu.png","../images/blu_wht.png","../images/cyn_red.png","../images/gry_blk.png","../images/ylw_slt.png"],"mutagen_generator_assignment":[0,1],"goal":1,"start":2,"action_noise":0.2,"location_history":"[2,1]","action_history":"[0]","mutagen_history":"[0]","location_rts":"[1199]","trial_type":"fractal-mutation","trial_index":203,"time_elapsed":5421180,"internal_node_id":"0.0-5.0-99.0"},{"view_history":"[{\"page_index\":0,\"viewing_time\":3142}]","rt":3144,"trial_type":"instructions","trial_index":204,"time_elapsed":5425326,"internal_node_id":"0.0-6.0"},{"rt":28600,"responses":"{\"Q0\":\"Memory for color associations\"}","trial_type":"survey-text","trial_index":205,"time_elapsed":5454951,"internal_node_id":"0.0-7.0-0.0"},{"rt":31779,"responses":"{\"Q0\":\"memory for pattern and effects of a/g\"}","trial_type":"survey-text","trial_index":206,"time_elapsed":5487745,"internal_node_id":"0.0-7.0-1.0"},{"rt":24784,"responses":"{\"Q0\":\"<img src='../images/diagrams/hexagon_tri.png'>\"}","trial_type":"survey-multi-choice","trial_index":207,"time_elapsed":5513548,"internal_node_id":"0.0-7.0-2.0"},{"rt":37608,"assignments":["../images/org_blu.png","../images/ylw_slt.png","../images/blu_wht.png","../images/cyn_red.png","../images/pnk_blu.png","../images/gry_blk.png"],"trial_type":"drag-drop-on-image","trial_index":208,"time_elapsed":5552167,"internal_node_id":"0.0-7.0-3.0"},{"rt":4122,"responses":"{\"Q0\":\"1\"}","trial_type":"survey-likert","trial_index":209,"time_elapsed":5557308,"internal_node_id":"0.0-7.0-4.0"},{"rt":5839,"responses":"{\"Q0\":\"n/a\"}","trial_type":"survey-text","trial_index":210,"time_elapsed":5564161,"internal_node_id":"0.0-7.0-5.0"},{"rt":6655,"responses":"{\"Q0\":\"No\"}","trial_type":"survey-multi-choice","trial_index":211,"time_elapsed":5571833,"internal_node_id":"0.0-7.0-6.0"},{"rt":3535,"responses":"{\"Q0\":\"Did not notice\"}","trial_type":"survey-multi-choice","trial_index":212,"time_elapsed":5576394,"internal_node_id":"0.0-7.0-7.0"},{"rt":2367,"responses":"{\"Q0\":\"\"}","trial_type":"survey-text","trial_index":213,"time_elapsed":5579769,"internal_node_id":"0.0-7.0-8.0"},{"rt":4014,"responses":"{\"Q0\":\"0\"}","trial_type":"survey-likert","trial_index":214,"time_elapsed":5584794,"internal_node_id":"0.0-7.0-9.0"},{"rt":10920,"responses":"{\"Q0\":\"Different structure\"}","trial_type":"survey-multi-choice","trial_index":215,"time_elapsed":5596731,"internal_node_id":"0.0-7.0-10.0"},{"rt":18453,"responses":"{\"Q0\":\"left (white) door = acid, right (black) door = ray\",\"Q1\":\"Not at all confident\"}","trial_type":"survey-multi-choice","trial_index":216,"time_elapsed":5616216,"internal_node_id":"0.0-7.0-11.0"},{"rt":15961,"responses":"{\"Q0\":\"35-45\",\"Q1\":\"Master's degree\",\"Q2\":\"Female\",\"Q3\":\"White\"}","trial_type":"survey-multi-choice","trial_index":217,"time_elapsed":5633251,"internal_node_id":"0.0-8.0"},{"rt":7067,"responses":"{\"Q0\":\"nope!\"}","trial_type":"survey-text","trial_index":218,"time_elapsed":5641327,"internal_node_id":"0.0-9.0"}]