[{"view_history":"[{\"page_index\":0,\"viewing_time\":2258},{\"page_index\":1,\"viewing_time\":4590}]","rt":6848,"trial_type":"instructions","trial_index":0,"time_elapsed":6849,"internal_node_id":"0.0-0.0"},{"view_history":"[{\"page_index\":0,\"viewing_time\":2398},{\"page_index\":1,\"viewing_time\":1688}]","rt":4086,"trial_type":"instructions","trial_index":1,"time_elapsed":11937,"internal_node_id":"0.0-1.0"},{"group":"square cycles (cube, non-group)","room_assignment":["grey","green","blue","yellow","pink","brown","purple","red"],"door_color_assignment":["black","white"],"door_generator_assignment":[1,0],"goal":5,"start":7,"action_noise":0.1,"location_history":"[7,6,5]","action_history":"[0,0]","door_history":"[1,1]","location_rts":"[1026,230]","trial_type":"two-door-navigation","trial_index":2,"time_elapsed":18735,"internal_node_id":"0.0-2.0-0.0"},{"group":"square cycles (cube, non-group)","room_assignment":["grey","green","blue","yellow","pink","brown","purple","red"],"door_color_assignment":["black","white"],"door_generator_assignment":[1,0],"goal":2,"start":5,"action_noise":0.1,"location_history":"[5,4,5,1,0,4,5,1,0,4,5,1,2]","action_history":"[1,1,1,0,1,1,1,1,1,1,1,0]","door_history":"[0,0,0,1,0,0,0,0,0,0,0,1]","location_rts":"[11712,548,505,1004,787,1128,537,635,1335,1462,382,1059]","trial_type":"two-door-navigation","trial_index":3,"time_elapsed":55567,"internal_node_id":"0.0-2.0-1.0"},{"group":"square cycles (cube, non-group)","room_assignment":["grey","green","blue","yellow","pink","brown","purple","red"],"door_color_assignment":["black","white"],"door_generator_assignment":[1,0],"goal":0,"start":2,"action_noise":0.1,"location_history":"[2,3,0]","action_history":"[1,0]","door_history":"[0,1]","location_rts":"[1151,1154]","trial_type":"two-door-navigation","trial_index":4,"time_elapsed":63412,"internal_node_id":"0.0-2.0-2.0"},{"group":"square cycles (cube, non-group)","room_assignment":["grey","green","blue","yellow","pink","brown","purple","red"],"door_color_assignment":["black","white"],"door_generator_assignment":[1,0],"goal":1,"start":0,"action_noise":0.1,"location_history":"[0,4,7,6,5,1]","action_history":"[1,1,0,0,1]","door_history":"[0,0,1,1,0]","location_rts":"[1117,348,812,516,842]","trial_type":"two-door-navigation","trial_index":5,"time_elapsed":75655,"internal_node_id":"0.0-2.0-3.0"},{"group":"square cycles (cube, non-group)","room_assignment":["grey","green","blue","yellow","pink","brown","purple","red"],"door_color_assignment":["black","white"],"door_generator_assignment":[1,0],"goal":6,"start":1,"action_noise":0.1,"location_history":"[1,0,4,5,1,2,3,2,6]","action_history":"[0,1,1,1,0,1,1,1]","door_history":"[1,0,0,0,1,0,0,0]","location_rts":"[5923,555,381,406,863,729,2153,304]","trial_type":"two-door-navigation","trial_index":6,"time_elapsed":98646,"internal_node_id":"0.0-2.0-4.0"},{"group":"square cycles (cube, non-group)","room_assignment":["grey","green","blue","yellow","pink","brown","purple","red"],"door_color_assignment":["black","white"],"door_generator_assignment":[1,0],"goal":3,"start":6,"action_noise":0.1,"location_history":"[6,5,1,2,6,7,6,7,6,5,1,2,6,7,3]","action_history":"[0,1,0,1,1,0,1,0,0,1,0,1,1,1]","door_history":"[1,0,1,0,0,1,0,1,1,0,1,0,0,0]","location_rts":"[5080,1521,3778,1541,2233,543,615,440,343,731,536,603,416,367]","trial_type":"two-door-navigation","trial_index":7,"time_elapsed":135095,"internal_node_id":"0.0-2.0-5.0"},{"group":"square cycles (cube, non-group)","room_assignment":["grey","green","blue","yellow","pink","brown","purple","red"],"door_color_assignment":["black","white"],"door_generator_assignment":[1,0],"goal":4,"start":3,"action_noise":0.1,"location_history":"[3,2,6,5,1,2,6,7,3,2,6,7,6,5,1,2,6,7,6,7,6,5,1,2,3,0,4]","action_history":"[1,1,0,0,0,1,1,1,1,1,1,0,0,1,1,1,0,0,0,1,0,1,0,1,0,1]","door_history":"[0,0,1,1,1,0,0,0,0,0,0,1,1,0,0,0,1,1,1,0,1,0,1,0,1,0]","location_rts":"[672,1031,544,350,424,304,386,607,797,583,607,299,515,365,423,323,484,216,333,103,151,703,303,859,667,792]","trial_type":"two-door-navigation","trial_index":8,"time_elapsed":177871,"internal_node_id":"0.0-2.0-6.0"},{"group":"square cycles (cube, non-group)","room_assignment":["grey","green","blue","yellow","pink","brown","purple","red"],"door_color_assignment":["black","white"],"door_generator_assignment":[1,0],"goal":1,"start":4,"action_noise":0.1,"location_history":"[4,5,1]","action_history":"[1,1]","door_history":"[0,0]","location_rts":"[543,400]","trial_type":"two-door-navigation","trial_index":9,"time_elapsed":184307,"internal_node_id":"0.0-2.0-7.0"},{"group":"square cycles (cube, non-group)","room_assignment":["grey","green","blue","yellow","pink","brown","purple","red"],"door_color_assignment":["black","white"],"door_generator_assignment":[1,0],"goal":4,"start":1,"action_noise":0.1,"location_history":"[1,2,6,5,4]","action_history":"[0,1,0,1]","door_history":"[1,0,1,0]","location_rts":"[282,970,743,440]","trial_type":"two-door-navigation","trial_index":10,"time_elapsed":194310,"internal_node_id":"0.0-2.0-8.0"},{"group":"square cycles (cube, non-group)","room_assignment":["grey","green","blue","yellow","pink","brown","purple","red"],"door_color_assignment":["black","white"],"door_generator_assignment":[1,0],"goal":5,"start":4,"action_noise":0.1,"location_history":"[4,5]","action_history":"[1]","door_history":"[0]","location_rts":"[432]","trial_type":"two-door-navigation","trial_index":11,"time_elapsed":199261,"internal_node_id":"0.0-2.0-9.0"},{"group":"square cycles (cube, non-group)","room_assignment":["grey","green","blue","yellow","pink","brown","purple","red"],"door_color_assignment":["black","white"],"door_generator_assignment":[1,0],"goal":3,"start":5,"action_noise":0.1,"location_history":"[5,1,2,6,7,6,7,3]","action_history":"[1,0,1,0,0,1,1]","door_history":"[0,1,0,1,1,0,0]","location_rts":"[3231,817,425,738,1007,418,384]","trial_type":"two-door-navigation","trial_index":12,"time_elapsed":216891,"internal_node_id":"0.0-2.0-10.0"},{"group":"square cycles (cube, non-group)","room_assignment":["grey","green","blue","yellow","pink","brown","purple","red"],"door_color_assignment":["black","white"],"door_generator_assignment":[1,0],"goal":6,"start":3,"action_noise":0.1,"location_history":"[3,0,4,5,1,2,6]","action_history":"[0,1,1,0,0,1]","door_history":"[1,0,0,1,1,0]","location_rts":"[1818,903,809,304,752,456]","trial_type":"two-door-navigation","trial_index":13,"time_elapsed":231538,"internal_node_id":"0.0-2.0-11.0"},{"group":"square cycles (cube, non-group)","room_assignment":["grey","green","blue","yellow","pink","brown","purple","red"],"door_color_assignment":["black","white"],"door_generator_assignment":[1,0],"goal":7,"start":6,"action_noise":0.1,"location_history":"[6,7]","action_history":"[1]","door_history":"[0]","location_rts":"[2035]","trial_type":"two-door-navigation","trial_index":14,"time_elapsed":238095,"internal_node_id":"0.0-2.0-12.0"},{"group":"square cycles (cube, non-group)","room_assignment":["grey","green","blue","yellow","pink","brown","purple","red"],"door_color_assignment":["black","white"],"door_generator_assignment":[1,0],"goal":0,"start":7,"action_noise":0.1,"location_history":"[7,6,7,3,0]","action_history":"[0,1,1,0]","door_history":"[1,0,0,1]","location_rts":"[4672,2438,2535,4813]","trial_type":"two-door-navigation","trial_index":15,"time_elapsed":260125,"internal_node_id":"0.0-2.0-13.0"},{"group":"square cycles (cube, non-group)","room_assignment":["grey","green","blue","yellow","pink","brown","purple","red"],"door_color_assignment":["black","white"],"door_generator_assignment":[1,0],"goal":2,"start":0,"action_noise":0.1,"location_history":"[0,4,5,1,2]","action_history":"[1,1,1,0]","door_history":"[0,0,0,1]","location_rts":"[436,422,487,657]","trial_type":"two-door-navigation","trial_index":16,"time_elapsed":269695,"internal_node_id":"0.0-2.0-14.0"},{"group":"square cycles (cube, non-group)","room_assignment":["grey","green","blue","yellow","pink","brown","purple","red"],"door_color_assignment":["black","white"],"door_generator_assignment":[1,0],"goal":1,"start":2,"action_noise":0.1,"location_history":"[2,3,0,4,5,1]","action_history":"[1,0,1,1,1]","door_history":"[0,1,0,0,0]","location_rts":"[703,530,976,624,434]","trial_type":"two-door-navigation","trial_index":17,"time_elapsed":281543,"internal_node_id":"0.0-2.0-15.0"},{"group":"square cycles (cube, non-group)","room_assignment":["grey","green","blue","yellow","pink","brown","purple","red"],"door_color_assignment":["black","white"],"door_generator_assignment":[1,0],"goal":6,"start":1,"action_noise":0.1,"location_history":"[1,2,6]","action_history":"[0,1]","door_history":"[1,0]","location_rts":"[776,2142]","trial_type":"two-door-navigation","trial_index":18,"time_elapsed":290001,"internal_node_id":"0.0-2.0-16.0"},{"group":"square cycles (cube, non-group)","room_assignment":["grey","green","blue","yellow","pink","brown","purple","red"],"door_color_assignment":["black","white"],"door_generator_assignment":[1,0],"goal":3,"start":6,"action_noise":0.1,"location_history":"[6,7,6,5,1,2,6,7,3]","action_history":"[1,0,0,1,0,1,1,0]","door_history":"[0,1,1,0,1,0,0,1]","location_rts":"[311,371,808,836,848,582,497,856]","trial_type":"two-door-navigation","trial_index":19,"time_elapsed":306700,"internal_node_id":"0.0-2.0-17.0"},{"group":"square cycles (cube, non-group)","room_assignment":["grey","green","blue","yellow","pink","brown","purple","red"],"door_color_assignment":["black","white"],"door_generator_assignment":[1,0],"goal":4,"start":3,"action_noise":0.1,"location_history":"[3,0,4]","action_history":"[0,1]","door_history":"[1,0]","location_rts":"[1265,279]","trial_type":"two-door-navigation","trial_index":20,"time_elapsed":313779,"internal_node_id":"0.0-2.0-18.0"},{"group":"square cycles (cube, non-group)","room_assignment":["grey","green","blue","yellow","pink","brown","purple","red"],"door_color_assignment":["black","white"],"door_generator_assignment":[1,0],"goal":5,"start":4,"action_noise":0.1,"location_history":"[4,5]","action_history":"[1]","door_history":"[0]","location_rts":"[1616]","trial_type":"two-door-navigation","trial_index":21,"time_elapsed":319917,"internal_node_id":"0.0-2.0-19.0"},{"group":"square cycles (cube, non-group)","room_assignment":["grey","green","blue","yellow","pink","brown","purple","red"],"door_color_assignment":["black","white"],"door_generator_assignment":[1,0],"goal":7,"start":5,"action_noise":0.1,"location_history":"[5,1,2,6,7]","action_history":"[1,0,1,1]","door_history":"[0,1,0,0]","location_rts":"[439,681,568,429]","trial_type":"two-door-navigation","trial_index":22,"time_elapsed":329605,"internal_node_id":"0.0-2.0-20.0"},{"group":"square cycles (cube, non-group)","room_assignment":["grey","green","blue","yellow","pink","brown","purple","red"],"door_color_assignment":["black","white"],"door_generator_assignment":[1,0],"goal":2,"start":7,"action_noise":0.1,"location_history":"[7,3,0,4,5,4,5,4,7,3,2]","action_history":"[0,0,1,1,1,1,0,0,1,0]","door_history":"[1,1,0,0,0,0,1,1,0,1]","location_rts":"[806,1062,405,578,431,409,433,393,408,364]","trial_type":"two-door-navigation","trial_index":23,"time_elapsed":348565,"internal_node_id":"0.0-2.0-21.0"},{"group":"square cycles (cube, non-group)","room_assignment":["grey","green","blue","yellow","pink","brown","purple","red"],"door_color_assignment":["black","white"],"door_generator_assignment":[1,0],"goal":0,"start":2,"action_noise":0.1,"location_history":"[2,6,7,6,5,4,5,4,7,3,2,6,7,3,2,6,7,3,0]","action_history":"[1,1,0,0,0,1,1,0,1,1,1,0,1,1,1,1,1,0]","door_history":"[0,0,1,1,1,0,0,1,0,0,0,1,0,0,0,0,0,1]","location_rts":"[1062,513,605,480,519,354,336,585,329,394,460,487,245,378,441,398,393,509]","trial_type":"two-door-navigation","trial_index":24,"time_elapsed":378840,"internal_node_id":"0.0-2.0-22.0"},{"group":"square cycles (cube, non-group)","room_assignment":["grey","green","blue","yellow","pink","brown","purple","red"],"door_color_assignment":["black","white"],"door_generator_assignment":[1,0],"goal":7,"start":0,"action_noise":0.1,"location_history":"[0,4,5,4,5,4,5,4,7]","action_history":"[1,1,0,1,1,1,0,0]","door_history":"[0,0,1,0,0,0,1,1]","location_rts":"[592,510,299,129,369,364,440,325]","trial_type":"two-door-navigation","trial_index":25,"time_elapsed":393506,"internal_node_id":"0.0-2.0-23.0"},{"group":"square cycles (cube, non-group)","room_assignment":["grey","green","blue","yellow","pink","brown","purple","red"],"door_color_assignment":["black","white"],"door_generator_assignment":[1,0],"goal":5,"start":7,"action_noise":0.1,"location_history":"[7,6,5]","action_history":"[0,0]","door_history":"[1,1]","location_rts":"[389,521]","trial_type":"two-door-navigation","trial_index":26,"time_elapsed":399950,"internal_node_id":"0.0-2.0-24.0"},{"group":"square cycles (cube, non-group)","room_assignment":["grey","green","blue","yellow","pink","brown","purple","red"],"door_color_assignment":["black","white"],"door_generator_assignment":[1,0],"goal":0,"start":5,"action_noise":0.1,"location_history":"[5,1,2,3,2,6,7,6,5,1,2,6,7,6,7,6,7,6,5,4,5,1,2,6,7,3,2,6,5,1,0]","action_history":"[1,0,1,1,1,1,0,1,1,0,1,1,0,0,0,1,0,0,0,1,1,0,1,1,1,1,1,0,1,0]","door_history":"[0,1,0,0,0,0,1,0,0,1,0,0,1,1,1,0,1,1,1,0,0,1,0,0,0,0,0,1,0,1]","location_rts":"[681,1586,360,430,697,760,97862,1947,429,456,407,2729,972,382,352,537,775,431,351,255,345,863,382,355,781,1624,568,693,643,680]","trial_type":"two-door-navigation","trial_index":27,"time_elapsed":553291,"internal_node_id":"0.0-2.0-25.0"},{"group":"square cycles (cube, non-group)","room_assignment":["grey","green","blue","yellow","pink","brown","purple","red"],"door_color_assignment":["black","white"],"door_generator_assignment":[1,0],"goal":6,"start":0,"action_noise":0.1,"location_history":"[0,4,5,1,2,6]","action_history":"[1,1,1,0,1]","door_history":"[0,0,0,1,0]","location_rts":"[975,845,671,493,841]","trial_type":"two-door-navigation","trial_index":28,"time_elapsed":565704,"internal_node_id":"0.0-2.0-26.0"},{"group":"square cycles (cube, non-group)","room_assignment":["grey","green","blue","yellow","pink","brown","purple","red"],"door_color_assignment":["black","white"],"door_generator_assignment":[1,0],"goal":4,"start":6,"action_noise":0.1,"location_history":"[6,7,6,7,6,5,1,2,6,7,3,2,6,7,3,2,6,7,6,5,1,2,3,0,4]","action_history":"[1,0,0,1,0,1,0,1,1,0,1,1,1,0,0,1,1,0,0,1,0,1,1,1]","door_history":"[0,1,1,0,1,0,1,0,0,1,0,0,0,1,1,0,0,1,1,0,1,0,0,0]","location_rts":"[432,1479,457,296,376,816,711,618,633,1040,2161,384,497,800,457,1029,1040,777,348,423,737,437,396,391]","trial_type":"two-door-navigation","trial_index":29,"time_elapsed":610340,"internal_node_id":"0.0-2.0-27.0"},{"group":"square cycles (cube, non-group)","room_assignment":["grey","green","blue","yellow","pink","brown","purple","red"],"door_color_assignment":["black","white"],"door_generator_assignment":[1,0],"goal":2,"start":4,"action_noise":0.1,"location_history":"[4,5,1,0,4,5,1,2]","action_history":"[1,1,0,1,1,1,0]","door_history":"[0,0,1,0,0,0,1]","location_rts":"[358,352,646,690,341,424,1000]","trial_type":"two-door-navigation","trial_index":30,"time_elapsed":624768,"internal_node_id":"0.0-2.0-28.0"},{"group":"square cycles (cube, non-group)","room_assignment":["grey","green","blue","yellow","pink","brown","purple","red"],"door_color_assignment":["black","white"],"door_generator_assignment":[1,0],"goal":3,"start":2,"action_noise":0.1,"location_history":"[2,6,7,6,5,1,2,6,7,6,7,6,5,1,2,6,7,6,5,1,2,3]","action_history":"[1,1,0,0,1,0,1,1,0,1,0,0,1,0,1,1,0,0,1,0,1]","door_history":"[0,0,1,1,0,1,0,0,1,0,1,1,0,1,0,0,1,1,0,1,0]","location_rts":"[937,559,1152,329,979,1350,393,326,750,893,1376,369,795,879,450,768,493,440,735,565,535]","trial_type":"two-door-navigation","trial_index":31,"time_elapsed":664708,"internal_node_id":"0.0-2.0-29.0"},{"group":"square cycles (cube, non-group)","room_assignment":["grey","green","blue","yellow","pink","brown","purple","red"],"door_color_assignment":["black","white"],"door_generator_assignment":[1,0],"goal":1,"start":3,"action_noise":0.1,"location_history":"[3,2,6,5,1]","action_history":"[1,1,0,1]","door_history":"[0,0,1,0]","location_rts":"[496,665,413,449]","trial_type":"two-door-navigation","trial_index":32,"time_elapsed":674297,"internal_node_id":"0.0-2.0-30.0"},{"group":"square cycles (cube, non-group)","room_assignment":["grey","green","blue","yellow","pink","brown","purple","red"],"door_color_assignment":["black","white"],"door_generator_assignment":[1,0],"goal":4,"start":1,"action_noise":0.1,"location_history":"[1,2,6,7,6,7,6,5,1,0,1,0,4]","action_history":"[0,1,1,0,1,0,0,1,1,0,1,1]","door_history":"[1,0,0,1,0,1,1,0,0,1,0,0]","location_rts":"[378,404,370,1108,346,311,110,358,421,590,385,255]","trial_type":"two-door-navigation","trial_index":33,"time_elapsed":695040,"internal_node_id":"0.0-2.0-31.0"},{"group":"square cycles (cube, non-group)","room_assignment":["grey","green","blue","yellow","pink","brown","purple","red"],"door_color_assignment":["black","white"],"door_generator_assignment":[1,0],"goal":3,"start":4,"action_noise":0.1,"location_history":"[4,5,1,2,6,5,1,2,6,7,3]","action_history":"[1,1,0,1,0,0,0,1,1,1]","door_history":"[0,0,1,0,1,1,1,0,0,0]","location_rts":"[481,559,810,473,438,304,766,472,381,325]","trial_type":"two-door-navigation","trial_index":34,"time_elapsed":713716,"internal_node_id":"0.0-2.0-32.0"},{"group":"square cycles (cube, non-group)","room_assignment":["grey","green","blue","yellow","pink","brown","purple","red"],"door_color_assignment":["black","white"],"door_generator_assignment":[1,0],"goal":6,"start":3,"action_noise":0.1,"location_history":"[3,2,3,0,4,7,3,2,6]","action_history":"[1,0,0,1,1,1,1,1]","door_history":"[0,1,1,0,0,0,0,0]","location_rts":"[5150,344,607,913,278,369,240,3528]","trial_type":"two-door-navigation","trial_index":35,"time_elapsed":736783,"internal_node_id":"0.0-2.0-33.0"},{"group":"square cycles (cube, non-group)","room_assignment":["grey","green","blue","yellow","pink","brown","purple","red"],"door_color_assignment":["black","white"],"door_generator_assignment":[1,0],"goal":0,"start":6,"action_noise":0.1,"location_history":"[6,5,1,0]","action_history":"[0,1,1]","door_history":"[1,0,0]","location_rts":"[529,1267,3660]","trial_type":"two-door-navigation","trial_index":36,"time_elapsed":748785,"internal_node_id":"0.0-2.0-34.0"},{"group":"square cycles (cube, non-group)","room_assignment":["grey","green","blue","yellow","pink","brown","purple","red"],"door_color_assignment":["black","white"],"door_generator_assignment":[1,0],"goal":1,"start":0,"action_noise":0.1,"location_history":"[0,1]","action_history":"[0]","door_history":"[1]","location_rts":"[964]","trial_type":"two-door-navigation","trial_index":37,"time_elapsed":754271,"internal_node_id":"0.0-2.0-35.0"},{"group":"square cycles (cube, non-group)","room_assignment":["grey","green","blue","yellow","pink","brown","purple","red"],"door_color_assignment":["black","white"],"door_generator_assignment":[1,0],"goal":5,"start":1,"action_noise":0.1,"location_history":"[1,0,4,5]","action_history":"[1,1,1]","door_history":"[0,0,0]","location_rts":"[540,2243,3175]","trial_type":"two-door-navigation","trial_index":38,"time_elapsed":766780,"internal_node_id":"0.0-2.0-36.0"},{"group":"square cycles (cube, non-group)","room_assignment":["grey","green","blue","yellow","pink","brown","purple","red"],"door_color_assignment":["black","white"],"door_generator_assignment":[1,0],"goal":7,"start":5,"action_noise":0.1,"location_history":"[5,4,7]","action_history":"[0,0]","door_history":"[1,1]","location_rts":"[6360,678]","trial_type":"two-door-navigation","trial_index":39,"time_elapsed":779354,"internal_node_id":"0.0-2.0-37.0"},{"group":"square cycles (cube, non-group)","room_assignment":["grey","green","blue","yellow","pink","brown","purple","red"],"door_color_assignment":["black","white"],"door_generator_assignment":[1,0],"goal":2,"start":7,"action_noise":0.1,"location_history":"[7,6,7,6,5,1,2]","action_history":"[0,1,0,0,0,0]","door_history":"[1,0,1,1,1,1]","location_rts":"[4841,17441,319,1615,277,407]","trial_type":"two-door-navigation","trial_index":40,"time_elapsed":813863,"internal_node_id":"0.0-2.0-38.0"},{"group":"square cycles (cube, non-group)","room_assignment":["grey","green","blue","yellow","pink","brown","purple","red"],"door_color_assignment":["black","white"],"door_generator_assignment":[1,0],"goal":1,"start":2,"action_noise":0.1,"location_history":"[2,6,7,3,2,3,0,4,5,1]","action_history":"[1,1,1,1,0,0,0,1,1]","door_history":"[0,0,0,0,1,1,1,0,0]","location_rts":"[915,8199,375,357,673,376,657,584,235]","trial_type":"two-door-navigation","trial_index":41,"time_elapsed":838889,"internal_node_id":"0.0-2.0-39.0"},{"group":"square cycles (cube, non-group)","room_assignment":["grey","green","blue","yellow","pink","brown","purple","red"],"door_color_assignment":["black","white"],"door_generator_assignment":[1,0],"goal":3,"start":1,"action_noise":0.1,"location_history":"[1,0,1,2,3]","action_history":"[1,0,0,0]","door_history":"[0,1,1,1]","location_rts":"[1080,694,381,251]","trial_type":"two-door-navigation","trial_index":42,"time_elapsed":848866,"internal_node_id":"0.0-2.0-40.0"},{"group":"square cycles (cube, non-group)","room_assignment":["grey","green","blue","yellow","pink","brown","purple","red"],"door_color_assignment":["black","white"],"door_generator_assignment":[1,0],"goal":4,"start":3,"action_noise":0.1,"location_history":"[3,0,4]","action_history":"[0,1]","door_history":"[1,0]","location_rts":"[414,272]","trial_type":"two-door-navigation","trial_index":43,"time_elapsed":855090,"internal_node_id":"0.0-2.0-41.0"},{"group":"square cycles (cube, non-group)","room_assignment":["grey","green","blue","yellow","pink","brown","purple","red"],"door_color_assignment":["black","white"],"door_generator_assignment":[1,0],"goal":2,"start":4,"action_noise":0.1,"location_history":"[4,5,1,2]","action_history":"[1,1,0]","door_history":"[0,0,1]","location_rts":"[589,442,1151]","trial_type":"two-door-navigation","trial_index":44,"time_elapsed":863824,"internal_node_id":"0.0-2.0-42.0"},{"group":"square cycles (cube, non-group)","room_assignment":["grey","green","blue","yellow","pink","brown","purple","red"],"door_color_assignment":["black","white"],"door_generator_assignment":[1,0],"goal":5,"start":2,"action_noise":0.1,"location_history":"[2,3,0,4,5]","action_history":"[1,0,1,1]","door_history":"[0,1,0,0]","location_rts":"[1209,1640,4547,7400]","trial_type":"two-door-navigation","trial_index":45,"time_elapsed":886194,"internal_node_id":"0.0-2.0-43.0"},{"group":"square cycles (cube, non-group)","room_assignment":["grey","green","blue","yellow","pink","brown","purple","red"],"door_color_assignment":["black","white"],"door_generator_assignment":[1,0],"goal":0,"start":5,"action_noise":0.1,"location_history":"[5,1,2,6,7,3,2,6,5,1,2,6,5,1,2,6,7,3,2,6,7,3,0]","action_history":"[1,0,1,1,0,0,1,1,1,0,1,0,1,0,0,1,1,1,1,1,1,0]","door_history":"[0,1,0,0,1,1,0,0,0,1,0,1,0,1,1,0,0,0,0,0,0,1]","location_rts":"[7093,740,608,2775,646,610,778,406,317,752,662,424,796,710,274,640,385,469,650,394,769,113]","trial_type":"two-door-navigation","trial_index":46,"time_elapsed":933070,"internal_node_id":"0.0-2.0-44.0"},{"group":"square cycles (cube, non-group)","room_assignment":["grey","green","blue","yellow","pink","brown","purple","red"],"door_color_assignment":["black","white"],"door_generator_assignment":[1,0],"goal":7,"start":0,"action_noise":0.1,"location_history":"[0,4,5,1,2,3,2,6,7]","action_history":"[1,1,1,0,0,1,1,1]","door_history":"[0,0,0,1,1,0,0,0]","location_rts":"[5521,10267,18576,392,397,340,280,485]","trial_type":"two-door-navigation","trial_index":47,"time_elapsed":980972,"internal_node_id":"0.0-2.0-45.0"},{"group":"square cycles (cube, non-group)","room_assignment":["grey","green","blue","yellow","pink","brown","purple","red"],"door_color_assignment":["black","white"],"door_generator_assignment":[1,0],"goal":6,"start":7,"action_noise":0.1,"location_history":"[7,6]","action_history":"[0]","door_history":"[1]","location_rts":"[1120]","trial_type":"two-door-navigation","trial_index":48,"time_elapsed":986614,"internal_node_id":"0.0-2.0-46.0"},{"group":"square cycles (cube, non-group)","room_assignment":["grey","green","blue","yellow","pink","brown","purple","red"],"door_color_assignment":["black","white"],"door_generator_assignment":[1,0],"goal":2,"start":6,"action_noise":0.1,"location_history":"[6,7,3,2]","action_history":"[1,1,1]","door_history":"[0,0,0]","location_rts":"[517,537,414]","trial_type":"two-door-navigation","trial_index":49,"time_elapsed":994640,"internal_node_id":"0.0-2.0-47.0"},{"group":"square cycles (cube, non-group)","room_assignment":["grey","green","blue","yellow","pink","brown","purple","red"],"door_color_assignment":["black","white"],"door_generator_assignment":[1,0],"goal":5,"start":2,"action_noise":0.1,"location_history":"[2,6,5]","action_history":"[1,0]","door_history":"[0,1]","location_rts":"[461,703]","trial_type":"two-door-navigation","trial_index":50,"time_elapsed":1001336,"internal_node_id":"0.0-2.0-48.0"},{"group":"square cycles (cube, non-group)","room_assignment":["grey","green","blue","yellow","pink","brown","purple","red"],"door_color_assignment":["black","white"],"door_generator_assignment":[1,0],"goal":3,"start":5,"action_noise":0.1,"location_history":"[5,1,2,3]","action_history":"[1,0,1]","door_history":"[0,1,0]","location_rts":"[1361,1275,751]","trial_type":"two-door-navigation","trial_index":51,"time_elapsed":1011277,"internal_node_id":"0.0-2.0-49.0"},{"view_history":"[{\"page_index\":0,\"viewing_time\":1757}]","rt":1757,"trial_type":"instructions","trial_index":52,"time_elapsed":1014035,"internal_node_id":"0.0-3.0"},{"view_history":"[{\"page_index\":0,\"viewing_time\":1287},{\"page_index\":1,\"viewing_time\":1496}]","rt":2783,"trial_type":"instructions","trial_index":53,"time_elapsed":1017818,"internal_node_id":"0.0-4.0"},{"group":"square cycles (cube, non-group)","fractal_assignment":["../images/ylw_pnk.png","../images/ylw_slt.png","../images/gry_blk.png","../images/cyn_red.png","../images/grn_red.png","../images/pnk_blu.png","../images/blu_wht.png","../images/org_blu.png"],"mutagen_generator_assignment":[1,0],"goal":5,"start":7,"action_noise":0.1,"location_history":"[7,3,2,6,7,6,7,3,2,6,7,3,0,1,2,6,5]","action_history":"[1,1,0,1,0,0,1,1,1,1,1,0,0,0,0,0]","mutagen_history":"[0,0,1,0,1,1,0,0,0,0,0,1,1,1,1,1]","location_rts":"[966,698,396,446,829,675,562,433,487,394,902,458,317,478,546,483]","trial_type":"fractal-mutation","trial_index":54,"time_elapsed":1046918,"internal_node_id":"0.0-5.0-0.0"},{"group":"square cycles (cube, non-group)","fractal_assignment":["../images/ylw_pnk.png","../images/ylw_slt.png","../images/gry_blk.png","../images/cyn_red.png","../images/grn_red.png","../images/pnk_blu.png","../images/blu_wht.png","../images/org_blu.png"],"mutagen_generator_assignment":[1,0],"goal":2,"start":5,"action_noise":0.1,"location_history":"[5,4,5,1,0,1,0,4,5,4,5,1,2]","action_history":"[0,1,1,1,0,1,1,1,0,1,1,0]","mutagen_history":"[1,0,0,0,1,0,0,0,1,0,0,1]","location_rts":"[1386,324,255,552,624,489,303,617,369,367,409,321]","trial_type":"fractal-mutation","trial_index":55,"time_elapsed":1068795,"internal_node_id":"0.0-5.0-1.0"},{"group":"square cycles (cube, non-group)","fractal_assignment":["../images/ylw_pnk.png","../images/ylw_slt.png","../images/gry_blk.png","../images/cyn_red.png","../images/grn_red.png","../images/pnk_blu.png","../images/blu_wht.png","../images/org_blu.png"],"mutagen_generator_assignment":[1,0],"goal":0,"start":2,"action_noise":0.1,"location_history":"[2,6,7,3,2,6,7,3,0]","action_history":"[1,0,0,1,1,1,1,0]","mutagen_history":"[0,1,1,0,0,0,0,1]","location_rts":"[875,455,987,410,355,417,482,480]","trial_type":"fractal-mutation","trial_index":56,"time_elapsed":1085008,"internal_node_id":"0.0-5.0-2.0"},{"group":"square cycles (cube, non-group)","fractal_assignment":["../images/ylw_pnk.png","../images/ylw_slt.png","../images/gry_blk.png","../images/cyn_red.png","../images/grn_red.png","../images/pnk_blu.png","../images/blu_wht.png","../images/org_blu.png"],"mutagen_generator_assignment":[1,0],"goal":1,"start":0,"action_noise":0.1,"location_history":"[0,1]","action_history":"[0]","mutagen_history":"[1]","location_rts":"[1264]","trial_type":"fractal-mutation","trial_index":57,"time_elapsed":1090806,"internal_node_id":"0.0-5.0-3.0"},{"group":"square cycles (cube, non-group)","fractal_assignment":["../images/ylw_pnk.png","../images/ylw_slt.png","../images/gry_blk.png","../images/cyn_red.png","../images/grn_red.png","../images/pnk_blu.png","../images/blu_wht.png","../images/org_blu.png"],"mutagen_generator_assignment":[1,0],"goal":6,"start":1,"action_noise":0.1,"location_history":"[1,2,6]","action_history":"[1,1]","mutagen_history":"[0,0]","location_rts":"[3602,543]","trial_type":"fractal-mutation","trial_index":58,"time_elapsed":1100507,"internal_node_id":"0.0-5.0-4.0"},{"group":"square cycles (cube, non-group)","fractal_assignment":["../images/ylw_pnk.png","../images/ylw_slt.png","../images/gry_blk.png","../images/cyn_red.png","../images/grn_red.png","../images/pnk_blu.png","../images/blu_wht.png","../images/org_blu.png"],"mutagen_generator_assignment":[1,0],"goal":3,"start":6,"action_noise":0.1,"location_history":"[6,5,1,0,4,7,3]","action_history":"[0,1,1,0,0,1]","mutagen_history":"[1,0,0,1,1,0]","location_rts":"[1051,652,1203,527,456,1100]","trial_type":"fractal-mutation","trial_index":59,"time_elapsed":1115154,"internal_node_id":"0.0-5.0-5.0"},{"group":"square cycles (cube, non-group)","fractal_assignment":["../images/ylw_pnk.png","../images/ylw_slt.png","../images/gry_blk.png","../images/cyn_red.png","../images/grn_red.png","../images/pnk_blu.png","../images/blu_wht.png","../images/org_blu.png"],"mutagen_generator_assignment":[1,0],"goal":4,"start":3,"action_noise":0.1,"location_history":"[3,2,6,7,3,2,3,0,1,0,4]","action_history":"[1,1,0,1,1,1,0,0,1,1]","mutagen_history":"[0,0,1,0,0,0,1,1,0,0]","location_rts":"[725,1073,491,420,422,530,460,486,383,291]","trial_type":"fractal-mutation","trial_index":60,"time_elapsed":1134196,"internal_node_id":"0.0-5.0-6.0"},{"group":"square cycles (cube, non-group)","fractal_assignment":["../images/ylw_pnk.png","../images/ylw_slt.png","../images/gry_blk.png","../images/cyn_red.png","../images/grn_red.png","../images/pnk_blu.png","../images/blu_wht.png","../images/org_blu.png"],"mutagen_generator_assignment":[1,0],"goal":1,"start":4,"action_noise":0.1,"location_history":"[4,5,4,5,1]","action_history":"[1,0,1,1]","mutagen_history":"[0,1,0,0]","location_rts":"[450,796,317,249]","trial_type":"fractal-mutation","trial_index":61,"time_elapsed":1143630,"internal_node_id":"0.0-5.0-7.0"},{"group":"square cycles (cube, non-group)","fractal_assignment":["../images/ylw_pnk.png","../images/ylw_slt.png","../images/gry_blk.png","../images/cyn_red.png","../images/grn_red.png","../images/pnk_blu.png","../images/blu_wht.png","../images/org_blu.png"],"mutagen_generator_assignment":[1,0],"goal":4,"start":1,"action_noise":0.1,"location_history":"[1,0,4]","action_history":"[1,1]","mutagen_history":"[0,0]","location_rts":"[544,679]","trial_type":"fractal-mutation","trial_index":62,"time_elapsed":1150404,"internal_node_id":"0.0-5.0-8.0"},{"group":"square cycles (cube, non-group)","fractal_assignment":["../images/ylw_pnk.png","../images/ylw_slt.png","../images/gry_blk.png","../images/cyn_red.png","../images/grn_red.png","../images/pnk_blu.png","../images/blu_wht.png","../images/org_blu.png"],"mutagen_generator_assignment":[1,0],"goal":5,"start":4,"action_noise":0.1,"location_history":"[4,5]","action_history":"[1]","mutagen_history":"[0]","location_rts":"[1219]","trial_type":"fractal-mutation","trial_index":63,"time_elapsed":1156159,"internal_node_id":"0.0-5.0-9.0"},{"group":"square cycles (cube, non-group)","fractal_assignment":["../images/ylw_pnk.png","../images/ylw_slt.png","../images/gry_blk.png","../images/cyn_red.png","../images/grn_red.png","../images/pnk_blu.png","../images/blu_wht.png","../images/org_blu.png"],"mutagen_generator_assignment":[1,0],"goal":3,"start":5,"action_noise":0.1,"location_history":"[5,1,2,3]","action_history":"[1,0,0]","mutagen_history":"[0,1,1]","location_rts":"[694,338,338]","trial_type":"fractal-mutation","trial_index":64,"time_elapsed":1164122,"internal_node_id":"0.0-5.0-10.0"},{"group":"square cycles (cube, non-group)","fractal_assignment":["../images/ylw_pnk.png","../images/ylw_slt.png","../images/gry_blk.png","../images/cyn_red.png","../images/grn_red.png","../images/pnk_blu.png","../images/blu_wht.png","../images/org_blu.png"],"mutagen_generator_assignment":[1,0],"goal":6,"start":3,"action_noise":0.1,"location_history":"[3,2,6]","action_history":"[1,0]","mutagen_history":"[0,1]","location_rts":"[588,365]","trial_type":"fractal-mutation","trial_index":65,"time_elapsed":1170658,"internal_node_id":"0.0-5.0-11.0"},{"group":"square cycles (cube, non-group)","fractal_assignment":["../images/ylw_pnk.png","../images/ylw_slt.png","../images/gry_blk.png","../images/cyn_red.png","../images/grn_red.png","../images/pnk_blu.png","../images/blu_wht.png","../images/org_blu.png"],"mutagen_generator_assignment":[1,0],"goal":7,"start":6,"action_noise":0.1,"location_history":"[6,5,1,2,3,2,6,7]","action_history":"[1,1,0,0,1,1,1]","mutagen_history":"[0,0,1,1,0,0,0]","location_rts":"[668,682,362,331,509,819,420]","trial_type":"fractal-mutation","trial_index":66,"time_elapsed":1185155,"internal_node_id":"0.0-5.0-12.0"},{"group":"square cycles (cube, non-group)","fractal_assignment":["../images/ylw_pnk.png","../images/ylw_slt.png","../images/gry_blk.png","../images/cyn_red.png","../images/grn_red.png","../images/pnk_blu.png","../images/blu_wht.png","../images/org_blu.png"],"mutagen_generator_assignment":[1,0],"goal":0,"start":7,"action_noise":0.1,"location_history":"[7,6,7,3,2,3,2,3,0]","action_history":"[0,1,1,1,0,1,1,0]","mutagen_history":"[1,0,0,0,1,0,0,1]","location_rts":"[2369,306,434,448,350,329,290,322]","trial_type":"fractal-mutation","trial_index":67,"time_elapsed":1201758,"internal_node_id":"0.0-5.0-13.0"},{"group":"square cycles (cube, non-group)","fractal_assignment":["../images/ylw_pnk.png","../images/ylw_slt.png","../images/gry_blk.png","../images/cyn_red.png","../images/grn_red.png","../images/pnk_blu.png","../images/blu_wht.png","../images/org_blu.png"],"mutagen_generator_assignment":[1,0],"goal":2,"start":0,"action_noise":0.1,"location_history":"[0,4,7,3,2]","action_history":"[1,0,0,1]","mutagen_history":"[0,1,1,0]","location_rts":"[985,326,84,253]","trial_type":"fractal-mutation","trial_index":68,"time_elapsed":1211033,"internal_node_id":"0.0-5.0-14.0"},{"group":"square cycles (cube, non-group)","fractal_assignment":["../images/ylw_pnk.png","../images/ylw_slt.png","../images/gry_blk.png","../images/cyn_red.png","../images/grn_red.png","../images/pnk_blu.png","../images/blu_wht.png","../images/org_blu.png"],"mutagen_generator_assignment":[1,0],"goal":1,"start":2,"action_noise":0.1,"location_history":"[2,6,5,4,5,1]","action_history":"[1,0,0,1,1]","mutagen_history":"[0,1,1,0,0]","location_rts":"[331,384,274,584,553]","trial_type":"fractal-mutation","trial_index":69,"time_elapsed":1221809,"internal_node_id":"0.0-5.0-15.0"},{"group":"square cycles (cube, non-group)","fractal_assignment":["../images/ylw_pnk.png","../images/ylw_slt.png","../images/gry_blk.png","../images/cyn_red.png","../images/grn_red.png","../images/pnk_blu.png","../images/blu_wht.png","../images/org_blu.png"],"mutagen_generator_assignment":[1,0],"goal":6,"start":1,"action_noise":0.1,"location_history":"[1,0,1,2,6]","action_history":"[1,0,0,1]","mutagen_history":"[0,1,1,0]","location_rts":"[378,375,248,363]","trial_type":"fractal-mutation","trial_index":70,"time_elapsed":1230781,"internal_node_id":"0.0-5.0-16.0"},{"group":"square cycles (cube, non-group)","fractal_assignment":["../images/ylw_pnk.png","../images/ylw_slt.png","../images/gry_blk.png","../images/cyn_red.png","../images/grn_red.png","../images/pnk_blu.png","../images/blu_wht.png","../images/org_blu.png"],"mutagen_generator_assignment":[1,0],"goal":3,"start":6,"action_noise":0.1,"location_history":"[6,7,3]","action_history":"[1,1]","mutagen_history":"[0,0]","location_rts":"[600,759]","trial_type":"fractal-mutation","trial_index":71,"time_elapsed":1237705,"internal_node_id":"0.0-5.0-17.0"},{"group":"square cycles (cube, non-group)","fractal_assignment":["../images/ylw_pnk.png","../images/ylw_slt.png","../images/gry_blk.png","../images/cyn_red.png","../images/grn_red.png","../images/pnk_blu.png","../images/blu_wht.png","../images/org_blu.png"],"mutagen_generator_assignment":[1,0],"goal":4,"start":3,"action_noise":0.1,"location_history":"[3,0,4]","action_history":"[0,1]","mutagen_history":"[1,0]","location_rts":"[1181,872]","trial_type":"fractal-mutation","trial_index":72,"time_elapsed":1245331,"internal_node_id":"0.0-5.0-18.0"},{"group":"square cycles (cube, non-group)","fractal_assignment":["../images/ylw_pnk.png","../images/ylw_slt.png","../images/gry_blk.png","../images/cyn_red.png","../images/grn_red.png","../images/pnk_blu.png","../images/blu_wht.png","../images/org_blu.png"],"mutagen_generator_assignment":[1,0],"goal":5,"start":4,"action_noise":0.1,"location_history":"[4,5]","action_history":"[1]","mutagen_history":"[0]","location_rts":"[410]","trial_type":"fractal-mutation","trial_index":73,"time_elapsed":1250268,"internal_node_id":"0.0-5.0-19.0"},{"group":"square cycles (cube, non-group)","fractal_assignment":["../images/ylw_pnk.png","../images/ylw_slt.png","../images/gry_blk.png","../images/cyn_red.png","../images/grn_red.png","../images/pnk_blu.png","../images/blu_wht.png","../images/org_blu.png"],"mutagen_generator_assignment":[1,0],"goal":7,"start":5,"action_noise":0.1,"location_history":"[5,1,2,3,2,6,7]","action_history":"[1,0,0,1,1,1]","mutagen_history":"[0,1,1,0,0,0]","location_rts":"[369,674,257,224,391,433]","trial_type":"fractal-mutation","trial_index":74,"time_elapsed":1262927,"internal_node_id":"0.0-5.0-20.0"},{"group":"square cycles (cube, non-group)","fractal_assignment":["../images/ylw_pnk.png","../images/ylw_slt.png","../images/gry_blk.png","../images/cyn_red.png","../images/grn_red.png","../images/pnk_blu.png","../images/blu_wht.png","../images/org_blu.png"],"mutagen_generator_assignment":[1,0],"goal":2,"start":7,"action_noise":0.1,"location_history":"[7,6,7,3,0,4,5,4,5,4,5,1,0,4,7,6,5,4,5,1,0,4,5,4,7,6,7,3,0,4,7,3,2]","action_history":"[0,1,1,1,1,1,0,0,0,1,1,1,0,0,0,0,0,1,1,1,1,1,0,0,0,1,1,1,1,0,1,1]","mutagen_history":"[1,0,0,0,0,0,1,1,1,0,0,0,1,1,1,1,1,0,0,0,0,0,1,1,1,0,0,0,0,1,0,0]","location_rts":"[234187,2219,1052,491,556,681,320,432,1473,383,297,506,570,415,420,435,476,350,376,452,347,475,524,559,737,385,404,454,330,406,382,488]","trial_type":"fractal-mutation","trial_index":75,"time_elapsed":1551978,"internal_node_id":"0.0-5.0-21.0"},{"group":"square cycles (cube, non-group)","fractal_assignment":["../images/ylw_pnk.png","../images/ylw_slt.png","../images/gry_blk.png","../images/cyn_red.png","../images/grn_red.png","../images/pnk_blu.png","../images/blu_wht.png","../images/org_blu.png"],"mutagen_generator_assignment":[1,0],"goal":0,"start":2,"action_noise":0.1,"location_history":"[2,3,2,6,5,1,0]","action_history":"[0,1,1,0,1,1]","mutagen_history":"[1,0,0,1,0,0]","location_rts":"[1559,1276,617,1234,1340,444]","trial_type":"fractal-mutation","trial_index":76,"time_elapsed":1568114,"internal_node_id":"0.0-5.0-22.0"},{"group":"square cycles (cube, non-group)","fractal_assignment":["../images/ylw_pnk.png","../images/ylw_slt.png","../images/gry_blk.png","../images/cyn_red.png","../images/grn_red.png","../images/pnk_blu.png","../images/blu_wht.png","../images/org_blu.png"],"mutagen_generator_assignment":[1,0],"goal":7,"start":0,"action_noise":0.1,"location_history":"[0,1,0,1,2,6,7]","action_history":"[0,0,1,0,1,1]","mutagen_history":"[1,1,0,1,0,0]","location_rts":"[2527,380,1458,1688,396,356]","trial_type":"fractal-mutation","trial_index":77,"time_elapsed":1584583,"internal_node_id":"0.0-5.0-23.0"},{"group":"square cycles (cube, non-group)","fractal_assignment":["../images/ylw_pnk.png","../images/ylw_slt.png","../images/gry_blk.png","../images/cyn_red.png","../images/grn_red.png","../images/pnk_blu.png","../images/blu_wht.png","../images/org_blu.png"],"mutagen_generator_assignment":[1,0],"goal":5,"start":7,"action_noise":0.1,"location_history":"[7,3,2,3,0,1,0,4,5]","action_history":"[1,1,0,0,1,1,1,1]","mutagen_history":"[0,0,1,1,0,0,0,0]","location_rts":"[4145,365,376,319,461,323,1217,177]","trial_type":"fractal-mutation","trial_index":78,"time_elapsed":1603685,"internal_node_id":"0.0-5.0-24.0"},{"group":"square cycles (cube, non-group)","fractal_assignment":["../images/ylw_pnk.png","../images/ylw_slt.png","../images/gry_blk.png","../images/cyn_red.png","../images/grn_red.png","../images/pnk_blu.png","../images/blu_wht.png","../images/org_blu.png"],"mutagen_generator_assignment":[1,0],"goal":0,"start":5,"action_noise":0.1,"location_history":"[5,1,2,3,2,3,0]","action_history":"[1,0,0,1,0,0]","mutagen_history":"[0,1,1,0,1,1]","location_rts":"[429,265,319,325,554,199]","trial_type":"fractal-mutation","trial_index":79,"time_elapsed":1615478,"internal_node_id":"0.0-5.0-25.0"},{"group":"square cycles (cube, non-group)","fractal_assignment":["../images/ylw_pnk.png","../images/ylw_slt.png","../images/gry_blk.png","../images/cyn_red.png","../images/grn_red.png","../images/pnk_blu.png","../images/blu_wht.png","../images/org_blu.png"],"mutagen_generator_assignment":[1,0],"goal":6,"start":0,"action_noise":0.1,"location_history":"[0,4,5,1,2,3,2,6]","action_history":"[1,1,1,0,0,1,1]","mutagen_history":"[0,0,0,1,1,0,0]","location_rts":"[434,466,377,365,386,470,354]","trial_type":"fractal-mutation","trial_index":80,"time_elapsed":1629020,"internal_node_id":"0.0-5.0-26.0"},{"group":"square cycles (cube, non-group)","fractal_assignment":["../images/ylw_pnk.png","../images/ylw_slt.png","../images/gry_blk.png","../images/cyn_red.png","../images/grn_red.png","../images/pnk_blu.png","../images/blu_wht.png","../images/org_blu.png"],"mutagen_generator_assignment":[1,0],"goal":4,"start":6,"action_noise":0.1,"location_history":"[6,5,4]","action_history":"[1,0]","mutagen_history":"[0,1]","location_rts":"[506,258]","trial_type":"fractal-mutation","trial_index":81,"time_elapsed":1635348,"internal_node_id":"0.0-5.0-27.0"},{"group":"square cycles (cube, non-group)","fractal_assignment":["../images/ylw_pnk.png","../images/ylw_slt.png","../images/gry_blk.png","../images/cyn_red.png","../images/grn_red.png","../images/pnk_blu.png","../images/blu_wht.png","../images/org_blu.png"],"mutagen_generator_assignment":[1,0],"goal":2,"start":4,"action_noise":0.1,"location_history":"[4,5,1,2]","action_history":"[1,1,0]","mutagen_history":"[0,0,1]","location_rts":"[491,274,467]","trial_type":"fractal-mutation","trial_index":82,"time_elapsed":1643162,"internal_node_id":"0.0-5.0-28.0"},{"group":"square cycles (cube, non-group)","fractal_assignment":["../images/ylw_pnk.png","../images/ylw_slt.png","../images/gry_blk.png","../images/cyn_red.png","../images/grn_red.png","../images/pnk_blu.png","../images/blu_wht.png","../images/org_blu.png"],"mutagen_generator_assignment":[1,0],"goal":3,"start":2,"action_noise":0.1,"location_history":"[2,6,5,1,0,4,5,4,7,3]","action_history":"[1,0,1,1,1,1,0,1,1]","mutagen_history":"[0,1,0,0,0,0,1,0,0]","location_rts":"[477,446,341,345,329,730,350,353,874]","trial_type":"fractal-mutation","trial_index":83,"time_elapsed":1660159,"internal_node_id":"0.0-5.0-29.0"},{"group":"square cycles (cube, non-group)","fractal_assignment":["../images/ylw_pnk.png","../images/ylw_slt.png","../images/gry_blk.png","../images/cyn_red.png","../images/grn_red.png","../images/pnk_blu.png","../images/blu_wht.png","../images/org_blu.png"],"mutagen_generator_assignment":[1,0],"goal":1,"start":3,"action_noise":0.1,"location_history":"[3,2,3,2,6,5,4,7,3,2,6,5,4,5,1]","action_history":"[1,1,1,1,0,0,1,1,1,1,0,0,1,1]","mutagen_history":"[0,0,0,0,1,1,0,0,0,0,1,1,0,0]","location_rts":"[304,666,374,365,245,452,347,258,402,351,394,272,197,86]","trial_type":"fractal-mutation","trial_index":84,"time_elapsed":1682739,"internal_node_id":"0.0-5.0-30.0"},{"group":"square cycles (cube, non-group)","fractal_assignment":["../images/ylw_pnk.png","../images/ylw_slt.png","../images/gry_blk.png","../images/cyn_red.png","../images/grn_red.png","../images/pnk_blu.png","../images/blu_wht.png","../images/org_blu.png"],"mutagen_generator_assignment":[1,0],"goal":4,"start":1,"action_noise":0.1,"location_history":"[1,0,4]","action_history":"[1,1]","mutagen_history":"[0,0]","location_rts":"[324,420]","trial_type":"fractal-mutation","trial_index":85,"time_elapsed":1689039,"internal_node_id":"0.0-5.0-31.0"},{"group":"square cycles (cube, non-group)","fractal_assignment":["../images/ylw_pnk.png","../images/ylw_slt.png","../images/gry_blk.png","../images/cyn_red.png","../images/grn_red.png","../images/pnk_blu.png","../images/blu_wht.png","../images/org_blu.png"],"mutagen_generator_assignment":[1,0],"goal":3,"start":4,"action_noise":0.1,"location_history":"[4,5,4,7,6,5,4,5,1,0,1,2,3]","action_history":"[1,1,0,0,0,0,1,1,1,0,0,1]","mutagen_history":"[0,0,1,1,1,1,0,0,0,1,1,0]","location_rts":"[441,479,273,391,287,382,369,457,545,326,376,395]","trial_type":"fractal-mutation","trial_index":86,"time_elapsed":1709640,"internal_node_id":"0.0-5.0-32.0"},{"group":"square cycles (cube, non-group)","fractal_assignment":["../images/ylw_pnk.png","../images/ylw_slt.png","../images/gry_blk.png","../images/cyn_red.png","../images/grn_red.png","../images/pnk_blu.png","../images/blu_wht.png","../images/org_blu.png"],"mutagen_generator_assignment":[1,0],"goal":6,"start":3,"action_noise":0.1,"location_history":"[3,2,6]","action_history":"[1,1]","mutagen_history":"[0,0]","location_rts":"[463,367]","trial_type":"fractal-mutation","trial_index":87,"time_elapsed":1716019,"internal_node_id":"0.0-5.0-33.0"},{"group":"square cycles (cube, non-group)","fractal_assignment":["../images/ylw_pnk.png","../images/ylw_slt.png","../images/gry_blk.png","../images/cyn_red.png","../images/grn_red.png","../images/pnk_blu.png","../images/blu_wht.png","../images/org_blu.png"],"mutagen_generator_assignment":[1,0],"goal":0,"start":6,"action_noise":0.1,"location_history":"[6,7,3,2,3,0]","action_history":"[1,1,1,0,0]","mutagen_history":"[0,0,0,1,1]","location_rts":"[379,292,416,502,313]","trial_type":"fractal-mutation","trial_index":88,"time_elapsed":1726599,"internal_node_id":"0.0-5.0-34.0"},{"group":"square cycles (cube, non-group)","fractal_assignment":["../images/ylw_pnk.png","../images/ylw_slt.png","../images/gry_blk.png","../images/cyn_red.png","../images/grn_red.png","../images/pnk_blu.png","../images/blu_wht.png","../images/org_blu.png"],"mutagen_generator_assignment":[1,0],"goal":1,"start":0,"action_noise":0.1,"location_history":"[0,4,5,4,7,6,7,3,2,3,2,6,5,1]","action_history":"[1,1,1,0,0,1,1,1,0,1,1,0,1]","mutagen_history":"[0,0,0,1,1,0,0,0,1,0,0,1,0]","location_rts":"[704,14797,560,749,448,158,317,409,313,333,237,306,184]","trial_type":"fractal-mutation","trial_index":89,"time_elapsed":1763003,"internal_node_id":"0.0-5.0-35.0"},{"group":"square cycles (cube, non-group)","fractal_assignment":["../images/ylw_pnk.png","../images/ylw_slt.png","../images/gry_blk.png","../images/cyn_red.png","../images/grn_red.png","../images/pnk_blu.png","../images/blu_wht.png","../images/org_blu.png"],"mutagen_generator_assignment":[1,0],"goal":5,"start":1,"action_noise":0.1,"location_history":"[1,0,4,5]","action_history":"[1,1,1]","mutagen_history":"[0,0,0]","location_rts":"[531,1276,256]","trial_type":"fractal-mutation","trial_index":90,"time_elapsed":1771647,"internal_node_id":"0.0-5.0-36.0"},{"group":"square cycles (cube, non-group)","fractal_assignment":["../images/ylw_pnk.png","../images/ylw_slt.png","../images/gry_blk.png","../images/cyn_red.png","../images/grn_red.png","../images/pnk_blu.png","../images/blu_wht.png","../images/org_blu.png"],"mutagen_generator_assignment":[1,0],"goal":7,"start":5,"action_noise":0.1,"location_history":"[5,1,0,1,2,3,0,1,2,3,0,4,7]","action_history":"[1,1,0,0,0,0,0,0,0,0,1,1]","mutagen_history":"[0,0,1,1,1,1,1,1,1,1,0,0]","location_rts":"[415,508,179,395,355,539,549,341,341,287,1156,221]","trial_type":"fractal-mutation","trial_index":91,"time_elapsed":1792832,"internal_node_id":"0.0-5.0-37.0"},{"group":"square cycles (cube, non-group)","fractal_assignment":["../images/ylw_pnk.png","../images/ylw_slt.png","../images/gry_blk.png","../images/cyn_red.png","../images/grn_red.png","../images/pnk_blu.png","../images/blu_wht.png","../images/org_blu.png"],"mutagen_generator_assignment":[1,0],"goal":2,"start":7,"action_noise":0.1,"location_history":"[7,3,0,1,2]","action_history":"[1,1,0,0]","mutagen_history":"[0,0,1,1]","location_rts":"[462,444,585,308]","trial_type":"fractal-mutation","trial_index":92,"time_elapsed":1802253,"internal_node_id":"0.0-5.0-38.0"},{"group":"square cycles (cube, non-group)","fractal_assignment":["../images/ylw_pnk.png","../images/ylw_slt.png","../images/gry_blk.png","../images/cyn_red.png","../images/grn_red.png","../images/pnk_blu.png","../images/blu_wht.png","../images/org_blu.png"],"mutagen_generator_assignment":[1,0],"goal":1,"start":2,"action_noise":0.1,"location_history":"[2,6,5,4,5,1]","action_history":"[1,0,0,1,1]","mutagen_history":"[0,1,1,0,0]","location_rts":"[569,300,172,165,488]","trial_type":"fractal-mutation","trial_index":93,"time_elapsed":1812590,"internal_node_id":"0.0-5.0-39.0"},{"group":"square cycles (cube, non-group)","fractal_assignment":["../images/ylw_pnk.png","../images/ylw_slt.png","../images/gry_blk.png","../images/cyn_red.png","../images/grn_red.png","../images/pnk_blu.png","../images/blu_wht.png","../images/org_blu.png"],"mutagen_generator_assignment":[1,0],"goal":3,"start":1,"action_noise":0.1,"location_history":"[1,0,4,7,6,7,3]","action_history":"[1,1,0,0,1,1]","mutagen_history":"[0,0,1,1,0,0]","location_rts":"[431,439,354,260,360,331]","trial_type":"fractal-mutation","trial_index":94,"time_elapsed":1824453,"internal_node_id":"0.0-5.0-40.0"},{"group":"square cycles (cube, non-group)","fractal_assignment":["../images/ylw_pnk.png","../images/ylw_slt.png","../images/gry_blk.png","../images/cyn_red.png","../images/grn_red.png","../images/pnk_blu.png","../images/blu_wht.png","../images/org_blu.png"],"mutagen_generator_assignment":[1,0],"goal":4,"start":3,"action_noise":0.1,"location_history":"[3,2,6,7,3,0,4]","action_history":"[1,1,1,1,0,1]","mutagen_history":"[0,0,0,0,1,0]","location_rts":"[328,207,353,685,353,170]","trial_type":"fractal-mutation","trial_index":95,"time_elapsed":1836204,"internal_node_id":"0.0-5.0-41.0"},{"group":"square cycles (cube, non-group)","fractal_assignment":["../images/ylw_pnk.png","../images/ylw_slt.png","../images/gry_blk.png","../images/cyn_red.png","../images/grn_red.png","../images/pnk_blu.png","../images/blu_wht.png","../images/org_blu.png"],"mutagen_generator_assignment":[1,0],"goal":2,"start":4,"action_noise":0.1,"location_history":"[4,5,1,2]","action_history":"[1,1,0]","mutagen_history":"[0,0,1]","location_rts":"[369,427,579]","trial_type":"fractal-mutation","trial_index":96,"time_elapsed":1844170,"internal_node_id":"0.0-5.0-42.0"},{"group":"square cycles (cube, non-group)","fractal_assignment":["../images/ylw_pnk.png","../images/ylw_slt.png","../images/gry_blk.png","../images/cyn_red.png","../images/grn_red.png","../images/pnk_blu.png","../images/blu_wht.png","../images/org_blu.png"],"mutagen_generator_assignment":[1,0],"goal":5,"start":2,"action_noise":0.1,"location_history":"[2,6,5]","action_history":"[1,0]","mutagen_history":"[0,1]","location_rts":"[1964,530]","trial_type":"fractal-mutation","trial_index":97,"time_elapsed":1852221,"internal_node_id":"0.0-5.0-43.0"},{"group":"square cycles (cube, non-group)","fractal_assignment":["../images/ylw_pnk.png","../images/ylw_slt.png","../images/gry_blk.png","../images/cyn_red.png","../images/grn_red.png","../images/pnk_blu.png","../images/blu_wht.png","../images/org_blu.png"],"mutagen_generator_assignment":[1,0],"goal":0,"start":5,"action_noise":0.1,"location_history":"[5,1,0]","action_history":"[1,1]","mutagen_history":"[0,0]","location_rts":"[400,318]","trial_type":"fractal-mutation","trial_index":98,"time_elapsed":1858493,"internal_node_id":"0.0-5.0-44.0"},{"group":"square cycles (cube, non-group)","fractal_assignment":["../images/ylw_pnk.png","../images/ylw_slt.png","../images/gry_blk.png","../images/cyn_red.png","../images/grn_red.png","../images/pnk_blu.png","../images/blu_wht.png","../images/org_blu.png"],"mutagen_generator_assignment":[1,0],"goal":7,"start":0,"action_noise":0.1,"location_history":"[0,1,0,1,0,4,7]","action_history":"[0,1,1,1,0,0]","mutagen_history":"[1,0,0,0,1,1]","location_rts":"[462,407,679,370,266,117]","trial_type":"fractal-mutation","trial_index":99,"time_elapsed":1870481,"internal_node_id":"0.0-5.0-45.0"},{"group":"square cycles (cube, non-group)","fractal_assignment":["../images/ylw_pnk.png","../images/ylw_slt.png","../images/gry_blk.png","../images/cyn_red.png","../images/grn_red.png","../images/pnk_blu.png","../images/blu_wht.png","../images/org_blu.png"],"mutagen_generator_assignment":[1,0],"goal":6,"start":7,"action_noise":0.1,"location_history":"[7,3,2,3,2,6]","action_history":"[1,1,0,1,1]","mutagen_history":"[0,0,1,0,0]","location_rts":"[339,169,307,324,607]","trial_type":"fractal-mutation","trial_index":100,"time_elapsed":1880879,"internal_node_id":"0.0-5.0-46.0"},{"group":"square cycles (cube, non-group)","fractal_assignment":["../images/ylw_pnk.png","../images/ylw_slt.png","../images/gry_blk.png","../images/cyn_red.png","../images/grn_red.png","../images/pnk_blu.png","../images/blu_wht.png","../images/org_blu.png"],"mutagen_generator_assignment":[1,0],"goal":2,"start":6,"action_noise":0.1,"location_history":"[6,7,6,7,6,7,6,7,6,7,3,2]","action_history":"[1,0,1,0,1,1,1,0,1,1,1]","mutagen_history":"[0,1,0,1,0,0,0,1,0,0,0]","location_rts":"[1125,439,537,453,216,151,412,376,224,526,878]","trial_type":"fractal-mutation","trial_index":101,"time_elapsed":1901036,"internal_node_id":"0.0-5.0-47.0"},{"group":"square cycles (cube, non-group)","fractal_assignment":["../images/ylw_pnk.png","../images/ylw_slt.png","../images/gry_blk.png","../images/cyn_red.png","../images/grn_red.png","../images/pnk_blu.png","../images/blu_wht.png","../images/org_blu.png"],"mutagen_generator_assignment":[1,0],"goal":5,"start":2,"action_noise":0.1,"location_history":"[2,6,7,3,2,3,2,6,5]","action_history":"[1,1,1,1,1,1,1,0]","mutagen_history":"[0,0,0,0,0,0,0,1]","location_rts":"[361,549,472,419,503,491,626,623]","trial_type":"fractal-mutation","trial_index":102,"time_elapsed":1916805,"internal_node_id":"0.0-5.0-48.0"},{"group":"square cycles (cube, non-group)","fractal_assignment":["../images/ylw_pnk.png","../images/ylw_slt.png","../images/gry_blk.png","../images/cyn_red.png","../images/grn_red.png","../images/pnk_blu.png","../images/blu_wht.png","../images/org_blu.png"],"mutagen_generator_assignment":[1,0],"goal":3,"start":5,"action_noise":0.1,"location_history":"[5,1,0,4,5,4,5,1,2,6,7,3]","action_history":"[1,1,1,1,0,1,1,0,1,1,1]","mutagen_history":"[0,0,0,0,1,0,0,1,0,0,0]","location_rts":"[512,498,425,586,369,117,242,328,206,325,387]","trial_type":"fractal-mutation","trial_index":103,"time_elapsed":1935614,"internal_node_id":"0.0-5.0-49.0"},{"view_history":"[{\"page_index\":0,\"viewing_time\":2870}]","rt":2870,"trial_type":"instructions","trial_index":104,"time_elapsed":1939486,"internal_node_id":"0.0-6.0"},{"rt":35276,"responses":"{\"Q0\":\"If people can develop a pattern to complete a task when it seems that there's no pattern.\"}","trial_type":"survey-text","trial_index":105,"time_elapsed":1975768,"internal_node_id":"0.0-7.0-0.0"},{"rt":36388,"responses":"{\"Q0\":\"Whether people can come up with a good pattern when it seems like each choice has a limited series of outcomes.\"}","trial_type":"survey-text","trial_index":106,"time_elapsed":2013157,"internal_node_id":"0.0-7.0-1.0"},{"rt":15275,"responses":"{\"Q0\":\"<img src='../images/diagrams/tri_cycles.png'>\"}","trial_type":"survey-multi-choice","trial_index":107,"time_elapsed":2029439,"internal_node_id":"0.0-7.0-2.0"},{"rt":30059,"assignments":["../images/gry_blk.png","../images/ylw_slt.png","../images/pnk_blu.png","../images/blu_wht.png","../images/org_blu.png","../images/cyn_red.png","../images/ylw_pnk.png","../images/grn_red.png"],"trial_type":"drag-drop-on-image","trial_index":108,"time_elapsed":2060500,"internal_node_id":"0.0-7.0-3.0"},{"rt":3316,"responses":"{\"Q0\":\"1\"}","trial_type":"survey-likert","trial_index":109,"time_elapsed":2064821,"internal_node_id":"0.0-7.0-4.0"},{"rt":32790,"responses":"{\"Q0\":\"Sometimes each of them seemed to have a back and forth pattern (going through the same door over and over would get you through the same two rooms).\"}","trial_type":"survey-text","trial_index":110,"time_elapsed":2098612,"internal_node_id":"0.0-7.0-5.0"},{"rt":4532,"responses":"{\"Q0\":\"Yes\"}","trial_type":"survey-multi-choice","trial_index":111,"time_elapsed":2104149,"internal_node_id":"0.0-7.0-6.0"},{"rt":4016,"responses":"{\"Q0\":\"During these questions/I wasn't aware until you pointed it out\"}","trial_type":"survey-multi-choice","trial_index":112,"time_elapsed":2109172,"internal_node_id":"0.0-7.0-7.0"},{"rt":12437,"responses":"{\"Q0\":\"Not until late enough that it isn't insightful.\"}","trial_type":"survey-text","trial_index":113,"time_elapsed":2122612,"internal_node_id":"0.0-7.0-8.0"},{"rt":2711,"responses":"{\"Q0\":\"1\"}","trial_type":"survey-likert","trial_index":114,"time_elapsed":2126324,"internal_node_id":"0.0-7.0-9.0"},{"rt":4662,"responses":"{\"Q0\":\"Different structure\"}","trial_type":"survey-multi-choice","trial_index":115,"time_elapsed":2131988,"internal_node_id":"0.0-7.0-10.0"},{"rt":14912,"responses":"{\"Q0\":\"left (black) door = acid, (white) door = ray\",\"Q1\":\"Not at all confident\"}","trial_type":"survey-multi-choice","trial_index":116,"time_elapsed":2147909,"internal_node_id":"0.0-7.0-11.0"},{"rt":8606,"responses":"{\"Q0\":\"25-35\",\"Q1\":\"Master's degree\",\"Q2\":\"Male\",\"Q3\":\"White\"}","trial_type":"survey-multi-choice","trial_index":117,"time_elapsed":2157532,"internal_node_id":"0.0-8.0"},{"rt":9093,"responses":"{\"Q0\":\"Good hit!  Thanks!\"}","trial_type":"survey-text","trial_index":118,"time_elapsed":2167627,"internal_node_id":"0.0-9.0"}]