[{"view_history":"[{\"page_index\":0,\"viewing_time\":147495},{\"page_index\":1,\"viewing_time\":46060}]","rt":193556,"trial_type":"instructions","trial_index":0,"time_elapsed":193558,"internal_node_id":"0.0-0.0"},{"view_history":"[{\"page_index\":0,\"viewing_time\":8295},{\"page_index\":1,\"viewing_time\":1886}]","rt":10182,"trial_type":"instructions","trial_index":1,"time_elapsed":204741,"internal_node_id":"0.0-1.0"},{"group":"tri cycles (cube, non-group)","room_assignment":["red","blue","yellow","grey","brown","pink","green","purple"],"door_color_assignment":["white","black"],"door_generator_assignment":[0,1],"goal":5,"start":7,"action_noise":0.1,"location_history":"[7,6,4,0,3,4,7,6,5]","action_history":"[1,1,1,1,1,0,1,1]","door_history":"[1,1,1,1,1,0,1,1]","location_rts":"[5103,483,15810,1941,473,622,1116,438]","trial_type":"two-door-navigation","trial_index":2,"time_elapsed":242412,"internal_node_id":"0.0-2.0-0.0"},{"group":"tri cycles (cube, non-group)","room_assignment":["red","blue","yellow","grey","brown","pink","green","purple"],"door_color_assignment":["white","black"],"door_generator_assignment":[0,1],"goal":2,"start":5,"action_noise":0.1,"location_history":"[5,2]","action_history":"[1]","door_history":"[1]","location_rts":"[1342]","trial_type":"two-door-navigation","trial_index":3,"time_elapsed":248283,"internal_node_id":"0.0-2.0-1.0"},{"group":"tri cycles (cube, non-group)","room_assignment":["red","blue","yellow","grey","brown","pink","green","purple"],"door_color_assignment":["white","black"],"door_generator_assignment":[0,1],"goal":0,"start":2,"action_noise":0.1,"location_history":"[2,6,5,2,6,4,7,6,4,0]","action_history":"[1,1,1,1,0,0,0,0,1]","door_history":"[1,1,1,1,0,0,0,0,1]","location_rts":"[1417,2758,834,87468,626,808,2361,799,373]","trial_type":"two-door-navigation","trial_index":4,"time_elapsed":358428,"internal_node_id":"0.0-2.0-2.0"},{"group":"tri cycles (cube, non-group)","room_assignment":["red","blue","yellow","grey","brown","pink","green","purple"],"door_color_assignment":["white","black"],"door_generator_assignment":[0,1],"goal":1,"start":0,"action_noise":0.1,"location_history":"[0,3,7,6,5,2,6,4,7,6,5,2,6,4,0,3,4,7,6,4,0,3,7,6,4,7,3,4,0,3,4,7,3,4,7,6,4,7,6,4,7,3,4,0,3,7,3,4,7,3,7,6,5,2,6,5,1]","action_history":"[1,0,0,1,1,1,1,0,0,1,1,0,0,1,1,1,0,0,0,1,1,0,0,0,0,1,1,1,1,1,0,0,0,0,0,0,0,0,0,0,1,1,1,1,1,1,1,1,0,0,0,1,1,1,1,1]","door_history":"[1,0,0,1,1,1,1,0,0,1,1,0,0,1,1,1,0,0,0,1,1,0,0,0,0,1,1,1,1,1,0,0,0,0,0,0,0,0,0,0,1,1,1,1,1,1,1,1,0,0,0,1,1,1,1,1]","location_rts":"[102680,493,3359,429,361,345,596,419,406,632,394,367,459,446,372,613,457,456,578,385,400,662,499,435,417,1088,389,384,483,609,271,414,631,381,590,625,2027,879,530,3359,374,605,629,756,301,338,435,354,624,310,372,347,362,5186,387,367]","trial_type":"two-door-navigation","trial_index":5,"time_elapsed":560149,"internal_node_id":"0.0-2.0-3.0"},{"group":"tri cycles (cube, non-group)","room_assignment":["red","blue","yellow","grey","brown","pink","green","purple"],"door_color_assignment":["white","black"],"door_generator_assignment":[0,1],"goal":6,"start":1,"action_noise":0.1,"location_history":"[1,0,2,6]","action_history":"[0,0,1]","door_history":"[0,0,1]","location_rts":"[4148,391,902]","trial_type":"two-door-navigation","trial_index":6,"time_elapsed":572156,"internal_node_id":"0.0-2.0-4.0"},{"group":"tri cycles (cube, non-group)","room_assignment":["red","blue","yellow","grey","brown","pink","green","purple"],"door_color_assignment":["white","black"],"door_generator_assignment":[0,1],"goal":3,"start":6,"action_noise":0.1,"location_history":"[6,5,2,1,5,2,1,5,2,1,0,2,1,0,2,6,4,0,3]","action_history":"[1,1,0,1,1,0,1,1,0,0,1,0,0,0,1,1,0,1]","door_history":"[1,1,0,1,1,0,1,1,0,0,1,0,0,0,1,1,0,1]","location_rts":"[20663,377,281,209,359,306,415,326,328,354,262,423,516,683,221,360,380,427]","trial_type":"two-door-navigation","trial_index":7,"time_elapsed":620917,"internal_node_id":"0.0-2.0-5.0"},{"group":"tri cycles (cube, non-group)","room_assignment":["red","blue","yellow","grey","brown","pink","green","purple"],"door_color_assignment":["white","black"],"door_generator_assignment":[0,1],"goal":4,"start":3,"action_noise":0.1,"location_history":"[3,7,3,4]","action_history":"[0,1,1]","door_history":"[0,1,1]","location_rts":"[1939,320,377]","trial_type":"two-door-navigation","trial_index":8,"time_elapsed":630122,"internal_node_id":"0.0-2.0-6.0"},{"group":"tri cycles (cube, non-group)","room_assignment":["red","blue","yellow","grey","brown","pink","green","purple"],"door_color_assignment":["white","black"],"door_generator_assignment":[0,1],"goal":1,"start":4,"action_noise":0.1,"location_history":"[4,7,3,4,0,3,4,0,2,6,5,1]","action_history":"[0,1,1,1,1,1,0,0,1,1,0]","door_history":"[0,1,1,1,1,1,0,0,1,1,0]","location_rts":"[1437,631,422,392,353,429,591,370,667,298,671]","trial_type":"two-door-navigation","trial_index":9,"time_elapsed":651138,"internal_node_id":"0.0-2.0-7.0"},{"group":"tri cycles (cube, non-group)","room_assignment":["red","blue","yellow","grey","brown","pink","green","purple"],"door_color_assignment":["white","black"],"door_generator_assignment":[0,1],"goal":4,"start":1,"action_noise":0.1,"location_history":"[1,0,3,7,6,5,2,6,5,1,5,1,5,1,0,3,4]","action_history":"[0,1,1,0,1,1,1,1,0,1,1,0,0,0,1,1]","door_history":"[0,1,1,0,1,1,1,1,0,1,1,0,0,0,1,1]","location_rts":"[1288,304,411,455,460,487,76781,384,399,265,403,300,500,370,516,386]","trial_type":"two-door-navigation","trial_index":10,"time_elapsed":754699,"internal_node_id":"0.0-2.0-8.0"},{"group":"tri cycles (cube, non-group)","room_assignment":["red","blue","yellow","grey","brown","pink","green","purple"],"door_color_assignment":["white","black"],"door_generator_assignment":[0,1],"goal":5,"start":4,"action_noise":0.1,"location_history":"[4,0,3,7,3,7,6,5]","action_history":"[1,0,1,1,1,0,1]","door_history":"[1,0,1,1,1,0,1]","location_rts":"[5442,579,303,999,489,309,509]","trial_type":"two-door-navigation","trial_index":11,"time_elapsed":773998,"internal_node_id":"0.0-2.0-9.0"},{"group":"tri cycles (cube, non-group)","room_assignment":["red","blue","yellow","grey","brown","pink","green","purple"],"door_color_assignment":["white","black"],"door_generator_assignment":[0,1],"goal":3,"start":5,"action_noise":0.1,"location_history":"[5,2,6,5,1,0,3]","action_history":"[0,1,1,1,0,1]","door_history":"[0,1,1,1,0,1]","location_rts":"[1096,3208,681,2366,383,771]","trial_type":"two-door-navigation","trial_index":12,"time_elapsed":792112,"internal_node_id":"0.0-2.0-10.0"},{"group":"tri cycles (cube, non-group)","room_assignment":["red","blue","yellow","grey","brown","pink","green","purple"],"door_color_assignment":["white","black"],"door_generator_assignment":[0,1],"goal":6,"start":3,"action_noise":0.1,"location_history":"[3,4,7,6]","action_history":"[1,0,0]","door_history":"[1,0,0]","location_rts":"[61119,955,492]","trial_type":"two-door-navigation","trial_index":13,"time_elapsed":861237,"internal_node_id":"0.0-2.0-11.0"},{"group":"tri cycles (cube, non-group)","room_assignment":["red","blue","yellow","grey","brown","pink","green","purple"],"door_color_assignment":["white","black"],"door_generator_assignment":[0,1],"goal":7,"start":6,"action_noise":0.1,"location_history":"[6,5,2,6,5,1,5,2,6,5,2,6,5,1,0,3,4,0,3,4,7]","action_history":"[0,1,1,1,0,1,1,0,1,1,1,1,0,0,1,1,1,0,0,0]","door_history":"[0,1,1,1,0,1,1,0,1,1,1,1,0,0,1,1,1,0,0,0]","location_rts":"[1065,523,375,445,717,935,517,510,943,456,391,594,866,254,2049,813,322,401,1106,295]","trial_type":"two-door-navigation","trial_index":14,"time_elapsed":898738,"internal_node_id":"0.0-2.0-12.0"},{"group":"tri cycles (cube, non-group)","room_assignment":["red","blue","yellow","grey","brown","pink","green","purple"],"door_color_assignment":["white","black"],"door_generator_assignment":[0,1],"goal":0,"start":7,"action_noise":0.1,"location_history":"[7,3,7,6,5,2,6,5,1,0]","action_history":"[1,0,0,1,1,1,1,0,0]","door_history":"[1,0,0,1,1,1,1,0,0]","location_rts":"[57295,454,957,614,433,419,504,611,442]","trial_type":"two-door-navigation","trial_index":15,"time_elapsed":973186,"internal_node_id":"0.0-2.0-13.0"},{"group":"tri cycles (cube, non-group)","room_assignment":["red","blue","yellow","grey","brown","pink","green","purple"],"door_color_assignment":["white","black"],"door_generator_assignment":[0,1],"goal":2,"start":0,"action_noise":0.1,"location_history":"[0,2]","action_history":"[0]","door_history":"[0]","location_rts":"[699]","trial_type":"two-door-navigation","trial_index":16,"time_elapsed":978408,"internal_node_id":"0.0-2.0-14.0"},{"group":"tri cycles (cube, non-group)","room_assignment":["red","blue","yellow","grey","brown","pink","green","purple"],"door_color_assignment":["white","black"],"door_generator_assignment":[0,1],"goal":1,"start":2,"action_noise":0.1,"location_history":"[2,6,5,1]","action_history":"[1,1,1]","door_history":"[1,1,1]","location_rts":"[391,939,408]","trial_type":"two-door-navigation","trial_index":17,"time_elapsed":986711,"internal_node_id":"0.0-2.0-15.0"},{"group":"tri cycles (cube, non-group)","room_assignment":["red","blue","yellow","grey","brown","pink","green","purple"],"door_color_assignment":["white","black"],"door_generator_assignment":[0,1],"goal":6,"start":1,"action_noise":0.1,"location_history":"[1,0,2,6]","action_history":"[0,1,1]","door_history":"[0,1,1]","location_rts":"[496,399,503]","trial_type":"two-door-navigation","trial_index":18,"time_elapsed":994690,"internal_node_id":"0.0-2.0-16.0"},{"group":"tri cycles (cube, non-group)","room_assignment":["red","blue","yellow","grey","brown","pink","green","purple"],"door_color_assignment":["white","black"],"door_generator_assignment":[0,1],"goal":3,"start":6,"action_noise":0.1,"location_history":"[6,5,1,0,3]","action_history":"[1,1,0,1]","door_history":"[1,1,0,1]","location_rts":"[782,373,6656,439]","trial_type":"two-door-navigation","trial_index":19,"time_elapsed":1010530,"internal_node_id":"0.0-2.0-17.0"},{"group":"tri cycles (cube, non-group)","room_assignment":["red","blue","yellow","grey","brown","pink","green","purple"],"door_color_assignment":["white","black"],"door_generator_assignment":[0,1],"goal":4,"start":3,"action_noise":0.1,"location_history":"[3,4]","action_history":"[1]","door_history":"[1]","location_rts":"[3192]","trial_type":"two-door-navigation","trial_index":20,"time_elapsed":1018254,"internal_node_id":"0.0-2.0-18.0"},{"group":"tri cycles (cube, non-group)","room_assignment":["red","blue","yellow","grey","brown","pink","green","purple"],"door_color_assignment":["white","black"],"door_generator_assignment":[0,1],"goal":5,"start":4,"action_noise":0.1,"location_history":"[4,7,3,4,0,2,1,5]","action_history":"[0,1,1,1,0,0,1]","door_history":"[0,1,1,1,0,0,1]","location_rts":"[1483,802,9665,828,527,651,312]","trial_type":"two-door-navigation","trial_index":21,"time_elapsed":1043165,"internal_node_id":"0.0-2.0-19.0"},{"group":"tri cycles (cube, non-group)","room_assignment":["red","blue","yellow","grey","brown","pink","green","purple"],"door_color_assignment":["white","black"],"door_generator_assignment":[0,1],"goal":7,"start":5,"action_noise":0.1,"location_history":"[5,2,6,4,0,3,4,7]","action_history":"[1,1,0,1,1,1,0]","door_history":"[1,1,0,1,1,1,0]","location_rts":"[410,417,350,545,319,409,328]","trial_type":"two-door-navigation","trial_index":22,"time_elapsed":1056597,"internal_node_id":"0.0-2.0-20.0"},{"group":"tri cycles (cube, non-group)","room_assignment":["red","blue","yellow","grey","brown","pink","green","purple"],"door_color_assignment":["white","black"],"door_generator_assignment":[0,1],"goal":2,"start":7,"action_noise":0.1,"location_history":"[7,3,7,3,4,7,6,4,7,6,4,0,3,7,6,4,0,3,4,0,2]","action_history":"[0,1,1,1,0,0,0,0,0,0,1,1,0,0,0,1,1,1,1,0]","door_history":"[0,1,1,1,0,0,0,0,0,0,1,1,0,0,0,1,1,1,1,0]","location_rts":"[613,418,412,835,452,465,339,670,376,508,454,12035,1356,293,7137,9757,5164,5314,496,890]","trial_type":"two-door-navigation","trial_index":23,"time_elapsed":1128543,"internal_node_id":"0.0-2.0-21.0"},{"group":"tri cycles (cube, non-group)","room_assignment":["red","blue","yellow","grey","brown","pink","green","purple"],"door_color_assignment":["white","black"],"door_generator_assignment":[0,1],"goal":0,"start":2,"action_noise":0.1,"location_history":"[2,1,0]","action_history":"[0,1]","door_history":"[0,1]","location_rts":"[774,462]","trial_type":"two-door-navigation","trial_index":24,"time_elapsed":1135328,"internal_node_id":"0.0-2.0-22.0"},{"group":"tri cycles (cube, non-group)","room_assignment":["red","blue","yellow","grey","brown","pink","green","purple"],"door_color_assignment":["white","black"],"door_generator_assignment":[0,1],"goal":7,"start":0,"action_noise":0.1,"location_history":"[0,2,1,0,3,4,7]","action_history":"[0,0,0,1,1,1]","door_history":"[0,0,0,1,1,1]","location_rts":"[1152,393,525,2059,543,385]","trial_type":"two-door-navigation","trial_index":25,"time_elapsed":1150002,"internal_node_id":"0.0-2.0-23.0"},{"group":"tri cycles (cube, non-group)","room_assignment":["red","blue","yellow","grey","brown","pink","green","purple"],"door_color_assignment":["white","black"],"door_generator_assignment":[0,1],"goal":5,"start":7,"action_noise":0.1,"location_history":"[7,3,4,7,6,5]","action_history":"[1,1,0,0,1]","door_history":"[1,1,0,0,1]","location_rts":"[636,613,723,1333,772]","trial_type":"two-door-navigation","trial_index":26,"time_elapsed":1162673,"internal_node_id":"0.0-2.0-24.0"},{"group":"tri cycles (cube, non-group)","room_assignment":["red","blue","yellow","grey","brown","pink","green","purple"],"door_color_assignment":["white","black"],"door_generator_assignment":[0,1],"goal":0,"start":5,"action_noise":0.1,"location_history":"[5,2,6,4,7,6,4,7,3,4,0]","action_history":"[1,1,0,0,0,0,1,1,1,1]","door_history":"[1,1,0,0,0,0,1,1,1,1]","location_rts":"[2996,1152,20640,1012,1075,645,4105,404,1021,156]","trial_type":"two-door-navigation","trial_index":27,"time_elapsed":1209607,"internal_node_id":"0.0-2.0-25.0"},{"group":"tri cycles (cube, non-group)","room_assignment":["red","blue","yellow","grey","brown","pink","green","purple"],"door_color_assignment":["white","black"],"door_generator_assignment":[0,1],"goal":6,"start":0,"action_noise":0.1,"location_history":"[0,2,1,0,2,1,0,3,4,0,2,1,5,2,6]","action_history":"[0,0,0,0,0,1,1,1,1,0,0,0,1,1]","door_history":"[0,0,0,0,0,1,1,1,1,0,0,0,1,1]","location_rts":"[4494,432,534,12133,3500,469,336,293,358,741,341,691,332,415]","trial_type":"two-door-navigation","trial_index":28,"time_elapsed":1252500,"internal_node_id":"0.0-2.0-26.0"},{"group":"tri cycles (cube, non-group)","room_assignment":["red","blue","yellow","grey","brown","pink","green","purple"],"door_color_assignment":["white","black"],"door_generator_assignment":[0,1],"goal":4,"start":6,"action_noise":0.1,"location_history":"[6,5,2,6,4]","action_history":"[1,1,1,0]","door_history":"[1,1,1,0]","location_rts":"[772,434,758,654]","trial_type":"two-door-navigation","trial_index":29,"time_elapsed":1262719,"internal_node_id":"0.0-2.0-27.0"},{"group":"tri cycles (cube, non-group)","room_assignment":["red","blue","yellow","grey","brown","pink","green","purple"],"door_color_assignment":["white","black"],"door_generator_assignment":[0,1],"goal":2,"start":4,"action_noise":0.1,"location_history":"[4,7,6,5,1,5,2]","action_history":"[0,0,1,1,1,1]","door_history":"[0,0,1,1,1,1]","location_rts":"[4046,434,255,758,450,388]","trial_type":"two-door-navigation","trial_index":30,"time_elapsed":1278686,"internal_node_id":"0.0-2.0-28.0"},{"group":"tri cycles (cube, non-group)","room_assignment":["red","blue","yellow","grey","brown","pink","green","purple"],"door_color_assignment":["white","black"],"door_generator_assignment":[0,1],"goal":3,"start":2,"action_noise":0.1,"location_history":"[2,1,5,2,1,0,3]","action_history":"[0,1,1,0,0,1]","door_history":"[0,1,1,0,0,1]","location_rts":"[1556,319,392,1101,510,643]","trial_type":"two-door-navigation","trial_index":31,"time_elapsed":1292847,"internal_node_id":"0.0-2.0-29.0"},{"group":"tri cycles (cube, non-group)","room_assignment":["red","blue","yellow","grey","brown","pink","green","purple"],"door_color_assignment":["white","black"],"door_generator_assignment":[0,1],"goal":1,"start":3,"action_noise":0.1,"location_history":"[3,4,0,2,6,5,2,1]","action_history":"[1,1,1,1,1,1,0]","door_history":"[1,1,1,1,1,1,0]","location_rts":"[1883,302,546,3509,425,405,589]","trial_type":"two-door-navigation","trial_index":32,"time_elapsed":1311314,"internal_node_id":"0.0-2.0-30.0"},{"group":"tri cycles (cube, non-group)","room_assignment":["red","blue","yellow","grey","brown","pink","green","purple"],"door_color_assignment":["white","black"],"door_generator_assignment":[0,1],"goal":4,"start":1,"action_noise":0.1,"location_history":"[1,0,3,4]","action_history":"[0,1,1]","door_history":"[0,1,1]","location_rts":"[3400,2448,15365]","trial_type":"two-door-navigation","trial_index":33,"time_elapsed":1340036,"internal_node_id":"0.0-2.0-31.0"},{"group":"tri cycles (cube, non-group)","room_assignment":["red","blue","yellow","grey","brown","pink","green","purple"],"door_color_assignment":["white","black"],"door_generator_assignment":[0,1],"goal":3,"start":4,"action_noise":0.1,"location_history":"[4,0,2,6,5,2,1,5,2,1,0,2,6,5,2,6,4,7,3]","action_history":"[1,0,1,1,1,0,1,1,0,0,0,1,1,1,1,0,0,1]","door_history":"[1,0,1,1,1,0,1,1,0,0,0,1,1,1,1,0,0,1]","location_rts":"[107998,824,2871,436,372,287,433,417,558,343,375,2873,661,873,613,453,665,497]","trial_type":"two-door-navigation","trial_index":34,"time_elapsed":1484489,"internal_node_id":"0.0-2.0-32.0"},{"group":"tri cycles (cube, non-group)","room_assignment":["red","blue","yellow","grey","brown","pink","green","purple"],"door_color_assignment":["white","black"],"door_generator_assignment":[0,1],"goal":6,"start":3,"action_noise":0.1,"location_history":"[3,4,0,3,7,6]","action_history":"[1,1,1,0,0]","door_history":"[1,1,1,0,0]","location_rts":"[510,305,375,759,676]","trial_type":"two-door-navigation","trial_index":35,"time_elapsed":1495736,"internal_node_id":"0.0-2.0-33.0"},{"group":"tri cycles (cube, non-group)","room_assignment":["red","blue","yellow","grey","brown","pink","green","purple"],"door_color_assignment":["white","black"],"door_generator_assignment":[0,1],"goal":0,"start":6,"action_noise":0.1,"location_history":"[6,5,2,6,5,2,1,0]","action_history":"[0,1,1,1,1,0,0]","door_history":"[0,1,1,1,1,0,0]","location_rts":"[16023,505,524,751,661,459,352]","trial_type":"two-door-navigation","trial_index":36,"time_elapsed":1525675,"internal_node_id":"0.0-2.0-34.0"},{"group":"tri cycles (cube, non-group)","room_assignment":["red","blue","yellow","grey","brown","pink","green","purple"],"door_color_assignment":["white","black"],"door_generator_assignment":[0,1],"goal":1,"start":0,"action_noise":0.1,"location_history":"[0,2,6,5,2,1]","action_history":"[1,1,1,1,0]","door_history":"[1,1,1,1,0]","location_rts":"[24572,471,530,383,677]","trial_type":"two-door-navigation","trial_index":37,"time_elapsed":1560915,"internal_node_id":"0.0-2.0-35.0"},{"group":"tri cycles (cube, non-group)","room_assignment":["red","blue","yellow","grey","brown","pink","green","purple"],"door_color_assignment":["white","black"],"door_generator_assignment":[0,1],"goal":5,"start":1,"action_noise":0.1,"location_history":"[1,5]","action_history":"[1]","door_history":"[1]","location_rts":"[14984]","trial_type":"two-door-navigation","trial_index":38,"time_elapsed":1580544,"internal_node_id":"0.0-2.0-36.0"},{"group":"tri cycles (cube, non-group)","room_assignment":["red","blue","yellow","grey","brown","pink","green","purple"],"door_color_assignment":["white","black"],"door_generator_assignment":[0,1],"goal":7,"start":5,"action_noise":0.1,"location_history":"[5,2,1,5,2,6,5,1,0,2,1,0,2,6,5,2,6,5,1,0,2,1,5,2,6,5,2,6,4,7]","action_history":"[1,0,1,1,1,1,0,0,0,0,0,0,1,1,1,1,1,0,0,0,0,1,1,1,1,1,1,0,0]","door_history":"[1,0,1,1,1,1,0,0,0,0,0,0,1,1,1,1,1,0,0,0,0,1,1,1,1,1,1,0,0]","location_rts":"[562,535,469,502,780,718,482,718,789,859,1396,1530,388,540,569,792,765,2892,503,779,703,405,692,693,384,1812,850,406,573]","trial_type":"two-door-navigation","trial_index":39,"time_elapsed":1636777,"internal_node_id":"0.0-2.0-37.0"},{"group":"tri cycles (cube, non-group)","room_assignment":["red","blue","yellow","grey","brown","pink","green","purple"],"door_color_assignment":["white","black"],"door_generator_assignment":[0,1],"goal":2,"start":7,"action_noise":0.1,"location_history":"[7,3,4,7,6,4,7,6,4,7,6,5,2]","action_history":"[1,1,0,0,0,0,0,0,0,0,1,1]","door_history":"[1,1,0,0,0,0,0,0,0,0,1,1]","location_rts":"[34194,525,1354,549,909,665,626,612,547,746,774,1027]","trial_type":"two-door-navigation","trial_index":40,"time_elapsed":1695334,"internal_node_id":"0.0-2.0-38.0"},{"group":"tri cycles (cube, non-group)","room_assignment":["red","blue","yellow","grey","brown","pink","green","purple"],"door_color_assignment":["white","black"],"door_generator_assignment":[0,1],"goal":1,"start":2,"action_noise":0.1,"location_history":"[2,6,4,7,6,4,0,3,4,0,3,4,0,3,4,7,3,7,6,4,7,6,4,7,3,4,0,3,4,0,2,1]","action_history":"[1,0,0,0,0,1,1,1,1,1,1,1,1,1,0,0,0,0,0,0,0,0,0,1,1,1,1,1,1,0,0]","door_history":"[1,0,0,0,0,1,1,1,1,1,1,1,1,1,0,0,0,0,0,0,0,0,0,1,1,1,1,1,1,0,0]","location_rts":"[550,567,349,673,711,611,267,700,478,1050,1729,1060,2399,3543,1048,376,1098,859,2671,445,761,4295,1095,644,4662,346,635,4664,723,392,951]","trial_type":"two-door-navigation","trial_index":41,"time_elapsed":1770870,"internal_node_id":"0.0-2.0-39.0"},{"group":"tri cycles (cube, non-group)","room_assignment":["red","blue","yellow","grey","brown","pink","green","purple"],"door_color_assignment":["white","black"],"door_generator_assignment":[0,1],"goal":3,"start":1,"action_noise":0.1,"location_history":"[1,5,2,6,4,0,3]","action_history":"[1,1,1,0,1,1]","door_history":"[1,1,1,0,1,1]","location_rts":"[674,456,1162,750,455,319]","trial_type":"two-door-navigation","trial_index":42,"time_elapsed":1784331,"internal_node_id":"0.0-2.0-40.0"},{"group":"tri cycles (cube, non-group)","room_assignment":["red","blue","yellow","grey","brown","pink","green","purple"],"door_color_assignment":["white","black"],"door_generator_assignment":[0,1],"goal":4,"start":3,"action_noise":0.1,"location_history":"[3,7,6,4]","action_history":"[0,0,0]","door_history":"[0,0,0]","location_rts":"[8505,633,674]","trial_type":"two-door-navigation","trial_index":43,"time_elapsed":1800702,"internal_node_id":"0.0-2.0-41.0"},{"group":"tri cycles (cube, non-group)","room_assignment":["red","blue","yellow","grey","brown","pink","green","purple"],"door_color_assignment":["white","black"],"door_generator_assignment":[0,1],"goal":2,"start":4,"action_noise":0.1,"location_history":"[4,0,3,4,7,3,4,0,3,4,7,3,4,0,2]","action_history":"[1,1,1,1,1,1,1,1,1,1,1,1,1,0]","door_history":"[1,1,1,1,1,1,1,1,1,1,1,1,1,0]","location_rts":"[518,513,840,872,384,303,597,976,701,850,608,493,205,205]","trial_type":"two-door-navigation","trial_index":44,"time_elapsed":1826581,"internal_node_id":"0.0-2.0-42.0"},{"group":"tri cycles (cube, non-group)","room_assignment":["red","blue","yellow","grey","brown","pink","green","purple"],"door_color_assignment":["white","black"],"door_generator_assignment":[0,1],"goal":5,"start":2,"action_noise":0.1,"location_history":"[2,1,5]","action_history":"[0,1]","door_history":"[0,1]","location_rts":"[542,414]","trial_type":"two-door-navigation","trial_index":45,"time_elapsed":1833084,"internal_node_id":"0.0-2.0-43.0"},{"group":"tri cycles (cube, non-group)","room_assignment":["red","blue","yellow","grey","brown","pink","green","purple"],"door_color_assignment":["white","black"],"door_generator_assignment":[0,1],"goal":0,"start":5,"action_noise":0.1,"location_history":"[5,1,0]","action_history":"[1,1]","door_history":"[1,1]","location_rts":"[459,519]","trial_type":"two-door-navigation","trial_index":46,"time_elapsed":1840035,"internal_node_id":"0.0-2.0-44.0"},{"group":"tri cycles (cube, non-group)","room_assignment":["red","blue","yellow","grey","brown","pink","green","purple"],"door_color_assignment":["white","black"],"door_generator_assignment":[0,1],"goal":7,"start":0,"action_noise":0.1,"location_history":"[0,2,1,0,3,7]","action_history":"[0,0,0,1,1]","door_history":"[0,0,0,1,1]","location_rts":"[2045,418,1171,431,515]","trial_type":"two-door-navigation","trial_index":47,"time_elapsed":1853230,"internal_node_id":"0.0-2.0-45.0"},{"group":"tri cycles (cube, non-group)","room_assignment":["red","blue","yellow","grey","brown","pink","green","purple"],"door_color_assignment":["white","black"],"door_generator_assignment":[0,1],"goal":6,"start":7,"action_noise":0.1,"location_history":"[7,3,4,0,3,4,0,3,4,7,3,4,0,3,4,7,6]","action_history":"[1,1,1,1,1,1,1,1,0,0,1,1,1,1,0,0]","door_history":"[1,1,1,1,1,1,1,1,0,0,1,1,1,1,0,0]","location_rts":"[326,778,387,380,381,352,656,481,912,470,525,317,382,422,674,307]","trial_type":"two-door-navigation","trial_index":48,"time_elapsed":1880853,"internal_node_id":"0.0-2.0-46.0"},{"group":"tri cycles (cube, non-group)","room_assignment":["red","blue","yellow","grey","brown","pink","green","purple"],"door_color_assignment":["white","black"],"door_generator_assignment":[0,1],"goal":2,"start":6,"action_noise":0.1,"location_history":"[6,5,1,5,1,0,2]","action_history":"[1,1,1,0,0,0]","door_history":"[1,1,1,0,0,0]","location_rts":"[706,390,373,453,298,342]","trial_type":"two-door-navigation","trial_index":49,"time_elapsed":1893055,"internal_node_id":"0.0-2.0-47.0"},{"group":"tri cycles (cube, non-group)","room_assignment":["red","blue","yellow","grey","brown","pink","green","purple"],"door_color_assignment":["white","black"],"door_generator_assignment":[0,1],"goal":5,"start":2,"action_noise":0.1,"location_history":"[2,6,4,0,3,4,0,2,1,5]","action_history":"[1,1,1,1,1,1,0,0,1]","door_history":"[1,1,1,1,1,1,0,0,1]","location_rts":"[395,351,504,396,382,1,211,457,379]","trial_type":"two-door-navigation","trial_index":50,"time_elapsed":1908830,"internal_node_id":"0.0-2.0-48.0"},{"group":"tri cycles (cube, non-group)","room_assignment":["red","blue","yellow","grey","brown","pink","green","purple"],"door_color_assignment":["white","black"],"door_generator_assignment":[0,1],"goal":3,"start":5,"action_noise":0.1,"location_history":"[5,2,6,4,0,2,1,5,2,6,5,1,5,2,1,5,1,5,2,6,4,0,3]","action_history":"[1,1,0,1,1,1,1,1,1,1,0,1,1,1,1,0,1,1,1,0,1,1]","door_history":"[1,1,0,1,1,1,1,1,1,1,0,1,1,1,1,0,1,1,1,0,1,1]","location_rts":"[7623,466,1450,1705,3170,2981,422,3085,395,101,429,295,349,479,412,904,626,349,306,1347,377,400]","trial_type":"two-door-navigation","trial_index":51,"time_elapsed":1962484,"internal_node_id":"0.0-2.0-49.0"},{"view_history":"[{\"page_index\":0,\"viewing_time\":1268}]","rt":1268,"trial_type":"instructions","trial_index":52,"time_elapsed":1964753,"internal_node_id":"0.0-3.0"},{"view_history":"[{\"page_index\":0,\"viewing_time\":857},{\"page_index\":1,\"viewing_time\":4860}]","rt":5717,"trial_type":"instructions","trial_index":53,"time_elapsed":1971472,"internal_node_id":"0.0-4.0"},{"group":"tri cycles (cube, non-group)","fractal_assignment":["../images/cyn_red.png","../images/org_blu.png","../images/grn_red.png","../images/ylw_pnk.png","../images/gry_blk.png","../images/blu_wht.png","../images/pnk_blu.png","../images/ylw_slt.png"],"mutagen_generator_assignment":[0,1],"goal":5,"start":7,"action_noise":0.1,"location_history":"[7,6,5]","action_history":"[0,1]","mutagen_history":"[0,1]","location_rts":"[3274,442]","trial_type":"fractal-mutation","trial_index":54,"time_elapsed":1980763,"internal_node_id":"0.0-5.0-0.0"},{"group":"tri cycles (cube, non-group)","fractal_assignment":["../images/cyn_red.png","../images/org_blu.png","../images/grn_red.png","../images/ylw_pnk.png","../images/gry_blk.png","../images/blu_wht.png","../images/pnk_blu.png","../images/ylw_slt.png"],"mutagen_generator_assignment":[0,1],"goal":2,"start":5,"action_noise":0.1,"location_history":"[5,1,0,3,7,3,7,6,4,7,6,4,0,3,7,3,7,6,4,7,6,5,2]","action_history":"[0,1,1,0,1,0,0,0,0,0,0,1,1,0,1,0,0,0,0,0,1,1]","mutagen_history":"[0,1,1,0,1,0,0,0,0,0,0,1,1,0,1,0,0,0,0,0,1,1]","location_rts":"[569,245,273,292,546,294,324,301,479,585,559,270,495,441,432,440,334,416,500,302,279,529]","trial_type":"fractal-mutation","trial_index":55,"time_elapsed":2015858,"internal_node_id":"0.0-5.0-1.0"},{"group":"tri cycles (cube, non-group)","fractal_assignment":["../images/cyn_red.png","../images/org_blu.png","../images/grn_red.png","../images/ylw_pnk.png","../images/gry_blk.png","../images/blu_wht.png","../images/pnk_blu.png","../images/ylw_slt.png"],"mutagen_generator_assignment":[0,1],"goal":0,"start":2,"action_noise":0.1,"location_history":"[2,1,0]","action_history":"[0,0]","mutagen_history":"[0,0]","location_rts":"[503,595]","trial_type":"fractal-mutation","trial_index":56,"time_elapsed":2022510,"internal_node_id":"0.0-5.0-2.0"},{"group":"tri cycles (cube, non-group)","fractal_assignment":["../images/cyn_red.png","../images/org_blu.png","../images/grn_red.png","../images/ylw_pnk.png","../images/gry_blk.png","../images/blu_wht.png","../images/pnk_blu.png","../images/ylw_slt.png"],"mutagen_generator_assignment":[0,1],"goal":1,"start":0,"action_noise":0.1,"location_history":"[0,3,4,7,3,4,0,2,6,5,2,6,5,2,6,5,2,6,5,2,6,4,7,6,4,7,6,4,7,6,4,0,3,4,0,3,4,0,3,7,3,7,3,4,0,3,4,7,6,4,7,6,5,2,6,4,0,2,1]","action_history":"[1,1,0,0,0,1,1,1,1,1,1,1,1,1,1,1,1,1,1,1,0,0,0,0,0,0,0,0,0,0,1,1,1,1,1,1,1,0,0,0,0,1,1,1,1,1,0,0,0,1,1,1,1,1,0,1,0,0]","mutagen_history":"[1,1,0,0,0,1,1,1,1,1,1,1,1,1,1,1,1,1,1,1,0,0,0,0,0,0,0,0,0,0,1,1,1,1,1,1,1,0,0,0,0,1,1,1,1,1,0,0,0,1,1,1,1,1,0,1,0,0]","location_rts":"[632,865,554,590,664,743,1660,1472,1843,503,721,461,861,646,1429,1277,543,3658,365,563,390,495,522,362,1070,539,351,716,986,2719,368,410,426,581,930,727,975,595,521,477,824,833,5584,402,286,918,334,2254,1850,443,339,1078,577,1004,2683,1106,584,1612]","trial_type":"fractal-mutation","trial_index":57,"time_elapsed":2142696,"internal_node_id":"0.0-5.0-3.0"},{"group":"tri cycles (cube, non-group)","fractal_assignment":["../images/cyn_red.png","../images/org_blu.png","../images/grn_red.png","../images/ylw_pnk.png","../images/gry_blk.png","../images/blu_wht.png","../images/pnk_blu.png","../images/ylw_slt.png"],"mutagen_generator_assignment":[0,1],"goal":6,"start":1,"action_noise":0.1,"location_history":"[1,0,2,1,0,3,4,7,6]","action_history":"[0,0,0,0,1,0,1,0]","mutagen_history":"[0,0,0,0,1,0,1,0]","location_rts":"[441,433,662,402,377,462,378,335]","trial_type":"fractal-mutation","trial_index":58,"time_elapsed":2157911,"internal_node_id":"0.0-5.0-4.0"},{"group":"tri cycles (cube, non-group)","fractal_assignment":["../images/cyn_red.png","../images/org_blu.png","../images/grn_red.png","../images/ylw_pnk.png","../images/gry_blk.png","../images/blu_wht.png","../images/pnk_blu.png","../images/ylw_slt.png"],"mutagen_generator_assignment":[0,1],"goal":3,"start":6,"action_noise":0.1,"location_history":"[6,5,2,6,5,2,6,4,7,6,5,2,6,4,7,6,4,0,3]","action_history":"[0,1,1,1,1,1,0,0,0,1,1,1,0,0,0,0,1,1]","mutagen_history":"[0,1,1,1,1,1,0,0,0,1,1,1,0,0,0,0,1,1]","location_rts":"[360,447,623,442,684,363,646,407,348,334,300,313,1006,1020,100,87312,373,396]","trial_type":"fractal-mutation","trial_index":59,"time_elapsed":2275491,"internal_node_id":"0.0-5.0-5.0"},{"group":"tri cycles (cube, non-group)","fractal_assignment":["../images/cyn_red.png","../images/org_blu.png","../images/grn_red.png","../images/ylw_pnk.png","../images/gry_blk.png","../images/blu_wht.png","../images/pnk_blu.png","../images/ylw_slt.png"],"mutagen_generator_assignment":[0,1],"goal":4,"start":3,"action_noise":0.1,"location_history":"[3,7,3,4]","action_history":"[0,1,1]","mutagen_history":"[0,1,1]","location_rts":"[533,144,480]","trial_type":"fractal-mutation","trial_index":60,"time_elapsed":2283245,"internal_node_id":"0.0-5.0-6.0"},{"group":"tri cycles (cube, non-group)","fractal_assignment":["../images/cyn_red.png","../images/org_blu.png","../images/grn_red.png","../images/ylw_pnk.png","../images/gry_blk.png","../images/blu_wht.png","../images/pnk_blu.png","../images/ylw_slt.png"],"mutagen_generator_assignment":[0,1],"goal":1,"start":4,"action_noise":0.1,"location_history":"[4,7,3,7,3,4,7,3,4,7,6,4,0,2,1]","action_history":"[0,1,0,1,1,1,1,1,0,0,0,1,0,0]","mutagen_history":"[0,1,0,1,1,1,1,1,0,0,0,1,0,0]","location_rts":"[675,555,18586,387,267,354,521,202,429,296,599,423,1184,1547]","trial_type":"fractal-mutation","trial_index":61,"time_elapsed":2327247,"internal_node_id":"0.0-5.0-7.0"},{"group":"tri cycles (cube, non-group)","fractal_assignment":["../images/cyn_red.png","../images/org_blu.png","../images/grn_red.png","../images/ylw_pnk.png","../images/gry_blk.png","../images/blu_wht.png","../images/pnk_blu.png","../images/ylw_slt.png"],"mutagen_generator_assignment":[0,1],"goal":4,"start":1,"action_noise":0.1,"location_history":"[1,5,1,0,2,6,5,2,6,5,2,1,0,2,1,0,2,1,0,2,1,0,3,7,6,4]","action_history":"[1,0,0,1,1,1,1,1,1,1,0,0,0,0,0,0,0,0,0,0,0,0,0,0,0]","mutagen_history":"[1,0,0,1,1,1,1,1,1,1,0,0,0,0,0,0,0,0,0,0,0,0,0,0,0]","location_rts":"[333,458,338,631,478,574,847,511,498,748,345,396,675,738,445,414,278,482,376,467,343,463,509,319,686]","trial_type":"fractal-mutation","trial_index":62,"time_elapsed":2368848,"internal_node_id":"0.0-5.0-8.0"},{"group":"tri cycles (cube, non-group)","fractal_assignment":["../images/cyn_red.png","../images/org_blu.png","../images/grn_red.png","../images/ylw_pnk.png","../images/gry_blk.png","../images/blu_wht.png","../images/pnk_blu.png","../images/ylw_slt.png"],"mutagen_generator_assignment":[0,1],"goal":5,"start":4,"action_noise":0.1,"location_history":"[4,7,3,4,7,6,4,7,3,7,3,7,6,4,7,6,5]","action_history":"[0,1,1,0,0,0,0,1,0,0,0,0,0,0,0,0]","mutagen_history":"[0,1,1,0,0,0,0,1,0,0,0,0,0,0,0,0]","location_rts":"[499,280,256,369,294,301,269,274,531,365,332,654,344,260,310,267]","trial_type":"fractal-mutation","trial_index":63,"time_elapsed":2394420,"internal_node_id":"0.0-5.0-9.0"},{"group":"tri cycles (cube, non-group)","fractal_assignment":["../images/cyn_red.png","../images/org_blu.png","../images/grn_red.png","../images/ylw_pnk.png","../images/gry_blk.png","../images/blu_wht.png","../images/pnk_blu.png","../images/ylw_slt.png"],"mutagen_generator_assignment":[0,1],"goal":3,"start":5,"action_noise":0.1,"location_history":"[5,2,6,5,1,0,3]","action_history":"[1,1,1,0,0,1]","mutagen_history":"[1,1,1,0,0,1]","location_rts":"[657,481,331,310,507,371]","trial_type":"fractal-mutation","trial_index":64,"time_elapsed":2406767,"internal_node_id":"0.0-5.0-10.0"},{"group":"tri cycles (cube, non-group)","fractal_assignment":["../images/cyn_red.png","../images/org_blu.png","../images/grn_red.png","../images/ylw_pnk.png","../images/gry_blk.png","../images/blu_wht.png","../images/pnk_blu.png","../images/ylw_slt.png"],"mutagen_generator_assignment":[0,1],"goal":6,"start":3,"action_noise":0.1,"location_history":"[3,4,7,3,4,7,6]","action_history":"[1,0,1,1,0,0]","mutagen_history":"[1,0,1,1,0,0]","location_rts":"[1358,346,402,259,337,286]","trial_type":"fractal-mutation","trial_index":65,"time_elapsed":2419447,"internal_node_id":"0.0-5.0-11.0"},{"group":"tri cycles (cube, non-group)","fractal_assignment":["../images/cyn_red.png","../images/org_blu.png","../images/grn_red.png","../images/ylw_pnk.png","../images/gry_blk.png","../images/blu_wht.png","../images/pnk_blu.png","../images/ylw_slt.png"],"mutagen_generator_assignment":[0,1],"goal":7,"start":6,"action_noise":0.1,"location_history":"[6,4,0,3,7]","action_history":"[1,1,1,1]","mutagen_history":"[1,1,1,1]","location_rts":"[389,220,333,376]","trial_type":"fractal-mutation","trial_index":66,"time_elapsed":2428399,"internal_node_id":"0.0-5.0-12.0"},{"group":"tri cycles (cube, non-group)","fractal_assignment":["../images/cyn_red.png","../images/org_blu.png","../images/grn_red.png","../images/ylw_pnk.png","../images/gry_blk.png","../images/blu_wht.png","../images/pnk_blu.png","../images/ylw_slt.png"],"mutagen_generator_assignment":[0,1],"goal":0,"start":7,"action_noise":0.1,"location_history":"[7,3,4,7,6,4,7,6,4,7,6,5,1,5,2,6,5,2,6,5,2,1,0]","action_history":"[1,1,0,0,0,0,0,0,0,0,1,0,0,1,1,1,1,1,1,1,0,0]","mutagen_history":"[1,1,0,0,0,0,0,0,0,0,1,0,0,1,1,1,1,1,1,1,0,0]","location_rts":"[487,1180,304,215,267,820,683,337,419,1896,247,562,674,30487,312,282,298,619,552,330,601,574]","trial_type":"fractal-mutation","trial_index":67,"time_elapsed":2496721,"internal_node_id":"0.0-5.0-13.0"},{"group":"tri cycles (cube, non-group)","fractal_assignment":["../images/cyn_red.png","../images/org_blu.png","../images/grn_red.png","../images/ylw_pnk.png","../images/gry_blk.png","../images/blu_wht.png","../images/pnk_blu.png","../images/ylw_slt.png"],"mutagen_generator_assignment":[0,1],"goal":2,"start":0,"action_noise":0.1,"location_history":"[0,2]","action_history":"[0]","mutagen_history":"[0]","location_rts":"[291]","trial_type":"fractal-mutation","trial_index":68,"time_elapsed":2501541,"internal_node_id":"0.0-5.0-14.0"},{"group":"tri cycles (cube, non-group)","fractal_assignment":["../images/cyn_red.png","../images/org_blu.png","../images/grn_red.png","../images/ylw_pnk.png","../images/gry_blk.png","../images/blu_wht.png","../images/pnk_blu.png","../images/ylw_slt.png"],"mutagen_generator_assignment":[0,1],"goal":1,"start":2,"action_noise":0.1,"location_history":"[2,1]","action_history":"[0]","mutagen_history":"[0]","location_rts":"[313]","trial_type":"fractal-mutation","trial_index":69,"time_elapsed":2506382,"internal_node_id":"0.0-5.0-15.0"},{"group":"tri cycles (cube, non-group)","fractal_assignment":["../images/cyn_red.png","../images/org_blu.png","../images/grn_red.png","../images/ylw_pnk.png","../images/gry_blk.png","../images/blu_wht.png","../images/pnk_blu.png","../images/ylw_slt.png"],"mutagen_generator_assignment":[0,1],"goal":6,"start":1,"action_noise":0.1,"location_history":"[1,5,1,0,2,6]","action_history":"[0,0,0,0,1]","mutagen_history":"[0,0,0,0,1]","location_rts":"[354,389,390,359,493]","trial_type":"fractal-mutation","trial_index":70,"time_elapsed":2517039,"internal_node_id":"0.0-5.0-16.0"},{"group":"tri cycles (cube, non-group)","fractal_assignment":["../images/cyn_red.png","../images/org_blu.png","../images/grn_red.png","../images/ylw_pnk.png","../images/gry_blk.png","../images/blu_wht.png","../images/pnk_blu.png","../images/ylw_slt.png"],"mutagen_generator_assignment":[0,1],"goal":3,"start":6,"action_noise":0.1,"location_history":"[6,5,2,6,5,2,1,0,2,1,0,2,1,0,3]","action_history":"[0,1,1,1,1,0,0,0,0,0,0,0,0,1]","mutagen_history":"[0,1,1,1,1,0,0,0,0,0,0,0,0,1]","location_rts":"[392615,646,328,318,280,324,354,418,556,546,365,362,543,420]","trial_type":"fractal-mutation","trial_index":71,"time_elapsed":2934031,"internal_node_id":"0.0-5.0-17.0"},{"group":"tri cycles (cube, non-group)","fractal_assignment":["../images/cyn_red.png","../images/org_blu.png","../images/grn_red.png","../images/ylw_pnk.png","../images/gry_blk.png","../images/blu_wht.png","../images/pnk_blu.png","../images/ylw_slt.png"],"mutagen_generator_assignment":[0,1],"goal":4,"start":3,"action_noise":0.1,"location_history":"[3,7,3,4]","action_history":"[1,1,1]","mutagen_history":"[1,1,1]","location_rts":"[347,351,462]","trial_type":"fractal-mutation","trial_index":72,"time_elapsed":2941790,"internal_node_id":"0.0-5.0-18.0"},{"group":"tri cycles (cube, non-group)","fractal_assignment":["../images/cyn_red.png","../images/org_blu.png","../images/grn_red.png","../images/ylw_pnk.png","../images/gry_blk.png","../images/blu_wht.png","../images/pnk_blu.png","../images/ylw_slt.png"],"mutagen_generator_assignment":[0,1],"goal":5,"start":4,"action_noise":0.1,"location_history":"[4,0,3,4,0,3,7,6,4,7,6,4,7,3,4,7,3,4,0,3,4,0,2,1,0,2,1,0,2,1,5]","action_history":"[1,1,1,1,1,0,0,0,0,0,0,0,1,1,1,1,1,1,1,1,1,0,0,0,0,0,0,0,0,1]","mutagen_history":"[1,1,1,1,1,0,0,0,0,0,0,0,1,1,1,1,1,1,1,1,1,0,0,0,0,0,0,0,0,1]","location_rts":"[321,184,273,176,571,343,361,291,348,395,503,293,356,421,381,384,464,260,365,253,372,273,458,399,448,468,469,689,456,351]","trial_type":"fractal-mutation","trial_index":73,"time_elapsed":2987546,"internal_node_id":"0.0-5.0-19.0"},{"group":"tri cycles (cube, non-group)","fractal_assignment":["../images/cyn_red.png","../images/org_blu.png","../images/grn_red.png","../images/ylw_pnk.png","../images/gry_blk.png","../images/blu_wht.png","../images/pnk_blu.png","../images/ylw_slt.png"],"mutagen_generator_assignment":[0,1],"goal":7,"start":5,"action_noise":0.1,"location_history":"[5,1,0,2,1,0,2,1,5,2,6,5,2,6,5,2,6,4,0,2,1,0,3,7]","action_history":"[0,0,0,0,0,0,0,1,1,1,1,1,1,1,1,1,0,1,0,0,0,0,0]","mutagen_history":"[0,0,0,0,0,0,0,1,1,1,1,1,1,1,1,1,0,1,0,0,0,0,0]","location_rts":"[490,339,325,305,321,286,476,578,477,332,1644,1779,296,564,781,403,192,438,415,396,323,463,1044]","trial_type":"fractal-mutation","trial_index":74,"time_elapsed":3027385,"internal_node_id":"0.0-5.0-20.0"},{"group":"tri cycles (cube, non-group)","fractal_assignment":["../images/cyn_red.png","../images/org_blu.png","../images/grn_red.png","../images/ylw_pnk.png","../images/gry_blk.png","../images/blu_wht.png","../images/pnk_blu.png","../images/ylw_slt.png"],"mutagen_generator_assignment":[0,1],"goal":2,"start":7,"action_noise":0.1,"location_history":"[7,6,4,7,3,4,7,3,4,0,2]","action_history":"[0,0,1,1,1,0,1,0,1,1]","mutagen_history":"[0,0,1,1,1,0,1,0,1,1]","location_rts":"[455,302,455,452,567,477,489,875,318,819]","trial_type":"fractal-mutation","trial_index":75,"time_elapsed":3046395,"internal_node_id":"0.0-5.0-21.0"},{"group":"tri cycles (cube, non-group)","fractal_assignment":["../images/cyn_red.png","../images/org_blu.png","../images/grn_red.png","../images/ylw_pnk.png","../images/gry_blk.png","../images/blu_wht.png","../images/pnk_blu.png","../images/ylw_slt.png"],"mutagen_generator_assignment":[0,1],"goal":0,"start":2,"action_noise":0.1,"location_history":"[2,6,5,1,0]","action_history":"[1,1,0,0]","mutagen_history":"[1,1,0,0]","location_rts":"[354,372,466,715]","trial_type":"fractal-mutation","trial_index":76,"time_elapsed":3055924,"internal_node_id":"0.0-5.0-22.0"},{"group":"tri cycles (cube, non-group)","fractal_assignment":["../images/cyn_red.png","../images/org_blu.png","../images/grn_red.png","../images/ylw_pnk.png","../images/gry_blk.png","../images/blu_wht.png","../images/pnk_blu.png","../images/ylw_slt.png"],"mutagen_generator_assignment":[0,1],"goal":7,"start":0,"action_noise":0.1,"location_history":"[0,3,7]","action_history":"[1,0]","mutagen_history":"[1,0]","location_rts":"[430,459]","trial_type":"fractal-mutation","trial_index":77,"time_elapsed":3062380,"internal_node_id":"0.0-5.0-23.0"},{"group":"tri cycles (cube, non-group)","fractal_assignment":["../images/cyn_red.png","../images/org_blu.png","../images/grn_red.png","../images/ylw_pnk.png","../images/gry_blk.png","../images/blu_wht.png","../images/pnk_blu.png","../images/ylw_slt.png"],"mutagen_generator_assignment":[0,1],"goal":5,"start":7,"action_noise":0.1,"location_history":"[7,3,4,7,6,4,7,3,7,6,5]","action_history":"[1,1,0,0,0,0,0,0,0,1]","mutagen_history":"[1,1,0,0,0,0,0,0,0,1]","location_rts":"[864,321,431,547,598,435,660,325,856,358]","trial_type":"fractal-mutation","trial_index":78,"time_elapsed":3081565,"internal_node_id":"0.0-5.0-24.0"},{"group":"tri cycles (cube, non-group)","fractal_assignment":["../images/cyn_red.png","../images/org_blu.png","../images/grn_red.png","../images/ylw_pnk.png","../images/gry_blk.png","../images/blu_wht.png","../images/pnk_blu.png","../images/ylw_slt.png"],"mutagen_generator_assignment":[0,1],"goal":0,"start":5,"action_noise":0.1,"location_history":"[5,1,5,2,1,5,2,6,5,1,0]","action_history":"[0,0,0,0,1,1,1,1,0,0]","mutagen_history":"[0,0,0,0,1,1,1,1,0,0]","location_rts":"[646,64,381,862,147,463,576,173,470,348]","trial_type":"fractal-mutation","trial_index":79,"time_elapsed":3099494,"internal_node_id":"0.0-5.0-25.0"},{"group":"tri cycles (cube, non-group)","fractal_assignment":["../images/cyn_red.png","../images/org_blu.png","../images/grn_red.png","../images/ylw_pnk.png","../images/gry_blk.png","../images/blu_wht.png","../images/pnk_blu.png","../images/ylw_slt.png"],"mutagen_generator_assignment":[0,1],"goal":6,"start":0,"action_noise":0.1,"location_history":"[0,2,1,0,3,4,7,3,7,3,4,0,3,4,0,2,1,5,2,6]","action_history":"[0,0,0,1,1,1,1,0,0,1,1,1,1,1,1,0,1,1,1]","mutagen_history":"[0,0,0,1,1,1,1,0,0,1,1,1,1,1,1,0,1,1,1]","location_rts":"[851,483,653,604,564,665,568,590,659,556,466,446,158,502,577,323,3196,1948,851]","trial_type":"fractal-mutation","trial_index":80,"time_elapsed":3137229,"internal_node_id":"0.0-5.0-26.0"},{"group":"tri cycles (cube, non-group)","fractal_assignment":["../images/cyn_red.png","../images/org_blu.png","../images/grn_red.png","../images/ylw_pnk.png","../images/gry_blk.png","../images/blu_wht.png","../images/pnk_blu.png","../images/ylw_slt.png"],"mutagen_generator_assignment":[0,1],"goal":4,"start":6,"action_noise":0.1,"location_history":"[6,4]","action_history":"[0]","mutagen_history":"[0]","location_rts":"[1886]","trial_type":"fractal-mutation","trial_index":81,"time_elapsed":3143644,"internal_node_id":"0.0-5.0-27.0"},{"group":"tri cycles (cube, non-group)","fractal_assignment":["../images/cyn_red.png","../images/org_blu.png","../images/grn_red.png","../images/ylw_pnk.png","../images/gry_blk.png","../images/blu_wht.png","../images/pnk_blu.png","../images/ylw_slt.png"],"mutagen_generator_assignment":[0,1],"goal":2,"start":4,"action_noise":0.1,"location_history":"[4,0,3,4,0,2]","action_history":"[1,1,1,1,0]","mutagen_history":"[1,1,1,1,0]","location_rts":"[725,295,691,321,313]","trial_type":"fractal-mutation","trial_index":82,"time_elapsed":3154633,"internal_node_id":"0.0-5.0-28.0"},{"group":"tri cycles (cube, non-group)","fractal_assignment":["../images/cyn_red.png","../images/org_blu.png","../images/grn_red.png","../images/ylw_pnk.png","../images/gry_blk.png","../images/blu_wht.png","../images/pnk_blu.png","../images/ylw_slt.png"],"mutagen_generator_assignment":[0,1],"goal":3,"start":2,"action_noise":0.1,"location_history":"[2,6,5,2,6,5,2,1,0,2,6,4,7,6,4,0,3]","action_history":"[1,1,1,1,1,1,0,0,0,1,0,0,0,0,0,1]","mutagen_history":"[1,1,1,1,1,1,0,0,0,1,0,0,0,0,0,1]","location_rts":"[850,393,2928,495,773,656,189,1046,1255,325,243,560,1929,441,783,803]","trial_type":"fractal-mutation","trial_index":83,"time_elapsed":3188281,"internal_node_id":"0.0-5.0-29.0"},{"group":"tri cycles (cube, non-group)","fractal_assignment":["../images/cyn_red.png","../images/org_blu.png","../images/grn_red.png","../images/ylw_pnk.png","../images/gry_blk.png","../images/blu_wht.png","../images/pnk_blu.png","../images/ylw_slt.png"],"mutagen_generator_assignment":[0,1],"goal":1,"start":3,"action_noise":0.1,"location_history":"[3,7,6,5,2,6,5,1]","action_history":"[0,0,0,1,1,1,1]","mutagen_history":"[0,0,0,1,1,1,1]","location_rts":"[530,443,439,1058,331,377,306]","trial_type":"fractal-mutation","trial_index":84,"time_elapsed":3202486,"internal_node_id":"0.0-5.0-30.0"},{"group":"tri cycles (cube, non-group)","fractal_assignment":["../images/cyn_red.png","../images/org_blu.png","../images/grn_red.png","../images/ylw_pnk.png","../images/gry_blk.png","../images/blu_wht.png","../images/pnk_blu.png","../images/ylw_slt.png"],"mutagen_generator_assignment":[0,1],"goal":4,"start":1,"action_noise":0.1,"location_history":"[1,5,1,0,2,1,0,3,4]","action_history":"[0,0,0,0,0,0,1,1]","mutagen_history":"[0,0,0,0,0,0,1,1]","location_rts":"[439,469,398,503,662,685,584,415]","trial_type":"fractal-mutation","trial_index":85,"time_elapsed":3218368,"internal_node_id":"0.0-5.0-31.0"},{"group":"tri cycles (cube, non-group)","fractal_assignment":["../images/cyn_red.png","../images/org_blu.png","../images/grn_red.png","../images/ylw_pnk.png","../images/gry_blk.png","../images/blu_wht.png","../images/pnk_blu.png","../images/ylw_slt.png"],"mutagen_generator_assignment":[0,1],"goal":3,"start":4,"action_noise":0.1,"location_history":"[4,0,3]","action_history":"[1,1]","mutagen_history":"[1,1]","location_rts":"[635,319]","trial_type":"fractal-mutation","trial_index":86,"time_elapsed":3224911,"internal_node_id":"0.0-5.0-32.0"},{"group":"tri cycles (cube, non-group)","fractal_assignment":["../images/cyn_red.png","../images/org_blu.png","../images/grn_red.png","../images/ylw_pnk.png","../images/gry_blk.png","../images/blu_wht.png","../images/pnk_blu.png","../images/ylw_slt.png"],"mutagen_generator_assignment":[0,1],"goal":6,"start":3,"action_noise":0.1,"location_history":"[3,4,0,3,7,3,7,3,4,0,3,4,7,6]","action_history":"[1,1,1,1,1,1,1,1,1,1,1,0,0]","mutagen_history":"[1,1,1,1,1,1,1,1,1,1,1,0,0]","location_rts":"[455,369,737,520,1070,1998,356,2241,428,1105,391,270,355]","trial_type":"fractal-mutation","trial_index":87,"time_elapsed":3252114,"internal_node_id":"0.0-5.0-33.0"},{"group":"tri cycles (cube, non-group)","fractal_assignment":["../images/cyn_red.png","../images/org_blu.png","../images/grn_red.png","../images/ylw_pnk.png","../images/gry_blk.png","../images/blu_wht.png","../images/pnk_blu.png","../images/ylw_slt.png"],"mutagen_generator_assignment":[0,1],"goal":0,"start":6,"action_noise":0.1,"location_history":"[6,4,7,6,4,0]","action_history":"[0,0,0,0,1]","mutagen_history":"[0,0,0,0,1]","location_rts":"[506,367,497,364,326]","trial_type":"fractal-mutation","trial_index":88,"time_elapsed":3262821,"internal_node_id":"0.0-5.0-34.0"},{"group":"tri cycles (cube, non-group)","fractal_assignment":["../images/cyn_red.png","../images/org_blu.png","../images/grn_red.png","../images/ylw_pnk.png","../images/gry_blk.png","../images/blu_wht.png","../images/pnk_blu.png","../images/ylw_slt.png"],"mutagen_generator_assignment":[0,1],"goal":1,"start":0,"action_noise":0.1,"location_history":"[0,3,7,3,7,6,5,1]","action_history":"[1,1,0,0,0,0,0]","mutagen_history":"[1,1,0,0,0,0,0]","location_rts":"[784,508,579,510,619,326,371]","trial_type":"fractal-mutation","trial_index":89,"time_elapsed":3277223,"internal_node_id":"0.0-5.0-35.0"},{"group":"tri cycles (cube, non-group)","fractal_assignment":["../images/cyn_red.png","../images/org_blu.png","../images/grn_red.png","../images/ylw_pnk.png","../images/gry_blk.png","../images/blu_wht.png","../images/pnk_blu.png","../images/ylw_slt.png"],"mutagen_generator_assignment":[0,1],"goal":5,"start":1,"action_noise":0.1,"location_history":"[1,5]","action_history":"[1]","mutagen_history":"[1]","location_rts":"[1148]","trial_type":"fractal-mutation","trial_index":90,"time_elapsed":3282908,"internal_node_id":"0.0-5.0-36.0"},{"group":"tri cycles (cube, non-group)","fractal_assignment":["../images/cyn_red.png","../images/org_blu.png","../images/grn_red.png","../images/ylw_pnk.png","../images/gry_blk.png","../images/blu_wht.png","../images/pnk_blu.png","../images/ylw_slt.png"],"mutagen_generator_assignment":[0,1],"goal":7,"start":5,"action_noise":0.1,"location_history":"[5,1,0,2,6,4,7]","action_history":"[1,1,0,0,0,0]","mutagen_history":"[1,1,0,0,0,0]","location_rts":"[640,430,459,673,662,317]","trial_type":"fractal-mutation","trial_index":91,"time_elapsed":3295763,"internal_node_id":"0.0-5.0-37.0"},{"group":"tri cycles (cube, non-group)","fractal_assignment":["../images/cyn_red.png","../images/org_blu.png","../images/grn_red.png","../images/ylw_pnk.png","../images/gry_blk.png","../images/blu_wht.png","../images/pnk_blu.png","../images/ylw_slt.png"],"mutagen_generator_assignment":[0,1],"goal":2,"start":7,"action_noise":0.1,"location_history":"[7,3,7,3,7,6,4,7,3,4,0,3,4,0,3,4,7,3,7,3,7,3,4,0,2]","action_history":"[1,1,1,0,0,0,0,1,1,1,1,1,1,1,1,1,1,0,0,0,1,1,1,0]","mutagen_history":"[1,1,1,0,0,0,0,1,1,1,1,1,1,1,1,1,1,0,0,0,1,1,1,0]","location_rts":"[647,359,305,575,296,311,310,350,404,324,322,404,496,327,702,322,306,310,420,512,1135,632,409,378]","trial_type":"fractal-mutation","trial_index":92,"time_elapsed":3334534,"internal_node_id":"0.0-5.0-38.0"},{"group":"tri cycles (cube, non-group)","fractal_assignment":["../images/cyn_red.png","../images/org_blu.png","../images/grn_red.png","../images/ylw_pnk.png","../images/gry_blk.png","../images/blu_wht.png","../images/pnk_blu.png","../images/ylw_slt.png"],"mutagen_generator_assignment":[0,1],"goal":1,"start":2,"action_noise":0.1,"location_history":"[2,6,5,2,1]","action_history":"[1,1,1,1]","mutagen_history":"[1,1,1,1]","location_rts":"[462,343,655,682]","trial_type":"fractal-mutation","trial_index":93,"time_elapsed":3344321,"internal_node_id":"0.0-5.0-39.0"},{"group":"tri cycles (cube, non-group)","fractal_assignment":["../images/cyn_red.png","../images/org_blu.png","../images/grn_red.png","../images/ylw_pnk.png","../images/gry_blk.png","../images/blu_wht.png","../images/pnk_blu.png","../images/ylw_slt.png"],"mutagen_generator_assignment":[0,1],"goal":3,"start":1,"action_noise":0.1,"location_history":"[1,5,1,0,2,1,0,2,6,5,1,0,2,1,0,2,1,5,2,6,5,1,0,2,1,0,3]","action_history":"[1,0,0,0,0,0,0,1,1,0,0,0,0,0,0,0,1,1,1,1,0,0,0,0,0,0]","mutagen_history":"[1,0,0,0,0,0,0,1,1,0,0,0,0,0,0,0,1,1,1,1,0,0,0,0,0,0]","location_rts":"[1985,361,642,756,826,615,447,378,594,598,567,694,388,476,402,290,584,513,623,566,318,718,477,406,615,455]","trial_type":"fractal-mutation","trial_index":94,"time_elapsed":3389922,"internal_node_id":"0.0-5.0-40.0"},{"group":"tri cycles (cube, non-group)","fractal_assignment":["../images/cyn_red.png","../images/org_blu.png","../images/grn_red.png","../images/ylw_pnk.png","../images/gry_blk.png","../images/blu_wht.png","../images/pnk_blu.png","../images/ylw_slt.png"],"mutagen_generator_assignment":[0,1],"goal":4,"start":3,"action_noise":0.1,"location_history":"[3,7,6,4]","action_history":"[0,0,0]","mutagen_history":"[0,0,0]","location_rts":"[564,411,389]","trial_type":"fractal-mutation","trial_index":95,"time_elapsed":3397869,"internal_node_id":"0.0-5.0-41.0"},{"group":"tri cycles (cube, non-group)","fractal_assignment":["../images/cyn_red.png","../images/org_blu.png","../images/grn_red.png","../images/ylw_pnk.png","../images/gry_blk.png","../images/blu_wht.png","../images/pnk_blu.png","../images/ylw_slt.png"],"mutagen_generator_assignment":[0,1],"goal":2,"start":4,"action_noise":0.1,"location_history":"[4,7,3,4,7,3,7,3,4,0,2]","action_history":"[0,1,1,0,0,0,1,1,1,0]","mutagen_history":"[0,1,1,0,0,0,1,1,1,0]","location_rts":"[642,284,491,403,362,510,276,472,404,701]","trial_type":"fractal-mutation","trial_index":96,"time_elapsed":3416228,"internal_node_id":"0.0-5.0-42.0"},{"group":"tri cycles (cube, non-group)","fractal_assignment":["../images/cyn_red.png","../images/org_blu.png","../images/grn_red.png","../images/ylw_pnk.png","../images/gry_blk.png","../images/blu_wht.png","../images/pnk_blu.png","../images/ylw_slt.png"],"mutagen_generator_assignment":[0,1],"goal":5,"start":2,"action_noise":0.1,"location_history":"[2,6,4,7,6,4,7,6,5]","action_history":"[1,1,0,0,0,0,0,1]","mutagen_history":"[1,1,0,0,0,0,0,1]","location_rts":"[437,377,265,394,1076,1626,295,626]","trial_type":"fractal-mutation","trial_index":97,"time_elapsed":3433055,"internal_node_id":"0.0-5.0-43.0"},{"group":"tri cycles (cube, non-group)","fractal_assignment":["../images/cyn_red.png","../images/org_blu.png","../images/grn_red.png","../images/ylw_pnk.png","../images/gry_blk.png","../images/blu_wht.png","../images/pnk_blu.png","../images/ylw_slt.png"],"mutagen_generator_assignment":[0,1],"goal":0,"start":5,"action_noise":0.1,"location_history":"[5,2,6,4,0]","action_history":"[1,1,1,1]","mutagen_history":"[1,1,1,1]","location_rts":"[979,480,337,711]","trial_type":"fractal-mutation","trial_index":98,"time_elapsed":3443192,"internal_node_id":"0.0-5.0-44.0"},{"group":"tri cycles (cube, non-group)","fractal_assignment":["../images/cyn_red.png","../images/org_blu.png","../images/grn_red.png","../images/ylw_pnk.png","../images/gry_blk.png","../images/blu_wht.png","../images/pnk_blu.png","../images/ylw_slt.png"],"mutagen_generator_assignment":[0,1],"goal":7,"start":0,"action_noise":0.1,"location_history":"[0,2,6,4,0,2,1,5,2,1,0,2,1,0,3,4,7]","action_history":"[1,1,0,0,0,0,1,1,0,0,0,0,0,1,1,0]","mutagen_history":"[1,1,0,0,0,0,1,1,0,0,0,0,0,1,1,0]","location_rts":"[477,393,277,363,404,565,313,527,327,378,441,358,404,289,445,564]","trial_type":"fractal-mutation","trial_index":99,"time_elapsed":3469685,"internal_node_id":"0.0-5.0-45.0"},{"group":"tri cycles (cube, non-group)","fractal_assignment":["../images/cyn_red.png","../images/org_blu.png","../images/grn_red.png","../images/ylw_pnk.png","../images/gry_blk.png","../images/blu_wht.png","../images/pnk_blu.png","../images/ylw_slt.png"],"mutagen_generator_assignment":[0,1],"goal":6,"start":7,"action_noise":0.1,"location_history":"[7,3,7,6]","action_history":"[1,0,0]","mutagen_history":"[1,0,0]","location_rts":"[995,2306,451]","trial_type":"fractal-mutation","trial_index":100,"time_elapsed":3480030,"internal_node_id":"0.0-5.0-46.0"},{"group":"tri cycles (cube, non-group)","fractal_assignment":["../images/cyn_red.png","../images/org_blu.png","../images/grn_red.png","../images/ylw_pnk.png","../images/gry_blk.png","../images/blu_wht.png","../images/pnk_blu.png","../images/ylw_slt.png"],"mutagen_generator_assignment":[0,1],"goal":2,"start":6,"action_noise":0.1,"location_history":"[6,4,7,3,4,7,6,4,7,3,4,7,6,4,0,2]","action_history":"[0,0,1,1,0,0,0,0,1,1,1,1,1,1,0]","mutagen_history":"[0,0,1,1,0,0,0,0,1,1,1,1,1,1,0]","location_rts":"[1337,385,867,1235,560,462,559,157,330,548,258,337,192,376,461]","trial_type":"fractal-mutation","trial_index":101,"time_elapsed":3507046,"internal_node_id":"0.0-5.0-47.0"},{"group":"tri cycles (cube, non-group)","fractal_assignment":["../images/cyn_red.png","../images/org_blu.png","../images/grn_red.png","../images/ylw_pnk.png","../images/gry_blk.png","../images/blu_wht.png","../images/pnk_blu.png","../images/ylw_slt.png"],"mutagen_generator_assignment":[0,1],"goal":5,"start":2,"action_noise":0.1,"location_history":"[2,1,0,2,6,4,7,6,4,0,2,1,0,3,4,0,3,4,7,3,7,6,4,7,3,4,0,3,4,0,3,4,0,3,4,7,6,4,7,6,4,7,6,4,0,2,1,0,3,4,7,6,4,0,3,7,6,4,7,3,7,3,4,0,3,4,0,2,6,5]","action_history":"[0,0,0,1,0,0,0,0,0,0,0,0,1,1,1,1,1,1,1,0,0,0,0,1,1,1,1,1,1,1,1,1,0,1,0,0,0,0,0,0,0,0,1,1,0,0,0,1,1,0,0,0,1,1,1,0,0,0,1,1,1,1,1,1,1,1,0,1,1]","mutagen_history":"[0,0,0,1,0,0,0,0,0,0,0,0,1,1,1,1,1,1,1,0,0,0,0,1,1,1,1,1,1,1,1,1,0,1,0,0,0,0,0,0,0,0,1,1,0,0,0,1,1,0,0,0,1,1,1,0,0,0,1,1,1,1,1,1,1,1,0,1,1]","location_rts":"[462,252,1028,803,676,371,362,1036,414,382,389,546,325,1031,545,352,581,867,1718,295,838,1625,363,565,696,400,474,923,481,649,864,2935,1401,317,283,365,470,951,384,691,376,607,302,413,582,530,437,469,351,305,353,440,286,329,529,317,348,244,311,293,305,362,722,505,541,391,299,775,513]","trial_type":"fractal-mutation","trial_index":102,"time_elapsed":3621923,"internal_node_id":"0.0-5.0-48.0"},{"group":"tri cycles (cube, non-group)","fractal_assignment":["../images/cyn_red.png","../images/org_blu.png","../images/grn_red.png","../images/ylw_pnk.png","../images/gry_blk.png","../images/blu_wht.png","../images/pnk_blu.png","../images/ylw_slt.png"],"mutagen_generator_assignment":[0,1],"goal":3,"start":5,"action_noise":0.1,"location_history":"[5,2,1,5,1,0,2,6,5,1,0,3]","action_history":"[1,0,0,0,0,0,1,1,0,0,1]","mutagen_history":"[1,0,0,0,0,0,1,1,0,0,1]","location_rts":"[617,400,347,500,639,395,470,446,1088,543,561]","trial_type":"fractal-mutation","trial_index":103,"time_elapsed":3642731,"internal_node_id":"0.0-5.0-49.0"},{"view_history":"[{\"page_index\":0,\"viewing_time\":2451}]","rt":2451,"trial_type":"instructions","trial_index":104,"time_elapsed":3646182,"internal_node_id":"0.0-6.0"},{"rt":31822,"responses":"{\"Q0\":\"To find the pattern to get to each colored door.\"}","trial_type":"survey-text","trial_index":105,"time_elapsed":3679009,"internal_node_id":"0.0-7.0-0.0"},{"rt":38434,"responses":"{\"Q0\":\"Whether or not I could figure out which letter to press and get the pattern correct.\"}","trial_type":"survey-text","trial_index":106,"time_elapsed":3718447,"internal_node_id":"0.0-7.0-1.0"},{"rt":13541,"responses":"{\"Q0\":\"<img src='../images/diagrams/square_cycles.png'>\"}","trial_type":"survey-multi-choice","trial_index":107,"time_elapsed":3732992,"internal_node_id":"0.0-7.0-2.0"},{"rt":57567,"assignments":["../images/pnk_blu.png","../images/ylw_pnk.png","../images/blu_wht.png","../images/gry_blk.png","../images/grn_red.png","../images/org_blu.png","../images/cyn_red.png","../images/ylw_slt.png"],"trial_type":"drag-drop-on-image","trial_index":108,"time_elapsed":3791561,"internal_node_id":"0.0-7.0-3.0"},{"rt":5680,"responses":"{\"Q0\":\"2\"}","trial_type":"survey-likert","trial_index":109,"time_elapsed":3798247,"internal_node_id":"0.0-7.0-4.0"},{"rt":9951,"responses":"{\"Q0\":\"I didn't really notice any similarities.\"}","trial_type":"survey-text","trial_index":110,"time_elapsed":3809199,"internal_node_id":"0.0-7.0-5.0"},{"rt":4437,"responses":"{\"Q0\":\"No\"}","trial_type":"survey-multi-choice","trial_index":111,"time_elapsed":3814640,"internal_node_id":"0.0-7.0-6.0"},{"rt":4484,"responses":"{\"Q0\":\"During these questions/I wasn't aware until you pointed it out\"}","trial_type":"survey-multi-choice","trial_index":112,"time_elapsed":3820130,"internal_node_id":"0.0-7.0-7.0"},{"rt":5401,"responses":"{\"Q0\":\"\"}","trial_type":"survey-text","trial_index":113,"time_elapsed":3826534,"internal_node_id":"0.0-7.0-8.0"},{"rt":5008,"responses":"{\"Q0\":\"0\"}","trial_type":"survey-likert","trial_index":114,"time_elapsed":3832546,"internal_node_id":"0.0-7.0-9.0"},{"rt":3454,"responses":"{\"Q0\":\"Different structure\"}","trial_type":"survey-multi-choice","trial_index":115,"time_elapsed":3837004,"internal_node_id":"0.0-7.0-10.0"},{"rt":21311,"responses":"{\"Q0\":\"left (white) door = ray, (black) door = acid\",\"Q1\":\"Not at all confident\"}","trial_type":"survey-multi-choice","trial_index":116,"time_elapsed":3859321,"internal_node_id":"0.0-7.0-11.0"},{"rt":11134,"responses":"{\"Q0\":\"25-35\",\"Q1\":\"High school degree or GED\",\"Q2\":\"Female\",\"Q3\":\"White\"}","trial_type":"survey-multi-choice","trial_index":117,"time_elapsed":3871468,"internal_node_id":"0.0-8.0"},{"rt":2156,"responses":"{\"Q0\":\"\"}","trial_type":"survey-text","trial_index":118,"time_elapsed":3874628,"internal_node_id":"0.0-9.0"}]