[{"view_history":"[{\"page_index\":0,\"viewing_time\":5520},{\"page_index\":1,\"viewing_time\":10046}]","rt":15567,"trial_type":"instructions","trial_index":0,"time_elapsed":15568,"internal_node_id":"0.0-0.0"},{"view_history":"[{\"page_index\":0,\"viewing_time\":3243},{\"page_index\":1,\"viewing_time\":4274}]","rt":7518,"trial_type":"instructions","trial_index":1,"time_elapsed":24089,"internal_node_id":"0.0-1.0"},{"group":"tri cycles (cube, non-group)","room_assignment":["green","purple","red","brown","grey","blue","pink","yellow"],"door_color_assignment":["white","black"],"door_generator_assignment":[1,0],"goal":5,"start":7,"action_noise":0.1,"location_history":"[7,6,4,7,6,4,7,6,4,7,6,5]","action_history":"[0,0,0,1,1,0,0,0,0,0,1]","door_history":"[1,1,1,0,0,1,1,1,1,1,0]","location_rts":"[5116,609,492,427,1035,346,413,345,351,867,170]","trial_type":"two-door-navigation","trial_index":2,"time_elapsed":48929,"internal_node_id":"0.0-2.0-0.0"},{"group":"tri cycles (cube, non-group)","room_assignment":["green","purple","red","brown","grey","blue","pink","yellow"],"door_color_assignment":["white","black"],"door_generator_assignment":[1,0],"goal":2,"start":5,"action_noise":0.1,"location_history":"[5,1,0,2]","action_history":"[0,0,0]","door_history":"[1,1,1]","location_rts":"[4015,383,322]","trial_type":"two-door-navigation","trial_index":3,"time_elapsed":60194,"internal_node_id":"0.0-2.0-1.0"},{"group":"tri cycles (cube, non-group)","room_assignment":["green","purple","red","brown","grey","blue","pink","yellow"],"door_color_assignment":["white","black"],"door_generator_assignment":[1,0],"goal":0,"start":2,"action_noise":0.1,"location_history":"[2,1,0]","action_history":"[0,0]","door_history":"[1,1]","location_rts":"[4883,522]","trial_type":"two-door-navigation","trial_index":4,"time_elapsed":71115,"internal_node_id":"0.0-2.0-2.0"},{"group":"tri cycles (cube, non-group)","room_assignment":["green","purple","red","brown","grey","blue","pink","yellow"],"door_color_assignment":["white","black"],"door_generator_assignment":[1,0],"goal":1,"start":0,"action_noise":0.1,"location_history":"[0,2,1]","action_history":"[0,0]","door_history":"[1,1]","location_rts":"[6106,383]","trial_type":"two-door-navigation","trial_index":5,"time_elapsed":83135,"internal_node_id":"0.0-2.0-3.0"},{"group":"tri cycles (cube, non-group)","room_assignment":["green","purple","red","brown","grey","blue","pink","yellow"],"door_color_assignment":["white","black"],"door_generator_assignment":[1,0],"goal":6,"start":1,"action_noise":0.1,"location_history":"[1,0,2,1,5,2,6]","action_history":"[0,0,0,1,1,1]","door_history":"[1,1,1,0,0,0]","location_rts":"[3013,665,978,415,413,973]","trial_type":"two-door-navigation","trial_index":6,"time_elapsed":99164,"internal_node_id":"0.0-2.0-4.0"},{"group":"tri cycles (cube, non-group)","room_assignment":["green","purple","red","brown","grey","blue","pink","yellow"],"door_color_assignment":["white","black"],"door_generator_assignment":[1,0],"goal":3,"start":6,"action_noise":0.1,"location_history":"[6,5,2,6,5,2,1,0,2,1,5,1,5,1,0,2,1,5,2,6,5,2,6,5,2,6,5,2,6,4,0,3]","action_history":"[1,1,1,1,1,0,0,0,0,1,1,1,0,0,0,0,1,1,1,1,1,0,1,1,0,1,1,1,0,1,1]","door_history":"[0,0,0,0,0,1,1,1,1,0,0,0,1,1,1,1,0,0,0,0,0,1,0,0,1,0,0,0,1,0,0]","location_rts":"[1822,6506,722,761,546,3572,426,453,438,260,333,396,206,521,923,792,333,584,476,1213,725,1327,900,723,2946,2757,874,406,306,1334,317]","trial_type":"two-door-navigation","trial_index":7,"time_elapsed":167926,"internal_node_id":"0.0-2.0-5.0"},{"group":"tri cycles (cube, non-group)","room_assignment":["green","purple","red","brown","grey","blue","pink","yellow"],"door_color_assignment":["white","black"],"door_generator_assignment":[1,0],"goal":4,"start":3,"action_noise":0.1,"location_history":"[3,4]","action_history":"[1]","door_history":"[0]","location_rts":"[2132]","trial_type":"two-door-navigation","trial_index":8,"time_elapsed":174576,"internal_node_id":"0.0-2.0-6.0"},{"group":"tri cycles (cube, non-group)","room_assignment":["green","purple","red","brown","grey","blue","pink","yellow"],"door_color_assignment":["white","black"],"door_generator_assignment":[1,0],"goal":1,"start":4,"action_noise":0.1,"location_history":"[4,7,6,4,0,3,7,6,4,0,3,7,6,4,7,6,5,2,1]","action_history":"[0,0,0,1,1,0,0,0,1,1,0,0,0,0,0,1,1,0]","door_history":"[1,1,1,0,0,1,1,1,0,0,1,1,1,1,1,0,0,1]","location_rts":"[1649,2917,2544,1168,2488,1418,3570,971,996,344,346,288,250,221,392,897,318,433]","trial_type":"two-door-navigation","trial_index":9,"time_elapsed":217515,"internal_node_id":"0.0-2.0-7.0"},{"group":"tri cycles (cube, non-group)","room_assignment":["green","purple","red","brown","grey","blue","pink","yellow"],"door_color_assignment":["white","black"],"door_generator_assignment":[1,0],"goal":4,"start":1,"action_noise":0.1,"location_history":"[1,5,2,6,4]","action_history":"[1,1,1,1]","door_history":"[0,0,0,0]","location_rts":"[1597,388,596,1741]","trial_type":"two-door-navigation","trial_index":10,"time_elapsed":229387,"internal_node_id":"0.0-2.0-8.0"},{"group":"tri cycles (cube, non-group)","room_assignment":["green","purple","red","brown","grey","blue","pink","yellow"],"door_color_assignment":["white","black"],"door_generator_assignment":[1,0],"goal":5,"start":4,"action_noise":0.1,"location_history":"[4,0,2,1,0,2,6,4,7,6,5]","action_history":"[1,0,0,0,0,1,0,0,0,1]","door_history":"[0,1,1,1,1,0,1,1,1,0]","location_rts":"[1614,976,392,403,388,1286,1090,545,1023,721]","trial_type":"two-door-navigation","trial_index":11,"time_elapsed":251430,"internal_node_id":"0.0-2.0-9.0"},{"group":"tri cycles (cube, non-group)","room_assignment":["green","purple","red","brown","grey","blue","pink","yellow"],"door_color_assignment":["white","black"],"door_generator_assignment":[1,0],"goal":3,"start":5,"action_noise":0.1,"location_history":"[5,2,1,5,2,1,5,2,6,4,0,2,6,5,1,5,1,0,3]","action_history":"[1,1,1,1,0,0,1,1,1,1,0,1,1,1,1,0,1,1]","door_history":"[0,0,0,0,1,1,0,0,0,0,1,0,0,0,0,1,0,0]","location_rts":"[1119,440,345,319,715,1090,580,384,833,300,1118,376,268,402,1093,768,341,374]","trial_type":"two-door-navigation","trial_index":12,"time_elapsed":284031,"internal_node_id":"0.0-2.0-10.0"},{"group":"tri cycles (cube, non-group)","room_assignment":["green","purple","red","brown","grey","blue","pink","yellow"],"door_color_assignment":["white","black"],"door_generator_assignment":[1,0],"goal":6,"start":3,"action_noise":0.1,"location_history":"[3,4,0,3,7,3,4,0,2,6]","action_history":"[1,1,1,0,1,1,1,0,1]","door_history":"[0,0,0,1,0,0,0,1,0]","location_rts":"[1325,408,455,603,1894,681,1595,1196,520]","trial_type":"two-door-navigation","trial_index":13,"time_elapsed":305323,"internal_node_id":"0.0-2.0-11.0"},{"group":"tri cycles (cube, non-group)","room_assignment":["green","purple","red","brown","grey","blue","pink","yellow"],"door_color_assignment":["white","black"],"door_generator_assignment":[1,0],"goal":7,"start":6,"action_noise":0.1,"location_history":"[6,4,0,2,6,5,1,0,2,1,0,3,4,0,2,1,0,3,7]","action_history":"[0,0,0,1,1,0,0,0,0,0,1,1,1,1,0,0,0,0]","door_history":"[1,1,1,0,0,1,1,1,1,1,0,0,0,0,1,1,1,1]","location_rts":"[2637,2506,490,748,1044,736,622,543,282,303,729,801,686,807,728,499,348,275]","trial_type":"two-door-navigation","trial_index":14,"time_elapsed":341794,"internal_node_id":"0.0-2.0-12.0"},{"group":"tri cycles (cube, non-group)","room_assignment":["green","purple","red","brown","grey","blue","pink","yellow"],"door_color_assignment":["white","black"],"door_generator_assignment":[1,0],"goal":0,"start":7,"action_noise":0.1,"location_history":"[7,3,7,6,4,0]","action_history":"[1,0,0,0,1]","door_history":"[0,1,1,1,0]","location_rts":"[1493,997,454,343,1262]","trial_type":"two-door-navigation","trial_index":15,"time_elapsed":354886,"internal_node_id":"0.0-2.0-13.0"},{"group":"tri cycles (cube, non-group)","room_assignment":["green","purple","red","brown","grey","blue","pink","yellow"],"door_color_assignment":["white","black"],"door_generator_assignment":[1,0],"goal":2,"start":0,"action_noise":0.1,"location_history":"[0,2]","action_history":"[0]","door_history":"[1]","location_rts":"[2141]","trial_type":"two-door-navigation","trial_index":16,"time_elapsed":361544,"internal_node_id":"0.0-2.0-14.0"},{"group":"tri cycles (cube, non-group)","room_assignment":["green","purple","red","brown","grey","blue","pink","yellow"],"door_color_assignment":["white","black"],"door_generator_assignment":[1,0],"goal":1,"start":2,"action_noise":0.1,"location_history":"[2,6,4,0,2,6,5,1]","action_history":"[0,0,0,0,1,1,0]","door_history":"[1,1,1,1,0,0,1]","location_rts":"[1737,605,418,1180,625,1288,486]","trial_type":"two-door-navigation","trial_index":17,"time_elapsed":378479,"internal_node_id":"0.0-2.0-15.0"},{"group":"tri cycles (cube, non-group)","room_assignment":["green","purple","red","brown","grey","blue","pink","yellow"],"door_color_assignment":["white","black"],"door_generator_assignment":[1,0],"goal":6,"start":1,"action_noise":0.1,"location_history":"[1,5,2,6]","action_history":"[1,1,1]","door_history":"[0,0,0]","location_rts":"[1540,1109,500]","trial_type":"two-door-navigation","trial_index":18,"time_elapsed":388168,"internal_node_id":"0.0-2.0-16.0"},{"group":"tri cycles (cube, non-group)","room_assignment":["green","purple","red","brown","grey","blue","pink","yellow"],"door_color_assignment":["white","black"],"door_generator_assignment":[1,0],"goal":3,"start":6,"action_noise":0.1,"location_history":"[6,5,1,0,3]","action_history":"[1,0,0,1]","door_history":"[0,1,1,0]","location_rts":"[1929,804,1040,750]","trial_type":"two-door-navigation","trial_index":19,"time_elapsed":400242,"internal_node_id":"0.0-2.0-17.0"},{"group":"tri cycles (cube, non-group)","room_assignment":["green","purple","red","brown","grey","blue","pink","yellow"],"door_color_assignment":["white","black"],"door_generator_assignment":[1,0],"goal":4,"start":3,"action_noise":0.1,"location_history":"[3,4]","action_history":"[1]","door_history":"[0]","location_rts":"[1342]","trial_type":"two-door-navigation","trial_index":20,"time_elapsed":406099,"internal_node_id":"0.0-2.0-18.0"},{"group":"tri cycles (cube, non-group)","room_assignment":["green","purple","red","brown","grey","blue","pink","yellow"],"door_color_assignment":["white","black"],"door_generator_assignment":[1,0],"goal":5,"start":4,"action_noise":0.1,"location_history":"[4,7,6,4,7,3,4,0,2,1,5]","action_history":"[0,0,0,0,1,1,1,0,0,0]","door_history":"[1,1,1,1,0,0,0,1,1,1]","location_rts":"[1748,407,354,481,226,603,407,799,1400,464]","trial_type":"two-door-navigation","trial_index":21,"time_elapsed":426609,"internal_node_id":"0.0-2.0-19.0"},{"group":"tri cycles (cube, non-group)","room_assignment":["green","purple","red","brown","grey","blue","pink","yellow"],"door_color_assignment":["white","black"],"door_generator_assignment":[1,0],"goal":7,"start":5,"action_noise":0.1,"location_history":"[5,2,6,5,1,0,3,4,0,3,7]","action_history":"[1,1,1,0,0,1,1,1,1,0]","door_history":"[0,0,0,1,1,0,0,0,0,1]","location_rts":"[1343,881,730,1566,799,841,610,656,340,388]","trial_type":"two-door-navigation","trial_index":22,"time_elapsed":448370,"internal_node_id":"0.0-2.0-20.0"},{"group":"tri cycles (cube, non-group)","room_assignment":["green","purple","red","brown","grey","blue","pink","yellow"],"door_color_assignment":["white","black"],"door_generator_assignment":[1,0],"goal":2,"start":7,"action_noise":0.1,"location_history":"[7,3,4,0,2]","action_history":"[1,1,1,0]","door_history":"[0,0,0,1]","location_rts":"[1422,2079,910,520]","trial_type":"two-door-navigation","trial_index":23,"time_elapsed":460854,"internal_node_id":"0.0-2.0-21.0"},{"group":"tri cycles (cube, non-group)","room_assignment":["green","purple","red","brown","grey","blue","pink","yellow"],"door_color_assignment":["white","black"],"door_generator_assignment":[1,0],"goal":0,"start":2,"action_noise":0.1,"location_history":"[2,6,5,2,6,4,7,6,4,7,3,4,0]","action_history":"[1,1,1,0,0,0,0,0,0,1,1,1]","door_history":"[0,0,0,1,1,1,1,1,1,0,0,0]","location_rts":"[1741,1216,496,688,365,468,894,472,360,266,1124,362]","trial_type":"two-door-navigation","trial_index":24,"time_elapsed":484969,"internal_node_id":"0.0-2.0-22.0"},{"group":"tri cycles (cube, non-group)","room_assignment":["green","purple","red","brown","grey","blue","pink","yellow"],"door_color_assignment":["white","black"],"door_generator_assignment":[1,0],"goal":7,"start":0,"action_noise":0.1,"location_history":"[0,3,7]","action_history":"[1,1]","door_history":"[0,0]","location_rts":"[1168,573]","trial_type":"two-door-navigation","trial_index":25,"time_elapsed":492240,"internal_node_id":"0.0-2.0-23.0"},{"group":"tri cycles (cube, non-group)","room_assignment":["green","purple","red","brown","grey","blue","pink","yellow"],"door_color_assignment":["white","black"],"door_generator_assignment":[1,0],"goal":5,"start":7,"action_noise":0.1,"location_history":"[7,6,4,7,3,4,0,2,1,0,2,6,4,7,6,5]","action_history":"[0,0,0,1,1,1,0,0,0,0,1,0,0,0,0]","door_history":"[1,1,1,0,0,0,1,1,1,1,0,1,1,1,1]","location_rts":"[2066,520,456,761,489,438,526,416,442,444,1520,2361,720,1161,338]","trial_type":"two-door-navigation","trial_index":26,"time_elapsed":523581,"internal_node_id":"0.0-2.0-24.0"},{"group":"tri cycles (cube, non-group)","room_assignment":["green","purple","red","brown","grey","blue","pink","yellow"],"door_color_assignment":["white","black"],"door_generator_assignment":[1,0],"goal":0,"start":5,"action_noise":0.1,"location_history":"[5,2,1,0]","action_history":"[1,1,0]","door_history":"[0,0,1]","location_rts":"[1817,1586,1215]","trial_type":"two-door-navigation","trial_index":27,"time_elapsed":534735,"internal_node_id":"0.0-2.0-25.0"},{"group":"tri cycles (cube, non-group)","room_assignment":["green","purple","red","brown","grey","blue","pink","yellow"],"door_color_assignment":["white","black"],"door_generator_assignment":[1,0],"goal":6,"start":0,"action_noise":0.1,"location_history":"[0,3,4,0,3,4,0,2,1,0,2,6]","action_history":"[1,1,1,1,1,1,0,0,0,0,0]","door_history":"[0,0,0,0,0,0,1,1,1,1,1]","location_rts":"[994,758,404,390,547,1344,288,1023,829,567,347]","trial_type":"two-door-navigation","trial_index":28,"time_elapsed":556842,"internal_node_id":"0.0-2.0-26.0"},{"group":"tri cycles (cube, non-group)","room_assignment":["green","purple","red","brown","grey","blue","pink","yellow"],"door_color_assignment":["white","black"],"door_generator_assignment":[1,0],"goal":4,"start":6,"action_noise":0.1,"location_history":"[6,5,2,6,4]","action_history":"[1,1,1,0]","door_history":"[0,0,0,1]","location_rts":"[1679,796,400,1062]","trial_type":"two-door-navigation","trial_index":29,"time_elapsed":568327,"internal_node_id":"0.0-2.0-27.0"},{"group":"tri cycles (cube, non-group)","room_assignment":["green","purple","red","brown","grey","blue","pink","yellow"],"door_color_assignment":["white","black"],"door_generator_assignment":[1,0],"goal":2,"start":4,"action_noise":0.1,"location_history":"[4,0,3,4,7,6,5,2]","action_history":"[1,1,1,0,0,1,1]","door_history":"[0,0,0,1,1,0,0]","location_rts":"[1454,593,1228,302,1288,1267,689]","trial_type":"two-door-navigation","trial_index":30,"time_elapsed":585752,"internal_node_id":"0.0-2.0-28.0"},{"group":"tri cycles (cube, non-group)","room_assignment":["green","purple","red","brown","grey","blue","pink","yellow"],"door_color_assignment":["white","black"],"door_generator_assignment":[1,0],"goal":3,"start":2,"action_noise":0.1,"location_history":"[2,6,5,2,6,4,0,3]","action_history":"[1,1,1,1,0,1,1]","door_history":"[0,0,0,0,1,0,0]","location_rts":"[1360,497,444,304,324,519,273]","trial_type":"two-door-navigation","trial_index":31,"time_elapsed":600068,"internal_node_id":"0.0-2.0-29.0"},{"group":"tri cycles (cube, non-group)","room_assignment":["green","purple","red","brown","grey","blue","pink","yellow"],"door_color_assignment":["white","black"],"door_generator_assignment":[1,0],"goal":1,"start":3,"action_noise":0.1,"location_history":"[3,7,6,4,7,6,4,0,2,1]","action_history":"[0,0,0,0,0,0,1,0,0]","door_history":"[1,1,1,1,1,1,0,1,1]","location_rts":"[1497,563,430,311,304,670,803,1247,623]","trial_type":"two-door-navigation","trial_index":32,"time_elapsed":619082,"internal_node_id":"0.0-2.0-30.0"},{"group":"tri cycles (cube, non-group)","room_assignment":["green","purple","red","brown","grey","blue","pink","yellow"],"door_color_assignment":["white","black"],"door_generator_assignment":[1,0],"goal":4,"start":1,"action_noise":0.1,"location_history":"[1,5,1,5,1,0,3,4]","action_history":"[1,1,1,0,0,1,1]","door_history":"[0,0,0,1,1,0,0]","location_rts":"[1612,801,397,417,935,666,1000]","trial_type":"two-door-navigation","trial_index":33,"time_elapsed":635507,"internal_node_id":"0.0-2.0-31.0"},{"group":"tri cycles (cube, non-group)","room_assignment":["green","purple","red","brown","grey","blue","pink","yellow"],"door_color_assignment":["white","black"],"door_generator_assignment":[1,0],"goal":3,"start":4,"action_noise":0.1,"location_history":"[4,0,3]","action_history":"[1,1]","door_history":"[0,0]","location_rts":"[2143,345]","trial_type":"two-door-navigation","trial_index":34,"time_elapsed":643522,"internal_node_id":"0.0-2.0-32.0"},{"group":"tri cycles (cube, non-group)","room_assignment":["green","purple","red","brown","grey","blue","pink","yellow"],"door_color_assignment":["white","black"],"door_generator_assignment":[1,0],"goal":6,"start":3,"action_noise":0.1,"location_history":"[3,4,0,2,6]","action_history":"[1,1,0,1]","door_history":"[0,0,1,0]","location_rts":"[1620,507,355,1065]","trial_type":"two-door-navigation","trial_index":35,"time_elapsed":654626,"internal_node_id":"0.0-2.0-33.0"},{"group":"tri cycles (cube, non-group)","room_assignment":["green","purple","red","brown","grey","blue","pink","yellow"],"door_color_assignment":["white","black"],"door_generator_assignment":[1,0],"goal":0,"start":6,"action_noise":0.1,"location_history":"[6,4,0]","action_history":"[0,0]","door_history":"[1,1]","location_rts":"[2730,1499]","trial_type":"two-door-navigation","trial_index":36,"time_elapsed":664378,"internal_node_id":"0.0-2.0-34.0"},{"group":"tri cycles (cube, non-group)","room_assignment":["green","purple","red","brown","grey","blue","pink","yellow"],"door_color_assignment":["white","black"],"door_generator_assignment":[1,0],"goal":1,"start":0,"action_noise":0.1,"location_history":"[0,2,1]","action_history":"[0,0]","door_history":"[1,1]","location_rts":"[1387,633]","trial_type":"two-door-navigation","trial_index":37,"time_elapsed":671926,"internal_node_id":"0.0-2.0-35.0"},{"group":"tri cycles (cube, non-group)","room_assignment":["green","purple","red","brown","grey","blue","pink","yellow"],"door_color_assignment":["white","black"],"door_generator_assignment":[1,0],"goal":5,"start":1,"action_noise":0.1,"location_history":"[1,0,3,4,7,6,4,7,3,4,7,3,7,3,4,0,2,1,0,2,6,5]","action_history":"[0,1,1,0,0,0,0,1,1,1,1,0,1,1,1,0,0,0,0,1,1]","door_history":"[1,0,0,1,1,1,1,0,0,0,0,1,0,0,0,1,1,1,1,0,0]","location_rts":"[1962,1137,1281,1254,542,786,710,529,1209,608,1986,265,1050,449,554,357,349,525,359,1030,1658]","trial_type":"two-door-navigation","trial_index":38,"time_elapsed":715265,"internal_node_id":"0.0-2.0-36.0"},{"group":"tri cycles (cube, non-group)","room_assignment":["green","purple","red","brown","grey","blue","pink","yellow"],"door_color_assignment":["white","black"],"door_generator_assignment":[1,0],"goal":7,"start":5,"action_noise":0.1,"location_history":"[5,1,0,3,7]","action_history":"[0,0,1,0]","door_history":"[1,1,0,1]","location_rts":"[1941,474,1212,1047]","trial_type":"two-door-navigation","trial_index":39,"time_elapsed":727489,"internal_node_id":"0.0-2.0-37.0"},{"group":"tri cycles (cube, non-group)","room_assignment":["green","purple","red","brown","grey","blue","pink","yellow"],"door_color_assignment":["white","black"],"door_generator_assignment":[1,0],"goal":2,"start":7,"action_noise":0.1,"location_history":"[7,6,4,7,3,7,6,4,7,6,5,2]","action_history":"[0,0,0,1,0,0,0,0,0,1,1]","door_history":"[1,1,1,0,1,1,1,1,1,0,0]","location_rts":"[1926,408,535,804,915,547,637,1132,338,603,849]","trial_type":"two-door-navigation","trial_index":40,"time_elapsed":750821,"internal_node_id":"0.0-2.0-38.0"},{"group":"tri cycles (cube, non-group)","room_assignment":["green","purple","red","brown","grey","blue","pink","yellow"],"door_color_assignment":["white","black"],"door_generator_assignment":[1,0],"goal":1,"start":2,"action_noise":0.1,"location_history":"[2,1]","action_history":"[0]","door_history":"[1]","location_rts":"[4808]","trial_type":"two-door-navigation","trial_index":41,"time_elapsed":760142,"internal_node_id":"0.0-2.0-39.0"},{"group":"tri cycles (cube, non-group)","room_assignment":["green","purple","red","brown","grey","blue","pink","yellow"],"door_color_assignment":["white","black"],"door_generator_assignment":[1,0],"goal":3,"start":1,"action_noise":0.1,"location_history":"[1,5,2,6,4,0,2,6,5,2,6,4,7,3]","action_history":"[1,1,1,1,1,0,1,1,1,1,0,1,1]","door_history":"[0,0,0,0,0,1,0,0,0,0,1,0,0]","location_rts":"[10159,578,441,597,365,817,374,393,360,777,820,637,410]","trial_type":"two-door-navigation","trial_index":42,"time_elapsed":793517,"internal_node_id":"0.0-2.0-40.0"},{"group":"tri cycles (cube, non-group)","room_assignment":["green","purple","red","brown","grey","blue","pink","yellow"],"door_color_assignment":["white","black"],"door_generator_assignment":[1,0],"goal":4,"start":3,"action_noise":0.1,"location_history":"[3,4]","action_history":"[1]","door_history":"[0]","location_rts":"[2573]","trial_type":"two-door-navigation","trial_index":43,"time_elapsed":800604,"internal_node_id":"0.0-2.0-41.0"},{"group":"tri cycles (cube, non-group)","room_assignment":["green","purple","red","brown","grey","blue","pink","yellow"],"door_color_assignment":["white","black"],"door_generator_assignment":[1,0],"goal":2,"start":4,"action_noise":0.1,"location_history":"[4,7,3,4,0,2]","action_history":"[0,0,1,1,0]","door_history":"[1,1,0,0,1]","location_rts":"[1619,577,894,447,321]","trial_type":"two-door-navigation","trial_index":44,"time_elapsed":813031,"internal_node_id":"0.0-2.0-42.0"},{"group":"tri cycles (cube, non-group)","room_assignment":["green","purple","red","brown","grey","blue","pink","yellow"],"door_color_assignment":["white","black"],"door_generator_assignment":[1,0],"goal":5,"start":2,"action_noise":0.1,"location_history":"[2,1,0,3,4,7,6,4,7,3,7,6,5]","action_history":"[0,0,1,1,0,0,0,0,1,0,0,1]","door_history":"[1,1,0,0,1,1,1,1,0,1,1,0]","location_rts":"[1388,537,1605,1675,494,755,363,428,328,875,1124,549]","trial_type":"two-door-navigation","trial_index":45,"time_elapsed":838801,"internal_node_id":"0.0-2.0-43.0"},{"group":"tri cycles (cube, non-group)","room_assignment":["green","purple","red","brown","grey","blue","pink","yellow"],"door_color_assignment":["white","black"],"door_generator_assignment":[1,0],"goal":0,"start":5,"action_noise":0.1,"location_history":"[5,1,0]","action_history":"[0,0]","door_history":"[1,1]","location_rts":"[2005,1782]","trial_type":"two-door-navigation","trial_index":46,"time_elapsed":848118,"internal_node_id":"0.0-2.0-44.0"},{"group":"tri cycles (cube, non-group)","room_assignment":["green","purple","red","brown","grey","blue","pink","yellow"],"door_color_assignment":["white","black"],"door_generator_assignment":[1,0],"goal":7,"start":0,"action_noise":0.1,"location_history":"[0,3,4,0,3,7]","action_history":"[1,1,1,1,1]","door_history":"[0,0,0,0,0]","location_rts":"[1240,573,423,327,506]","trial_type":"two-door-navigation","trial_index":47,"time_elapsed":859750,"internal_node_id":"0.0-2.0-45.0"},{"group":"tri cycles (cube, non-group)","room_assignment":["green","purple","red","brown","grey","blue","pink","yellow"],"door_color_assignment":["white","black"],"door_generator_assignment":[1,0],"goal":6,"start":7,"action_noise":0.1,"location_history":"[7,3,4,0,3,4,7,3,4,7,3,7,3,4,0,2,6]","action_history":"[1,1,1,1,1,0,1,1,1,1,0,1,1,1,1,1]","door_history":"[0,0,0,0,0,1,0,0,0,0,1,0,0,0,0,0]","location_rts":"[1605,359,415,291,399,889,486,295,1048,1022,383,352,288,426,276,421]","trial_type":"two-door-navigation","trial_index":48,"time_elapsed":888357,"internal_node_id":"0.0-2.0-46.0"},{"group":"tri cycles (cube, non-group)","room_assignment":["green","purple","red","brown","grey","blue","pink","yellow"],"door_color_assignment":["white","black"],"door_generator_assignment":[1,0],"goal":2,"start":6,"action_noise":0.1,"location_history":"[6,5,1,0,3,4,0,2]","action_history":"[0,0,0,1,1,1,1]","door_history":"[1,1,1,0,0,0,0]","location_rts":"[1248,402,503,650,380,409,284]","trial_type":"two-door-navigation","trial_index":49,"time_elapsed":902828,"internal_node_id":"0.0-2.0-47.0"},{"group":"tri cycles (cube, non-group)","room_assignment":["green","purple","red","brown","grey","blue","pink","yellow"],"door_color_assignment":["white","black"],"door_generator_assignment":[1,0],"goal":5,"start":2,"action_noise":0.1,"location_history":"[2,6,4,0,3,4,0,3,7,6,5]","action_history":"[1,1,1,1,1,1,1,0,1,1]","door_history":"[0,0,0,0,0,0,0,1,0,0]","location_rts":"[3056,715,411,1278,296,281,302,659,392,354]","trial_type":"two-door-navigation","trial_index":50,"time_elapsed":924209,"internal_node_id":"0.0-2.0-48.0"},{"group":"tri cycles (cube, non-group)","room_assignment":["green","purple","red","brown","grey","blue","pink","yellow"],"door_color_assignment":["white","black"],"door_generator_assignment":[1,0],"goal":3,"start":5,"action_noise":0.1,"location_history":"[5,2,6,5,1,5,1,0,3]","action_history":"[1,1,1,1,1,0,1,1]","door_history":"[0,0,0,0,0,1,0,0]","location_rts":"[1264,542,812,346,503,938,531,705]","trial_type":"two-door-navigation","trial_index":51,"time_elapsed":941453,"internal_node_id":"0.0-2.0-49.0"},{"view_history":"[{\"page_index\":0,\"viewing_time\":544371}]","rt":544372,"trial_type":"instructions","trial_index":52,"time_elapsed":1486824,"internal_node_id":"0.0-3.0"},{"view_history":"[{\"page_index\":0,\"viewing_time\":3541},{\"page_index\":1,\"viewing_time\":3521}]","rt":7063,"trial_type":"instructions","trial_index":53,"time_elapsed":1494889,"internal_node_id":"0.0-4.0"},{"group":"tri cycles (cube, non-group)","fractal_assignment":["../images/gry_blk.png","../images/blu_wht.png","../images/ylw_slt.png","../images/cyn_red.png","../images/ylw_pnk.png","../images/org_blu.png","../images/grn_red.png","../images/pnk_blu.png"],"mutagen_generator_assignment":[0,1],"goal":5,"start":7,"action_noise":0.1,"location_history":"[7,6,4,0,2,1,0,2,6,4,0,2,1,5]","action_history":"[0,1,1,0,0,0,0,1,1,1,0,0,1]","mutagen_history":"[0,1,1,0,0,0,0,1,1,1,0,0,1]","location_rts":"[2330,702,575,373,435,386,418,397,907,980,600,541,974]","trial_type":"fractal-mutation","trial_index":54,"time_elapsed":1521338,"internal_node_id":"0.0-5.0-0.0"},{"group":"tri cycles (cube, non-group)","fractal_assignment":["../images/gry_blk.png","../images/blu_wht.png","../images/ylw_slt.png","../images/cyn_red.png","../images/ylw_pnk.png","../images/org_blu.png","../images/grn_red.png","../images/pnk_blu.png"],"mutagen_generator_assignment":[0,1],"goal":2,"start":5,"action_noise":0.1,"location_history":"[5,1,0,2]","action_history":"[0,0,0]","mutagen_history":"[0,0,0]","location_rts":"[1678,493,363]","trial_type":"fractal-mutation","trial_index":55,"time_elapsed":1530441,"internal_node_id":"0.0-5.0-1.0"},{"group":"tri cycles (cube, non-group)","fractal_assignment":["../images/gry_blk.png","../images/blu_wht.png","../images/ylw_slt.png","../images/cyn_red.png","../images/ylw_pnk.png","../images/org_blu.png","../images/grn_red.png","../images/pnk_blu.png"],"mutagen_generator_assignment":[0,1],"goal":0,"start":2,"action_noise":0.1,"location_history":"[2,1,0]","action_history":"[0,0]","mutagen_history":"[0,0]","location_rts":"[994,396]","trial_type":"fractal-mutation","trial_index":56,"time_elapsed":1537379,"internal_node_id":"0.0-5.0-2.0"},{"group":"tri cycles (cube, non-group)","fractal_assignment":["../images/gry_blk.png","../images/blu_wht.png","../images/ylw_slt.png","../images/cyn_red.png","../images/ylw_pnk.png","../images/org_blu.png","../images/grn_red.png","../images/pnk_blu.png"],"mutagen_generator_assignment":[0,1],"goal":1,"start":0,"action_noise":0.1,"location_history":"[0,2,1]","action_history":"[0,0]","mutagen_history":"[0,0]","location_rts":"[1304,428]","trial_type":"fractal-mutation","trial_index":57,"time_elapsed":1544676,"internal_node_id":"0.0-5.0-3.0"},{"group":"tri cycles (cube, non-group)","fractal_assignment":["../images/gry_blk.png","../images/blu_wht.png","../images/ylw_slt.png","../images/cyn_red.png","../images/ylw_pnk.png","../images/org_blu.png","../images/grn_red.png","../images/pnk_blu.png"],"mutagen_generator_assignment":[0,1],"goal":6,"start":1,"action_noise":0.1,"location_history":"[1,5,1,5,2,6]","action_history":"[1,0,1,1,1]","mutagen_history":"[1,0,1,1,1]","location_rts":"[1912,1578,842,384,577]","trial_type":"fractal-mutation","trial_index":58,"time_elapsed":1558623,"internal_node_id":"0.0-5.0-4.0"},{"group":"tri cycles (cube, non-group)","fractal_assignment":["../images/gry_blk.png","../images/blu_wht.png","../images/ylw_slt.png","../images/cyn_red.png","../images/ylw_pnk.png","../images/org_blu.png","../images/grn_red.png","../images/pnk_blu.png"],"mutagen_generator_assignment":[0,1],"goal":3,"start":6,"action_noise":0.1,"location_history":"[6,4,0,3]","action_history":"[0,1,1]","mutagen_history":"[0,1,1]","location_rts":"[1523,748,1020]","trial_type":"fractal-mutation","trial_index":59,"time_elapsed":1568495,"internal_node_id":"0.0-5.0-5.0"},{"group":"tri cycles (cube, non-group)","fractal_assignment":["../images/gry_blk.png","../images/blu_wht.png","../images/ylw_slt.png","../images/cyn_red.png","../images/ylw_pnk.png","../images/org_blu.png","../images/grn_red.png","../images/pnk_blu.png"],"mutagen_generator_assignment":[0,1],"goal":4,"start":3,"action_noise":0.1,"location_history":"[3,4]","action_history":"[1]","mutagen_history":"[1]","location_rts":"[2404]","trial_type":"fractal-mutation","trial_index":60,"time_elapsed":1575429,"internal_node_id":"0.0-5.0-6.0"},{"group":"tri cycles (cube, non-group)","fractal_assignment":["../images/gry_blk.png","../images/blu_wht.png","../images/ylw_slt.png","../images/cyn_red.png","../images/ylw_pnk.png","../images/org_blu.png","../images/grn_red.png","../images/pnk_blu.png"],"mutagen_generator_assignment":[0,1],"goal":1,"start":4,"action_noise":0.1,"location_history":"[4,7,6,5,1]","action_history":"[0,0,1,0]","mutagen_history":"[0,0,1,0]","location_rts":"[1189,761,708,627]","trial_type":"fractal-mutation","trial_index":61,"time_elapsed":1586312,"internal_node_id":"0.0-5.0-7.0"},{"group":"tri cycles (cube, non-group)","fractal_assignment":["../images/gry_blk.png","../images/blu_wht.png","../images/ylw_slt.png","../images/cyn_red.png","../images/ylw_pnk.png","../images/org_blu.png","../images/grn_red.png","../images/pnk_blu.png"],"mutagen_generator_assignment":[0,1],"goal":4,"start":1,"action_noise":0.1,"location_history":"[1,5,1,0,3,7,3,4]","action_history":"[1,0,0,1,0,1,1]","mutagen_history":"[1,0,0,1,0,1,1]","location_rts":"[1173,2144,1315,1009,1220,779,716]","trial_type":"fractal-mutation","trial_index":62,"time_elapsed":1605326,"internal_node_id":"0.0-5.0-8.0"},{"group":"tri cycles (cube, non-group)","fractal_assignment":["../images/gry_blk.png","../images/blu_wht.png","../images/ylw_slt.png","../images/cyn_red.png","../images/ylw_pnk.png","../images/org_blu.png","../images/grn_red.png","../images/pnk_blu.png"],"mutagen_generator_assignment":[0,1],"goal":5,"start":4,"action_noise":0.1,"location_history":"[4,7,3,4,7,6,5]","action_history":"[0,1,1,0,0,1]","mutagen_history":"[0,1,1,0,0,1]","location_rts":"[1394,692,844,627,573,660]","trial_type":"fractal-mutation","trial_index":63,"time_elapsed":1619752,"internal_node_id":"0.0-5.0-9.0"},{"group":"tri cycles (cube, non-group)","fractal_assignment":["../images/gry_blk.png","../images/blu_wht.png","../images/ylw_slt.png","../images/cyn_red.png","../images/ylw_pnk.png","../images/org_blu.png","../images/grn_red.png","../images/pnk_blu.png"],"mutagen_generator_assignment":[0,1],"goal":3,"start":5,"action_noise":0.1,"location_history":"[5,1,5,1,5,2,6,5,1,0,3]","action_history":"[1,1,0,0,1,1,1,0,1,1]","mutagen_history":"[1,1,0,0,1,1,1,0,1,1]","location_rts":"[1510,937,714,854,1021,1429,1976,1021,563,718]","trial_type":"fractal-mutation","trial_index":64,"time_elapsed":1644269,"internal_node_id":"0.0-5.0-10.0"},{"group":"tri cycles (cube, non-group)","fractal_assignment":["../images/gry_blk.png","../images/blu_wht.png","../images/ylw_slt.png","../images/cyn_red.png","../images/ylw_pnk.png","../images/org_blu.png","../images/grn_red.png","../images/pnk_blu.png"],"mutagen_generator_assignment":[0,1],"goal":6,"start":3,"action_noise":0.1,"location_history":"[3,7,6]","action_history":"[1,0]","mutagen_history":"[1,0]","location_rts":"[1804,643]","trial_type":"fractal-mutation","trial_index":65,"time_elapsed":1652269,"internal_node_id":"0.0-5.0-11.0"},{"group":"tri cycles (cube, non-group)","fractal_assignment":["../images/gry_blk.png","../images/blu_wht.png","../images/ylw_slt.png","../images/cyn_red.png","../images/ylw_pnk.png","../images/org_blu.png","../images/grn_red.png","../images/pnk_blu.png"],"mutagen_generator_assignment":[0,1],"goal":7,"start":6,"action_noise":0.1,"location_history":"[6,5,1,5,1,5,2,1,0,2,6,5,1,5,1,0,3,4,7]","action_history":"[1,0,1,0,1,1,0,0,0,1,1,0,1,0,0,1,0,0]","mutagen_history":"[1,0,1,0,1,1,0,0,0,1,1,0,1,0,0,1,0,0]","location_rts":"[1794,592,755,1266,1024,385,868,2508,1329,646,764,1034,1036,719,491,1126,1388,962]","trial_type":"fractal-mutation","trial_index":66,"time_elapsed":1692840,"internal_node_id":"0.0-5.0-12.0"},{"group":"tri cycles (cube, non-group)","fractal_assignment":["../images/gry_blk.png","../images/blu_wht.png","../images/ylw_slt.png","../images/cyn_red.png","../images/ylw_pnk.png","../images/org_blu.png","../images/grn_red.png","../images/pnk_blu.png"],"mutagen_generator_assignment":[0,1],"goal":0,"start":7,"action_noise":0.1,"location_history":"[7,6,5,2,1,0]","action_history":"[0,1,0,0,0]","mutagen_history":"[0,1,0,0,0]","location_rts":"[1089,757,592,460,888]","trial_type":"fractal-mutation","trial_index":67,"time_elapsed":1705229,"internal_node_id":"0.0-5.0-13.0"},{"group":"tri cycles (cube, non-group)","fractal_assignment":["../images/gry_blk.png","../images/blu_wht.png","../images/ylw_slt.png","../images/cyn_red.png","../images/ylw_pnk.png","../images/org_blu.png","../images/grn_red.png","../images/pnk_blu.png"],"mutagen_generator_assignment":[0,1],"goal":2,"start":0,"action_noise":0.1,"location_history":"[0,2]","action_history":"[0]","mutagen_history":"[0]","location_rts":"[1901]","trial_type":"fractal-mutation","trial_index":68,"time_elapsed":1711653,"internal_node_id":"0.0-5.0-14.0"},{"group":"tri cycles (cube, non-group)","fractal_assignment":["../images/gry_blk.png","../images/blu_wht.png","../images/ylw_slt.png","../images/cyn_red.png","../images/ylw_pnk.png","../images/org_blu.png","../images/grn_red.png","../images/pnk_blu.png"],"mutagen_generator_assignment":[0,1],"goal":1,"start":2,"action_noise":0.1,"location_history":"[2,1]","action_history":"[0]","mutagen_history":"[0]","location_rts":"[1860]","trial_type":"fractal-mutation","trial_index":69,"time_elapsed":1718035,"internal_node_id":"0.0-5.0-15.0"},{"group":"tri cycles (cube, non-group)","fractal_assignment":["../images/gry_blk.png","../images/blu_wht.png","../images/ylw_slt.png","../images/cyn_red.png","../images/ylw_pnk.png","../images/org_blu.png","../images/grn_red.png","../images/pnk_blu.png"],"mutagen_generator_assignment":[0,1],"goal":6,"start":1,"action_noise":0.1,"location_history":"[1,0,3,7,3,4,0,3,7,3,7,3,4,7,3,4,7,3,7,3,7,3,4,0,2,6]","action_history":"[0,1,0,1,1,0,1,0,0,0,1,1,0,1,1,1,0,0,0,0,1,1,1,0,1]","mutagen_history":"[0,1,0,1,1,0,1,0,0,0,1,1,0,1,1,1,0,0,0,0,1,1,1,0,1]","location_rts":"[1672,684,990,861,1324,602,616,593,246,684,1095,565,910,721,1293,554,821,656,870,739,595,416,1016,812,1809]","trial_type":"fractal-mutation","trial_index":70,"time_elapsed":1768289,"internal_node_id":"0.0-5.0-16.0"},{"group":"tri cycles (cube, non-group)","fractal_assignment":["../images/gry_blk.png","../images/blu_wht.png","../images/ylw_slt.png","../images/cyn_red.png","../images/ylw_pnk.png","../images/org_blu.png","../images/grn_red.png","../images/pnk_blu.png"],"mutagen_generator_assignment":[0,1],"goal":3,"start":6,"action_noise":0.1,"location_history":"[6,4,0,2,6,5,2,1,5,1,5,2,6,4,0,2,1,5,2,6,5,1,5,2,6,4,7,3]","action_history":"[0,1,0,1,1,1,0,1,0,1,1,1,0,1,0,0,0,1,1,1,0,1,1,1,0,1,1]","mutagen_history":"[0,1,0,1,1,1,0,1,0,1,1,1,0,1,0,0,0,1,1,1,0,1,1,1,0,1,1]","location_rts":"[2450,581,688,514,629,686,646,649,897,692,554,566,1308,842,685,454,919,470,670,540,614,468,713,1029,1058,566,794]","trial_type":"fractal-mutation","trial_index":71,"time_elapsed":1820109,"internal_node_id":"0.0-5.0-17.0"},{"group":"tri cycles (cube, non-group)","fractal_assignment":["../images/gry_blk.png","../images/blu_wht.png","../images/ylw_slt.png","../images/cyn_red.png","../images/ylw_pnk.png","../images/org_blu.png","../images/grn_red.png","../images/pnk_blu.png"],"mutagen_generator_assignment":[0,1],"goal":4,"start":3,"action_noise":0.1,"location_history":"[3,4]","action_history":"[1]","mutagen_history":"[1]","location_rts":"[3569]","trial_type":"fractal-mutation","trial_index":72,"time_elapsed":1828212,"internal_node_id":"0.0-5.0-18.0"},{"group":"tri cycles (cube, non-group)","fractal_assignment":["../images/gry_blk.png","../images/blu_wht.png","../images/ylw_slt.png","../images/cyn_red.png","../images/ylw_pnk.png","../images/org_blu.png","../images/grn_red.png","../images/pnk_blu.png"],"mutagen_generator_assignment":[0,1],"goal":5,"start":4,"action_noise":0.1,"location_history":"[4,7,3,4,7,6,5]","action_history":"[0,1,1,0,0,0]","mutagen_history":"[0,1,1,0,0,0]","location_rts":"[2778,753,1692,626,596,580]","trial_type":"fractal-mutation","trial_index":73,"time_elapsed":1844872,"internal_node_id":"0.0-5.0-19.0"},{"group":"tri cycles (cube, non-group)","fractal_assignment":["../images/gry_blk.png","../images/blu_wht.png","../images/ylw_slt.png","../images/cyn_red.png","../images/ylw_pnk.png","../images/org_blu.png","../images/grn_red.png","../images/pnk_blu.png"],"mutagen_generator_assignment":[0,1],"goal":7,"start":5,"action_noise":0.1,"location_history":"[5,2,1,0,3,4,7]","action_history":"[1,0,0,1,1,0]","mutagen_history":"[1,0,0,1,1,0]","location_rts":"[2870,655,1217,527,798,528]","trial_type":"fractal-mutation","trial_index":74,"time_elapsed":1861107,"internal_node_id":"0.0-5.0-20.0"},{"group":"tri cycles (cube, non-group)","fractal_assignment":["../images/gry_blk.png","../images/blu_wht.png","../images/ylw_slt.png","../images/cyn_red.png","../images/ylw_pnk.png","../images/org_blu.png","../images/grn_red.png","../images/pnk_blu.png"],"mutagen_generator_assignment":[0,1],"goal":2,"start":7,"action_noise":0.1,"location_history":"[7,6,4,7,6,4,7,6,5,2]","action_history":"[0,0,0,0,0,0,0,1,1]","mutagen_history":"[0,0,0,0,0,0,0,1,1]","location_rts":"[1018,622,567,541,399,561,344,326,995]","trial_type":"fractal-mutation","trial_index":75,"time_elapsed":1879149,"internal_node_id":"0.0-5.0-21.0"},{"group":"tri cycles (cube, non-group)","fractal_assignment":["../images/gry_blk.png","../images/blu_wht.png","../images/ylw_slt.png","../images/cyn_red.png","../images/ylw_pnk.png","../images/org_blu.png","../images/grn_red.png","../images/pnk_blu.png"],"mutagen_generator_assignment":[0,1],"goal":0,"start":2,"action_noise":0.1,"location_history":"[2,1,0]","action_history":"[0,0]","mutagen_history":"[0,0]","location_rts":"[832,685]","trial_type":"fractal-mutation","trial_index":76,"time_elapsed":1886208,"internal_node_id":"0.0-5.0-22.0"},{"group":"tri cycles (cube, non-group)","fractal_assignment":["../images/gry_blk.png","../images/blu_wht.png","../images/ylw_slt.png","../images/cyn_red.png","../images/ylw_pnk.png","../images/org_blu.png","../images/grn_red.png","../images/pnk_blu.png"],"mutagen_generator_assignment":[0,1],"goal":7,"start":0,"action_noise":0.1,"location_history":"[0,3,4,7]","action_history":"[1,1,0]","mutagen_history":"[1,1,0]","location_rts":"[1350,866,693]","trial_type":"fractal-mutation","trial_index":77,"time_elapsed":1895695,"internal_node_id":"0.0-5.0-23.0"},{"group":"tri cycles (cube, non-group)","fractal_assignment":["../images/gry_blk.png","../images/blu_wht.png","../images/ylw_slt.png","../images/cyn_red.png","../images/ylw_pnk.png","../images/org_blu.png","../images/grn_red.png","../images/pnk_blu.png"],"mutagen_generator_assignment":[0,1],"goal":5,"start":7,"action_noise":0.1,"location_history":"[7,3,4,0,2,1,0,3,4,7,6,4,7,3,4,0,2,1,5]","action_history":"[0,1,1,0,0,0,1,1,0,0,0,0,1,1,1,0,0,0]","mutagen_history":"[0,1,1,0,0,0,1,1,0,0,0,0,1,1,1,0,0,0]","location_rts":"[1073,499,508,439,406,371,690,690,445,643,564,781,1011,835,835,549,620,421]","trial_type":"fractal-mutation","trial_index":78,"time_elapsed":1928984,"internal_node_id":"0.0-5.0-24.0"},{"group":"tri cycles (cube, non-group)","fractal_assignment":["../images/gry_blk.png","../images/blu_wht.png","../images/ylw_slt.png","../images/cyn_red.png","../images/ylw_pnk.png","../images/org_blu.png","../images/grn_red.png","../images/pnk_blu.png"],"mutagen_generator_assignment":[0,1],"goal":0,"start":5,"action_noise":0.1,"location_history":"[5,1,0]","action_history":"[0,0]","mutagen_history":"[0,0]","location_rts":"[858,567]","trial_type":"fractal-mutation","trial_index":79,"time_elapsed":1935942,"internal_node_id":"0.0-5.0-25.0"},{"group":"tri cycles (cube, non-group)","fractal_assignment":["../images/gry_blk.png","../images/blu_wht.png","../images/ylw_slt.png","../images/cyn_red.png","../images/ylw_pnk.png","../images/org_blu.png","../images/grn_red.png","../images/pnk_blu.png"],"mutagen_generator_assignment":[0,1],"goal":6,"start":0,"action_noise":0.1,"location_history":"[0,3,4,7,6]","action_history":"[1,1,0,0]","mutagen_history":"[1,1,0,0]","location_rts":"[2109,2202,895,743]","trial_type":"fractal-mutation","trial_index":80,"time_elapsed":1949478,"internal_node_id":"0.0-5.0-26.0"},{"group":"tri cycles (cube, non-group)","fractal_assignment":["../images/gry_blk.png","../images/blu_wht.png","../images/ylw_slt.png","../images/cyn_red.png","../images/ylw_pnk.png","../images/org_blu.png","../images/grn_red.png","../images/pnk_blu.png"],"mutagen_generator_assignment":[0,1],"goal":4,"start":6,"action_noise":0.1,"location_history":"[6,5,1,5,2,6,4]","action_history":"[1,0,1,1,1,0]","mutagen_history":"[1,0,1,1,1,0]","location_rts":"[2076,939,452,590,649,800]","trial_type":"fractal-mutation","trial_index":81,"time_elapsed":1964616,"internal_node_id":"0.0-5.0-27.0"},{"group":"tri cycles (cube, non-group)","fractal_assignment":["../images/gry_blk.png","../images/blu_wht.png","../images/ylw_slt.png","../images/cyn_red.png","../images/ylw_pnk.png","../images/org_blu.png","../images/grn_red.png","../images/pnk_blu.png"],"mutagen_generator_assignment":[0,1],"goal":2,"start":4,"action_noise":0.1,"location_history":"[4,7,6,4,7,3,4,7,3,4,0,2]","action_history":"[0,0,0,0,1,0,0,1,1,0,0]","mutagen_history":"[0,0,0,0,1,0,0,1,1,0,0]","location_rts":"[1027,467,475,590,394,626,514,608,701,617,480]","trial_type":"fractal-mutation","trial_index":82,"time_elapsed":1985871,"internal_node_id":"0.0-5.0-28.0"},{"group":"tri cycles (cube, non-group)","fractal_assignment":["../images/gry_blk.png","../images/blu_wht.png","../images/ylw_slt.png","../images/cyn_red.png","../images/ylw_pnk.png","../images/org_blu.png","../images/grn_red.png","../images/pnk_blu.png"],"mutagen_generator_assignment":[0,1],"goal":3,"start":2,"action_noise":0.1,"location_history":"[2,6,5,1,0,2,1,5,2,6,5,2,1,0,2,6,5,1,0,3]","action_history":"[1,1,0,1,1,0,1,1,1,1,1,0,0,0,1,1,0,0,1]","mutagen_history":"[1,1,0,1,1,0,1,1,1,1,1,0,0,0,1,1,0,0,1]","location_rts":"[1274,921,757,556,764,732,592,426,604,1633,832,494,487,821,355,461,359,353,259]","trial_type":"fractal-mutation","trial_index":83,"time_elapsed":2021526,"internal_node_id":"0.0-5.0-29.0"},{"group":"tri cycles (cube, non-group)","fractal_assignment":["../images/gry_blk.png","../images/blu_wht.png","../images/ylw_slt.png","../images/cyn_red.png","../images/ylw_pnk.png","../images/org_blu.png","../images/grn_red.png","../images/pnk_blu.png"],"mutagen_generator_assignment":[0,1],"goal":1,"start":3,"action_noise":0.1,"location_history":"[3,7,3,4,7,3,7,6,4,7,6,4,7,6,5,2,1]","action_history":"[0,1,1,0,1,0,0,0,0,0,1,0,0,1,1,0]","mutagen_history":"[0,1,1,0,1,0,0,0,0,0,1,0,0,1,1,0]","location_rts":"[1247,915,2287,788,878,1030,568,659,1022,1165,327,744,1139,1024,1293,1349]","trial_type":"fractal-mutation","trial_index":84,"time_elapsed":2057802,"internal_node_id":"0.0-5.0-30.0"},{"group":"tri cycles (cube, non-group)","fractal_assignment":["../images/gry_blk.png","../images/blu_wht.png","../images/ylw_slt.png","../images/cyn_red.png","../images/ylw_pnk.png","../images/org_blu.png","../images/grn_red.png","../images/pnk_blu.png"],"mutagen_generator_assignment":[0,1],"goal":4,"start":1,"action_noise":0.1,"location_history":"[1,5,2,1,5,1,5,2,1,5,2,1,0,3,4]","action_history":"[1,1,0,1,1,1,1,0,1,1,0,0,1,1]","mutagen_history":"[1,1,0,1,1,1,1,0,1,1,0,0,1,1]","location_rts":"[1458,603,369,296,462,391,518,646,29,1089,743,1991,597,519]","trial_type":"fractal-mutation","trial_index":85,"time_elapsed":2085358,"internal_node_id":"0.0-5.0-31.0"},{"group":"tri cycles (cube, non-group)","fractal_assignment":["../images/gry_blk.png","../images/blu_wht.png","../images/ylw_slt.png","../images/cyn_red.png","../images/ylw_pnk.png","../images/org_blu.png","../images/grn_red.png","../images/pnk_blu.png"],"mutagen_generator_assignment":[0,1],"goal":3,"start":4,"action_noise":0.1,"location_history":"[4,0,2,6,5,1,0,3]","action_history":"[1,0,1,1,0,0,1]","mutagen_history":"[1,0,1,1,0,0,1]","location_rts":"[1663,748,324,696,494,747,720]","trial_type":"fractal-mutation","trial_index":86,"time_elapsed":2101424,"internal_node_id":"0.0-5.0-32.0"},{"group":"tri cycles (cube, non-group)","fractal_assignment":["../images/gry_blk.png","../images/blu_wht.png","../images/ylw_slt.png","../images/cyn_red.png","../images/ylw_pnk.png","../images/org_blu.png","../images/grn_red.png","../images/pnk_blu.png"],"mutagen_generator_assignment":[0,1],"goal":6,"start":3,"action_noise":0.1,"location_history":"[3,4,0,2,1,5,2,6]","action_history":"[1,1,0,0,1,1,1]","mutagen_history":"[1,1,0,0,1,1,1]","location_rts":"[1549,1533,621,958,655,446,583]","trial_type":"fractal-mutation","trial_index":87,"time_elapsed":2118443,"internal_node_id":"0.0-5.0-33.0"},{"group":"tri cycles (cube, non-group)","fractal_assignment":["../images/gry_blk.png","../images/blu_wht.png","../images/ylw_slt.png","../images/cyn_red.png","../images/ylw_pnk.png","../images/org_blu.png","../images/grn_red.png","../images/pnk_blu.png"],"mutagen_generator_assignment":[0,1],"goal":0,"start":6,"action_noise":0.1,"location_history":"[6,4,7,6,5,1,5,1,5,1,0]","action_history":"[0,0,0,1,0,0,0,1,0,0]","mutagen_history":"[0,0,0,1,0,0,0,1,0,0]","location_rts":"[955,1227,521,358,658,511,418,846,475,1849]","trial_type":"fractal-mutation","trial_index":88,"time_elapsed":2139963,"internal_node_id":"0.0-5.0-34.0"},{"group":"tri cycles (cube, non-group)","fractal_assignment":["../images/gry_blk.png","../images/blu_wht.png","../images/ylw_slt.png","../images/cyn_red.png","../images/ylw_pnk.png","../images/org_blu.png","../images/grn_red.png","../images/pnk_blu.png"],"mutagen_generator_assignment":[0,1],"goal":1,"start":0,"action_noise":0.1,"location_history":"[0,2,6,4,7,3,7,6,5,2,1]","action_history":"[0,0,0,0,1,0,0,1,1,0]","mutagen_history":"[0,0,0,0,1,0,0,1,1,0]","location_rts":"[3805,498,1186,1051,341,479,390,747,661,494]","trial_type":"fractal-mutation","trial_index":89,"time_elapsed":2163319,"internal_node_id":"0.0-5.0-35.0"},{"group":"tri cycles (cube, non-group)","fractal_assignment":["../images/gry_blk.png","../images/blu_wht.png","../images/ylw_slt.png","../images/cyn_red.png","../images/ylw_pnk.png","../images/org_blu.png","../images/grn_red.png","../images/pnk_blu.png"],"mutagen_generator_assignment":[0,1],"goal":5,"start":1,"action_noise":0.1,"location_history":"[1,5]","action_history":"[0]","mutagen_history":"[0]","location_rts":"[2447]","trial_type":"fractal-mutation","trial_index":90,"time_elapsed":2170288,"internal_node_id":"0.0-5.0-36.0"},{"group":"tri cycles (cube, non-group)","fractal_assignment":["../images/gry_blk.png","../images/blu_wht.png","../images/ylw_slt.png","../images/cyn_red.png","../images/ylw_pnk.png","../images/org_blu.png","../images/grn_red.png","../images/pnk_blu.png"],"mutagen_generator_assignment":[0,1],"goal":7,"start":5,"action_noise":0.1,"location_history":"[5,2,1,5,2,6,4,0,3,7]","action_history":"[1,0,1,1,1,0,1,1,0]","mutagen_history":"[1,0,1,1,1,0,1,1,0]","location_rts":"[1334,2428,678,733,877,736,534,864,796]","trial_type":"fractal-mutation","trial_index":91,"time_elapsed":2191986,"internal_node_id":"0.0-5.0-37.0"},{"group":"tri cycles (cube, non-group)","fractal_assignment":["../images/gry_blk.png","../images/blu_wht.png","../images/ylw_slt.png","../images/cyn_red.png","../images/ylw_pnk.png","../images/org_blu.png","../images/grn_red.png","../images/pnk_blu.png"],"mutagen_generator_assignment":[0,1],"goal":2,"start":7,"action_noise":0.1,"location_history":"[7,6,5,2]","action_history":"[0,1,0]","mutagen_history":"[0,1,0]","location_rts":"[1151,2520,649]","trial_type":"fractal-mutation","trial_index":92,"time_elapsed":2202875,"internal_node_id":"0.0-5.0-38.0"},{"group":"tri cycles (cube, non-group)","fractal_assignment":["../images/gry_blk.png","../images/blu_wht.png","../images/ylw_slt.png","../images/cyn_red.png","../images/ylw_pnk.png","../images/org_blu.png","../images/grn_red.png","../images/pnk_blu.png"],"mutagen_generator_assignment":[0,1],"goal":1,"start":2,"action_noise":0.1,"location_history":"[2,1]","action_history":"[0]","mutagen_history":"[0]","location_rts":"[920]","trial_type":"fractal-mutation","trial_index":93,"time_elapsed":2208318,"internal_node_id":"0.0-5.0-39.0"},{"group":"tri cycles (cube, non-group)","fractal_assignment":["../images/gry_blk.png","../images/blu_wht.png","../images/ylw_slt.png","../images/cyn_red.png","../images/ylw_pnk.png","../images/org_blu.png","../images/grn_red.png","../images/pnk_blu.png"],"mutagen_generator_assignment":[0,1],"goal":3,"start":1,"action_noise":0.1,"location_history":"[1,5,2,6,5,2,6,4,0,2,6,4,0,2,6,4,0,2,1,0,2,1,5,2,6,5,1,5,1,0,2,6,5,2,6,5,1,0,2,6,5,2,6,5,1,0,3]","action_history":"[1,1,0,1,1,1,0,1,0,1,0,0,0,1,0,0,0,0,0,0,0,1,1,1,1,0,1,0,0,0,1,1,1,1,1,0,0,0,1,1,1,1,1,0,0,1]","mutagen_history":"[1,1,0,1,1,1,0,1,0,1,0,0,0,1,0,0,0,0,0,0,0,1,1,1,1,0,1,0,0,0,1,1,1,1,1,0,0,0,1,1,1,1,1,0,0,1]","location_rts":"[1333,528,609,435,535,556,315,683,693,457,1524,710,778,1185,981,505,404,385,1622,875,663,410,849,982,693,601,2183,487,228,692,348,446,491,401,484,344,247,450,343,156,172,85,106,378,146,666]","trial_type":"fractal-mutation","trial_index":94,"time_elapsed":2287071,"internal_node_id":"0.0-5.0-40.0"},{"group":"tri cycles (cube, non-group)","fractal_assignment":["../images/gry_blk.png","../images/blu_wht.png","../images/ylw_slt.png","../images/cyn_red.png","../images/ylw_pnk.png","../images/org_blu.png","../images/grn_red.png","../images/pnk_blu.png"],"mutagen_generator_assignment":[0,1],"goal":4,"start":3,"action_noise":0.1,"location_history":"[3,4]","action_history":"[1]","mutagen_history":"[1]","location_rts":"[3866]","trial_type":"fractal-mutation","trial_index":95,"time_elapsed":2295468,"internal_node_id":"0.0-5.0-41.0"},{"group":"tri cycles (cube, non-group)","fractal_assignment":["../images/gry_blk.png","../images/blu_wht.png","../images/ylw_slt.png","../images/cyn_red.png","../images/ylw_pnk.png","../images/org_blu.png","../images/grn_red.png","../images/pnk_blu.png"],"mutagen_generator_assignment":[0,1],"goal":2,"start":4,"action_noise":0.1,"location_history":"[4,7,6,5,2]","action_history":"[0,0,1,1]","mutagen_history":"[0,0,1,1]","location_rts":"[1747,869,854,770]","trial_type":"fractal-mutation","trial_index":96,"time_elapsed":2307310,"internal_node_id":"0.0-5.0-42.0"},{"group":"tri cycles (cube, non-group)","fractal_assignment":["../images/gry_blk.png","../images/blu_wht.png","../images/ylw_slt.png","../images/cyn_red.png","../images/ylw_pnk.png","../images/org_blu.png","../images/grn_red.png","../images/pnk_blu.png"],"mutagen_generator_assignment":[0,1],"goal":5,"start":2,"action_noise":0.1,"location_history":"[2,1,0,3,4,0,2,6,5]","action_history":"[0,0,1,0,1,0,1,1]","mutagen_history":"[0,0,1,0,1,0,1,1]","location_rts":"[1535,472,346,817,577,397,637,493]","trial_type":"fractal-mutation","trial_index":97,"time_elapsed":2324232,"internal_node_id":"0.0-5.0-43.0"},{"group":"tri cycles (cube, non-group)","fractal_assignment":["../images/gry_blk.png","../images/blu_wht.png","../images/ylw_slt.png","../images/cyn_red.png","../images/ylw_pnk.png","../images/org_blu.png","../images/grn_red.png","../images/pnk_blu.png"],"mutagen_generator_assignment":[0,1],"goal":0,"start":5,"action_noise":0.1,"location_history":"[5,1,0]","action_history":"[0,0]","mutagen_history":"[0,0]","location_rts":"[827,435]","trial_type":"fractal-mutation","trial_index":98,"time_elapsed":2331042,"internal_node_id":"0.0-5.0-44.0"},{"group":"tri cycles (cube, non-group)","fractal_assignment":["../images/gry_blk.png","../images/blu_wht.png","../images/ylw_slt.png","../images/cyn_red.png","../images/ylw_pnk.png","../images/org_blu.png","../images/grn_red.png","../images/pnk_blu.png"],"mutagen_generator_assignment":[0,1],"goal":7,"start":0,"action_noise":0.1,"location_history":"[0,3,4,0,3,7]","action_history":"[1,1,1,0,0]","mutagen_history":"[1,1,1,0,0]","location_rts":"[1517,1762,624,364,1178]","trial_type":"fractal-mutation","trial_index":99,"time_elapsed":2345102,"internal_node_id":"0.0-5.0-45.0"},{"group":"tri cycles (cube, non-group)","fractal_assignment":["../images/gry_blk.png","../images/blu_wht.png","../images/ylw_slt.png","../images/cyn_red.png","../images/ylw_pnk.png","../images/org_blu.png","../images/grn_red.png","../images/pnk_blu.png"],"mutagen_generator_assignment":[0,1],"goal":6,"start":7,"action_noise":0.1,"location_history":"[7,3,4,0,3,7,3,4,7,3,4,7,6]","action_history":"[1,1,1,1,0,1,1,0,1,1,1,0]","mutagen_history":"[1,1,1,1,0,1,1,0,1,1,1,0]","location_rts":"[1608,966,809,555,680,863,1484,764,730,805,203,597]","trial_type":"fractal-mutation","trial_index":100,"time_elapsed":2370966,"internal_node_id":"0.0-5.0-46.0"},{"group":"tri cycles (cube, non-group)","fractal_assignment":["../images/gry_blk.png","../images/blu_wht.png","../images/ylw_slt.png","../images/cyn_red.png","../images/ylw_pnk.png","../images/org_blu.png","../images/grn_red.png","../images/pnk_blu.png"],"mutagen_generator_assignment":[0,1],"goal":2,"start":6,"action_noise":0.1,"location_history":"[6,5,1,0,3,4,0,2]","action_history":"[0,0,0,1,1,0,0]","mutagen_history":"[0,0,0,1,1,0,0]","location_rts":"[1746,1784,385,180,1375,822,375]","trial_type":"fractal-mutation","trial_index":101,"time_elapsed":2388291,"internal_node_id":"0.0-5.0-47.0"},{"group":"tri cycles (cube, non-group)","fractal_assignment":["../images/gry_blk.png","../images/blu_wht.png","../images/ylw_slt.png","../images/cyn_red.png","../images/ylw_pnk.png","../images/org_blu.png","../images/grn_red.png","../images/pnk_blu.png"],"mutagen_generator_assignment":[0,1],"goal":5,"start":2,"action_noise":0.1,"location_history":"[2,1,0,2,1,0,2,1,0,2,6,4,0,3,4,7,3,7,3,4,7,6,4,7,3,7,3,4,0,2,1,0,3,4,0,3,7,6,4,7,6,4,0,3,4,7,6,5]","action_history":"[0,0,0,0,0,0,1,0,1,1,0,1,0,1,0,0,0,1,1,0,0,0,0,1,0,1,1,1,0,0,0,1,1,1,0,0,0,0,0,0,0,1,1,1,1,0,1]","mutagen_history":"[0,0,0,0,0,0,1,0,1,1,0,1,0,1,0,0,0,1,1,0,0,0,0,1,0,1,1,1,0,0,0,1,1,1,0,0,0,0,0,0,0,1,1,1,1,0,1]","location_rts":"[1130,439,372,398,364,403,221,430,539,338,284,927,506,695,557,423,834,525,722,1333,562,582,1278,866,870,524,365,683,669,572,755,1329,1116,359,287,391,221,356,316,290,293,354,287,94,68,272,304]","trial_type":"fractal-mutation","trial_index":102,"time_elapsed":2465307,"internal_node_id":"0.0-5.0-48.0"},{"group":"tri cycles (cube, non-group)","fractal_assignment":["../images/gry_blk.png","../images/blu_wht.png","../images/ylw_slt.png","../images/cyn_red.png","../images/ylw_pnk.png","../images/org_blu.png","../images/grn_red.png","../images/pnk_blu.png"],"mutagen_generator_assignment":[0,1],"goal":3,"start":5,"action_noise":0.1,"location_history":"[5,1,0,2,1,5,2,6,5,1,5,2,6,4,0,3]","action_history":"[1,1,0,0,1,1,1,1,0,1,1,1,1,1,1]","mutagen_history":"[1,1,0,0,1,1,1,1,0,1,1,1,1,1,1]","location_rts":"[1710,780,543,517,370,681,392,1604,663,357,521,735,960,704,547]","trial_type":"fractal-mutation","trial_index":103,"time_elapsed":2495264,"internal_node_id":"0.0-5.0-49.0"},{"view_history":"[{\"page_index\":0,\"viewing_time\":3652}]","rt":3652,"trial_type":"instructions","trial_index":104,"time_elapsed":2499916,"internal_node_id":"0.0-6.0"},{"rt":38772,"responses":"{\"Q0\":\"if people picked the haunted door to get to the room or used a pattern\"}","trial_type":"survey-text","trial_index":105,"time_elapsed":2539692,"internal_node_id":"0.0-7.0-0.0"},{"rt":23016,"responses":"{\"Q0\":\"if you used a pattern or just clicked randomly\"}","trial_type":"survey-text","trial_index":106,"time_elapsed":2563713,"internal_node_id":"0.0-7.0-1.0"},{"rt":91809,"responses":"{\"Q0\":\"<img src='../images/diagrams/square_cycles.png'>\"}","trial_type":"survey-multi-choice","trial_index":107,"time_elapsed":2656526,"internal_node_id":"0.0-7.0-2.0"},{"rt":103026,"assignments":["../images/pnk_blu.png","../images/cyn_red.png","../images/grn_red.png","../images/blu_wht.png","../images/org_blu.png","../images/ylw_pnk.png","../images/gry_blk.png","../images/ylw_slt.png"],"trial_type":"drag-drop-on-image","trial_index":108,"time_elapsed":2760564,"internal_node_id":"0.0-7.0-3.0"},{"rt":8399,"responses":"{\"Q0\":\"0\"}","trial_type":"survey-likert","trial_index":109,"time_elapsed":2769966,"internal_node_id":"0.0-7.0-4.0"},{"rt":10765,"responses":"{\"Q0\":\"none\"}","trial_type":"survey-text","trial_index":110,"time_elapsed":2781733,"internal_node_id":"0.0-7.0-5.0"},{"rt":6541,"responses":"{\"Q0\":\"No\"}","trial_type":"survey-multi-choice","trial_index":111,"time_elapsed":2789280,"internal_node_id":"0.0-7.0-6.0"},{"rt":10775,"responses":"{\"Q0\":\"During these questions/I wasn't aware until you pointed it out\"}","trial_type":"survey-multi-choice","trial_index":112,"time_elapsed":2801065,"internal_node_id":"0.0-7.0-7.0"},{"rt":7086,"responses":"{\"Q0\":\"\"}","trial_type":"survey-text","trial_index":113,"time_elapsed":2809153,"internal_node_id":"0.0-7.0-8.0"},{"rt":7848,"responses":"{\"Q0\":\"0\"}","trial_type":"survey-likert","trial_index":114,"time_elapsed":2818003,"internal_node_id":"0.0-7.0-9.0"},{"rt":10510,"responses":"{\"Q0\":\"Same structure\"}","trial_type":"survey-multi-choice","trial_index":115,"time_elapsed":2829517,"internal_node_id":"0.0-7.0-10.0"},{"rt":76489,"responses":"{\"Q0\":\"left (white) door = acid, (black) door = ray\",\"Q1\":\"Pretty confident\"}","trial_type":"survey-multi-choice","trial_index":116,"time_elapsed":2907019,"internal_node_id":"0.0-7.0-11.0"},{"rt":8651,"responses":"{\"Q0\":\"45-55\",\"Q1\":\"High school degree or GED\",\"Q2\":\"Female\",\"Q3\":\"White\"}","trial_type":"survey-multi-choice","trial_index":117,"time_elapsed":2916701,"internal_node_id":"0.0-8.0"},{"rt":7094,"responses":"{\"Q0\":\"\"}","trial_type":"survey-text","trial_index":118,"time_elapsed":2924798,"internal_node_id":"0.0-9.0"}]