[{"view_history":"[{\"page_index\":0,\"viewing_time\":1607},{\"page_index\":1,\"viewing_time\":2269}]","rt":3878,"trial_type":"instructions","trial_index":0,"time_elapsed":3881,"internal_node_id":"0.0-0.0"},{"view_history":"[{\"page_index\":0,\"viewing_time\":101051},{\"page_index\":1,\"viewing_time\":936}]","rt":101989,"trial_type":"instructions","trial_index":1,"time_elapsed":106875,"internal_node_id":"0.0-1.0"},{"group":"square cycles (cube, non-group)","room_assignment":["red","purple","yellow","blue","brown","green","pink","grey"],"door_color_assignment":["black","white"],"door_generator_assignment":[1,0],"goal":5,"start":7,"action_noise":0.1,"location_history":"[7,3,0,1,0,4,5]","action_history":"[1,0,1,1,1,1]","door_history":"[0,1,0,0,0,0]","location_rts":"[1772,420,243,11578,222,338]","trial_type":"two-door-navigation","trial_index":2,"time_elapsed":131842,"internal_node_id":"0.0-2.0-0.0"},{"group":"square cycles (cube, non-group)","room_assignment":["red","purple","yellow","blue","brown","green","pink","grey"],"door_color_assignment":["black","white"],"door_generator_assignment":[1,0],"goal":2,"start":5,"action_noise":0.1,"location_history":"[5,4,5,4,7,6,5,4,7,6,7,3,2]","action_history":"[0,1,0,0,0,0,0,0,0,1,1,1]","door_history":"[1,0,1,1,1,1,1,1,1,0,0,0]","location_rts":"[770,29,382,823,2821,350,419,2422,6740,458,2179,262]","trial_type":"two-door-navigation","trial_index":3,"time_elapsed":165477,"internal_node_id":"0.0-2.0-1.0"},{"group":"square cycles (cube, non-group)","room_assignment":["red","purple","yellow","blue","brown","green","pink","grey"],"door_color_assignment":["black","white"],"door_generator_assignment":[1,0],"goal":0,"start":2,"action_noise":0.1,"location_history":"[2,3,2,3,2,3,0]","action_history":"[0,1,1,1,0,0]","door_history":"[1,0,0,0,1,1]","location_rts":"[7474,5833,288,292,296,523]","trial_type":"two-door-navigation","trial_index":4,"time_elapsed":189923,"internal_node_id":"0.0-2.0-2.0"},{"group":"square cycles (cube, non-group)","room_assignment":["red","purple","yellow","blue","brown","green","pink","grey"],"door_color_assignment":["black","white"],"door_generator_assignment":[1,0],"goal":1,"start":0,"action_noise":0.1,"location_history":"[0,4,5,4,7,3,2,6,7,3,0,4,5,4,5,1]","action_history":"[1,1,0,0,1,1,1,1,1,1,1,1,0,1,1]","door_history":"[0,0,1,1,0,0,0,0,0,0,0,0,1,0,0]","location_rts":"[5729,2330,457,6259,298,79,240,495,310,350,1868,385,368,295,107]","trial_type":"two-door-navigation","trial_index":5,"time_elapsed":228766,"internal_node_id":"0.0-2.0-3.0"},{"group":"square cycles (cube, non-group)","room_assignment":["red","purple","yellow","blue","brown","green","pink","grey"],"door_color_assignment":["black","white"],"door_generator_assignment":[1,0],"goal":6,"start":1,"action_noise":0.1,"location_history":"[1,0,4,7,3,2,6]","action_history":"[1,1,0,1,1,1]","door_history":"[0,0,1,0,0,0]","location_rts":"[2908,263,274,315,850,781]","trial_type":"two-door-navigation","trial_index":6,"time_elapsed":243957,"internal_node_id":"0.0-2.0-4.0"},{"group":"square cycles (cube, non-group)","room_assignment":["red","purple","yellow","blue","brown","green","pink","grey"],"door_color_assignment":["black","white"],"door_generator_assignment":[1,0],"goal":3,"start":6,"action_noise":0.1,"location_history":"[6,7,6,7,3]","action_history":"[1,0,1,1]","door_history":"[0,1,0,0]","location_rts":"[2077,869,417,3478]","trial_type":"two-door-navigation","trial_index":7,"time_elapsed":258457,"internal_node_id":"0.0-2.0-5.0"},{"group":"square cycles (cube, non-group)","room_assignment":["red","purple","yellow","blue","brown","green","pink","grey"],"door_color_assignment":["black","white"],"door_generator_assignment":[1,0],"goal":4,"start":3,"action_noise":0.1,"location_history":"[3,0,4]","action_history":"[0,1]","door_history":"[1,0]","location_rts":"[3397,294]","trial_type":"two-door-navigation","trial_index":8,"time_elapsed":267805,"internal_node_id":"0.0-2.0-6.0"},{"group":"square cycles (cube, non-group)","room_assignment":["red","purple","yellow","blue","brown","green","pink","grey"],"door_color_assignment":["black","white"],"door_generator_assignment":[1,0],"goal":1,"start":4,"action_noise":0.1,"location_history":"[4,5,4,5,1]","action_history":"[1,0,1,1]","door_history":"[0,1,0,0]","location_rts":"[54425,381,424,387]","trial_type":"two-door-navigation","trial_index":9,"time_elapsed":331097,"internal_node_id":"0.0-2.0-7.0"},{"group":"square cycles (cube, non-group)","room_assignment":["red","purple","yellow","blue","brown","green","pink","grey"],"door_color_assignment":["black","white"],"door_generator_assignment":[1,0],"goal":4,"start":1,"action_noise":0.1,"location_history":"[1,0,4]","action_history":"[0,1]","door_history":"[1,0]","location_rts":"[1178,416]","trial_type":"two-door-navigation","trial_index":10,"time_elapsed":338265,"internal_node_id":"0.0-2.0-8.0"},{"group":"square cycles (cube, non-group)","room_assignment":["red","purple","yellow","blue","brown","green","pink","grey"],"door_color_assignment":["black","white"],"door_generator_assignment":[1,0],"goal":5,"start":4,"action_noise":0.1,"location_history":"[4,5]","action_history":"[1]","door_history":"[0]","location_rts":"[613]","trial_type":"two-door-navigation","trial_index":11,"time_elapsed":343409,"internal_node_id":"0.0-2.0-9.0"},{"group":"square cycles (cube, non-group)","room_assignment":["red","purple","yellow","blue","brown","green","pink","grey"],"door_color_assignment":["black","white"],"door_generator_assignment":[1,0],"goal":3,"start":5,"action_noise":0.1,"location_history":"[5,1,2,6,5,1,0,1,0,4,5,1,0,4,5,4,5,4,5,1,2,3]","action_history":"[1,0,1,1,1,1,0,1,1,1,1,1,1,1,0,1,1,1,1,0,0]","door_history":"[0,1,0,0,0,0,1,0,0,0,0,0,0,0,1,0,0,0,0,1,1]","location_rts":"[17662,291,327,14,189,5,9,467,3,331,2205,210,340,201,325,290,176,230,222,2,47]","trial_type":"two-door-navigation","trial_index":12,"time_elapsed":392325,"internal_node_id":"0.0-2.0-10.0"},{"group":"square cycles (cube, non-group)","room_assignment":["red","purple","yellow","blue","brown","green","pink","grey"],"door_color_assignment":["black","white"],"door_generator_assignment":[1,0],"goal":6,"start":3,"action_noise":0.1,"location_history":"[3,2,6]","action_history":"[1,1]","door_history":"[0,0]","location_rts":"[396,4075]","trial_type":"two-door-navigation","trial_index":13,"time_elapsed":402532,"internal_node_id":"0.0-2.0-11.0"},{"group":"square cycles (cube, non-group)","room_assignment":["red","purple","yellow","blue","brown","green","pink","grey"],"door_color_assignment":["black","white"],"door_generator_assignment":[1,0],"goal":7,"start":6,"action_noise":0.1,"location_history":"[6,7]","action_history":"[1]","door_history":"[0]","location_rts":"[287]","trial_type":"two-door-navigation","trial_index":14,"time_elapsed":407427,"internal_node_id":"0.0-2.0-12.0"},{"group":"square cycles (cube, non-group)","room_assignment":["red","purple","yellow","blue","brown","green","pink","grey"],"door_color_assignment":["black","white"],"door_generator_assignment":[1,0],"goal":0,"start":7,"action_noise":0.1,"location_history":"[7,3,2,6,7,3,2,6,5,1,0]","action_history":"[1,0,1,1,1,1,1,1,1,1]","door_history":"[0,1,0,0,0,0,0,0,0,0]","location_rts":"[86,90,344,1571,483,439,171,376,339,173]","trial_type":"two-door-navigation","trial_index":15,"time_elapsed":425473,"internal_node_id":"0.0-2.0-13.0"},{"group":"square cycles (cube, non-group)","room_assignment":["red","purple","yellow","blue","brown","green","pink","grey"],"door_color_assignment":["black","white"],"door_generator_assignment":[1,0],"goal":2,"start":0,"action_noise":0.1,"location_history":"[0,4,7,3,0,1,2]","action_history":"[1,0,1,0,0,0]","door_history":"[0,1,0,1,1,1]","location_rts":"[616,878,311,480,221,3372]","trial_type":"two-door-navigation","trial_index":16,"time_elapsed":441124,"internal_node_id":"0.0-2.0-14.0"},{"group":"square cycles (cube, non-group)","room_assignment":["red","purple","yellow","blue","brown","green","pink","grey"],"door_color_assignment":["black","white"],"door_generator_assignment":[1,0],"goal":1,"start":2,"action_noise":0.1,"location_history":"[2,6,5,1]","action_history":"[1,0,1]","door_history":"[0,1,0]","location_rts":"[2460,588,323]","trial_type":"two-door-navigation","trial_index":17,"time_elapsed":451136,"internal_node_id":"0.0-2.0-15.0"},{"group":"square cycles (cube, non-group)","room_assignment":["red","purple","yellow","blue","brown","green","pink","grey"],"door_color_assignment":["black","white"],"door_generator_assignment":[1,0],"goal":6,"start":1,"action_noise":0.1,"location_history":"[1,0,1,2,6]","action_history":"[1,0,1,1]","door_history":"[0,1,0,0]","location_rts":"[2310,387,306,236]","trial_type":"two-door-navigation","trial_index":18,"time_elapsed":462034,"internal_node_id":"0.0-2.0-16.0"},{"group":"square cycles (cube, non-group)","room_assignment":["red","purple","yellow","blue","brown","green","pink","grey"],"door_color_assignment":["black","white"],"door_generator_assignment":[1,0],"goal":3,"start":6,"action_noise":0.1,"location_history":"[6,7,3]","action_history":"[1,1]","door_history":"[0,0]","location_rts":"[1284,1281]","trial_type":"two-door-navigation","trial_index":19,"time_elapsed":470196,"internal_node_id":"0.0-2.0-17.0"},{"group":"square cycles (cube, non-group)","room_assignment":["red","purple","yellow","blue","brown","green","pink","grey"],"door_color_assignment":["black","white"],"door_generator_assignment":[1,0],"goal":4,"start":3,"action_noise":0.1,"location_history":"[3,0,4]","action_history":"[0,1]","door_history":"[1,0]","location_rts":"[3356,824]","trial_type":"two-door-navigation","trial_index":20,"time_elapsed":479945,"internal_node_id":"0.0-2.0-18.0"},{"group":"square cycles (cube, non-group)","room_assignment":["red","purple","yellow","blue","brown","green","pink","grey"],"door_color_assignment":["black","white"],"door_generator_assignment":[1,0],"goal":5,"start":4,"action_noise":0.1,"location_history":"[4,5]","action_history":"[1]","door_history":"[0]","location_rts":"[1225]","trial_type":"two-door-navigation","trial_index":21,"time_elapsed":485732,"internal_node_id":"0.0-2.0-19.0"},{"group":"square cycles (cube, non-group)","room_assignment":["red","purple","yellow","blue","brown","green","pink","grey"],"door_color_assignment":["black","white"],"door_generator_assignment":[1,0],"goal":7,"start":5,"action_noise":0.1,"location_history":"[5,1,2,6,7]","action_history":"[1,0,1,1]","door_history":"[0,1,0,0]","location_rts":"[2176,434,90,462]","trial_type":"two-door-navigation","trial_index":22,"time_elapsed":496571,"internal_node_id":"0.0-2.0-20.0"},{"group":"square cycles (cube, non-group)","room_assignment":["red","purple","yellow","blue","brown","green","pink","grey"],"door_color_assignment":["black","white"],"door_generator_assignment":[1,0],"goal":2,"start":7,"action_noise":0.1,"location_history":"[7,6,7,3,0,4,5,1,0,1,2]","action_history":"[0,1,1,0,1,1,1,0,0,0]","door_history":"[1,0,0,1,0,0,0,1,1,1]","location_rts":"[10786,360,779,962,473,2079,309,216,541,1260]","trial_type":"two-door-navigation","trial_index":23,"time_elapsed":528249,"internal_node_id":"0.0-2.0-21.0"},{"group":"square cycles (cube, non-group)","room_assignment":["red","purple","yellow","blue","brown","green","pink","grey"],"door_color_assignment":["black","white"],"door_generator_assignment":[1,0],"goal":0,"start":2,"action_noise":0.1,"location_history":"[2,3,2,6,7,3,0]","action_history":"[1,1,1,1,0,1]","door_history":"[0,0,0,0,1,0]","location_rts":"[1309,358,240,315,427,13760]","trial_type":"two-door-navigation","trial_index":24,"time_elapsed":554426,"internal_node_id":"0.0-2.0-22.0"},{"group":"square cycles (cube, non-group)","room_assignment":["red","purple","yellow","blue","brown","green","pink","grey"],"door_color_assignment":["black","white"],"door_generator_assignment":[1,0],"goal":7,"start":0,"action_noise":0.1,"location_history":"[0,1,0,1,2,3,0,1,2,3,0,1,2,3,0,1,2,3,0,4,7]","action_history":"[0,1,0,0,0,1,0,0,0,0,0,0,0,0,0,0,0,0,0,0]","door_history":"[1,0,1,1,1,0,1,1,1,1,1,1,1,1,1,1,1,1,1,1]","location_rts":"[360,360,209,208,38,245,290,98,120,59,12579,83,379,4830,184,340,384,81,282,108]","trial_type":"two-door-navigation","trial_index":25,"time_elapsed":600058,"internal_node_id":"0.0-2.0-23.0"},{"group":"square cycles (cube, non-group)","room_assignment":["red","purple","yellow","blue","brown","green","pink","grey"],"door_color_assignment":["black","white"],"door_generator_assignment":[1,0],"goal":5,"start":7,"action_noise":0.1,"location_history":"[7,3,0,1,0,1,0,1,0,1,2,6,7,6,7,3,2,6,7,3,0,1,0,1,0,4,7,3,2,6,7,3,2,3,2,3,0,4,5]","action_history":"[1,0,1,1,0,1,0,1,0,0,1,1,0,1,1,1,1,1,1,1,1,1,0,1,0,0,1,1,1,1,1,1,0,1,0,0,1,1]","door_history":"[0,1,0,0,1,0,1,0,1,1,0,0,1,0,0,0,0,0,0,0,0,0,1,0,1,1,0,0,0,0,0,0,1,0,1,1,0,0]","location_rts":"[838,144,163,186,203,150,11403,308,23,293,335,675,343,116,202,161,523,326,378,3805,338,382,296,640,133,311,368,339,296,2620,25,326,325,186,401,321,35,38]","trial_type":"two-door-navigation","trial_index":26,"time_elapsed":670990,"internal_node_id":"0.0-2.0-24.0"},{"group":"square cycles (cube, non-group)","room_assignment":["red","purple","yellow","blue","brown","green","pink","grey"],"door_color_assignment":["black","white"],"door_generator_assignment":[1,0],"goal":0,"start":5,"action_noise":0.1,"location_history":"[5,1,0]","action_history":"[1,1]","door_history":"[0,0]","location_rts":"[1045,454]","trial_type":"two-door-navigation","trial_index":27,"time_elapsed":678088,"internal_node_id":"0.0-2.0-25.0"},{"group":"square cycles (cube, non-group)","room_assignment":["red","purple","yellow","blue","brown","green","pink","grey"],"door_color_assignment":["black","white"],"door_generator_assignment":[1,0],"goal":6,"start":0,"action_noise":0.1,"location_history":"[0,4,5,1,2,6]","action_history":"[1,1,1,0,1]","door_history":"[0,0,0,1,0]","location_rts":"[624,6,320,312,63]","trial_type":"two-door-navigation","trial_index":28,"time_elapsed":688122,"internal_node_id":"0.0-2.0-26.0"},{"group":"square cycles (cube, non-group)","room_assignment":["red","purple","yellow","blue","brown","green","pink","grey"],"door_color_assignment":["black","white"],"door_generator_assignment":[1,0],"goal":4,"start":6,"action_noise":0.1,"location_history":"[6,7,3,2,6,7,3,0,1,0,4]","action_history":"[1,1,1,1,1,1,0,0,1,1]","door_history":"[0,0,0,0,0,0,1,1,0,0]","location_rts":"[1345,366,12499,408,425,1161,356,310,14,139]","trial_type":"two-door-navigation","trial_index":29,"time_elapsed":719173,"internal_node_id":"0.0-2.0-27.0"},{"group":"square cycles (cube, non-group)","room_assignment":["red","purple","yellow","blue","brown","green","pink","grey"],"door_color_assignment":["black","white"],"door_generator_assignment":[1,0],"goal":2,"start":4,"action_noise":0.1,"location_history":"[4,5,4,7,3,2]","action_history":"[1,0,0,1,1]","door_history":"[0,1,1,0,0]","location_rts":"[623,544,3497,290,73]","trial_type":"two-door-navigation","trial_index":30,"time_elapsed":732853,"internal_node_id":"0.0-2.0-28.0"},{"group":"square cycles (cube, non-group)","room_assignment":["red","purple","yellow","blue","brown","green","pink","grey"],"door_color_assignment":["black","white"],"door_generator_assignment":[1,0],"goal":3,"start":2,"action_noise":0.1,"location_history":"[2,6,7,3]","action_history":"[1,1,1]","door_history":"[0,0,0]","location_rts":"[489,341,253]","trial_type":"two-door-navigation","trial_index":31,"time_elapsed":740532,"internal_node_id":"0.0-2.0-29.0"},{"group":"square cycles (cube, non-group)","room_assignment":["red","purple","yellow","blue","brown","green","pink","grey"],"door_color_assignment":["black","white"],"door_generator_assignment":[1,0],"goal":1,"start":3,"action_noise":0.1,"location_history":"[3,2,6,5,4,5,1]","action_history":"[1,0,0,1,1,1]","door_history":"[0,1,1,0,0,0]","location_rts":"[391,831,819,320,339,375]","trial_type":"two-door-navigation","trial_index":32,"time_elapsed":753341,"internal_node_id":"0.0-2.0-30.0"},{"group":"square cycles (cube, non-group)","room_assignment":["red","purple","yellow","blue","brown","green","pink","grey"],"door_color_assignment":["black","white"],"door_generator_assignment":[1,0],"goal":4,"start":1,"action_noise":0.1,"location_history":"[1,2,6,7,3,2,6,7,3,2,3,0,4]","action_history":"[1,1,1,1,1,1,1,1,1,0,0,1]","door_history":"[0,0,0,0,0,0,0,0,0,1,1,0]","location_rts":"[1521,296,346,318,299,348,319,2000,595,189,788,345]","trial_type":"two-door-navigation","trial_index":33,"time_elapsed":776717,"internal_node_id":"0.0-2.0-31.0"},{"group":"square cycles (cube, non-group)","room_assignment":["red","purple","yellow","blue","brown","green","pink","grey"],"door_color_assignment":["black","white"],"door_generator_assignment":[1,0],"goal":3,"start":4,"action_noise":0.1,"location_history":"[4,5,4,5,1,0,4,7,6,7,3]","action_history":"[1,1,1,1,1,1,0,1,1,1]","door_history":"[0,0,0,0,0,0,1,0,0,0]","location_rts":"[1268,346,305,892,783,855,320,1025,336,307]","trial_type":"two-door-navigation","trial_index":34,"time_elapsed":797059,"internal_node_id":"0.0-2.0-32.0"},{"group":"square cycles (cube, non-group)","room_assignment":["red","purple","yellow","blue","brown","green","pink","grey"],"door_color_assignment":["black","white"],"door_generator_assignment":[1,0],"goal":6,"start":3,"action_noise":0.1,"location_history":"[3,2,6]","action_history":"[1,1]","door_history":"[0,0]","location_rts":"[551,409]","trial_type":"two-door-navigation","trial_index":35,"time_elapsed":803636,"internal_node_id":"0.0-2.0-33.0"},{"group":"square cycles (cube, non-group)","room_assignment":["red","purple","yellow","blue","brown","green","pink","grey"],"door_color_assignment":["black","white"],"door_generator_assignment":[1,0],"goal":0,"start":6,"action_noise":0.1,"location_history":"[6,5,1,0]","action_history":"[0,1,1]","door_history":"[1,0,0]","location_rts":"[445,145,323]","trial_type":"two-door-navigation","trial_index":36,"time_elapsed":811160,"internal_node_id":"0.0-2.0-34.0"},{"group":"square cycles (cube, non-group)","room_assignment":["red","purple","yellow","blue","brown","green","pink","grey"],"door_color_assignment":["black","white"],"door_generator_assignment":[1,0],"goal":1,"start":0,"action_noise":0.1,"location_history":"[0,4,7,3,2,6,7,6,7,6,7,3,0,4,5,1]","action_history":"[1,1,1,1,1,1,0,1,0,0,1,1,1,1,1]","door_history":"[0,0,0,0,0,0,1,0,1,1,0,0,0,0,0]","location_rts":"[1045,188,291,9,318,1356,42,259,634,81,306,362,261,301,261]","trial_type":"two-door-navigation","trial_index":37,"time_elapsed":836063,"internal_node_id":"0.0-2.0-35.0"},{"group":"square cycles (cube, non-group)","room_assignment":["red","purple","yellow","blue","brown","green","pink","grey"],"door_color_assignment":["black","white"],"door_generator_assignment":[1,0],"goal":5,"start":1,"action_noise":0.1,"location_history":"[1,0,4,5]","action_history":"[1,1,1]","door_history":"[0,0,0]","location_rts":"[2261,231,21]","trial_type":"two-door-navigation","trial_index":38,"time_elapsed":845271,"internal_node_id":"0.0-2.0-36.0"},{"group":"square cycles (cube, non-group)","room_assignment":["red","purple","yellow","blue","brown","green","pink","grey"],"door_color_assignment":["black","white"],"door_generator_assignment":[1,0],"goal":7,"start":5,"action_noise":0.1,"location_history":"[5,1,2,6,7]","action_history":"[1,0,1,1]","door_history":"[0,1,0,0]","location_rts":"[744,444,154,144]","trial_type":"two-door-navigation","trial_index":39,"time_elapsed":854419,"internal_node_id":"0.0-2.0-37.0"},{"group":"square cycles (cube, non-group)","room_assignment":["red","purple","yellow","blue","brown","green","pink","grey"],"door_color_assignment":["black","white"],"door_generator_assignment":[1,0],"goal":2,"start":7,"action_noise":0.1,"location_history":"[7,3,0,4,7,3,2]","action_history":"[1,0,1,1,1,1]","door_history":"[0,1,0,0,0,0]","location_rts":"[565,307,191,133,180,130]","trial_type":"two-door-navigation","trial_index":40,"time_elapsed":865640,"internal_node_id":"0.0-2.0-38.0"},{"group":"square cycles (cube, non-group)","room_assignment":["red","purple","yellow","blue","brown","green","pink","grey"],"door_color_assignment":["black","white"],"door_generator_assignment":[1,0],"goal":1,"start":2,"action_noise":0.1,"location_history":"[2,6,7,3,2,3,2,6,5,1]","action_history":"[1,1,1,1,0,1,0,0,1]","door_history":"[0,0,0,0,1,0,1,1,0]","location_rts":"[713,692,206,41,377,428,312,48,400]","trial_type":"two-door-navigation","trial_index":41,"time_elapsed":881774,"internal_node_id":"0.0-2.0-39.0"},{"group":"square cycles (cube, non-group)","room_assignment":["red","purple","yellow","blue","brown","green","pink","grey"],"door_color_assignment":["black","white"],"door_generator_assignment":[1,0],"goal":3,"start":1,"action_noise":0.1,"location_history":"[1,0,1,0,4,5,4,5,1,0,1,0,4,7,3]","action_history":"[1,1,1,1,1,0,1,1,1,1,1,1,0,1]","door_history":"[0,0,0,0,0,1,0,0,0,0,0,0,1,0]","location_rts":"[675,79,51,337,27,115,311,157,80,251,2,92,377,339]","trial_type":"two-door-navigation","trial_index":42,"time_elapsed":902654,"internal_node_id":"0.0-2.0-40.0"},{"group":"square cycles (cube, non-group)","room_assignment":["red","purple","yellow","blue","brown","green","pink","grey"],"door_color_assignment":["black","white"],"door_generator_assignment":[1,0],"goal":4,"start":3,"action_noise":0.1,"location_history":"[3,2,6,5,4]","action_history":"[1,1,0,1]","door_history":"[0,0,1,0]","location_rts":"[591,266,193,424]","trial_type":"two-door-navigation","trial_index":43,"time_elapsed":911828,"internal_node_id":"0.0-2.0-41.0"},{"group":"square cycles (cube, non-group)","room_assignment":["red","purple","yellow","blue","brown","green","pink","grey"],"door_color_assignment":["black","white"],"door_generator_assignment":[1,0],"goal":2,"start":4,"action_noise":0.1,"location_history":"[4,5,4,5,1,0,1,0,1,2]","action_history":"[1,0,1,1,1,1,1,0,0]","door_history":"[0,1,0,0,0,0,0,1,1]","location_rts":"[78,2,85,39,284,340,490,47,939]","trial_type":"two-door-navigation","trial_index":44,"time_elapsed":927028,"internal_node_id":"0.0-2.0-42.0"},{"group":"square cycles (cube, non-group)","room_assignment":["red","purple","yellow","blue","brown","green","pink","grey"],"door_color_assignment":["black","white"],"door_generator_assignment":[1,0],"goal":5,"start":2,"action_noise":0.1,"location_history":"[2,3,0,4,5]","action_history":"[1,0,1,1]","door_history":"[0,1,0,0]","location_rts":"[261,76,311,193]","trial_type":"two-door-navigation","trial_index":45,"time_elapsed":935561,"internal_node_id":"0.0-2.0-43.0"},{"group":"square cycles (cube, non-group)","room_assignment":["red","purple","yellow","blue","brown","green","pink","grey"],"door_color_assignment":["black","white"],"door_generator_assignment":[1,0],"goal":0,"start":5,"action_noise":0.1,"location_history":"[5,1,2,6,7,3,0]","action_history":"[1,0,1,1,1,1]","door_history":"[0,1,0,0,0,0]","location_rts":"[348,335,51,414,263,60]","trial_type":"two-door-navigation","trial_index":46,"time_elapsed":946760,"internal_node_id":"0.0-2.0-44.0"},{"group":"square cycles (cube, non-group)","room_assignment":["red","purple","yellow","blue","brown","green","pink","grey"],"door_color_assignment":["black","white"],"door_generator_assignment":[1,0],"goal":7,"start":0,"action_noise":0.1,"location_history":"[0,1,2,6,5,1,0,1,0,4,5,1,2,6,7]","action_history":"[1,0,1,1,1,1,0,1,1,1,1,0,1,1]","door_history":"[0,1,0,0,0,0,1,0,0,0,0,1,0,0]","location_rts":"[665,374,43,268,348,314,276,139,98,113,258,425,468,2103]","trial_type":"two-door-navigation","trial_index":47,"time_elapsed":970732,"internal_node_id":"0.0-2.0-45.0"},{"group":"square cycles (cube, non-group)","room_assignment":["red","purple","yellow","blue","brown","green","pink","grey"],"door_color_assignment":["black","white"],"door_generator_assignment":[1,0],"goal":6,"start":7,"action_noise":0.1,"location_history":"[7,3,2,6]","action_history":"[1,1,1]","door_history":"[0,0,0]","location_rts":"[221,266,69]","trial_type":"two-door-navigation","trial_index":48,"time_elapsed":977915,"internal_node_id":"0.0-2.0-46.0"},{"group":"square cycles (cube, non-group)","room_assignment":["red","purple","yellow","blue","brown","green","pink","grey"],"door_color_assignment":["black","white"],"door_generator_assignment":[1,0],"goal":2,"start":6,"action_noise":0.1,"location_history":"[6,7,3,2]","action_history":"[1,1,1]","door_history":"[0,0,0]","location_rts":"[66,215,91]","trial_type":"two-door-navigation","trial_index":49,"time_elapsed":984896,"internal_node_id":"0.0-2.0-47.0"},{"group":"square cycles (cube, non-group)","room_assignment":["red","purple","yellow","blue","brown","green","pink","grey"],"door_color_assignment":["black","white"],"door_generator_assignment":[1,0],"goal":5,"start":2,"action_noise":0.1,"location_history":"[2,3,2,6,7,3,2,6,5]","action_history":"[0,1,1,1,1,1,1,0]","door_history":"[1,0,0,0,0,0,0,1]","location_rts":"[444,121,309,132,479,329,233,156]","trial_type":"two-door-navigation","trial_index":50,"time_elapsed":998920,"internal_node_id":"0.0-2.0-48.0"},{"group":"square cycles (cube, non-group)","room_assignment":["red","purple","yellow","blue","brown","green","pink","grey"],"door_color_assignment":["black","white"],"door_generator_assignment":[1,0],"goal":3,"start":5,"action_noise":0.1,"location_history":"[5,1,0,4,5,1,0,4,7,3]","action_history":"[1,1,0,1,1,1,1,0,1]","door_history":"[0,0,1,0,0,0,0,1,0]","location_rts":"[548,424,110,25,844,468,285,408,322]","trial_type":"two-door-navigation","trial_index":51,"time_elapsed":1015262,"internal_node_id":"0.0-2.0-49.0"},{"view_history":"[{\"page_index\":0,\"viewing_time\":1224}]","rt":1225,"trial_type":"instructions","trial_index":52,"time_elapsed":1017489,"internal_node_id":"0.0-3.0"},{"view_history":"[{\"page_index\":0,\"viewing_time\":1059},{\"page_index\":1,\"viewing_time\":3399}]","rt":4459,"trial_type":"instructions","trial_index":53,"time_elapsed":1022950,"internal_node_id":"0.0-4.0"},{"group":"tri cycles (cube, non-group)","fractal_assignment":["../images/grn_red.png","../images/blu_wht.png","../images/ylw_pnk.png","../images/pnk_blu.png","../images/ylw_slt.png","../images/cyn_red.png","../images/org_blu.png","../images/gry_blk.png"],"mutagen_generator_assignment":[1,0],"goal":5,"start":7,"action_noise":0.1,"location_history":"[7,6,5]","action_history":"[0,1]","mutagen_history":"[1,0]","location_rts":"[2073,155]","trial_type":"fractal-mutation","trial_index":54,"time_elapsed":1030971,"internal_node_id":"0.0-5.0-0.0"},{"group":"tri cycles (cube, non-group)","fractal_assignment":["../images/grn_red.png","../images/blu_wht.png","../images/ylw_pnk.png","../images/pnk_blu.png","../images/ylw_slt.png","../images/cyn_red.png","../images/org_blu.png","../images/gry_blk.png"],"mutagen_generator_assignment":[1,0],"goal":2,"start":5,"action_noise":0.1,"location_history":"[5,2]","action_history":"[1]","mutagen_history":"[0]","location_rts":"[1612]","trial_type":"fractal-mutation","trial_index":55,"time_elapsed":1037167,"internal_node_id":"0.0-5.0-1.0"},{"group":"tri cycles (cube, non-group)","fractal_assignment":["../images/grn_red.png","../images/blu_wht.png","../images/ylw_pnk.png","../images/pnk_blu.png","../images/ylw_slt.png","../images/cyn_red.png","../images/org_blu.png","../images/gry_blk.png"],"mutagen_generator_assignment":[1,0],"goal":0,"start":2,"action_noise":0.1,"location_history":"[2,6,4,0]","action_history":"[0,0,1]","mutagen_history":"[1,1,0]","location_rts":"[2036,413,430]","trial_type":"fractal-mutation","trial_index":56,"time_elapsed":1046850,"internal_node_id":"0.0-5.0-2.0"},{"group":"tri cycles (cube, non-group)","fractal_assignment":["../images/grn_red.png","../images/blu_wht.png","../images/ylw_pnk.png","../images/pnk_blu.png","../images/ylw_slt.png","../images/cyn_red.png","../images/org_blu.png","../images/gry_blk.png"],"mutagen_generator_assignment":[1,0],"goal":1,"start":0,"action_noise":0.1,"location_history":"[0,2,6,4,0,2,1]","action_history":"[0,0,1,0,0,0]","mutagen_history":"[1,1,0,1,1,1]","location_rts":"[1051,596,868,574,713,693]","trial_type":"fractal-mutation","trial_index":57,"time_elapsed":1061698,"internal_node_id":"0.0-5.0-3.0"},{"group":"tri cycles (cube, non-group)","fractal_assignment":["../images/grn_red.png","../images/blu_wht.png","../images/ylw_pnk.png","../images/pnk_blu.png","../images/ylw_slt.png","../images/cyn_red.png","../images/org_blu.png","../images/gry_blk.png"],"mutagen_generator_assignment":[1,0],"goal":6,"start":1,"action_noise":0.1,"location_history":"[1,0,2,6]","action_history":"[0,0,1]","mutagen_history":"[1,1,0]","location_rts":"[256,898,414]","trial_type":"fractal-mutation","trial_index":58,"time_elapsed":1070073,"internal_node_id":"0.0-5.0-4.0"},{"group":"tri cycles (cube, non-group)","fractal_assignment":["../images/grn_red.png","../images/blu_wht.png","../images/ylw_pnk.png","../images/pnk_blu.png","../images/ylw_slt.png","../images/cyn_red.png","../images/org_blu.png","../images/gry_blk.png"],"mutagen_generator_assignment":[1,0],"goal":3,"start":6,"action_noise":0.1,"location_history":"[6,5,2,6,4,0,3]","action_history":"[1,1,1,0,1,1]","mutagen_history":"[0,0,0,1,0,0]","location_rts":"[715,895,907,368,180,9852]","trial_type":"fractal-mutation","trial_index":59,"time_elapsed":1093214,"internal_node_id":"0.0-5.0-5.0"},{"group":"tri cycles (cube, non-group)","fractal_assignment":["../images/grn_red.png","../images/blu_wht.png","../images/ylw_pnk.png","../images/pnk_blu.png","../images/ylw_slt.png","../images/cyn_red.png","../images/org_blu.png","../images/gry_blk.png"],"mutagen_generator_assignment":[1,0],"goal":4,"start":3,"action_noise":0.1,"location_history":"[3,4]","action_history":"[1]","mutagen_history":"[0]","location_rts":"[1980]","trial_type":"fractal-mutation","trial_index":60,"time_elapsed":1099935,"internal_node_id":"0.0-5.0-6.0"},{"group":"tri cycles (cube, non-group)","fractal_assignment":["../images/grn_red.png","../images/blu_wht.png","../images/ylw_pnk.png","../images/pnk_blu.png","../images/ylw_slt.png","../images/cyn_red.png","../images/org_blu.png","../images/gry_blk.png"],"mutagen_generator_assignment":[1,0],"goal":1,"start":4,"action_noise":0.1,"location_history":"[4,0,2,1]","action_history":"[1,0,0]","mutagen_history":"[0,1,1]","location_rts":"[1300,516,448]","trial_type":"fractal-mutation","trial_index":61,"time_elapsed":1109773,"internal_node_id":"0.0-5.0-7.0"},{"group":"tri cycles (cube, non-group)","fractal_assignment":["../images/grn_red.png","../images/blu_wht.png","../images/ylw_pnk.png","../images/pnk_blu.png","../images/ylw_slt.png","../images/cyn_red.png","../images/org_blu.png","../images/gry_blk.png"],"mutagen_generator_assignment":[1,0],"goal":4,"start":1,"action_noise":0.1,"location_history":"[1,0,3,4]","action_history":"[0,1,1]","mutagen_history":"[1,0,0]","location_rts":"[996,122,597]","trial_type":"fractal-mutation","trial_index":62,"time_elapsed":1118385,"internal_node_id":"0.0-5.0-8.0"},{"group":"tri cycles (cube, non-group)","fractal_assignment":["../images/grn_red.png","../images/blu_wht.png","../images/ylw_pnk.png","../images/pnk_blu.png","../images/ylw_slt.png","../images/cyn_red.png","../images/org_blu.png","../images/gry_blk.png"],"mutagen_generator_assignment":[1,0],"goal":5,"start":4,"action_noise":0.1,"location_history":"[4,0,2,6,5]","action_history":"[1,1,1,1]","mutagen_history":"[0,0,0,0]","location_rts":"[6433,571,532,990]","trial_type":"fractal-mutation","trial_index":63,"time_elapsed":1134851,"internal_node_id":"0.0-5.0-9.0"},{"group":"tri cycles (cube, non-group)","fractal_assignment":["../images/grn_red.png","../images/blu_wht.png","../images/ylw_pnk.png","../images/pnk_blu.png","../images/ylw_slt.png","../images/cyn_red.png","../images/org_blu.png","../images/gry_blk.png"],"mutagen_generator_assignment":[1,0],"goal":3,"start":5,"action_noise":0.1,"location_history":"[5,2,6,4,0,3]","action_history":"[1,1,0,1,1]","mutagen_history":"[0,0,1,0,0]","location_rts":"[1067,1002,2425,635,2283]","trial_type":"fractal-mutation","trial_index":64,"time_elapsed":1151154,"internal_node_id":"0.0-5.0-10.0"},{"group":"tri cycles (cube, non-group)","fractal_assignment":["../images/grn_red.png","../images/blu_wht.png","../images/ylw_pnk.png","../images/pnk_blu.png","../images/ylw_slt.png","../images/cyn_red.png","../images/org_blu.png","../images/gry_blk.png"],"mutagen_generator_assignment":[1,0],"goal":6,"start":3,"action_noise":0.1,"location_history":"[3,4,0,3,7,6]","action_history":"[1,0,1,0,0]","mutagen_history":"[0,1,0,1,1]","location_rts":"[1307,1212,1560,720,1366]","trial_type":"fractal-mutation","trial_index":65,"time_elapsed":1166368,"internal_node_id":"0.0-5.0-11.0"},{"group":"tri cycles (cube, non-group)","fractal_assignment":["../images/grn_red.png","../images/blu_wht.png","../images/ylw_pnk.png","../images/pnk_blu.png","../images/ylw_slt.png","../images/cyn_red.png","../images/org_blu.png","../images/gry_blk.png"],"mutagen_generator_assignment":[1,0],"goal":7,"start":6,"action_noise":0.1,"location_history":"[6,4,7]","action_history":"[0,0]","mutagen_history":"[1,1]","location_rts":"[1224,414]","trial_type":"fractal-mutation","trial_index":66,"time_elapsed":1173734,"internal_node_id":"0.0-5.0-12.0"},{"group":"tri cycles (cube, non-group)","fractal_assignment":["../images/grn_red.png","../images/blu_wht.png","../images/ylw_pnk.png","../images/pnk_blu.png","../images/ylw_slt.png","../images/cyn_red.png","../images/org_blu.png","../images/gry_blk.png"],"mutagen_generator_assignment":[1,0],"goal":0,"start":7,"action_noise":0.1,"location_history":"[7,3,7,6,5,2,6,4,7,6,4,0]","action_history":"[1,1,0,1,1,0,0,0,1,0,1]","mutagen_history":"[0,0,1,0,0,1,1,1,0,1,0]","location_rts":"[1050,1315,491,616,1346,484,644,576,26,707,707]","trial_type":"fractal-mutation","trial_index":67,"time_elapsed":1197305,"internal_node_id":"0.0-5.0-13.0"},{"group":"tri cycles (cube, non-group)","fractal_assignment":["../images/grn_red.png","../images/blu_wht.png","../images/ylw_pnk.png","../images/pnk_blu.png","../images/ylw_slt.png","../images/cyn_red.png","../images/org_blu.png","../images/gry_blk.png"],"mutagen_generator_assignment":[1,0],"goal":2,"start":0,"action_noise":0.1,"location_history":"[0,2]","action_history":"[0]","mutagen_history":"[1]","location_rts":"[3557]","trial_type":"fractal-mutation","trial_index":68,"time_elapsed":1205577,"internal_node_id":"0.0-5.0-14.0"},{"group":"tri cycles (cube, non-group)","fractal_assignment":["../images/grn_red.png","../images/blu_wht.png","../images/ylw_pnk.png","../images/pnk_blu.png","../images/ylw_slt.png","../images/cyn_red.png","../images/org_blu.png","../images/gry_blk.png"],"mutagen_generator_assignment":[1,0],"goal":1,"start":2,"action_noise":0.1,"location_history":"[2,1]","action_history":"[0]","mutagen_history":"[1]","location_rts":"[806]","trial_type":"fractal-mutation","trial_index":69,"time_elapsed":1210978,"internal_node_id":"0.0-5.0-15.0"},{"group":"tri cycles (cube, non-group)","fractal_assignment":["../images/grn_red.png","../images/blu_wht.png","../images/ylw_pnk.png","../images/pnk_blu.png","../images/ylw_slt.png","../images/cyn_red.png","../images/org_blu.png","../images/gry_blk.png"],"mutagen_generator_assignment":[1,0],"goal":6,"start":1,"action_noise":0.1,"location_history":"[1,0,3,7,6]","action_history":"[0,1,1,0]","mutagen_history":"[1,0,0,1]","location_rts":"[590,285,1327,539]","trial_type":"fractal-mutation","trial_index":70,"time_elapsed":1221766,"internal_node_id":"0.0-5.0-16.0"},{"group":"tri cycles (cube, non-group)","fractal_assignment":["../images/grn_red.png","../images/blu_wht.png","../images/ylw_pnk.png","../images/pnk_blu.png","../images/ylw_slt.png","../images/cyn_red.png","../images/org_blu.png","../images/gry_blk.png"],"mutagen_generator_assignment":[1,0],"goal":3,"start":6,"action_noise":0.1,"location_history":"[6,4,0,3]","action_history":"[0,0,1]","mutagen_history":"[1,1,0]","location_rts":"[530,493,1106]","trial_type":"fractal-mutation","trial_index":71,"time_elapsed":1230650,"internal_node_id":"0.0-5.0-17.0"},{"group":"tri cycles (cube, non-group)","fractal_assignment":["../images/grn_red.png","../images/blu_wht.png","../images/ylw_pnk.png","../images/pnk_blu.png","../images/ylw_slt.png","../images/cyn_red.png","../images/org_blu.png","../images/gry_blk.png"],"mutagen_generator_assignment":[1,0],"goal":4,"start":3,"action_noise":0.1,"location_history":"[3,4]","action_history":"[0]","mutagen_history":"[1]","location_rts":"[562]","trial_type":"fractal-mutation","trial_index":72,"time_elapsed":1235824,"internal_node_id":"0.0-5.0-18.0"},{"group":"tri cycles (cube, non-group)","fractal_assignment":["../images/grn_red.png","../images/blu_wht.png","../images/ylw_pnk.png","../images/pnk_blu.png","../images/ylw_slt.png","../images/cyn_red.png","../images/org_blu.png","../images/gry_blk.png"],"mutagen_generator_assignment":[1,0],"goal":5,"start":4,"action_noise":0.1,"location_history":"[4,7,3,4,0,2,1,0,2,1,5]","action_history":"[0,1,1,1,0,0,0,0,1,1]","mutagen_history":"[1,0,0,0,1,1,1,1,0,0]","location_rts":"[737,101,370,694,1141,711,576,472,323,627]","trial_type":"fractal-mutation","trial_index":73,"time_elapsed":1256013,"internal_node_id":"0.0-5.0-19.0"},{"group":"tri cycles (cube, non-group)","fractal_assignment":["../images/grn_red.png","../images/blu_wht.png","../images/ylw_pnk.png","../images/pnk_blu.png","../images/ylw_slt.png","../images/cyn_red.png","../images/org_blu.png","../images/gry_blk.png"],"mutagen_generator_assignment":[1,0],"goal":7,"start":5,"action_noise":0.1,"location_history":"[5,1,5,2,6,4,7]","action_history":"[0,0,1,1,0,0]","mutagen_history":"[1,1,0,0,1,1]","location_rts":"[951,1161,34,880,435,422]","trial_type":"fractal-mutation","trial_index":74,"time_elapsed":1270115,"internal_node_id":"0.0-5.0-20.0"},{"group":"tri cycles (cube, non-group)","fractal_assignment":["../images/grn_red.png","../images/blu_wht.png","../images/ylw_pnk.png","../images/pnk_blu.png","../images/ylw_slt.png","../images/cyn_red.png","../images/org_blu.png","../images/gry_blk.png"],"mutagen_generator_assignment":[1,0],"goal":2,"start":7,"action_noise":0.1,"location_history":"[7,3,4,0,3,4,0,2]","action_history":"[1,1,0,1,1,0,0]","mutagen_history":"[0,0,1,0,0,1,1]","location_rts":"[1442,819,477,65,728,782,419]","trial_type":"fractal-mutation","trial_index":75,"time_elapsed":1286254,"internal_node_id":"0.0-5.0-21.0"},{"group":"tri cycles (cube, non-group)","fractal_assignment":["../images/grn_red.png","../images/blu_wht.png","../images/ylw_pnk.png","../images/pnk_blu.png","../images/ylw_slt.png","../images/cyn_red.png","../images/org_blu.png","../images/gry_blk.png"],"mutagen_generator_assignment":[1,0],"goal":0,"start":2,"action_noise":0.1,"location_history":"[2,1,0]","action_history":"[0,0]","mutagen_history":"[1,1]","location_rts":"[721,454]","trial_type":"fractal-mutation","trial_index":76,"time_elapsed":1293170,"internal_node_id":"0.0-5.0-22.0"},{"group":"tri cycles (cube, non-group)","fractal_assignment":["../images/grn_red.png","../images/blu_wht.png","../images/ylw_pnk.png","../images/pnk_blu.png","../images/ylw_slt.png","../images/cyn_red.png","../images/org_blu.png","../images/gry_blk.png"],"mutagen_generator_assignment":[1,0],"goal":7,"start":0,"action_noise":0.1,"location_history":"[0,2,1,0,3,7]","action_history":"[0,0,0,1,0]","mutagen_history":"[1,1,1,0,1]","location_rts":"[620,5951,522,458,374]","trial_type":"fractal-mutation","trial_index":77,"time_elapsed":1310101,"internal_node_id":"0.0-5.0-23.0"},{"group":"tri cycles (cube, non-group)","fractal_assignment":["../images/grn_red.png","../images/blu_wht.png","../images/ylw_pnk.png","../images/pnk_blu.png","../images/ylw_slt.png","../images/cyn_red.png","../images/org_blu.png","../images/gry_blk.png"],"mutagen_generator_assignment":[1,0],"goal":5,"start":7,"action_noise":0.1,"location_history":"[7,3,4,0,3,7,6,5]","action_history":"[1,1,0,1,0,0,1]","mutagen_history":"[0,0,1,0,1,1,0]","location_rts":"[664,879,710,1781,384,535,319]","trial_type":"fractal-mutation","trial_index":78,"time_elapsed":1326588,"internal_node_id":"0.0-5.0-24.0"},{"group":"tri cycles (cube, non-group)","fractal_assignment":["../images/grn_red.png","../images/blu_wht.png","../images/ylw_pnk.png","../images/pnk_blu.png","../images/ylw_slt.png","../images/cyn_red.png","../images/org_blu.png","../images/gry_blk.png"],"mutagen_generator_assignment":[1,0],"goal":0,"start":5,"action_noise":0.1,"location_history":"[5,2,1,0]","action_history":"[1,0,0]","mutagen_history":"[0,1,1]","location_rts":"[901,882,292]","trial_type":"fractal-mutation","trial_index":79,"time_elapsed":1335570,"internal_node_id":"0.0-5.0-25.0"},{"group":"tri cycles (cube, non-group)","fractal_assignment":["../images/grn_red.png","../images/blu_wht.png","../images/ylw_pnk.png","../images/pnk_blu.png","../images/ylw_slt.png","../images/cyn_red.png","../images/org_blu.png","../images/gry_blk.png"],"mutagen_generator_assignment":[1,0],"goal":6,"start":0,"action_noise":0.1,"location_history":"[0,2,1,5,2,1,5,2,1,5,2,6]","action_history":"[0,0,1,1,0,1,1,0,1,1,1]","mutagen_history":"[1,1,0,0,1,0,0,1,0,0,0]","location_rts":"[689,616,237,584,439,428,371,401,77,907,501]","trial_type":"fractal-mutation","trial_index":80,"time_elapsed":1356373,"internal_node_id":"0.0-5.0-26.0"},{"group":"tri cycles (cube, non-group)","fractal_assignment":["../images/grn_red.png","../images/blu_wht.png","../images/ylw_pnk.png","../images/pnk_blu.png","../images/ylw_slt.png","../images/cyn_red.png","../images/org_blu.png","../images/gry_blk.png"],"mutagen_generator_assignment":[1,0],"goal":4,"start":6,"action_noise":0.1,"location_history":"[6,4]","action_history":"[0]","mutagen_history":"[1]","location_rts":"[505]","trial_type":"fractal-mutation","trial_index":81,"time_elapsed":1361479,"internal_node_id":"0.0-5.0-27.0"},{"group":"tri cycles (cube, non-group)","fractal_assignment":["../images/grn_red.png","../images/blu_wht.png","../images/ylw_pnk.png","../images/pnk_blu.png","../images/ylw_slt.png","../images/cyn_red.png","../images/org_blu.png","../images/gry_blk.png"],"mutagen_generator_assignment":[1,0],"goal":2,"start":4,"action_noise":0.1,"location_history":"[4,0,2]","action_history":"[1,0]","mutagen_history":"[0,1]","location_rts":"[930,417]","trial_type":"fractal-mutation","trial_index":82,"time_elapsed":1368482,"internal_node_id":"0.0-5.0-28.0"},{"group":"tri cycles (cube, non-group)","fractal_assignment":["../images/grn_red.png","../images/blu_wht.png","../images/ylw_pnk.png","../images/pnk_blu.png","../images/ylw_slt.png","../images/cyn_red.png","../images/org_blu.png","../images/gry_blk.png"],"mutagen_generator_assignment":[1,0],"goal":3,"start":2,"action_noise":0.1,"location_history":"[2,1,5,2,1,0,2,1,0,2,6,4,7,3]","action_history":"[0,1,1,0,0,0,0,0,0,0,0,0,1]","mutagen_history":"[1,0,0,1,1,1,1,1,1,1,1,1,0]","location_rts":"[685,395,793,369,456,430,450,421,573,587,1084,577,519]","trial_type":"fractal-mutation","trial_index":83,"time_elapsed":1393648,"internal_node_id":"0.0-5.0-29.0"},{"group":"tri cycles (cube, non-group)","fractal_assignment":["../images/grn_red.png","../images/blu_wht.png","../images/ylw_pnk.png","../images/pnk_blu.png","../images/ylw_slt.png","../images/cyn_red.png","../images/org_blu.png","../images/gry_blk.png"],"mutagen_generator_assignment":[1,0],"goal":1,"start":3,"action_noise":0.1,"location_history":"[3,7,3,7,3,7,6,4,0,2,6,4,0,2,1]","action_history":"[0,1,1,1,0,0,0,1,0,0,0,0,0,0]","mutagen_history":"[1,0,0,0,1,1,1,0,1,1,1,1,1,1]","location_rts":"[857,829,552,867,421,608,436,394,627,436,716,441,655,578]","trial_type":"fractal-mutation","trial_index":84,"time_elapsed":1421050,"internal_node_id":"0.0-5.0-30.0"},{"group":"tri cycles (cube, non-group)","fractal_assignment":["../images/grn_red.png","../images/blu_wht.png","../images/ylw_pnk.png","../images/pnk_blu.png","../images/ylw_slt.png","../images/cyn_red.png","../images/org_blu.png","../images/gry_blk.png"],"mutagen_generator_assignment":[1,0],"goal":4,"start":1,"action_noise":0.1,"location_history":"[1,0,3,7,6,4]","action_history":"[0,1,0,0,0]","mutagen_history":"[1,0,1,1,1]","location_rts":"[2557,459,611,672,530]","trial_type":"fractal-mutation","trial_index":85,"time_elapsed":1434986,"internal_node_id":"0.0-5.0-31.0"},{"group":"tri cycles (cube, non-group)","fractal_assignment":["../images/grn_red.png","../images/blu_wht.png","../images/ylw_pnk.png","../images/pnk_blu.png","../images/ylw_slt.png","../images/cyn_red.png","../images/org_blu.png","../images/gry_blk.png"],"mutagen_generator_assignment":[1,0],"goal":3,"start":4,"action_noise":0.1,"location_history":"[4,7,3]","action_history":"[0,1]","mutagen_history":"[1,0]","location_rts":"[671,104]","trial_type":"fractal-mutation","trial_index":86,"time_elapsed":1441461,"internal_node_id":"0.0-5.0-32.0"},{"group":"tri cycles (cube, non-group)","fractal_assignment":["../images/grn_red.png","../images/blu_wht.png","../images/ylw_pnk.png","../images/pnk_blu.png","../images/ylw_slt.png","../images/cyn_red.png","../images/org_blu.png","../images/gry_blk.png"],"mutagen_generator_assignment":[1,0],"goal":6,"start":3,"action_noise":0.1,"location_history":"[3,4,7,6]","action_history":"[1,0,0]","mutagen_history":"[0,1,1]","location_rts":"[1415,767,553]","trial_type":"fractal-mutation","trial_index":87,"time_elapsed":1451028,"internal_node_id":"0.0-5.0-33.0"},{"group":"tri cycles (cube, non-group)","fractal_assignment":["../images/grn_red.png","../images/blu_wht.png","../images/ylw_pnk.png","../images/pnk_blu.png","../images/ylw_slt.png","../images/cyn_red.png","../images/org_blu.png","../images/gry_blk.png"],"mutagen_generator_assignment":[1,0],"goal":0,"start":6,"action_noise":0.1,"location_history":"[6,5,1,0]","action_history":"[1,0,0]","mutagen_history":"[0,1,1]","location_rts":"[1510,680,2068]","trial_type":"fractal-mutation","trial_index":88,"time_elapsed":1462461,"internal_node_id":"0.0-5.0-34.0"},{"group":"tri cycles (cube, non-group)","fractal_assignment":["../images/grn_red.png","../images/blu_wht.png","../images/ylw_pnk.png","../images/pnk_blu.png","../images/ylw_slt.png","../images/cyn_red.png","../images/org_blu.png","../images/gry_blk.png"],"mutagen_generator_assignment":[1,0],"goal":1,"start":0,"action_noise":0.1,"location_history":"[0,2,1]","action_history":"[0,0]","mutagen_history":"[1,1]","location_rts":"[807,501]","trial_type":"fractal-mutation","trial_index":89,"time_elapsed":1469478,"internal_node_id":"0.0-5.0-35.0"},{"group":"tri cycles (cube, non-group)","fractal_assignment":["../images/grn_red.png","../images/blu_wht.png","../images/ylw_pnk.png","../images/pnk_blu.png","../images/ylw_slt.png","../images/cyn_red.png","../images/org_blu.png","../images/gry_blk.png"],"mutagen_generator_assignment":[1,0],"goal":5,"start":1,"action_noise":0.1,"location_history":"[1,5]","action_history":"[1]","mutagen_history":"[0]","location_rts":"[1145]","trial_type":"fractal-mutation","trial_index":90,"time_elapsed":1475219,"internal_node_id":"0.0-5.0-36.0"},{"group":"tri cycles (cube, non-group)","fractal_assignment":["../images/grn_red.png","../images/blu_wht.png","../images/ylw_pnk.png","../images/pnk_blu.png","../images/ylw_slt.png","../images/cyn_red.png","../images/org_blu.png","../images/gry_blk.png"],"mutagen_generator_assignment":[1,0],"goal":7,"start":5,"action_noise":0.1,"location_history":"[5,2,6,4,7]","action_history":"[1,1,0,0]","mutagen_history":"[0,0,1,1]","location_rts":"[1191,1364,421,285]","trial_type":"fractal-mutation","trial_index":91,"time_elapsed":1486431,"internal_node_id":"0.0-5.0-37.0"},{"group":"tri cycles (cube, non-group)","fractal_assignment":["../images/grn_red.png","../images/blu_wht.png","../images/ylw_pnk.png","../images/pnk_blu.png","../images/ylw_slt.png","../images/cyn_red.png","../images/org_blu.png","../images/gry_blk.png"],"mutagen_generator_assignment":[1,0],"goal":2,"start":7,"action_noise":0.1,"location_history":"[7,6,5,1,5,1,0,2]","action_history":"[0,1,0,1,0,0,0]","mutagen_history":"[1,0,1,0,1,1,1]","location_rts":"[781,740,392,606,4066,1022,501]","trial_type":"fractal-mutation","trial_index":92,"time_elapsed":1505775,"internal_node_id":"0.0-5.0-38.0"},{"group":"tri cycles (cube, non-group)","fractal_assignment":["../images/grn_red.png","../images/blu_wht.png","../images/ylw_pnk.png","../images/pnk_blu.png","../images/ylw_slt.png","../images/cyn_red.png","../images/org_blu.png","../images/gry_blk.png"],"mutagen_generator_assignment":[1,0],"goal":1,"start":2,"action_noise":0.1,"location_history":"[2,1]","action_history":"[0]","mutagen_history":"[1]","location_rts":"[541]","trial_type":"fractal-mutation","trial_index":93,"time_elapsed":1510966,"internal_node_id":"0.0-5.0-39.0"},{"group":"tri cycles (cube, non-group)","fractal_assignment":["../images/grn_red.png","../images/blu_wht.png","../images/ylw_pnk.png","../images/pnk_blu.png","../images/ylw_slt.png","../images/cyn_red.png","../images/org_blu.png","../images/gry_blk.png"],"mutagen_generator_assignment":[1,0],"goal":3,"start":1,"action_noise":0.1,"location_history":"[1,5,1,5,1,0,3]","action_history":"[1,1,1,0,0,1]","mutagen_history":"[0,0,0,1,1,0]","location_rts":"[1022,453,433,3811,1112,492]","trial_type":"fractal-mutation","trial_index":94,"time_elapsed":1528372,"internal_node_id":"0.0-5.0-40.0"},{"group":"tri cycles (cube, non-group)","fractal_assignment":["../images/grn_red.png","../images/blu_wht.png","../images/ylw_pnk.png","../images/pnk_blu.png","../images/ylw_slt.png","../images/cyn_red.png","../images/org_blu.png","../images/gry_blk.png"],"mutagen_generator_assignment":[1,0],"goal":4,"start":3,"action_noise":0.1,"location_history":"[3,4]","action_history":"[1]","mutagen_history":"[0]","location_rts":"[1512]","trial_type":"fractal-mutation","trial_index":95,"time_elapsed":1534457,"internal_node_id":"0.0-5.0-41.0"},{"group":"tri cycles (cube, non-group)","fractal_assignment":["../images/grn_red.png","../images/blu_wht.png","../images/ylw_pnk.png","../images/pnk_blu.png","../images/ylw_slt.png","../images/cyn_red.png","../images/org_blu.png","../images/gry_blk.png"],"mutagen_generator_assignment":[1,0],"goal":2,"start":4,"action_noise":0.1,"location_history":"[4,7,3,4,7,6,4,0,2]","action_history":"[0,1,1,0,1,1,0,0]","mutagen_history":"[1,0,0,1,0,0,1,1]","location_rts":"[1090,506,882,2744,407,1240,2713,605]","trial_type":"fractal-mutation","trial_index":96,"time_elapsed":1557258,"internal_node_id":"0.0-5.0-42.0"},{"group":"tri cycles (cube, non-group)","fractal_assignment":["../images/grn_red.png","../images/blu_wht.png","../images/ylw_pnk.png","../images/pnk_blu.png","../images/ylw_slt.png","../images/cyn_red.png","../images/org_blu.png","../images/gry_blk.png"],"mutagen_generator_assignment":[1,0],"goal":5,"start":2,"action_noise":0.1,"location_history":"[2,6,5]","action_history":"[1,1]","mutagen_history":"[0,0]","location_rts":"[1747,365]","trial_type":"fractal-mutation","trial_index":97,"time_elapsed":1565110,"internal_node_id":"0.0-5.0-43.0"},{"group":"tri cycles (cube, non-group)","fractal_assignment":["../images/grn_red.png","../images/blu_wht.png","../images/ylw_pnk.png","../images/pnk_blu.png","../images/ylw_slt.png","../images/cyn_red.png","../images/org_blu.png","../images/gry_blk.png"],"mutagen_generator_assignment":[1,0],"goal":0,"start":5,"action_noise":0.1,"location_history":"[5,1,0]","action_history":"[0,0]","mutagen_history":"[1,1]","location_rts":"[1733,744]","trial_type":"fractal-mutation","trial_index":98,"time_elapsed":1573343,"internal_node_id":"0.0-5.0-44.0"},{"group":"tri cycles (cube, non-group)","fractal_assignment":["../images/grn_red.png","../images/blu_wht.png","../images/ylw_pnk.png","../images/pnk_blu.png","../images/ylw_slt.png","../images/cyn_red.png","../images/org_blu.png","../images/gry_blk.png"],"mutagen_generator_assignment":[1,0],"goal":7,"start":0,"action_noise":0.1,"location_history":"[0,3,4,7]","action_history":"[1,1,0]","mutagen_history":"[0,0,1]","location_rts":"[2905,685,591]","trial_type":"fractal-mutation","trial_index":99,"time_elapsed":1584344,"internal_node_id":"0.0-5.0-45.0"},{"group":"tri cycles (cube, non-group)","fractal_assignment":["../images/grn_red.png","../images/blu_wht.png","../images/ylw_pnk.png","../images/pnk_blu.png","../images/ylw_slt.png","../images/cyn_red.png","../images/org_blu.png","../images/gry_blk.png"],"mutagen_generator_assignment":[1,0],"goal":6,"start":7,"action_noise":0.1,"location_history":"[7,3,4,0,2,6]","action_history":"[1,1,0,0,1]","mutagen_history":"[0,0,1,1,0]","location_rts":"[783,446,435,410,510]","trial_type":"fractal-mutation","trial_index":100,"time_elapsed":1595904,"internal_node_id":"0.0-5.0-46.0"},{"group":"tri cycles (cube, non-group)","fractal_assignment":["../images/grn_red.png","../images/blu_wht.png","../images/ylw_pnk.png","../images/pnk_blu.png","../images/ylw_slt.png","../images/cyn_red.png","../images/org_blu.png","../images/gry_blk.png"],"mutagen_generator_assignment":[1,0],"goal":2,"start":6,"action_noise":0.1,"location_history":"[6,4,0,2]","action_history":"[0,1,0]","mutagen_history":"[1,0,1]","location_rts":"[1258,297,431]","trial_type":"fractal-mutation","trial_index":101,"time_elapsed":1604756,"internal_node_id":"0.0-5.0-47.0"},{"group":"tri cycles (cube, non-group)","fractal_assignment":["../images/grn_red.png","../images/blu_wht.png","../images/ylw_pnk.png","../images/pnk_blu.png","../images/ylw_slt.png","../images/cyn_red.png","../images/org_blu.png","../images/gry_blk.png"],"mutagen_generator_assignment":[1,0],"goal":5,"start":2,"action_noise":0.1,"location_history":"[2,6,4,0,3,4,7,6,5]","action_history":"[1,0,1,1,1,0,0,1]","mutagen_history":"[0,1,0,0,0,1,1,0]","location_rts":"[828,783,23,643,389,570,463,293]","trial_type":"fractal-mutation","trial_index":102,"time_elapsed":1621092,"internal_node_id":"0.0-5.0-48.0"},{"group":"tri cycles (cube, non-group)","fractal_assignment":["../images/grn_red.png","../images/blu_wht.png","../images/ylw_pnk.png","../images/pnk_blu.png","../images/ylw_slt.png","../images/cyn_red.png","../images/org_blu.png","../images/gry_blk.png"],"mutagen_generator_assignment":[1,0],"goal":3,"start":5,"action_noise":0.1,"location_history":"[5,2,6,5,1,5,1,0,2,6,4,0,3]","action_history":"[1,1,1,0,1,0,0,0,1,0,1,1]","mutagen_history":"[0,0,0,1,0,1,1,1,0,1,0,0]","location_rts":"[699,393,912,329,498,802,210,4874,427,1121,17,451]","trial_type":"fractal-mutation","trial_index":103,"time_elapsed":1648641,"internal_node_id":"0.0-5.0-49.0"},{"view_history":"[{\"page_index\":0,\"viewing_time\":2020}]","rt":2022,"trial_type":"instructions","trial_index":104,"time_elapsed":1651666,"internal_node_id":"0.0-6.0"},{"rt":5537,"responses":"{\"Q0\":\"memory\"}","trial_type":"survey-text","trial_index":105,"time_elapsed":1658223,"internal_node_id":"0.0-7.0-0.0"},{"rt":5690,"responses":"{\"Q0\":\"memory and learning\"}","trial_type":"survey-text","trial_index":106,"time_elapsed":1664919,"internal_node_id":"0.0-7.0-1.0"},{"rt":4648,"responses":"{\"Q0\":\"<img src='../images/diagrams/tri_cycles.png'>\"}","trial_type":"survey-multi-choice","trial_index":107,"time_elapsed":1670587,"internal_node_id":"0.0-7.0-2.0"},{"rt":19343,"assignments":["../images/cyn_red.png","../images/gry_blk.png","../images/ylw_slt.png","../images/blu_wht.png","../images/org_blu.png","../images/pnk_blu.png","../images/grn_red.png","../images/ylw_pnk.png"],"trial_type":"drag-drop-on-image","trial_index":108,"time_elapsed":1690942,"internal_node_id":"0.0-7.0-3.0"},{"rt":1906,"responses":"{\"Q0\":\"3\"}","trial_type":"survey-likert","trial_index":109,"time_elapsed":1693859,"internal_node_id":"0.0-7.0-4.0"},{"rt":21524,"responses":"{\"Q0\":\"I noticed that certain colors lead to the same patterns\"}","trial_type":"survey-text","trial_index":110,"time_elapsed":1716389,"internal_node_id":"0.0-7.0-5.0"},{"rt":1810,"responses":"{\"Q0\":\"No\"}","trial_type":"survey-multi-choice","trial_index":111,"time_elapsed":1719209,"internal_node_id":"0.0-7.0-6.0"},{"rt":2210,"responses":"{\"Q0\":\"During session 2\"}","trial_type":"survey-multi-choice","trial_index":112,"time_elapsed":1722480,"internal_node_id":"0.0-7.0-7.0"},{"rt":1685,"responses":"{\"Q0\":\"\"}","trial_type":"survey-text","trial_index":113,"time_elapsed":1725173,"internal_node_id":"0.0-7.0-8.0"},{"rt":2473,"responses":"{\"Q0\":\"2\"}","trial_type":"survey-likert","trial_index":114,"time_elapsed":1728655,"internal_node_id":"0.0-7.0-9.0"},{"rt":2285,"responses":"{\"Q0\":\"Different structure\"}","trial_type":"survey-multi-choice","trial_index":115,"time_elapsed":1731949,"internal_node_id":"0.0-7.0-10.0"},{"rt":2748,"responses":"{\"Q0\":\"left (black) door = acid, (white) door = ray\",\"Q1\":\"Slightly confident\"}","trial_type":"survey-multi-choice","trial_index":116,"time_elapsed":1735729,"internal_node_id":"0.0-7.0-11.0"},{"rt":7312,"responses":"{\"Q0\":\"<25\",\"Q1\":\"Associates or other two-year degree\",\"Q2\":\"Male\",\"Q3\":\"Black or African American\"}","trial_type":"survey-multi-choice","trial_index":117,"time_elapsed":1744104,"internal_node_id":"0.0-8.0"},{"rt":1085,"responses":"{\"Q0\":\"\"}","trial_type":"survey-text","trial_index":118,"time_elapsed":1746196,"internal_node_id":"0.0-9.0"}]