[{"view_history":"[{\"page_index\":0,\"viewing_time\":1655},{\"page_index\":1,\"viewing_time\":4583}]","rt":6238,"trial_type":"instructions","trial_index":0,"time_elapsed":6239,"internal_node_id":"0.0-0.0"},{"view_history":"[{\"page_index\":0,\"viewing_time\":1476},{\"page_index\":1,\"viewing_time\":1992}]","rt":3470,"trial_type":"instructions","trial_index":1,"time_elapsed":10711,"internal_node_id":"0.0-1.0"},{"group":"square cycles (cube, non-group)","room_assignment":["red","brown","purple","blue","yellow","pink","green","grey"],"door_color_assignment":["white","black"],"door_generator_assignment":[1,0],"goal":5,"start":7,"action_noise":0.1,"location_history":"[7,3,2,6,7,3,2,6,7,6,7,3,2,6,7,3,2,6,5]","action_history":"[1,1,1,1,1,1,1,1,1,1,1,1,1,1,1,1,1,0]","door_history":"[0,0,0,0,0,0,0,0,0,0,0,0,0,0,0,0,0,1]","location_rts":"[23516,995,992,994,978,997,985,1011,995,946,966,979,952,951,1009,985,982,966]","trial_type":"two-door-navigation","trial_index":2,"time_elapsed":72737,"internal_node_id":"0.0-2.0-0.0"},{"group":"square cycles (cube, non-group)","room_assignment":["red","brown","purple","blue","yellow","pink","green","grey"],"door_color_assignment":["white","black"],"door_generator_assignment":[1,0],"goal":2,"start":5,"action_noise":0.1,"location_history":"[5,4,7,6,5,4,7,6,5,4,7,6,5,4,7,3,2]","action_history":"[0,0,0,0,0,0,0,0,0,0,0,0,0,0,1,1]","door_history":"[1,1,1,1,1,1,1,1,1,1,1,1,1,1,0,0]","location_rts":"[1501,997,982,998,1000,978,998,1001,1016,965,1015,979,1000,998,985,995]","trial_type":"two-door-navigation","trial_index":3,"time_elapsed":108732,"internal_node_id":"0.0-2.0-1.0"},{"group":"square cycles (cube, non-group)","room_assignment":["red","brown","purple","blue","yellow","pink","green","grey"],"door_color_assignment":["white","black"],"door_generator_assignment":[1,0],"goal":0,"start":2,"action_noise":0.1,"location_history":"[2,6,5,1,0]","action_history":"[1,1,1,1]","door_history":"[0,0,0,0]","location_rts":"[1490,998,994,997]","trial_type":"two-door-navigation","trial_index":4,"time_elapsed":120744,"internal_node_id":"0.0-2.0-2.0"},{"group":"square cycles (cube, non-group)","room_assignment":["red","brown","purple","blue","yellow","pink","green","grey"],"door_color_assignment":["white","black"],"door_generator_assignment":[1,0],"goal":1,"start":0,"action_noise":0.1,"location_history":"[0,4,5,1]","action_history":"[1,1,1]","door_history":"[0,0,0]","location_rts":"[1483,998,999]","trial_type":"two-door-navigation","trial_index":5,"time_elapsed":130738,"internal_node_id":"0.0-2.0-3.0"},{"group":"square cycles (cube, non-group)","room_assignment":["red","brown","purple","blue","yellow","pink","green","grey"],"door_color_assignment":["white","black"],"door_generator_assignment":[1,0],"goal":6,"start":1,"action_noise":0.1,"location_history":"[1,0,4,5,1,0,4,5,1,2,6]","action_history":"[1,1,1,1,1,1,1,1,1,1]","door_history":"[0,0,0,0,0,0,0,0,0,0]","location_rts":"[1491,996,996,979,998,1000,981,1013,981,1001]","trial_type":"two-door-navigation","trial_index":6,"time_elapsed":154736,"internal_node_id":"0.0-2.0-4.0"},{"group":"square cycles (cube, non-group)","room_assignment":["red","brown","purple","blue","yellow","pink","green","grey"],"door_color_assignment":["white","black"],"door_generator_assignment":[1,0],"goal":3,"start":6,"action_noise":0.1,"location_history":"[6,7,3]","action_history":"[1,1]","door_history":"[0,0]","location_rts":"[1490,996]","trial_type":"two-door-navigation","trial_index":7,"time_elapsed":162740,"internal_node_id":"0.0-2.0-5.0"},{"group":"square cycles (cube, non-group)","room_assignment":["red","brown","purple","blue","yellow","pink","green","grey"],"door_color_assignment":["white","black"],"door_generator_assignment":[1,0],"goal":4,"start":3,"action_noise":0.1,"location_history":"[3,2,6,7,6,7,3,2,3,0,1,2,3,0,1,2,3,0,1,2,3,0,4]","action_history":"[1,1,1,1,1,1,1,0,0,0,0,0,0,0,0,0,0,0,0,0,0,0]","door_history":"[0,0,0,0,0,0,0,1,1,1,1,1,1,1,1,1,1,1,1,1,1,1]","location_rts":"[1484,997,1001,998,982,1001,1001,3005,978,1003,995,1000,998,984,1000,999,1002,998,981,994,1001,981]","trial_type":"two-door-navigation","trial_index":8,"time_elapsed":212728,"internal_node_id":"0.0-2.0-6.0"},{"group":"square cycles (cube, non-group)","room_assignment":["red","brown","purple","blue","yellow","pink","green","grey"],"door_color_assignment":["white","black"],"door_generator_assignment":[1,0],"goal":1,"start":4,"action_noise":0.1,"location_history":"[4,7,6,5,4,5,1]","action_history":"[0,0,0,0,0,0]","door_history":"[1,1,1,1,1,1]","location_rts":"[1506,982,1000,997,1001,1047]","trial_type":"two-door-navigation","trial_index":9,"time_elapsed":228806,"internal_node_id":"0.0-2.0-7.0"},{"group":"square cycles (cube, non-group)","room_assignment":["red","brown","purple","blue","yellow","pink","green","grey"],"door_color_assignment":["white","black"],"door_generator_assignment":[1,0],"goal":4,"start":1,"action_noise":0.1,"location_history":"[1,2,3,0,1,2,3,0,1,2,3,0,1,2,3,2,3,0,4]","action_history":"[0,0,0,0,0,0,0,0,0,0,0,0,0,0,0,0,0,0]","door_history":"[1,1,1,1,1,1,1,1,1,1,1,1,1,1,1,1,1,1]","location_rts":"[1425,1000,1000,981,998,997,998,983,997,996,995,999,979,998,997,984,995,1000]","trial_type":"two-door-navigation","trial_index":10,"time_elapsed":268736,"internal_node_id":"0.0-2.0-8.0"},{"group":"square cycles (cube, non-group)","room_assignment":["red","brown","purple","blue","yellow","pink","green","grey"],"door_color_assignment":["white","black"],"door_generator_assignment":[1,0],"goal":5,"start":4,"action_noise":0.1,"location_history":"[4,7,6,5]","action_history":"[0,0,0]","door_history":"[1,1,1]","location_rts":"[1505,986,996]","trial_type":"two-door-navigation","trial_index":11,"time_elapsed":278737,"internal_node_id":"0.0-2.0-9.0"},{"group":"square cycles (cube, non-group)","room_assignment":["red","brown","purple","blue","yellow","pink","green","grey"],"door_color_assignment":["white","black"],"door_generator_assignment":[1,0],"goal":3,"start":5,"action_noise":0.1,"location_history":"[5,4,7,6,5,4,7,6,5,4,7,6,5,4,7,6,5,4,7,6,5,4,7,6,7,3]","action_history":"[0,0,0,0,0,0,0,0,0,0,0,0,0,0,0,0,0,0,0,0,0,0,0,0,0]","door_history":"[1,1,1,1,1,1,1,1,1,1,1,1,1,1,1,1,1,1,1,1,1,1,1,1,1]","location_rts":"[1490,1000,992,982,999,997,999,979,1000,999,1002,996,998,982,998,998,1001,978,998,997,979,999,998,1001,995]","trial_type":"two-door-navigation","trial_index":12,"time_elapsed":332740,"internal_node_id":"0.0-2.0-10.0"},{"group":"square cycles (cube, non-group)","room_assignment":["red","brown","purple","blue","yellow","pink","green","grey"],"door_color_assignment":["white","black"],"door_generator_assignment":[1,0],"goal":6,"start":3,"action_noise":0.1,"location_history":"[3,0,4,7,6]","action_history":"[0,0,0,0]","door_history":"[1,1,1,1]","location_rts":"[1503,985,998,999]","trial_type":"two-door-navigation","trial_index":13,"time_elapsed":344748,"internal_node_id":"0.0-2.0-11.0"},{"group":"square cycles (cube, non-group)","room_assignment":["red","brown","purple","blue","yellow","pink","green","grey"],"door_color_assignment":["white","black"],"door_generator_assignment":[1,0],"goal":7,"start":6,"action_noise":0.1,"location_history":"[6,7]","action_history":"[0]","door_history":"[1]","location_rts":"[1486]","trial_type":"two-door-navigation","trial_index":14,"time_elapsed":350743,"internal_node_id":"0.0-2.0-12.0"},{"group":"square cycles (cube, non-group)","room_assignment":["red","brown","purple","blue","yellow","pink","green","grey"],"door_color_assignment":["white","black"],"door_generator_assignment":[1,0],"goal":0,"start":7,"action_noise":0.1,"location_history":"[7,6,5,4,7,3,2,3,0]","action_history":"[0,0,0,0,0,0,0,0]","door_history":"[1,1,1,1,1,1,1,1]","location_rts":"[1485,1002,995,984,1000,995,1000,1001]","trial_type":"two-door-navigation","trial_index":15,"time_elapsed":370748,"internal_node_id":"0.0-2.0-13.0"},{"group":"square cycles (cube, non-group)","room_assignment":["red","brown","purple","blue","yellow","pink","green","grey"],"door_color_assignment":["white","black"],"door_generator_assignment":[1,0],"goal":2,"start":0,"action_noise":0.1,"location_history":"[0,1,2]","action_history":"[0,0]","door_history":"[1,1]","location_rts":"[1502,999]","trial_type":"two-door-navigation","trial_index":16,"time_elapsed":378756,"internal_node_id":"0.0-2.0-14.0"},{"group":"square cycles (cube, non-group)","room_assignment":["red","brown","purple","blue","yellow","pink","green","grey"],"door_color_assignment":["white","black"],"door_generator_assignment":[1,0],"goal":1,"start":2,"action_noise":0.1,"location_history":"[2,3,0,1]","action_history":"[0,0,0]","door_history":"[1,1,1]","location_rts":"[1492,981,999]","trial_type":"two-door-navigation","trial_index":17,"time_elapsed":388745,"internal_node_id":"0.0-2.0-15.0"},{"group":"square cycles (cube, non-group)","room_assignment":["red","brown","purple","blue","yellow","pink","green","grey"],"door_color_assignment":["white","black"],"door_generator_assignment":[1,0],"goal":6,"start":1,"action_noise":0.1,"location_history":"[1,2,3,0,1,0,1,0,1,2,3,0,1,2,6]","action_history":"[0,0,0,0,0,0,0,0,0,0,0,0,0,1]","door_history":"[1,1,1,1,1,1,1,1,1,1,1,1,1,0]","location_rts":"[1506,980,999,998,998,1000,985,992,997,985,1017,948,996,998]","trial_type":"two-door-navigation","trial_index":18,"time_elapsed":420760,"internal_node_id":"0.0-2.0-16.0"},{"group":"square cycles (cube, non-group)","room_assignment":["red","brown","purple","blue","yellow","pink","green","grey"],"door_color_assignment":["white","black"],"door_generator_assignment":[1,0],"goal":3,"start":6,"action_noise":0.1,"location_history":"[6,7,3]","action_history":"[1,1]","door_history":"[0,0]","location_rts":"[1486,998]","trial_type":"two-door-navigation","trial_index":19,"time_elapsed":428754,"internal_node_id":"0.0-2.0-17.0"},{"group":"square cycles (cube, non-group)","room_assignment":["red","brown","purple","blue","yellow","pink","green","grey"],"door_color_assignment":["white","black"],"door_generator_assignment":[1,0],"goal":4,"start":3,"action_noise":0.1,"location_history":"[3,2,6,7,3,2,6,7,3,0,4]","action_history":"[1,1,1,1,1,1,1,1,1,1]","door_history":"[0,0,0,0,0,0,0,0,0,0]","location_rts":"[1490,1001,1003,1001,979,999,1000,982,996,1004]","trial_type":"two-door-navigation","trial_index":20,"time_elapsed":452752,"internal_node_id":"0.0-2.0-18.0"},{"group":"square cycles (cube, non-group)","room_assignment":["red","brown","purple","blue","yellow","pink","green","grey"],"door_color_assignment":["white","black"],"door_generator_assignment":[1,0],"goal":5,"start":4,"action_noise":0.1,"location_history":"[4,5]","action_history":"[1]","door_history":"[0]","location_rts":"[1505]","trial_type":"two-door-navigation","trial_index":21,"time_elapsed":458761,"internal_node_id":"0.0-2.0-19.0"},{"group":"square cycles (cube, non-group)","room_assignment":["red","brown","purple","blue","yellow","pink","green","grey"],"door_color_assignment":["white","black"],"door_generator_assignment":[1,0],"goal":7,"start":5,"action_noise":0.1,"location_history":"[5,1,0,4,5,1,0,4,5,1,0,1,0,4,5,1,0,4,5,1,0,4,5,1,0,4,5,1,0,4,5,4,5,1,0,4,5,1,2,6,7]","action_history":"[1,1,1,1,1,1,1,1,1,1,1,1,1,1,1,1,1,1,1,1,1,1,1,1,1,1,1,1,1,1,1,1,1,1,1,1,1,1,1,1]","door_history":"[0,0,0,0,0,0,0,0,0,0,0,0,0,0,0,0,0,0,0,0,0,0,0,0,0,0,0,0,0,0,0,0,0,0,0,0,0,0,0,0]","location_rts":"[1488,998,999,982,997,981,1015,982,1000,1000,995,980,1000,1001,1001,996,980,994,999,980,996,999,1000,980,1000,1004,1000,1046,919,995,996,998,984,1001,999,998,998,983,1003,996]","trial_type":"two-door-navigation","trial_index":22,"time_elapsed":542754,"internal_node_id":"0.0-2.0-20.0"},{"group":"square cycles (cube, non-group)","room_assignment":["red","brown","purple","blue","yellow","pink","green","grey"],"door_color_assignment":["white","black"],"door_generator_assignment":[1,0],"goal":2,"start":7,"action_noise":0.1,"location_history":"[7,3,2]","action_history":"[1,1]","door_history":"[0,0]","location_rts":"[1486,990]","trial_type":"two-door-navigation","trial_index":23,"time_elapsed":550755,"internal_node_id":"0.0-2.0-21.0"},{"group":"square cycles (cube, non-group)","room_assignment":["red","brown","purple","blue","yellow","pink","green","grey"],"door_color_assignment":["white","black"],"door_generator_assignment":[1,0],"goal":0,"start":2,"action_noise":0.1,"location_history":"[2,3,2,6,7,3,2,6,7,3,2,6,7,3,2,6,7,3,2,6,7,3,2,6,7,3,2,6,7,3,2,6,7,3,2,6,7,3,2,6,7,3,0]","action_history":"[1,1,1,1,1,1,1,1,1,1,1,1,1,1,1,1,1,1,1,1,1,1,1,1,1,1,1,1,1,1,1,1,1,1,1,1,1,1,1,1,1,1]","door_history":"[0,0,0,0,0,0,0,0,0,0,0,0,0,0,0,0,0,0,0,0,0,0,0,0,0,0,0,0,0,0,0,0,0,0,0,0,0,0,0,0,0,0]","location_rts":"[1503,985,1000,1000,983,998,999,997,985,1002,1000,1001,997,982,996,997,986,1001,1003,1001,995,999,996,985,998,980,998,1018,986,1001,1001,981,999,998,998,998,980,998,996,977,998,997]","trial_type":"two-door-navigation","trial_index":24,"time_elapsed":638752,"internal_node_id":"0.0-2.0-22.0"},{"group":"square cycles (cube, non-group)","room_assignment":["red","brown","purple","blue","yellow","pink","green","grey"],"door_color_assignment":["white","black"],"door_generator_assignment":[1,0],"goal":7,"start":0,"action_noise":0.1,"location_history":"[0,4,5,1,0,4,5,1,0,1,2,3,0,1,2,3,0,1,2,3,0,1,2,3,0,1,2,3,0,1,2,3,0,1,2,3,0,1,0,1,2,3,0,1,2,6,5,4,7]","action_history":"[1,1,1,1,1,1,1,1,0,0,0,0,0,0,0,0,0,0,0,0,0,0,0,0,0,0,0,0,0,0,0,0,0,0,0,0,0,0,0,0,0,0,0,0,0,0,0,0]","door_history":"[0,0,0,0,0,0,0,0,1,1,1,1,1,1,1,1,1,1,1,1,1,1,1,1,1,1,1,1,1,1,1,1,1,1,1,1,1,1,1,1,1,1,1,1,1,1,1,1]","location_rts":"[1489,999,997,991,984,999,1002,999,3004,983,1000,1001,978,1003,998,984,999,993,1001,998,982,1016,986,997,999,983,998,1000,998,998,982,996,999,983,998,1002,998,1002,984,995,996,993,1000,982,997,997,998,999]","trial_type":"two-door-navigation","trial_index":25,"time_elapsed":740761,"internal_node_id":"0.0-2.0-23.0"},{"group":"square cycles (cube, non-group)","room_assignment":["red","brown","purple","blue","yellow","pink","green","grey"],"door_color_assignment":["white","black"],"door_generator_assignment":[1,0],"goal":5,"start":7,"action_noise":0.1,"location_history":"[7,6,7,6,5]","action_history":"[0,0,0,0]","door_history":"[1,1,1,1]","location_rts":"[1488,990,982,998]","trial_type":"two-door-navigation","trial_index":26,"time_elapsed":752750,"internal_node_id":"0.0-2.0-24.0"},{"group":"square cycles (cube, non-group)","room_assignment":["red","brown","purple","blue","yellow","pink","green","grey"],"door_color_assignment":["white","black"],"door_generator_assignment":[1,0],"goal":0,"start":5,"action_noise":0.1,"location_history":"[5,4,7,6,5,4,5,4,7,6,5,4,7,6,5,4,7,6,5,4,7,6,5,4,7,3,0]","action_history":"[0,0,0,0,0,0,0,0,0,0,0,0,0,0,0,0,0,0,0,0,0,0,0,0,0,0]","door_history":"[1,1,1,1,1,1,1,1,1,1,1,1,1,1,1,1,1,1,1,1,1,1,1,1,1,1]","location_rts":"[1506,981,1003,996,998,978,1003,1001,992,996,982,996,999,1000,984,992,1000,997,979,1003,999,998,983,998,1002,999]","trial_type":"two-door-navigation","trial_index":27,"time_elapsed":808754,"internal_node_id":"0.0-2.0-25.0"},{"group":"square cycles (cube, non-group)","room_assignment":["red","brown","purple","blue","yellow","pink","green","grey"],"door_color_assignment":["white","black"],"door_generator_assignment":[1,0],"goal":6,"start":0,"action_noise":0.1,"location_history":"[0,1,2,3,0,1,2,3,0,1,2,3,0,1,2,3,0,1,2,3,0,1,2,3,2,3,0,1,2,3,2,3,0,4,7,6]","action_history":"[0,0,0,0,0,0,0,0,0,0,0,0,0,0,0,0,0,0,0,0,0,0,0,0,0,0,0,0,0,0,0,0,0,0,1]","door_history":"[1,1,1,1,1,1,1,1,1,1,1,1,1,1,1,1,1,1,1,1,1,1,1,1,1,1,1,1,1,1,1,1,1,1,0]","location_rts":"[1491,999,1002,983,997,1001,984,1017,983,996,997,999,983,998,1001,1001,983,994,996,999,1000,978,1001,995,995,982,997,1000,1001,999,984,1002,1003,975,1001]","trial_type":"two-door-navigation","trial_index":28,"time_elapsed":882743,"internal_node_id":"0.0-2.0-26.0"},{"group":"square cycles (cube, non-group)","room_assignment":["red","brown","purple","blue","yellow","pink","green","grey"],"door_color_assignment":["white","black"],"door_generator_assignment":[1,0],"goal":4,"start":6,"action_noise":0.1,"location_history":"[6,7,3,2,6,7,3,0,4]","action_history":"[1,1,1,1,1,1,1,1]","door_history":"[0,0,0,0,0,0,0,0]","location_rts":"[1508,983,1000,995,1000,983,997,998]","trial_type":"two-door-navigation","trial_index":29,"time_elapsed":902752,"internal_node_id":"0.0-2.0-27.0"},{"group":"square cycles (cube, non-group)","room_assignment":["red","brown","purple","blue","yellow","pink","green","grey"],"door_color_assignment":["white","black"],"door_generator_assignment":[1,0],"goal":2,"start":4,"action_noise":0.1,"location_history":"[4,5,1,2]","action_history":"[1,1,1]","door_history":"[0,0,0]","location_rts":"[1487,999,995]","trial_type":"two-door-navigation","trial_index":30,"time_elapsed":912754,"internal_node_id":"0.0-2.0-28.0"},{"group":"square cycles (cube, non-group)","room_assignment":["red","brown","purple","blue","yellow","pink","green","grey"],"door_color_assignment":["white","black"],"door_generator_assignment":[1,0],"goal":3,"start":2,"action_noise":0.1,"location_history":"[2,6,7,3]","action_history":"[1,1,1]","door_history":"[0,0,0]","location_rts":"[1486,999,1001]","trial_type":"two-door-navigation","trial_index":31,"time_elapsed":922757,"internal_node_id":"0.0-2.0-29.0"},{"group":"square cycles (cube, non-group)","room_assignment":["red","brown","purple","blue","yellow","pink","green","grey"],"door_color_assignment":["white","black"],"door_generator_assignment":[1,0],"goal":1,"start":3,"action_noise":0.1,"location_history":"[3,0,1]","action_history":"[1,1]","door_history":"[0,0]","location_rts":"[1503,1000]","trial_type":"two-door-navigation","trial_index":32,"time_elapsed":930770,"internal_node_id":"0.0-2.0-30.0"},{"group":"square cycles (cube, non-group)","room_assignment":["red","brown","purple","blue","yellow","pink","green","grey"],"door_color_assignment":["white","black"],"door_generator_assignment":[1,0],"goal":4,"start":1,"action_noise":0.1,"location_history":"[1,0,4]","action_history":"[1,1]","door_history":"[0,0]","location_rts":"[1490,997]","trial_type":"two-door-navigation","trial_index":33,"time_elapsed":938765,"internal_node_id":"0.0-2.0-31.0"},{"group":"square cycles (cube, non-group)","room_assignment":["red","brown","purple","blue","yellow","pink","green","grey"],"door_color_assignment":["white","black"],"door_generator_assignment":[1,0],"goal":3,"start":4,"action_noise":0.1,"location_history":"[4,5,1,0,4,7,3]","action_history":"[1,1,1,1,1,1]","door_history":"[0,0,0,0,0,0]","location_rts":"[1493,994,997,983,996,999]","trial_type":"two-door-navigation","trial_index":34,"time_elapsed":954765,"internal_node_id":"0.0-2.0-32.0"},{"group":"square cycles (cube, non-group)","room_assignment":["red","brown","purple","blue","yellow","pink","green","grey"],"door_color_assignment":["white","black"],"door_generator_assignment":[1,0],"goal":6,"start":3,"action_noise":0.1,"location_history":"[3,0,4,5,1,0,4,5,4,5,1,0,4,5,4,5,1,0,4,5,1,0,4,5,1,0,4,5,1,0,4,5,1,0,4,5,1,0,4,5,1,0,4,5,1,0,4,5,1,2,6]","action_history":"[1,1,1,1,1,1,1,1,1,1,1,1,1,1,1,1,1,1,1,1,1,1,1,1,1,1,1,1,1,1,1,1,1,1,1,1,1,1,1,1,1,1,1,1,1,1,1,1,1,1]","door_history":"[0,0,0,0,0,0,0,0,0,0,0,0,0,0,0,0,0,0,0,0,0,0,0,0,0,0,0,0,0,0,0,0,0,0,0,0,0,0,0,0,0,0,0,0,0,0,0,0,0,0]","location_rts":"[1489,1018,977,1014,979,982,982,998,997,983,1003,995,998,982,998,1002,996,980,996,999,998,982,999,1002,999,1002,1000,981,999,997,997,983,996,1000,983,996,998,997,1001,980,1003,998,997,995,995,982,997,1000,994,998]","trial_type":"two-door-navigation","trial_index":35,"time_elapsed":1058778,"internal_node_id":"0.0-2.0-33.0"},{"group":"square cycles (cube, non-group)","room_assignment":["red","brown","purple","blue","yellow","pink","green","grey"],"door_color_assignment":["white","black"],"door_generator_assignment":[1,0],"goal":0,"start":6,"action_noise":0.1,"location_history":"[6,7,3,0]","action_history":"[1,1,1]","door_history":"[0,0,0]","location_rts":"[1487,1003,1000]","trial_type":"two-door-navigation","trial_index":36,"time_elapsed":1068782,"internal_node_id":"0.0-2.0-34.0"},{"group":"square cycles (cube, non-group)","room_assignment":["red","brown","purple","blue","yellow","pink","green","grey"],"door_color_assignment":["white","black"],"door_generator_assignment":[1,0],"goal":1,"start":0,"action_noise":0.1,"location_history":"[0,4,7,3,2,6,7,3,2,6,7,3,2,6,7,3,2,6,7,3,2,6,7,3,2,6,7,3,2,6,7,3,2,6,7,3,2,6,7,3,2,6,7,6,7,3,2,3,2,6,7,3,2,6,7,3,2,6,5,1]","action_history":"[1,1,1,1,1,1,1,1,1,1,1,1,1,1,1,1,1,1,1,1,1,1,1,1,1,1,1,1,1,1,1,1,1,1,1,1,1,1,1,1,1,1,1,1,1,1,1,1,1,1,1,1,1,1,1,1,1,0,0]","door_history":"[0,0,0,0,0,0,0,0,0,0,0,0,0,0,0,0,0,0,0,0,0,0,0,0,0,0,0,0,0,0,0,0,0,0,0,0,0,0,0,0,0,0,0,0,0,0,0,0,0,0,0,0,0,0,0,0,0,1,1]","location_rts":"[1487,1019,984,1001,1001,998,980,1000,1000,1003,975,1001,999,984,1000,996,998,996,1000,983,999,999,999,982,999,1001,982,1003,1000,998,994,981,1003,997,1000,979,991,1000,998,998,998,985,991,984,1013,984,996,999,997,979,1001,997,1001,999,986,998,1001,999,985]","trial_type":"two-door-navigation","trial_index":37,"time_elapsed":1190777,"internal_node_id":"0.0-2.0-35.0"},{"group":"square cycles (cube, non-group)","room_assignment":["red","brown","purple","blue","yellow","pink","green","grey"],"door_color_assignment":["white","black"],"door_generator_assignment":[1,0],"goal":5,"start":1,"action_noise":0.1,"location_history":"[1,2,3,0,1,2,6,5]","action_history":"[0,0,0,0,0,0,0]","door_history":"[1,1,1,1,1,1,1]","location_rts":"[1506,986,1000,1019,999,983,1000]","trial_type":"two-door-navigation","trial_index":38,"time_elapsed":1208798,"internal_node_id":"0.0-2.0-36.0"},{"group":"square cycles (cube, non-group)","room_assignment":["red","brown","purple","blue","yellow","pink","green","grey"],"door_color_assignment":["white","black"],"door_generator_assignment":[1,0],"goal":7,"start":5,"action_noise":0.1,"location_history":"[5,4,7]","action_history":"[0,0]","door_history":"[1,1]","location_rts":"[1503,981]","trial_type":"two-door-navigation","trial_index":39,"time_elapsed":1216802,"internal_node_id":"0.0-2.0-37.0"},{"group":"square cycles (cube, non-group)","room_assignment":["red","brown","purple","blue","yellow","pink","green","grey"],"door_color_assignment":["white","black"],"door_generator_assignment":[1,0],"goal":2,"start":7,"action_noise":0.1,"location_history":"[7,6,5,1,2]","action_history":"[0,0,0,0]","door_history":"[1,1,1,1]","location_rts":"[1497,984,1012,982]","trial_type":"two-door-navigation","trial_index":40,"time_elapsed":1228802,"internal_node_id":"0.0-2.0-38.0"},{"group":"square cycles (cube, non-group)","room_assignment":["red","brown","purple","blue","yellow","pink","green","grey"],"door_color_assignment":["white","black"],"door_generator_assignment":[1,0],"goal":1,"start":2,"action_noise":0.1,"location_history":"[2,3,0,1]","action_history":"[0,0,0]","door_history":"[1,1,1]","location_rts":"[1489,998,997]","trial_type":"two-door-navigation","trial_index":41,"time_elapsed":1238805,"internal_node_id":"0.0-2.0-39.0"},{"group":"square cycles (cube, non-group)","room_assignment":["red","brown","purple","blue","yellow","pink","green","grey"],"door_color_assignment":["white","black"],"door_generator_assignment":[1,0],"goal":3,"start":1,"action_noise":0.1,"location_history":"[1,2,3]","action_history":"[0,0]","door_history":"[1,1]","location_rts":"[1485,996]","trial_type":"two-door-navigation","trial_index":42,"time_elapsed":1246797,"internal_node_id":"0.0-2.0-40.0"},{"group":"square cycles (cube, non-group)","room_assignment":["red","brown","purple","blue","yellow","pink","green","grey"],"door_color_assignment":["white","black"],"door_generator_assignment":[1,0],"goal":4,"start":3,"action_noise":0.1,"location_history":"[3,0,1,2,3,0,1,2,3,0,1,2,6,5,4]","action_history":"[0,0,0,0,0,0,0,0,0,0,0,0,0,0]","door_history":"[1,1,1,1,1,1,1,1,1,1,1,1,1,1]","location_rts":"[1492,1001,998,982,995,997,999,1001,983,996,995,999,984,1013]","trial_type":"two-door-navigation","trial_index":43,"time_elapsed":1278813,"internal_node_id":"0.0-2.0-41.0"},{"group":"square cycles (cube, non-group)","room_assignment":["red","brown","purple","blue","yellow","pink","green","grey"],"door_color_assignment":["white","black"],"door_generator_assignment":[1,0],"goal":2,"start":4,"action_noise":0.1,"location_history":"[4,7,6,5,4,7,6,5,4,5,1,0,4,5,1,0,4,5,1,0,4,5,4,5,1,0,4,5,1,0,4,5,1,0,4,5,1,0,4,5,1,0,4,5,1,0,4,5,1,0,4,5,1,0,4,5,1,0,4,5,1,0,4,5,1,0,4,5,1,0,4,5,1,0,4,5,1,0,4,5,1,0,4,5,1,0,4,5,1,0,4,5,1,0,4,5,1,0,4,5,1,0,4,5,1,2]","action_history":"[0,0,0,0,0,0,0,0,1,1,1,1,1,1,1,1,1,1,1,1,1,1,1,1,1,1,1,1,1,1,1,1,1,1,1,1,1,1,1,1,1,1,1,1,1,1,1,1,1,1,1,1,1,1,1,1,1,1,1,1,1,1,1,1,1,1,1,1,1,1,1,1,1,1,1,1,1,1,1,1,1,1,1,1,1,1,1,1,1,1,1,1,1,1,1,1,1,1,1,1,1,1,1,1,1]","door_history":"[1,1,1,1,1,1,1,1,0,0,0,0,0,0,0,0,0,0,0,0,0,0,0,0,0,0,0,0,0,0,0,0,0,0,0,0,0,0,0,0,0,0,0,0,0,0,0,0,0,0,0,0,0,0,0,0,0,0,0,0,0,0,0,0,0,0,0,0,0,0,0,0,0,0,0,0,0,0,0,0,0,0,0,0,0,0,0,0,0,0,0,0,0,0,0,0,0,0,0,0,0,0,0,0,0]","location_rts":"[1486,999,985,1003,998,999,983,998,999,983,1014,981,997,999,985,999,999,999,985,1001,1000,997,981,1001,1000,999,983,998,1019,984,996,1001,981,999,996,985,1015,982,1002,999,994,997,984,997,1000,996,997,1000,1001,982,995,996,979,1015,983,998,997,1000,985,1002,1002,996,983,999,996,999,999,982,1002,999,979,996,997,997,1000,999,982,1015,983,999,980,997,999,1004,984,1002,995,998,999,985,998,998,1000,984,987,996,1001,984,995,999,995,980,1016,985,999]","trial_type":"two-door-navigation","trial_index":44,"time_elapsed":1492817,"internal_node_id":"0.0-2.0-42.0"},{"group":"square cycles (cube, non-group)","room_assignment":["red","brown","purple","blue","yellow","pink","green","grey"],"door_color_assignment":["white","black"],"door_generator_assignment":[1,0],"goal":5,"start":2,"action_noise":0.1,"location_history":"[2,6,7,3,2,6,5]","action_history":"[1,1,1,1,1,1]","door_history":"[0,0,0,0,0,0]","location_rts":"[1485,1000,1001,999,982,1001]","trial_type":"two-door-navigation","trial_index":45,"time_elapsed":1508812,"internal_node_id":"0.0-2.0-43.0"},{"group":"square cycles (cube, non-group)","room_assignment":["red","brown","purple","blue","yellow","pink","green","grey"],"door_color_assignment":["white","black"],"door_generator_assignment":[1,0],"goal":0,"start":5,"action_noise":0.1,"location_history":"[5,1,2,6,7,3,2,6,7,3,2,6,7,3,0]","action_history":"[1,1,1,1,1,1,1,1,1,1,1,1,1,1]","door_history":"[0,0,0,0,0,0,0,0,0,0,0,0,0,0]","location_rts":"[1487,996,1000,998,979,1002,999,998,996,984,1020,980,985,997]","trial_type":"two-door-navigation","trial_index":46,"time_elapsed":1540804,"internal_node_id":"0.0-2.0-44.0"},{"group":"square cycles (cube, non-group)","room_assignment":["red","brown","purple","blue","yellow","pink","green","grey"],"door_color_assignment":["white","black"],"door_generator_assignment":[1,0],"goal":7,"start":0,"action_noise":0.1,"location_history":"[0,4,5,1,0,4,5,1,2,6,7]","action_history":"[1,1,1,1,1,1,1,1,1,1]","door_history":"[0,0,0,0,0,0,0,0,0,0]","location_rts":"[1508,983,1018,978,1002,997,997,984,1000,1000]","trial_type":"two-door-navigation","trial_index":47,"time_elapsed":1564818,"internal_node_id":"0.0-2.0-45.0"},{"group":"square cycles (cube, non-group)","room_assignment":["red","brown","purple","blue","yellow","pink","green","grey"],"door_color_assignment":["white","black"],"door_generator_assignment":[1,0],"goal":6,"start":7,"action_noise":0.1,"location_history":"[7,3,2,3,2,6]","action_history":"[1,1,1,1,1]","door_history":"[0,0,0,0,0]","location_rts":"[1505,982,998,984,996]","trial_type":"two-door-navigation","trial_index":48,"time_elapsed":1578809,"internal_node_id":"0.0-2.0-46.0"},{"group":"square cycles (cube, non-group)","room_assignment":["red","brown","purple","blue","yellow","pink","green","grey"],"door_color_assignment":["white","black"],"door_generator_assignment":[1,0],"goal":2,"start":6,"action_noise":0.1,"location_history":"[6,7,3,2]","action_history":"[1,1,1]","door_history":"[0,0,0]","location_rts":"[1504,982,1003]","trial_type":"two-door-navigation","trial_index":49,"time_elapsed":1588814,"internal_node_id":"0.0-2.0-47.0"},{"group":"square cycles (cube, non-group)","room_assignment":["red","brown","purple","blue","yellow","pink","green","grey"],"door_color_assignment":["white","black"],"door_generator_assignment":[1,0],"goal":5,"start":2,"action_noise":0.1,"location_history":"[2,6,7,3,2,6,7,3,2,6,7,3,0,4,5]","action_history":"[1,1,1,1,1,1,1,1,1,1,1,1,1,1]","door_history":"[0,0,0,0,0,0,0,0,0,0,0,0,0,0]","location_rts":"[1487,998,1000,996,981,997,998,1001,1001,979,1001,999,1003,985]","trial_type":"two-door-navigation","trial_index":50,"time_elapsed":1620807,"internal_node_id":"0.0-2.0-48.0"},{"group":"square cycles (cube, non-group)","room_assignment":["red","brown","purple","blue","yellow","pink","green","grey"],"door_color_assignment":["white","black"],"door_generator_assignment":[1,0],"goal":3,"start":5,"action_noise":0.1,"location_history":"[5,1,0,1,2,3]","action_history":"[1,1,0,0,0]","door_history":"[0,0,1,1,1]","location_rts":"[1505,985,994,994,997]","trial_type":"two-door-navigation","trial_index":51,"time_elapsed":1634817,"internal_node_id":"0.0-2.0-49.0"},{"view_history":"[{\"page_index\":0,\"viewing_time\":171510}]","rt":171510,"trial_type":"instructions","trial_index":52,"time_elapsed":1807328,"internal_node_id":"0.0-3.0"},{"view_history":"[{\"page_index\":0,\"viewing_time\":3007},{\"page_index\":1,\"viewing_time\":3990}]","rt":6999,"trial_type":"instructions","trial_index":53,"time_elapsed":1815327,"internal_node_id":"0.0-4.0"},{"group":"square cycles (cube, non-group)","fractal_assignment":["../images/org_blu.png","../images/grn_red.png","../images/cyn_red.png","../images/ylw_pnk.png","../images/gry_blk.png","../images/ylw_slt.png","../images/blu_wht.png","../images/pnk_blu.png"],"mutagen_generator_assignment":[1,0],"goal":5,"start":7,"action_noise":0.1,"location_history":"[7,3,0,4,5]","action_history":"[1,1,1,1]","mutagen_history":"[0,0,0,0]","location_rts":"[55641,235,249,243]","trial_type":"fractal-mutation","trial_index":54,"time_elapsed":1879251,"internal_node_id":"0.0-5.0-0.0"},{"group":"square cycles (cube, non-group)","fractal_assignment":["../images/org_blu.png","../images/grn_red.png","../images/cyn_red.png","../images/ylw_pnk.png","../images/gry_blk.png","../images/ylw_slt.png","../images/blu_wht.png","../images/pnk_blu.png"],"mutagen_generator_assignment":[1,0],"goal":2,"start":5,"action_noise":0.1,"location_history":"[5,4,5,1,0,4,5,1,0,4,5,1,2]","action_history":"[1,1,1,1,1,1,1,1,1,1,1,1]","mutagen_history":"[0,0,0,0,0,0,0,0,0,0,0,0]","location_rts":"[498,255,237,236,251,240,247,237,256,243,241,251]","trial_type":"fractal-mutation","trial_index":55,"time_elapsed":1898050,"internal_node_id":"0.0-5.0-1.0"},{"group":"square cycles (cube, non-group)","fractal_assignment":["../images/org_blu.png","../images/grn_red.png","../images/cyn_red.png","../images/ylw_pnk.png","../images/gry_blk.png","../images/ylw_slt.png","../images/blu_wht.png","../images/pnk_blu.png"],"mutagen_generator_assignment":[1,0],"goal":0,"start":2,"action_noise":0.1,"location_history":"[2,6,5,1,0]","action_history":"[1,1,1,1]","mutagen_history":"[0,0,0,0]","location_rts":"[510,250,245,237]","trial_type":"fractal-mutation","trial_index":56,"time_elapsed":1906817,"internal_node_id":"0.0-5.0-2.0"},{"group":"square cycles (cube, non-group)","fractal_assignment":["../images/org_blu.png","../images/grn_red.png","../images/cyn_red.png","../images/ylw_pnk.png","../images/gry_blk.png","../images/ylw_slt.png","../images/blu_wht.png","../images/pnk_blu.png"],"mutagen_generator_assignment":[1,0],"goal":1,"start":0,"action_noise":0.1,"location_history":"[0,4,5,1]","action_history":"[1,1,1]","mutagen_history":"[0,0,0]","location_rts":"[506,252,247]","trial_type":"fractal-mutation","trial_index":57,"time_elapsed":1914342,"internal_node_id":"0.0-5.0-3.0"},{"group":"square cycles (cube, non-group)","fractal_assignment":["../images/org_blu.png","../images/grn_red.png","../images/cyn_red.png","../images/ylw_pnk.png","../images/gry_blk.png","../images/ylw_slt.png","../images/blu_wht.png","../images/pnk_blu.png"],"mutagen_generator_assignment":[1,0],"goal":6,"start":1,"action_noise":0.1,"location_history":"[1,0,4,5,1,0,4,5,1,0,4,5,1,0,4,5,1,0,4,5,4,5,1,0,4,5,1,2,6]","action_history":"[1,1,1,1,1,1,1,1,1,1,1,1,1,1,1,1,1,1,1,1,1,1,1,1,1,1,1,1]","mutagen_history":"[0,0,0,0,0,0,0,0,0,0,0,0,0,0,0,0,0,0,0,0,0,0,0,0,0,0,0,0]","location_rts":"[512,250,245,249,246,248,249,243,239,254,253,251,249,245,248,245,243,257,248,251,250,251,250,248,247,246,252,246]","trial_type":"fractal-mutation","trial_index":58,"time_elapsed":1953272,"internal_node_id":"0.0-5.0-4.0"},{"group":"square cycles (cube, non-group)","fractal_assignment":["../images/org_blu.png","../images/grn_red.png","../images/cyn_red.png","../images/ylw_pnk.png","../images/gry_blk.png","../images/ylw_slt.png","../images/blu_wht.png","../images/pnk_blu.png"],"mutagen_generator_assignment":[1,0],"goal":3,"start":6,"action_noise":0.1,"location_history":"[6,7,6,7,3]","action_history":"[1,1,1,1]","mutagen_history":"[0,0,0,0]","location_rts":"[519,248,259,254]","trial_type":"fractal-mutation","trial_index":59,"time_elapsed":1962089,"internal_node_id":"0.0-5.0-5.0"},{"group":"square cycles (cube, non-group)","fractal_assignment":["../images/org_blu.png","../images/grn_red.png","../images/cyn_red.png","../images/ylw_pnk.png","../images/gry_blk.png","../images/ylw_slt.png","../images/blu_wht.png","../images/pnk_blu.png"],"mutagen_generator_assignment":[1,0],"goal":4,"start":3,"action_noise":0.1,"location_history":"[3,2,6,7,3,2,6,7,6,5,1,0,4]","action_history":"[1,1,1,1,1,1,1,1,1,1,1,1]","mutagen_history":"[0,0,0,0,0,0,0,0,0,0,0,0]","location_rts":"[527,258,271,244,244,251,255,250,250,250,247,254]","trial_type":"fractal-mutation","trial_index":60,"time_elapsed":1980994,"internal_node_id":"0.0-5.0-6.0"},{"group":"square cycles (cube, non-group)","fractal_assignment":["../images/org_blu.png","../images/grn_red.png","../images/cyn_red.png","../images/ylw_pnk.png","../images/gry_blk.png","../images/ylw_slt.png","../images/blu_wht.png","../images/pnk_blu.png"],"mutagen_generator_assignment":[1,0],"goal":1,"start":4,"action_noise":0.1,"location_history":"[4,5,1]","action_history":"[1,1]","mutagen_history":"[0,0]","location_rts":"[535,257]","trial_type":"fractal-mutation","trial_index":61,"time_elapsed":1987309,"internal_node_id":"0.0-5.0-7.0"},{"group":"square cycles (cube, non-group)","fractal_assignment":["../images/org_blu.png","../images/grn_red.png","../images/cyn_red.png","../images/ylw_pnk.png","../images/gry_blk.png","../images/ylw_slt.png","../images/blu_wht.png","../images/pnk_blu.png"],"mutagen_generator_assignment":[1,0],"goal":4,"start":1,"action_noise":0.1,"location_history":"[1,2,6,5,4]","action_history":"[1,1,1,1]","mutagen_history":"[0,0,0,0]","location_rts":"[513,251,256,258]","trial_type":"fractal-mutation","trial_index":62,"time_elapsed":1996131,"internal_node_id":"0.0-5.0-8.0"},{"group":"square cycles (cube, non-group)","fractal_assignment":["../images/org_blu.png","../images/grn_red.png","../images/cyn_red.png","../images/ylw_pnk.png","../images/gry_blk.png","../images/ylw_slt.png","../images/blu_wht.png","../images/pnk_blu.png"],"mutagen_generator_assignment":[1,0],"goal":5,"start":4,"action_noise":0.1,"location_history":"[4,5]","action_history":"[1]","mutagen_history":"[0]","location_rts":"[527]","trial_type":"fractal-mutation","trial_index":63,"time_elapsed":2001175,"internal_node_id":"0.0-5.0-9.0"},{"group":"square cycles (cube, non-group)","fractal_assignment":["../images/org_blu.png","../images/grn_red.png","../images/cyn_red.png","../images/ylw_pnk.png","../images/gry_blk.png","../images/ylw_slt.png","../images/blu_wht.png","../images/pnk_blu.png"],"mutagen_generator_assignment":[1,0],"goal":3,"start":5,"action_noise":0.1,"location_history":"[5,1,0,4,5,1,0,4,7,3]","action_history":"[1,1,1,1,1,1,1,1,1]","mutagen_history":"[0,0,0,0,0,0,0,0,0]","location_rts":"[530,249,240,249,441,263,244,250,257]","trial_type":"fractal-mutation","trial_index":64,"time_elapsed":2016505,"internal_node_id":"0.0-5.0-10.0"},{"group":"square cycles (cube, non-group)","fractal_assignment":["../images/org_blu.png","../images/grn_red.png","../images/cyn_red.png","../images/ylw_pnk.png","../images/gry_blk.png","../images/ylw_slt.png","../images/blu_wht.png","../images/pnk_blu.png"],"mutagen_generator_assignment":[1,0],"goal":6,"start":3,"action_noise":0.1,"location_history":"[3,2,6]","action_history":"[1,1]","mutagen_history":"[0,0]","location_rts":"[514,255]","trial_type":"fractal-mutation","trial_index":65,"time_elapsed":2022791,"internal_node_id":"0.0-5.0-11.0"},{"group":"square cycles (cube, non-group)","fractal_assignment":["../images/org_blu.png","../images/grn_red.png","../images/cyn_red.png","../images/ylw_pnk.png","../images/gry_blk.png","../images/ylw_slt.png","../images/blu_wht.png","../images/pnk_blu.png"],"mutagen_generator_assignment":[1,0],"goal":7,"start":6,"action_noise":0.1,"location_history":"[6,7]","action_history":"[1]","mutagen_history":"[0]","location_rts":"[539]","trial_type":"fractal-mutation","trial_index":66,"time_elapsed":2027837,"internal_node_id":"0.0-5.0-12.0"},{"group":"square cycles (cube, non-group)","fractal_assignment":["../images/org_blu.png","../images/grn_red.png","../images/cyn_red.png","../images/ylw_pnk.png","../images/gry_blk.png","../images/ylw_slt.png","../images/blu_wht.png","../images/pnk_blu.png"],"mutagen_generator_assignment":[1,0],"goal":0,"start":7,"action_noise":0.1,"location_history":"[7,3,2,6,7,3,2,6,7,3,2,6,7,3,2,6,7,3,0]","action_history":"[1,1,1,1,1,1,1,1,1,1,1,1,1,1,1,1,1,1]","mutagen_history":"[0,0,0,0,0,0,0,0,0,0,0,0,0,0,0,0,0,0]","location_rts":"[539,258,249,243,258,252,255,258,256,259,252,259,253,259,260,244,255,265]","trial_type":"fractal-mutation","trial_index":67,"time_elapsed":2054352,"internal_node_id":"0.0-5.0-13.0"},{"group":"square cycles (cube, non-group)","fractal_assignment":["../images/org_blu.png","../images/grn_red.png","../images/cyn_red.png","../images/ylw_pnk.png","../images/gry_blk.png","../images/ylw_slt.png","../images/blu_wht.png","../images/pnk_blu.png"],"mutagen_generator_assignment":[1,0],"goal":2,"start":0,"action_noise":0.1,"location_history":"[0,4,5,1,0,4,5,1,0,4,5,1,0,4,5,1,0,4,5,1,0,4,5,1,0,4,5,1,0,4,5,1,0,1,0,4,5,1,0,4,5,1,2]","action_history":"[1,1,1,1,1,1,1,1,1,1,1,1,1,1,1,1,1,1,1,1,1,1,1,1,1,1,1,1,1,1,1,1,1,1,1,1,1,1,1,1,1,1]","mutagen_history":"[0,0,0,0,0,0,0,0,0,0,0,0,0,0,0,0,0,0,0,0,0,0,0,0,0,0,0,0,0,0,0,0,0,0,0,0,0,0,0,0,0,0]","location_rts":"[543,255,261,248,259,258,264,248,249,260,253,256,254,263,262,255,250,252,254,262,250,257,250,263,257,253,271,255,246,259,256,252,256,253,255,252,255,242,254,255,258,254]","trial_type":"fractal-mutation","trial_index":68,"time_elapsed":2111198,"internal_node_id":"0.0-5.0-14.0"},{"group":"square cycles (cube, non-group)","fractal_assignment":["../images/org_blu.png","../images/grn_red.png","../images/cyn_red.png","../images/ylw_pnk.png","../images/gry_blk.png","../images/ylw_slt.png","../images/blu_wht.png","../images/pnk_blu.png"],"mutagen_generator_assignment":[1,0],"goal":1,"start":2,"action_noise":0.1,"location_history":"[2,6,7,3,2,6,7,6,7,3,2,6,7,3,0,4,5,1]","action_history":"[1,1,1,1,1,1,1,1,1,1,1,1,1,1,1,1,1]","mutagen_history":"[0,0,0,0,0,0,0,0,0,0,0,0,0,0,0,0,0]","location_rts":"[539,261,257,259,254,259,261,257,262,261,252,260,256,254,253,255,260]","trial_type":"fractal-mutation","trial_index":69,"time_elapsed":2136489,"internal_node_id":"0.0-5.0-15.0"},{"group":"square cycles (cube, non-group)","fractal_assignment":["../images/org_blu.png","../images/grn_red.png","../images/cyn_red.png","../images/ylw_pnk.png","../images/gry_blk.png","../images/ylw_slt.png","../images/blu_wht.png","../images/pnk_blu.png"],"mutagen_generator_assignment":[1,0],"goal":6,"start":1,"action_noise":0.1,"location_history":"[1,0,4,5,1,0,4,5,1,0,4,5,1,0,4,5,1,0,4,5,1,0,4,5,1,0,4,5,1,2,6]","action_history":"[1,1,1,1,1,1,1,1,1,1,1,1,1,1,1,1,1,1,1,1,1,1,1,1,1,1,1,1,1,1]","mutagen_history":"[0,0,0,0,0,0,0,0,0,0,0,0,0,0,0,0,0,0,0,0,0,0,0,0,0,0,0,0,0,0]","location_rts":"[552,256,248,257,251,257,260,261,259,256,246,256,256,260,261,258,254,260,251,261,259,255,262,256,259,250,262,255,269,257]","trial_type":"fractal-mutation","trial_index":70,"time_elapsed":2178221,"internal_node_id":"0.0-5.0-16.0"},{"group":"square cycles (cube, non-group)","fractal_assignment":["../images/org_blu.png","../images/grn_red.png","../images/cyn_red.png","../images/ylw_pnk.png","../images/gry_blk.png","../images/ylw_slt.png","../images/blu_wht.png","../images/pnk_blu.png"],"mutagen_generator_assignment":[1,0],"goal":3,"start":6,"action_noise":0.1,"location_history":"[6,7,3]","action_history":"[1,1]","mutagen_history":"[0,0]","location_rts":"[564,258]","trial_type":"fractal-mutation","trial_index":71,"time_elapsed":2184565,"internal_node_id":"0.0-5.0-17.0"},{"group":"square cycles (cube, non-group)","fractal_assignment":["../images/org_blu.png","../images/grn_red.png","../images/cyn_red.png","../images/ylw_pnk.png","../images/gry_blk.png","../images/ylw_slt.png","../images/blu_wht.png","../images/pnk_blu.png"],"mutagen_generator_assignment":[1,0],"goal":4,"start":3,"action_noise":0.1,"location_history":"[3,2,6,7,3,2,6,7,3,2,6,5,1,2,6,5,1,2,6,7,3,2,6,7,3,2,6,7,3,2,6,7,3,2,6,7,3,2,6,7,3,2,6,7,6,5,1,0,4]","action_history":"[1,1,1,1,1,1,1,1,1,1,1,1,1,1,1,1,1,1,1,1,1,1,1,1,1,1,1,1,1,1,1,1,1,1,1,1,1,1,1,1,1,1,1,1,1,1,1,1]","mutagen_history":"[0,0,0,0,0,0,0,0,0,0,0,0,0,0,0,0,0,0,0,0,0,0,0,0,0,0,0,0,0,0,0,0,0,0,0,0,0,0,0,0,0,0,0,0,0,0,0,0]","location_rts":"[573,260,262,263,620,267,270,256,271,257,257,267,258,254,257,259,261,262,254,258,268,259,263,250,265,261,266,261,259,267,266,267,269,268,268,266,259,267,259,257,270,262,253,257,264,263,261,261]","trial_type":"fractal-mutation","trial_index":72,"time_elapsed":2249736,"internal_node_id":"0.0-5.0-18.0"},{"group":"square cycles (cube, non-group)","fractal_assignment":["../images/org_blu.png","../images/grn_red.png","../images/cyn_red.png","../images/ylw_pnk.png","../images/gry_blk.png","../images/ylw_slt.png","../images/blu_wht.png","../images/pnk_blu.png"],"mutagen_generator_assignment":[1,0],"goal":5,"start":4,"action_noise":0.1,"location_history":"[4,7,3,2,6,7,3,2,6,7,3,2,6,7,3,2,6,7,3,2,3,2,6,7,3,2,6,7,3,2,6,7,3,2,6,7,3,2,6,7,6,7,3,0,4,5]","action_history":"[1,1,1,1,1,1,1,1,1,1,1,1,1,1,1,1,1,1,1,1,1,1,1,1,1,1,1,1,1,1,1,1,1,1,1,1,1,1,1,1,1,1,1,1,1]","mutagen_history":"[0,0,0,0,0,0,0,0,0,0,0,0,0,0,0,0,0,0,0,0,0,0,0,0,0,0,0,0,0,0,0,0,0,0,0,0,0,0,0,0,0,0,0,0,0]","location_rts":"[554,270,271,269,258,266,270,267,256,263,255,267,271,270,263,258,265,269,256,265,264,254,263,260,269,256,263,265,262,265,266,267,273,269,265,272,266,258,265,264,260,266,260,264,259]","trial_type":"fractal-mutation","trial_index":73,"time_elapsed":2310758,"internal_node_id":"0.0-5.0-19.0"},{"group":"square cycles (cube, non-group)","fractal_assignment":["../images/org_blu.png","../images/grn_red.png","../images/cyn_red.png","../images/ylw_pnk.png","../images/gry_blk.png","../images/ylw_slt.png","../images/blu_wht.png","../images/pnk_blu.png"],"mutagen_generator_assignment":[1,0],"goal":7,"start":5,"action_noise":0.1,"location_history":"[5,1,0,4,5,1,0,4,5,1,0,4,5,1,0,4,5,1,0,4,5,1,0,4,5,1,0,4,5,1,0,4,5,4,7]","action_history":"[1,1,1,1,1,1,1,1,1,1,1,1,1,1,1,1,1,1,1,1,1,1,1,1,1,1,1,1,1,1,1,1,0,0]","mutagen_history":"[0,0,0,0,0,0,0,0,0,0,0,0,0,0,0,0,0,0,0,0,0,0,0,0,0,0,0,0,0,0,0,0,1,1]","location_rts":"[591,259,252,259,266,257,260,264,265,259,258,266,275,269,266,271,261,262,264,254,260,255,258,254,266,267,273,262,270,266,259,272,10,26]","trial_type":"fractal-mutation","trial_index":74,"time_elapsed":2357369,"internal_node_id":"0.0-5.0-20.0"},{"group":"square cycles (cube, non-group)","fractal_assignment":["../images/org_blu.png","../images/grn_red.png","../images/cyn_red.png","../images/ylw_pnk.png","../images/gry_blk.png","../images/ylw_slt.png","../images/blu_wht.png","../images/pnk_blu.png"],"mutagen_generator_assignment":[1,0],"goal":2,"start":7,"action_noise":0.1,"location_history":"[7,6,5,4,7,6,5,1,2]","action_history":"[0,0,0,0,0,0,0,0]","mutagen_history":"[1,1,1,1,1,1,1,1]","location_rts":"[319,248,259,260,250,263,257,255]","trial_type":"fractal-mutation","trial_index":75,"time_elapsed":2371115,"internal_node_id":"0.0-5.0-21.0"},{"group":"square cycles (cube, non-group)","fractal_assignment":["../images/org_blu.png","../images/grn_red.png","../images/cyn_red.png","../images/ylw_pnk.png","../images/gry_blk.png","../images/ylw_slt.png","../images/blu_wht.png","../images/pnk_blu.png"],"mutagen_generator_assignment":[1,0],"goal":0,"start":2,"action_noise":0.1,"location_history":"[2,6,7,3,2,6,7,3,2,6,7,6,7,3,2,3,2,6,7,3,2,6,7,3,2,6,5,4,5,1,0]","action_history":"[1,1,1,1,1,1,1,1,1,1,1,1,1,1,1,1,1,1,1,1,1,1,1,1,1,1,1,1,1,1]","mutagen_history":"[0,0,0,0,0,0,0,0,0,0,0,0,0,0,0,0,0,0,0,0,0,0,0,0,0,0,0,0,0,0]","location_rts":"[63,262,265,266,272,274,271,263,534,272,271,258,265,268,270,918,262,274,281,267,261,281,271,268,266,265,276,263,270,273]","trial_type":"fractal-mutation","trial_index":76,"time_elapsed":2413638,"internal_node_id":"0.0-5.0-22.0"},{"group":"square cycles (cube, non-group)","fractal_assignment":["../images/org_blu.png","../images/grn_red.png","../images/cyn_red.png","../images/ylw_pnk.png","../images/gry_blk.png","../images/ylw_slt.png","../images/blu_wht.png","../images/pnk_blu.png"],"mutagen_generator_assignment":[1,0],"goal":7,"start":0,"action_noise":0.1,"location_history":"[0,4,5,1,0,4,5,1,0,4,7]","action_history":"[1,1,1,1,1,1,1,1,1,1]","mutagen_history":"[0,0,0,0,0,0,0,0,0,0]","location_rts":"[584,268,265,258,276,271,267,279,262,277]","trial_type":"fractal-mutation","trial_index":77,"time_elapsed":2430222,"internal_node_id":"0.0-5.0-23.0"},{"group":"square cycles (cube, non-group)","fractal_assignment":["../images/org_blu.png","../images/grn_red.png","../images/cyn_red.png","../images/ylw_pnk.png","../images/gry_blk.png","../images/ylw_slt.png","../images/blu_wht.png","../images/pnk_blu.png"],"mutagen_generator_assignment":[1,0],"goal":5,"start":7,"action_noise":0.1,"location_history":"[7,6,7,3,2,3,2,6,7,3,2,6,7,3,2,6,7,3,2,6,7,3,2,6,7,3,2,3,2,6,7,3,0,4,5]","action_history":"[1,1,1,1,1,1,1,1,1,1,1,1,1,1,1,1,1,1,1,1,1,1,1,1,1,1,1,1,1,1,1,1,1,1]","mutagen_history":"[0,0,0,0,0,0,0,0,0,0,0,0,0,0,0,0,0,0,0,0,0,0,0,0,0,0,0,0,0,0,0,0,0,0]","location_rts":"[601,268,268,279,270,274,262,274,270,267,269,275,279,266,274,265,270,275,275,270,273,263,274,273,274,269,271,272,273,268,276,266,281,280]","trial_type":"fractal-mutation","trial_index":78,"time_elapsed":2477525,"internal_node_id":"0.0-5.0-24.0"},{"group":"square cycles (cube, non-group)","fractal_assignment":["../images/org_blu.png","../images/grn_red.png","../images/cyn_red.png","../images/ylw_pnk.png","../images/gry_blk.png","../images/ylw_slt.png","../images/blu_wht.png","../images/pnk_blu.png"],"mutagen_generator_assignment":[1,0],"goal":0,"start":5,"action_noise":0.1,"location_history":"[5,1,0]","action_history":"[1,1]","mutagen_history":"[0,0]","location_rts":"[606,270]","trial_type":"fractal-mutation","trial_index":79,"time_elapsed":2483923,"internal_node_id":"0.0-5.0-25.0"},{"group":"square cycles (cube, non-group)","fractal_assignment":["../images/org_blu.png","../images/grn_red.png","../images/cyn_red.png","../images/ylw_pnk.png","../images/gry_blk.png","../images/ylw_slt.png","../images/blu_wht.png","../images/pnk_blu.png"],"mutagen_generator_assignment":[1,0],"goal":6,"start":0,"action_noise":0.1,"location_history":"[0,4,5,1,0,4,5,4,5,1,0,4,5,1,0,4,5,1,0,4,5,1,0,4,5,1,0,4,5,4,5,1,0,4,5,1,0,4,5,1,2,6]","action_history":"[1,1,1,1,1,1,1,1,1,1,1,1,1,1,1,1,1,1,1,1,1,1,1,1,1,1,1,1,1,1,1,1,1,1,1,1,1,1,1,1,1]","mutagen_history":"[0,0,0,0,0,0,0,0,0,0,0,0,0,0,0,0,0,0,0,0,0,0,0,0,0,0,0,0,0,0,0,0,0,0,0,0,0,0,0,0,0]","location_rts":"[609,278,264,267,261,262,266,266,272,269,268,271,269,276,274,274,272,279,274,272,279,284,276,290,279,276,281,273,271,284,278,274,281,280,271,269,279,277,271,275,271]","trial_type":"fractal-mutation","trial_index":80,"time_elapsed":2540370,"internal_node_id":"0.0-5.0-26.0"},{"group":"square cycles (cube, non-group)","fractal_assignment":["../images/org_blu.png","../images/grn_red.png","../images/cyn_red.png","../images/ylw_pnk.png","../images/gry_blk.png","../images/ylw_slt.png","../images/blu_wht.png","../images/pnk_blu.png"],"mutagen_generator_assignment":[1,0],"goal":4,"start":6,"action_noise":0.1,"location_history":"[6,7,3,2,6,7,3,2,6,7,3,2,3,2,6,7,3,2,6,7,3,2,6,7,3,2,6,7,3,2,6,7,3,2,6,7,3,0,4]","action_history":"[1,1,1,1,1,1,1,1,1,1,1,1,1,1,1,1,1,1,1,1,1,1,1,1,1,1,1,1,1,1,1,1,1,1,1,1,1,1]","mutagen_history":"[0,0,0,0,0,0,0,0,0,0,0,0,0,0,0,0,0,0,0,0,0,0,0,0,0,0,0,0,0,0,0,0,0,0,0,0,0,0]","location_rts":"[627,274,272,278,283,284,268,277,273,277,271,280,272,274,283,284,277,289,284,277,275,282,276,279,275,268,272,275,280,277,273,272,281,289,284,275,272,282]","trial_type":"fractal-mutation","trial_index":81,"time_elapsed":2593040,"internal_node_id":"0.0-5.0-27.0"},{"group":"square cycles (cube, non-group)","fractal_assignment":["../images/org_blu.png","../images/grn_red.png","../images/cyn_red.png","../images/ylw_pnk.png","../images/gry_blk.png","../images/ylw_slt.png","../images/blu_wht.png","../images/pnk_blu.png"],"mutagen_generator_assignment":[1,0],"goal":2,"start":4,"action_noise":0.1,"location_history":"[4,7,3,2]","action_history":"[1,1,1]","mutagen_history":"[0,0,0]","location_rts":"[637,285,276]","trial_type":"fractal-mutation","trial_index":82,"time_elapsed":2600763,"internal_node_id":"0.0-5.0-28.0"},{"group":"square cycles (cube, non-group)","fractal_assignment":["../images/org_blu.png","../images/grn_red.png","../images/cyn_red.png","../images/ylw_pnk.png","../images/gry_blk.png","../images/ylw_slt.png","../images/blu_wht.png","../images/pnk_blu.png"],"mutagen_generator_assignment":[1,0],"goal":3,"start":2,"action_noise":0.1,"location_history":"[2,6,7,3]","action_history":"[1,1,1]","mutagen_history":"[0,0,0]","location_rts":"[640,273,283]","trial_type":"fractal-mutation","trial_index":83,"time_elapsed":2608489,"internal_node_id":"0.0-5.0-29.0"},{"group":"square cycles (cube, non-group)","fractal_assignment":["../images/org_blu.png","../images/grn_red.png","../images/cyn_red.png","../images/ylw_pnk.png","../images/gry_blk.png","../images/ylw_slt.png","../images/blu_wht.png","../images/pnk_blu.png"],"mutagen_generator_assignment":[1,0],"goal":1,"start":3,"action_noise":0.1,"location_history":"[3,0,4,5,1]","action_history":"[1,1,1,1]","mutagen_history":"[0,0,0,0]","location_rts":"[615,272,289,282]","trial_type":"fractal-mutation","trial_index":84,"time_elapsed":2617489,"internal_node_id":"0.0-5.0-30.0"},{"group":"square cycles (cube, non-group)","fractal_assignment":["../images/org_blu.png","../images/grn_red.png","../images/cyn_red.png","../images/ylw_pnk.png","../images/gry_blk.png","../images/ylw_slt.png","../images/blu_wht.png","../images/pnk_blu.png"],"mutagen_generator_assignment":[1,0],"goal":4,"start":1,"action_noise":0.1,"location_history":"[1,0,4]","action_history":"[1,1]","mutagen_history":"[0,0]","location_rts":"[637,277]","trial_type":"fractal-mutation","trial_index":85,"time_elapsed":2623917,"internal_node_id":"0.0-5.0-31.0"},{"group":"square cycles (cube, non-group)","fractal_assignment":["../images/org_blu.png","../images/grn_red.png","../images/cyn_red.png","../images/ylw_pnk.png","../images/gry_blk.png","../images/ylw_slt.png","../images/blu_wht.png","../images/pnk_blu.png"],"mutagen_generator_assignment":[1,0],"goal":3,"start":4,"action_noise":0.1,"location_history":"[4,5,1,0,4,5,1,0,4,5,1,0,4,7,3]","action_history":"[1,1,1,1,1,1,1,1,1,1,1,1,1,1]","mutagen_history":"[0,0,0,0,0,0,0,0,0,0,0,0,0,0]","location_rts":"[638,282,273,282,276,278,283,273,281,282,276,284,282,273]","trial_type":"fractal-mutation","trial_index":86,"time_elapsed":2645789,"internal_node_id":"0.0-5.0-32.0"},{"group":"square cycles (cube, non-group)","fractal_assignment":["../images/org_blu.png","../images/grn_red.png","../images/cyn_red.png","../images/ylw_pnk.png","../images/gry_blk.png","../images/ylw_slt.png","../images/blu_wht.png","../images/pnk_blu.png"],"mutagen_generator_assignment":[1,0],"goal":6,"start":3,"action_noise":0.1,"location_history":"[3,2,6]","action_history":"[1,1]","mutagen_history":"[0,0]","location_rts":"[639,286]","trial_type":"fractal-mutation","trial_index":87,"time_elapsed":2652230,"internal_node_id":"0.0-5.0-33.0"},{"group":"square cycles (cube, non-group)","fractal_assignment":["../images/org_blu.png","../images/grn_red.png","../images/cyn_red.png","../images/ylw_pnk.png","../images/gry_blk.png","../images/ylw_slt.png","../images/blu_wht.png","../images/pnk_blu.png"],"mutagen_generator_assignment":[1,0],"goal":0,"start":6,"action_noise":0.1,"location_history":"[6,7,3,2,6,5,1,0]","action_history":"[1,1,1,1,1,1,1]","mutagen_history":"[0,0,0,0,0,0,0]","location_rts":"[614,283,290,288,273,286,281]","trial_type":"fractal-mutation","trial_index":88,"time_elapsed":2665108,"internal_node_id":"0.0-5.0-34.0"},{"group":"square cycles (cube, non-group)","fractal_assignment":["../images/org_blu.png","../images/grn_red.png","../images/cyn_red.png","../images/ylw_pnk.png","../images/gry_blk.png","../images/ylw_slt.png","../images/blu_wht.png","../images/pnk_blu.png"],"mutagen_generator_assignment":[1,0],"goal":1,"start":0,"action_noise":0.1,"location_history":"[0,4,5,1]","action_history":"[1,1,1]","mutagen_history":"[0,0,0]","location_rts":"[630,278,275]","trial_type":"fractal-mutation","trial_index":89,"time_elapsed":2672807,"internal_node_id":"0.0-5.0-35.0"},{"group":"square cycles (cube, non-group)","fractal_assignment":["../images/org_blu.png","../images/grn_red.png","../images/cyn_red.png","../images/ylw_pnk.png","../images/gry_blk.png","../images/ylw_slt.png","../images/blu_wht.png","../images/pnk_blu.png"],"mutagen_generator_assignment":[1,0],"goal":5,"start":1,"action_noise":0.1,"location_history":"[1,0,4,5]","action_history":"[1,1,1]","mutagen_history":"[0,0,0]","location_rts":"[643,347,287]","trial_type":"fractal-mutation","trial_index":90,"time_elapsed":2680641,"internal_node_id":"0.0-5.0-36.0"},{"group":"square cycles (cube, non-group)","fractal_assignment":["../images/org_blu.png","../images/grn_red.png","../images/cyn_red.png","../images/ylw_pnk.png","../images/gry_blk.png","../images/ylw_slt.png","../images/blu_wht.png","../images/pnk_blu.png"],"mutagen_generator_assignment":[1,0],"goal":7,"start":5,"action_noise":0.1,"location_history":"[5,1,0,1,0,4,5,1,0,4,5,4,5,1,0,4,5,1,2,6,7]","action_history":"[1,1,1,1,1,1,1,1,1,1,1,1,1,1,1,1,1,1,1,1]","mutagen_history":"[0,0,0,0,0,0,0,0,0,0,0,0,0,0,0,0,0,0,0,0]","location_rts":"[642,286,282,278,281,276,282,284,289,272,274,274,294,287,279,277,297,281,281,274]","trial_type":"fractal-mutation","trial_index":91,"time_elapsed":2710270,"internal_node_id":"0.0-5.0-37.0"},{"group":"square cycles (cube, non-group)","fractal_assignment":["../images/org_blu.png","../images/grn_red.png","../images/cyn_red.png","../images/ylw_pnk.png","../images/gry_blk.png","../images/ylw_slt.png","../images/blu_wht.png","../images/pnk_blu.png"],"mutagen_generator_assignment":[1,0],"goal":2,"start":7,"action_noise":0.1,"location_history":"[7,3,2]","action_history":"[1,1]","mutagen_history":"[0,0]","location_rts":"[642,283]","trial_type":"fractal-mutation","trial_index":92,"time_elapsed":2716719,"internal_node_id":"0.0-5.0-38.0"},{"group":"square cycles (cube, non-group)","fractal_assignment":["../images/org_blu.png","../images/grn_red.png","../images/cyn_red.png","../images/ylw_pnk.png","../images/gry_blk.png","../images/ylw_slt.png","../images/blu_wht.png","../images/pnk_blu.png"],"mutagen_generator_assignment":[1,0],"goal":1,"start":2,"action_noise":0.1,"location_history":"[2,6,7,3,2,6,7,3,2,6,7,3,2,6,7,3,0,4,5,4,5,1]","action_history":"[1,1,1,1,1,1,1,1,1,1,1,1,1,1,1,1,1,1,1,1,1]","mutagen_history":"[0,0,0,0,0,0,0,0,0,0,0,0,0,0,0,0,0,0,0,0,0]","location_rts":"[657,285,288,287,280,291,281,287,285,281,286,287,288,283,285,275,283,274,281,284,287]","trial_type":"fractal-mutation","trial_index":93,"time_elapsed":2747727,"internal_node_id":"0.0-5.0-39.0"},{"group":"square cycles (cube, non-group)","fractal_assignment":["../images/org_blu.png","../images/grn_red.png","../images/cyn_red.png","../images/ylw_pnk.png","../images/gry_blk.png","../images/ylw_slt.png","../images/blu_wht.png","../images/pnk_blu.png"],"mutagen_generator_assignment":[1,0],"goal":3,"start":1,"action_noise":0.1,"location_history":"[1,0,4,5,4,5,1,0,4,5,1,2,6,5,4,7,6,7,3]","action_history":"[1,1,1,1,1,1,1,1,1,1,0,0,0,0,0,0,0,1]","mutagen_history":"[0,0,0,0,0,0,0,0,0,0,1,1,1,1,1,1,1,0]","location_rts":"[644,287,291,282,277,286,285,278,282,295,88,155,106,206,106,144,149,20]","trial_type":"fractal-mutation","trial_index":94,"time_elapsed":2773599,"internal_node_id":"0.0-5.0-40.0"},{"group":"square cycles (cube, non-group)","fractal_assignment":["../images/org_blu.png","../images/grn_red.png","../images/cyn_red.png","../images/ylw_pnk.png","../images/gry_blk.png","../images/ylw_slt.png","../images/blu_wht.png","../images/pnk_blu.png"],"mutagen_generator_assignment":[1,0],"goal":4,"start":3,"action_noise":0.1,"location_history":"[3,0,4]","action_history":"[1,1]","mutagen_history":"[0,0]","location_rts":"[646,273]","trial_type":"fractal-mutation","trial_index":95,"time_elapsed":2780035,"internal_node_id":"0.0-5.0-41.0"},{"group":"square cycles (cube, non-group)","fractal_assignment":["../images/org_blu.png","../images/grn_red.png","../images/cyn_red.png","../images/ylw_pnk.png","../images/gry_blk.png","../images/ylw_slt.png","../images/blu_wht.png","../images/pnk_blu.png"],"mutagen_generator_assignment":[1,0],"goal":2,"start":4,"action_noise":0.1,"location_history":"[4,5,4,5,1,0,4,5,1,0,4,5,1,2]","action_history":"[1,1,1,1,1,1,1,1,1,1,1,1,1]","mutagen_history":"[0,0,0,0,0,0,0,0,0,0,0,0,0]","location_rts":"[656,293,281,289,285,280,274,277,287,286,301,287,287]","trial_type":"fractal-mutation","trial_index":96,"time_elapsed":2800722,"internal_node_id":"0.0-5.0-42.0"},{"group":"square cycles (cube, non-group)","fractal_assignment":["../images/org_blu.png","../images/grn_red.png","../images/cyn_red.png","../images/ylw_pnk.png","../images/gry_blk.png","../images/ylw_slt.png","../images/blu_wht.png","../images/pnk_blu.png"],"mutagen_generator_assignment":[1,0],"goal":5,"start":2,"action_noise":0.1,"location_history":"[2,3,2,6,7,3,2,6,7,3,2,6,7,3,0,4,5]","action_history":"[1,1,1,1,1,1,1,1,1,1,1,1,1,1,1,1]","mutagen_history":"[0,0,0,0,0,0,0,0,0,0,0,0,0,0,0,0]","location_rts":"[659,281,288,289,279,314,289,284,289,289,295,284,290,279,289,285]","trial_type":"fractal-mutation","trial_index":97,"time_elapsed":2825329,"internal_node_id":"0.0-5.0-43.0"},{"group":"square cycles (cube, non-group)","fractal_assignment":["../images/org_blu.png","../images/grn_red.png","../images/cyn_red.png","../images/ylw_pnk.png","../images/gry_blk.png","../images/ylw_slt.png","../images/blu_wht.png","../images/pnk_blu.png"],"mutagen_generator_assignment":[1,0],"goal":0,"start":5,"action_noise":0.1,"location_history":"[5,1,0]","action_history":"[1,1]","mutagen_history":"[0,0]","location_rts":"[663,287]","trial_type":"fractal-mutation","trial_index":98,"time_elapsed":2831800,"internal_node_id":"0.0-5.0-44.0"},{"group":"square cycles (cube, non-group)","fractal_assignment":["../images/org_blu.png","../images/grn_red.png","../images/cyn_red.png","../images/ylw_pnk.png","../images/gry_blk.png","../images/ylw_slt.png","../images/blu_wht.png","../images/pnk_blu.png"],"mutagen_generator_assignment":[1,0],"goal":7,"start":0,"action_noise":0.1,"location_history":"[0,4,5,1,0,4,5,1,0,4,5,1,0,4,5,1,2,6,7]","action_history":"[1,1,1,1,1,1,1,1,1,1,1,1,1,1,1,1,1,1]","mutagen_history":"[0,0,0,0,0,0,0,0,0,0,0,0,0,0,0,0,0,0]","location_rts":"[659,287,293,284,292,292,292,283,283,278,285,291,286,292,295,287,284,293]","trial_type":"fractal-mutation","trial_index":99,"time_elapsed":2859001,"internal_node_id":"0.0-5.0-45.0"},{"group":"square cycles (cube, non-group)","fractal_assignment":["../images/org_blu.png","../images/grn_red.png","../images/cyn_red.png","../images/ylw_pnk.png","../images/gry_blk.png","../images/ylw_slt.png","../images/blu_wht.png","../images/pnk_blu.png"],"mutagen_generator_assignment":[1,0],"goal":6,"start":7,"action_noise":0.1,"location_history":"[7,3,2,6]","action_history":"[1,1,1]","mutagen_history":"[0,0,0]","location_rts":"[669,281,284]","trial_type":"fractal-mutation","trial_index":100,"time_elapsed":2866761,"internal_node_id":"0.0-5.0-46.0"},{"group":"square cycles (cube, non-group)","fractal_assignment":["../images/org_blu.png","../images/grn_red.png","../images/cyn_red.png","../images/ylw_pnk.png","../images/gry_blk.png","../images/ylw_slt.png","../images/blu_wht.png","../images/pnk_blu.png"],"mutagen_generator_assignment":[1,0],"goal":2,"start":6,"action_noise":0.1,"location_history":"[6,7,3,2]","action_history":"[1,1,1]","mutagen_history":"[0,0,0]","location_rts":"[646,297,285]","trial_type":"fractal-mutation","trial_index":101,"time_elapsed":2874511,"internal_node_id":"0.0-5.0-47.0"},{"group":"square cycles (cube, non-group)","fractal_assignment":["../images/org_blu.png","../images/grn_red.png","../images/cyn_red.png","../images/ylw_pnk.png","../images/gry_blk.png","../images/ylw_slt.png","../images/blu_wht.png","../images/pnk_blu.png"],"mutagen_generator_assignment":[1,0],"goal":5,"start":2,"action_noise":0.1,"location_history":"[2,6,7,3,2,6,7,3,2,6,7,3,2,6,7,3,2,3,2,6,7,3,2,6,7,3,2,6,7,3,2,6,7,3,2,6,7,6,7,3,2,6,7,3,2,6,7,3,2,6,7,3,2,6,7,3,2,6,7,3,0,1,0,4,5]","action_history":"[1,1,1,1,1,1,1,1,1,1,1,1,1,1,1,1,1,1,1,1,1,1,1,1,1,1,1,1,1,1,1,1,1,1,1,1,1,1,1,1,1,1,1,1,1,1,1,1,1,1,1,1,1,1,1,1,1,1,1,1,1,1,1,1]","mutagen_history":"[0,0,0,0,0,0,0,0,0,0,0,0,0,0,0,0,0,0,0,0,0,0,0,0,0,0,0,0,0,0,0,0,0,0,0,0,0,0,0,0,0,0,0,0,0,0,0,0,0,0,0,0,0,0,0,0,0,0,0,0,0,0,0,0]","location_rts":"[686,280,286,289,282,290,295,303,304,288,289,315,287,292,296,295,295,293,288,286,288,290,295,280,299,297,288,283,296,290,295,290,297,287,282,298,289,294,281,291,287,283,300,286,287,292,291,285,285,286,298,284,284,289,286,287,288,298,300,290,290,289,286,290]","trial_type":"fractal-mutation","trial_index":102,"time_elapsed":2961498,"internal_node_id":"0.0-5.0-48.0"},{"group":"square cycles (cube, non-group)","fractal_assignment":["../images/org_blu.png","../images/grn_red.png","../images/cyn_red.png","../images/ylw_pnk.png","../images/gry_blk.png","../images/ylw_slt.png","../images/blu_wht.png","../images/pnk_blu.png"],"mutagen_generator_assignment":[1,0],"goal":3,"start":5,"action_noise":0.1,"location_history":"[5,4,5,1,0,4,5,1,0,4,5,1,2,6,7,3]","action_history":"[1,1,1,1,1,1,1,1,1,1,1,1,1,1,1]","mutagen_history":"[0,0,0,0,0,0,0,0,0,0,0,0,0,0,0]","location_rts":"[671,290,292,289,292,290,301,291,294,287,287,290,293,294,288]","trial_type":"fractal-mutation","trial_index":103,"time_elapsed":2984881,"internal_node_id":"0.0-5.0-49.0"},{"view_history":"[{\"page_index\":0,\"viewing_time\":81277}]","rt":81278,"trial_type":"instructions","trial_index":104,"time_elapsed":3067159,"internal_node_id":"0.0-6.0"},{"rt":16270,"responses":"{\"Q0\":\"if we could figure out the patterns to the rooms\"}","trial_type":"survey-text","trial_index":105,"time_elapsed":3084432,"internal_node_id":"0.0-7.0-0.0"},{"rt":10908,"responses":"{\"Q0\":\"the same really, if we could figure out the patterns\"}","trial_type":"survey-text","trial_index":106,"time_elapsed":3096342,"internal_node_id":"0.0-7.0-1.0"},{"rt":9693,"responses":"{\"Q0\":\"<img src='../images/diagrams/tri_cycles.png'>\"}","trial_type":"survey-multi-choice","trial_index":107,"time_elapsed":3107040,"internal_node_id":"0.0-7.0-2.0"},{"rt":16901,"assignments":["../images/blu_wht.png","../images/cyn_red.png","../images/grn_red.png","../images/ylw_slt.png","../images/pnk_blu.png","../images/gry_blk.png","../images/org_blu.png","../images/ylw_pnk.png"],"trial_type":"drag-drop-on-image","trial_index":108,"time_elapsed":3124942,"internal_node_id":"0.0-7.0-3.0"},{"rt":4133,"responses":"{\"Q0\":\"3\"}","trial_type":"survey-likert","trial_index":109,"time_elapsed":3130078,"internal_node_id":"0.0-7.0-4.0"},{"rt":18238,"responses":"{\"Q0\":\"seemed like they followed patterns, but i couldnt figure out the specifics\"}","trial_type":"survey-text","trial_index":110,"time_elapsed":3149320,"internal_node_id":"0.0-7.0-5.0"},{"rt":4339,"responses":"{\"Q0\":\"Yes\"}","trial_type":"survey-multi-choice","trial_index":111,"time_elapsed":3154662,"internal_node_id":"0.0-7.0-6.0"},{"rt":7654,"responses":"{\"Q0\":\"Between sessions 2 and 3\"}","trial_type":"survey-multi-choice","trial_index":112,"time_elapsed":3163320,"internal_node_id":"0.0-7.0-7.0"},{"rt":16853,"responses":"{\"Q0\":\"i felt one, couldn't figure out what it was though\"}","trial_type":"survey-text","trial_index":113,"time_elapsed":3181173,"internal_node_id":"0.0-7.0-8.0"},{"rt":4208,"responses":"{\"Q0\":\"1\"}","trial_type":"survey-likert","trial_index":114,"time_elapsed":3186382,"internal_node_id":"0.0-7.0-9.0"},{"rt":4991,"responses":"{\"Q0\":\"Same structure\"}","trial_type":"survey-multi-choice","trial_index":115,"time_elapsed":3192374,"internal_node_id":"0.0-7.0-10.0"},{"rt":9565,"responses":"{\"Q0\":\"left (white) door = acid, (black) door = ray\",\"Q1\":\"Not at all confident\"}","trial_type":"survey-multi-choice","trial_index":116,"time_elapsed":3202944,"internal_node_id":"0.0-7.0-11.0"},{"rt":8588,"responses":"{\"Q0\":\"35-45\",\"Q1\":\"Master's degree\",\"Q2\":\"Male\",\"Q3\":\"White\"}","trial_type":"survey-multi-choice","trial_index":117,"time_elapsed":3212545,"internal_node_id":"0.0-8.0"},{"rt":19099,"responses":"{\"Q0\":\"my favorite hit ive ever done in over 70000 hits. thank you.\"}","trial_type":"survey-text","trial_index":118,"time_elapsed":3232646,"internal_node_id":"0.0-9.0"}]