[{"view_history":"[{\"page_index\":0,\"viewing_time\":6599},{\"page_index\":1,\"viewing_time\":4967}]","rt":11567,"trial_type":"instructions","trial_index":0,"time_elapsed":11567,"internal_node_id":"0.0-0.0"},{"view_history":"[{\"page_index\":0,\"viewing_time\":6381},{\"page_index\":1,\"viewing_time\":3737}]","rt":10118,"trial_type":"instructions","trial_index":1,"time_elapsed":22687,"internal_node_id":"0.0-1.0"},{"group":"tri cycles (cube, non-group)","room_assignment":["yellow","grey","red","brown","purple","green","pink","blue"],"door_color_assignment":["black","white"],"door_generator_assignment":[0,1],"goal":5,"start":7,"action_noise":0.1,"location_history":"[7,6,5]","action_history":"[0,1]","door_history":"[0,1]","location_rts":"[5795,1353]","trial_type":"two-door-navigation","trial_index":2,"time_elapsed":35361,"internal_node_id":"0.0-2.0-0.0"},{"group":"tri cycles (cube, non-group)","room_assignment":["yellow","grey","red","brown","purple","green","pink","blue"],"door_color_assignment":["black","white"],"door_generator_assignment":[0,1],"goal":2,"start":5,"action_noise":0.1,"location_history":"[5,1,0,3,7,6,4,7,6,5,2]","action_history":"[0,0,1,0,0,1,0,0,1,1]","door_history":"[0,0,1,0,0,1,0,0,1,1]","location_rts":"[13972,1326,858,1065,1014,890,1421,691,1070,906]","trial_type":"two-door-navigation","trial_index":3,"time_elapsed":72141,"internal_node_id":"0.0-2.0-1.0"},{"group":"tri cycles (cube, non-group)","room_assignment":["yellow","grey","red","brown","purple","green","pink","blue"],"door_color_assignment":["black","white"],"door_generator_assignment":[0,1],"goal":0,"start":2,"action_noise":0.1,"location_history":"[2,1,0]","action_history":"[0,0]","door_history":"[0,0]","location_rts":"[1989,824]","trial_type":"two-door-navigation","trial_index":4,"time_elapsed":80469,"internal_node_id":"0.0-2.0-2.0"},{"group":"tri cycles (cube, non-group)","room_assignment":["yellow","grey","red","brown","purple","green","pink","blue"],"door_color_assignment":["black","white"],"door_generator_assignment":[0,1],"goal":1,"start":0,"action_noise":0.1,"location_history":"[0,3,4,0,3,7,6,5,2,1]","action_history":"[1,0,1,1,0,0,1,1,0]","door_history":"[1,0,1,1,0,0,1,1,0]","location_rts":"[1752,1103,992,793,1043,649,1383,1098,1328]","trial_type":"two-door-navigation","trial_index":5,"time_elapsed":103167,"internal_node_id":"0.0-2.0-3.0"},{"group":"tri cycles (cube, non-group)","room_assignment":["yellow","grey","red","brown","purple","green","pink","blue"],"door_color_assignment":["black","white"],"door_generator_assignment":[0,1],"goal":6,"start":1,"action_noise":0.1,"location_history":"[1,5,2,1,0,3,7,6]","action_history":"[1,1,0,0,1,0,0]","door_history":"[1,1,0,0,1,0,0]","location_rts":"[2071,1143,1339,1477,1253,875,385]","trial_type":"two-door-navigation","trial_index":6,"time_elapsed":122260,"internal_node_id":"0.0-2.0-4.0"},{"group":"tri cycles (cube, non-group)","room_assignment":["yellow","grey","red","brown","purple","green","pink","blue"],"door_color_assignment":["black","white"],"door_generator_assignment":[0,1],"goal":3,"start":6,"action_noise":0.1,"location_history":"[6,5,2,1,0,3]","action_history":"[1,1,0,0,1]","door_history":"[1,1,0,0,1]","location_rts":"[1080,692,1217,594,856]","trial_type":"two-door-navigation","trial_index":7,"time_elapsed":135232,"internal_node_id":"0.0-2.0-5.0"},{"group":"tri cycles (cube, non-group)","room_assignment":["yellow","grey","red","brown","purple","green","pink","blue"],"door_color_assignment":["black","white"],"door_generator_assignment":[0,1],"goal":4,"start":3,"action_noise":0.1,"location_history":"[3,7,3,7,6,5,2,1,0,3,7,6,5,2,1,5,2,6,4]","action_history":"[0,0,0,0,1,1,0,0,1,0,0,1,1,0,1,1,1,0]","door_history":"[0,0,0,0,1,1,0,0,1,0,0,1,1,0,1,1,1,0]","location_rts":"[939,827,705,654,871,807,1332,714,982,1088,426,1431,630,1472,2163,1424,1579,1048]","trial_type":"two-door-navigation","trial_index":8,"time_elapsed":175942,"internal_node_id":"0.0-2.0-6.0"},{"group":"tri cycles (cube, non-group)","room_assignment":["yellow","grey","red","brown","purple","green","pink","blue"],"door_color_assignment":["black","white"],"door_generator_assignment":[0,1],"goal":1,"start":4,"action_noise":0.1,"location_history":"[4,0,2,1]","action_history":"[1,1,0]","door_history":"[1,1,0]","location_rts":"[26607,865,1144]","trial_type":"two-door-navigation","trial_index":9,"time_elapsed":211179,"internal_node_id":"0.0-2.0-7.0"},{"group":"tri cycles (cube, non-group)","room_assignment":["yellow","grey","red","brown","purple","green","pink","blue"],"door_color_assignment":["black","white"],"door_generator_assignment":[0,1],"goal":4,"start":1,"action_noise":0.1,"location_history":"[1,0,3,7,6,5,2,1,0,3,7,3,7,6,5,1,5,1,0,2,1,0,3,4]","action_history":"[0,1,0,0,1,1,0,0,1,0,0,0,0,1,0,1,0,0,1,0,0,1,0]","door_history":"[0,1,0,0,1,1,0,0,1,0,0,0,0,1,0,1,0,0,1,0,0,1,0]","location_rts":"[44753,1201,1198,999,2052,1398,1242,659,1377,1032,695,945,666,935,1156,1248,967,639,1078,1081,670,1005,476]","trial_type":"two-door-navigation","trial_index":10,"time_elapsed":306286,"internal_node_id":"0.0-2.0-8.0"},{"group":"tri cycles (cube, non-group)","room_assignment":["yellow","grey","red","brown","purple","green","pink","blue"],"door_color_assignment":["black","white"],"door_generator_assignment":[0,1],"goal":5,"start":4,"action_noise":0.1,"location_history":"[4,7,6,4,0,3,4,7,6,4,7,6,4,7,3,4,0,3,4,0,2,1,5]","action_history":"[0,0,1,1,1,1,1,0,0,0,0,1,0,1,0,1,1,1,1,0,0,1]","door_history":"[0,0,1,1,1,1,1,0,0,0,0,1,0,1,0,1,1,1,1,0,0,1]","location_rts":"[1058,875,1130,1023,662,434,790,587,395,668,645,729,1290,1202,1597,1008,487,414,378,719,501,736]","trial_type":"two-door-navigation","trial_index":11,"time_elapsed":349260,"internal_node_id":"0.0-2.0-9.0"},{"group":"tri cycles (cube, non-group)","room_assignment":["yellow","grey","red","brown","purple","green","pink","blue"],"door_color_assignment":["black","white"],"door_generator_assignment":[0,1],"goal":3,"start":5,"action_noise":0.1,"location_history":"[5,1,0,2,1,5,2,6,4,0,2,1,5,2,6,5,2,1,0,2,1,5,2,1,0,3]","action_history":"[0,0,0,0,1,1,1,1,0,0,0,1,1,1,0,1,0,0,0,0,1,1,0,0,1]","door_history":"[0,0,0,0,1,1,1,1,0,0,0,1,1,1,0,1,0,0,0,0,1,1,0,0,1]","location_rts":"[1354,583,410,1534,1101,516,402,1173,849,582,1334,760,376,386,417,384,321,537,395,1459,794,961,2117,1124,970]","trial_type":"two-door-navigation","trial_index":12,"time_elapsed":398734,"internal_node_id":"0.0-2.0-10.0"},{"group":"tri cycles (cube, non-group)","room_assignment":["yellow","grey","red","brown","purple","green","pink","blue"],"door_color_assignment":["black","white"],"door_generator_assignment":[0,1],"goal":6,"start":3,"action_noise":0.1,"location_history":"[3,7,6]","action_history":"[0,0]","door_history":"[0,0]","location_rts":"[1394,604]","trial_type":"two-door-navigation","trial_index":13,"time_elapsed":406246,"internal_node_id":"0.0-2.0-11.0"},{"group":"tri cycles (cube, non-group)","room_assignment":["yellow","grey","red","brown","purple","green","pink","blue"],"door_color_assignment":["black","white"],"door_generator_assignment":[0,1],"goal":7,"start":6,"action_noise":0.1,"location_history":"[6,5,2,1,0,3,7]","action_history":"[1,1,0,0,1,0]","door_history":"[1,1,0,0,1,0]","location_rts":"[936,1090,1235,892,931,843]","trial_type":"two-door-navigation","trial_index":14,"time_elapsed":421703,"internal_node_id":"0.0-2.0-12.0"},{"group":"tri cycles (cube, non-group)","room_assignment":["yellow","grey","red","brown","purple","green","pink","blue"],"door_color_assignment":["black","white"],"door_generator_assignment":[0,1],"goal":0,"start":7,"action_noise":0.1,"location_history":"[7,6,5,2,1,0]","action_history":"[0,1,1,0,0]","door_history":"[0,1,1,0,0]","location_rts":"[218903,1253,1000,1545,773]","trial_type":"two-door-navigation","trial_index":15,"time_elapsed":653712,"internal_node_id":"0.0-2.0-13.0"},{"group":"tri cycles (cube, non-group)","room_assignment":["yellow","grey","red","brown","purple","green","pink","blue"],"door_color_assignment":["black","white"],"door_generator_assignment":[0,1],"goal":2,"start":0,"action_noise":0.1,"location_history":"[0,3,7,6,5,2]","action_history":"[1,0,0,1,1]","door_history":"[1,0,0,1,1]","location_rts":"[1726,817,371,805,759]","trial_type":"two-door-navigation","trial_index":16,"time_elapsed":666718,"internal_node_id":"0.0-2.0-14.0"},{"group":"tri cycles (cube, non-group)","room_assignment":["yellow","grey","red","brown","purple","green","pink","blue"],"door_color_assignment":["black","white"],"door_generator_assignment":[0,1],"goal":1,"start":2,"action_noise":0.1,"location_history":"[2,1]","action_history":"[0]","door_history":"[0]","location_rts":"[1569]","trial_type":"two-door-navigation","trial_index":17,"time_elapsed":672801,"internal_node_id":"0.0-2.0-15.0"},{"group":"tri cycles (cube, non-group)","room_assignment":["yellow","grey","red","brown","purple","green","pink","blue"],"door_color_assignment":["black","white"],"door_generator_assignment":[0,1],"goal":6,"start":1,"action_noise":0.1,"location_history":"[1,0,3,7,6]","action_history":"[0,1,0,0]","door_history":"[0,1,0,0]","location_rts":"[1337,972,875,788]","trial_type":"two-door-navigation","trial_index":18,"time_elapsed":684302,"internal_node_id":"0.0-2.0-16.0"},{"group":"tri cycles (cube, non-group)","room_assignment":["yellow","grey","red","brown","purple","green","pink","blue"],"door_color_assignment":["black","white"],"door_generator_assignment":[0,1],"goal":3,"start":6,"action_noise":0.1,"location_history":"[6,5,2,1,5,2,1,0,3]","action_history":"[1,1,0,0,1,0,0,1]","door_history":"[1,1,0,0,1,0,0,1]","location_rts":"[775,1192,1172,1025,820,1241,720,811]","trial_type":"two-door-navigation","trial_index":19,"time_elapsed":703604,"internal_node_id":"0.0-2.0-17.0"},{"group":"tri cycles (cube, non-group)","room_assignment":["yellow","grey","red","brown","purple","green","pink","blue"],"door_color_assignment":["black","white"],"door_generator_assignment":[0,1],"goal":4,"start":3,"action_noise":0.1,"location_history":"[3,7,6,5,2,1,0,3,7,6,4]","action_history":"[0,0,1,1,0,0,1,0,0,0]","door_history":"[0,0,1,1,0,0,1,0,0,0]","location_rts":"[960,576,795,1246,1121,1090,1332,1311,1280,774]","trial_type":"two-door-navigation","trial_index":20,"time_elapsed":727658,"internal_node_id":"0.0-2.0-18.0"},{"group":"tri cycles (cube, non-group)","room_assignment":["yellow","grey","red","brown","purple","green","pink","blue"],"door_color_assignment":["black","white"],"door_generator_assignment":[0,1],"goal":5,"start":4,"action_noise":0.1,"location_history":"[4,0,3,7,6,4,0,2,6,5]","action_history":"[1,1,0,0,1,1,0,1,1]","door_history":"[1,1,0,0,1,1,0,1,1]","location_rts":"[1885,1178,925,467,889,817,883,1326,583]","trial_type":"two-door-navigation","trial_index":21,"time_elapsed":749167,"internal_node_id":"0.0-2.0-19.0"},{"group":"tri cycles (cube, non-group)","room_assignment":["yellow","grey","red","brown","purple","green","pink","blue"],"door_color_assignment":["black","white"],"door_generator_assignment":[0,1],"goal":7,"start":5,"action_noise":0.1,"location_history":"[5,2,6,5,1,0,3,7]","action_history":"[1,1,1,0,0,0,0]","door_history":"[1,1,1,0,0,0,0]","location_rts":"[1613,581,608,1032,617,785,592]","trial_type":"two-door-navigation","trial_index":22,"time_elapsed":765533,"internal_node_id":"0.0-2.0-20.0"},{"group":"tri cycles (cube, non-group)","room_assignment":["yellow","grey","red","brown","purple","green","pink","blue"],"door_color_assignment":["black","white"],"door_generator_assignment":[0,1],"goal":2,"start":7,"action_noise":0.1,"location_history":"[7,6,5,2]","action_history":"[0,1,1]","door_history":"[0,1,1]","location_rts":"[6409,938,670]","trial_type":"two-door-navigation","trial_index":23,"time_elapsed":780068,"internal_node_id":"0.0-2.0-21.0"},{"group":"tri cycles (cube, non-group)","room_assignment":["yellow","grey","red","brown","purple","green","pink","blue"],"door_color_assignment":["black","white"],"door_generator_assignment":[0,1],"goal":0,"start":2,"action_noise":0.1,"location_history":"[2,1,0]","action_history":"[0,0]","door_history":"[0,0]","location_rts":"[1217,1731]","trial_type":"two-door-navigation","trial_index":24,"time_elapsed":788530,"internal_node_id":"0.0-2.0-22.0"},{"group":"tri cycles (cube, non-group)","room_assignment":["yellow","grey","red","brown","purple","green","pink","blue"],"door_color_assignment":["black","white"],"door_generator_assignment":[0,1],"goal":7,"start":0,"action_noise":0.1,"location_history":"[0,3,7]","action_history":"[1,0]","door_history":"[1,0]","location_rts":"[1240,858]","trial_type":"two-door-navigation","trial_index":25,"time_elapsed":796144,"internal_node_id":"0.0-2.0-23.0"},{"group":"tri cycles (cube, non-group)","room_assignment":["yellow","grey","red","brown","purple","green","pink","blue"],"door_color_assignment":["black","white"],"door_generator_assignment":[0,1],"goal":5,"start":7,"action_noise":0.1,"location_history":"[7,6,5]","action_history":"[0,1]","door_history":"[0,1]","location_rts":"[965,844]","trial_type":"two-door-navigation","trial_index":26,"time_elapsed":803463,"internal_node_id":"0.0-2.0-24.0"},{"group":"tri cycles (cube, non-group)","room_assignment":["yellow","grey","red","brown","purple","green","pink","blue"],"door_color_assignment":["black","white"],"door_generator_assignment":[0,1],"goal":0,"start":5,"action_noise":0.1,"location_history":"[5,2,6,5,2,1,0]","action_history":"[1,0,1,1,0,0]","door_history":"[1,0,1,1,0,0]","location_rts":"[1902,1845,804,1325,2009,1038]","trial_type":"two-door-navigation","trial_index":27,"time_elapsed":821918,"internal_node_id":"0.0-2.0-25.0"},{"group":"tri cycles (cube, non-group)","room_assignment":["yellow","grey","red","brown","purple","green","pink","blue"],"door_color_assignment":["black","white"],"door_generator_assignment":[0,1],"goal":6,"start":0,"action_noise":0.1,"location_history":"[0,3,7,6]","action_history":"[1,0,0]","door_history":"[1,0,0]","location_rts":"[27761,949,554]","trial_type":"two-door-navigation","trial_index":28,"time_elapsed":857690,"internal_node_id":"0.0-2.0-26.0"},{"group":"tri cycles (cube, non-group)","room_assignment":["yellow","grey","red","brown","purple","green","pink","blue"],"door_color_assignment":["black","white"],"door_generator_assignment":[0,1],"goal":4,"start":6,"action_noise":0.1,"location_history":"[6,5,2,6,4]","action_history":"[1,1,0,0]","door_history":"[1,1,0,0]","location_rts":"[1017,692,1487,807]","trial_type":"two-door-navigation","trial_index":29,"time_elapsed":869225,"internal_node_id":"0.0-2.0-27.0"},{"group":"tri cycles (cube, non-group)","room_assignment":["yellow","grey","red","brown","purple","green","pink","blue"],"door_color_assignment":["black","white"],"door_generator_assignment":[0,1],"goal":2,"start":4,"action_noise":0.1,"location_history":"[4,7,3,7,6,5,2]","action_history":"[0,0,0,0,1,1]","door_history":"[0,0,0,0,1,1]","location_rts":"[84177,1423,682,769,1127,723]","trial_type":"two-door-navigation","trial_index":30,"time_elapsed":968625,"internal_node_id":"0.0-2.0-28.0"},{"group":"tri cycles (cube, non-group)","room_assignment":["yellow","grey","red","brown","purple","green","pink","blue"],"door_color_assignment":["black","white"],"door_generator_assignment":[0,1],"goal":3,"start":2,"action_noise":0.1,"location_history":"[2,1,0,3]","action_history":"[0,0,1]","door_history":"[0,0,1]","location_rts":"[1792,745,1029]","trial_type":"two-door-navigation","trial_index":31,"time_elapsed":978708,"internal_node_id":"0.0-2.0-29.0"},{"group":"tri cycles (cube, non-group)","room_assignment":["yellow","grey","red","brown","purple","green","pink","blue"],"door_color_assignment":["black","white"],"door_generator_assignment":[0,1],"goal":1,"start":3,"action_noise":0.1,"location_history":"[3,7,6,4,0,3,7,6,4,7,6,5,2,1]","action_history":"[0,0,0,1,1,0,0,1,0,0,1,1,0]","door_history":"[0,0,0,1,1,0,0,1,0,0,1,1,0]","location_rts":"[893,544,455,930,505,998,761,629,2109,586,1013,771,1032]","trial_type":"two-door-navigation","trial_index":32,"time_elapsed":1006516,"internal_node_id":"0.0-2.0-30.0"},{"group":"tri cycles (cube, non-group)","room_assignment":["yellow","grey","red","brown","purple","green","pink","blue"],"door_color_assignment":["black","white"],"door_generator_assignment":[0,1],"goal":4,"start":1,"action_noise":0.1,"location_history":"[1,0,3,7,6,5,2,1,0,3,7,6,5,2,1,0,3,7,3,7,6,5,1,0,3,7,6,4]","action_history":"[0,1,0,0,1,1,0,0,1,0,0,1,1,0,0,1,0,0,0,0,1,1,0,1,0,0,0]","door_history":"[0,1,0,0,1,1,0,0,1,0,0,1,1,0,0,1,0,0,0,0,1,1,0,1,0,0,0]","location_rts":"[1066,822,1024,527,1118,720,1336,754,1122,883,613,1053,698,1656,1459,1139,938,614,519,551,1029,889,1292,1052,621,395,992]","trial_type":"two-door-navigation","trial_index":33,"time_elapsed":1062064,"internal_node_id":"0.0-2.0-31.0"},{"group":"tri cycles (cube, non-group)","room_assignment":["yellow","grey","red","brown","purple","green","pink","blue"],"door_color_assignment":["black","white"],"door_generator_assignment":[0,1],"goal":3,"start":4,"action_noise":0.1,"location_history":"[4,7,6,5,2,1,0,3]","action_history":"[0,0,1,1,0,0,1]","door_history":"[0,0,1,1,0,0,1]","location_rts":"[1424,492,1099,20222,1008,894,934]","trial_type":"two-door-navigation","trial_index":34,"time_elapsed":1098688,"internal_node_id":"0.0-2.0-32.0"},{"group":"tri cycles (cube, non-group)","room_assignment":["yellow","grey","red","brown","purple","green","pink","blue"],"door_color_assignment":["black","white"],"door_generator_assignment":[0,1],"goal":6,"start":3,"action_noise":0.1,"location_history":"[3,7,6]","action_history":"[0,0]","door_history":"[0,0]","location_rts":"[1682,526]","trial_type":"two-door-navigation","trial_index":35,"time_elapsed":1106413,"internal_node_id":"0.0-2.0-33.0"},{"group":"tri cycles (cube, non-group)","room_assignment":["yellow","grey","red","brown","purple","green","pink","blue"],"door_color_assignment":["black","white"],"door_generator_assignment":[0,1],"goal":0,"start":6,"action_noise":0.1,"location_history":"[6,5,2,1,0]","action_history":"[1,1,0,0]","door_history":"[1,1,0,0]","location_rts":"[25569,1061,1381,14770]","trial_type":"two-door-navigation","trial_index":36,"time_elapsed":1156716,"internal_node_id":"0.0-2.0-34.0"},{"group":"tri cycles (cube, non-group)","room_assignment":["yellow","grey","red","brown","purple","green","pink","blue"],"door_color_assignment":["black","white"],"door_generator_assignment":[0,1],"goal":1,"start":0,"action_noise":0.1,"location_history":"[0,3,7,6,5,2,1]","action_history":"[1,0,0,1,1,0]","door_history":"[1,0,0,1,1,0]","location_rts":"[1121,949,345,853,850,957]","trial_type":"two-door-navigation","trial_index":37,"time_elapsed":1171340,"internal_node_id":"0.0-2.0-35.0"},{"group":"tri cycles (cube, non-group)","room_assignment":["yellow","grey","red","brown","purple","green","pink","blue"],"door_color_assignment":["black","white"],"door_generator_assignment":[0,1],"goal":5,"start":1,"action_noise":0.1,"location_history":"[1,5]","action_history":"[0]","door_history":"[0]","location_rts":"[840]","trial_type":"two-door-navigation","trial_index":38,"time_elapsed":1176693,"internal_node_id":"0.0-2.0-36.0"},{"group":"tri cycles (cube, non-group)","room_assignment":["yellow","grey","red","brown","purple","green","pink","blue"],"door_color_assignment":["black","white"],"door_generator_assignment":[0,1],"goal":7,"start":5,"action_noise":0.1,"location_history":"[5,2,1,0,3,7]","action_history":"[1,0,0,1,0]","door_history":"[1,0,0,1,0]","location_rts":"[710,1232,16446,929,997]","trial_type":"two-door-navigation","trial_index":39,"time_elapsed":1205545,"internal_node_id":"0.0-2.0-37.0"},{"group":"tri cycles (cube, non-group)","room_assignment":["yellow","grey","red","brown","purple","green","pink","blue"],"door_color_assignment":["black","white"],"door_generator_assignment":[0,1],"goal":2,"start":7,"action_noise":0.1,"location_history":"[7,6,4,7,6,5,2]","action_history":"[0,1,0,0,1,1]","door_history":"[0,1,0,0,1,1]","location_rts":"[832,832,1224,577,908,855]","trial_type":"two-door-navigation","trial_index":40,"time_elapsed":1220312,"internal_node_id":"0.0-2.0-38.0"},{"group":"tri cycles (cube, non-group)","room_assignment":["yellow","grey","red","brown","purple","green","pink","blue"],"door_color_assignment":["black","white"],"door_generator_assignment":[0,1],"goal":1,"start":2,"action_noise":0.1,"location_history":"[2,1]","action_history":"[0]","door_history":"[0]","location_rts":"[168097]","trial_type":"two-door-navigation","trial_index":41,"time_elapsed":1392915,"internal_node_id":"0.0-2.0-39.0"},{"group":"tri cycles (cube, non-group)","room_assignment":["yellow","grey","red","brown","purple","green","pink","blue"],"door_color_assignment":["black","white"],"door_generator_assignment":[0,1],"goal":3,"start":1,"action_noise":0.1,"location_history":"[1,0,3]","action_history":"[0,1]","door_history":"[0,1]","location_rts":"[1604,876]","trial_type":"two-door-navigation","trial_index":42,"time_elapsed":1400902,"internal_node_id":"0.0-2.0-40.0"},{"group":"tri cycles (cube, non-group)","room_assignment":["yellow","grey","red","brown","purple","green","pink","blue"],"door_color_assignment":["black","white"],"door_generator_assignment":[0,1],"goal":4,"start":3,"action_noise":0.1,"location_history":"[3,7,6,5,2,1,0,2,6,4]","action_history":"[0,0,1,1,0,0,1,0,0]","door_history":"[0,0,1,1,0,0,1,0,0]","location_rts":"[1057,1644,1236,1017,1009,620,977,840,855]","trial_type":"two-door-navigation","trial_index":43,"time_elapsed":1422721,"internal_node_id":"0.0-2.0-41.0"},{"group":"tri cycles (cube, non-group)","room_assignment":["yellow","grey","red","brown","purple","green","pink","blue"],"door_color_assignment":["black","white"],"door_generator_assignment":[0,1],"goal":2,"start":4,"action_noise":0.1,"location_history":"[4,0,3,7,6,4,0,3,4,0,3,7,6,5,2]","action_history":"[1,1,0,0,0,0,1,1,1,1,0,0,1,1]","door_history":"[1,1,0,0,0,0,1,1,1,1,0,0,1,1]","location_rts":"[2020,1264,696,379,442,1593,739,586,871,1117,619,423,708,1123]","trial_type":"two-door-navigation","trial_index":44,"time_elapsed":1452903,"internal_node_id":"0.0-2.0-42.0"},{"group":"tri cycles (cube, non-group)","room_assignment":["yellow","grey","red","brown","purple","green","pink","blue"],"door_color_assignment":["black","white"],"door_generator_assignment":[0,1],"goal":5,"start":2,"action_noise":0.1,"location_history":"[2,1,0,3,7,6,5]","action_history":"[0,0,1,0,0,1]","door_history":"[0,0,1,0,0,1]","location_rts":"[34721,723,928,1065,419,984]","trial_type":"two-door-navigation","trial_index":45,"time_elapsed":1501285,"internal_node_id":"0.0-2.0-43.0"},{"group":"tri cycles (cube, non-group)","room_assignment":["yellow","grey","red","brown","purple","green","pink","blue"],"door_color_assignment":["black","white"],"door_generator_assignment":[0,1],"goal":0,"start":5,"action_noise":0.1,"location_history":"[5,2,1,0]","action_history":"[1,0,0]","door_history":"[1,0,0]","location_rts":"[1028,989,758]","trial_type":"two-door-navigation","trial_index":46,"time_elapsed":1510579,"internal_node_id":"0.0-2.0-44.0"},{"group":"tri cycles (cube, non-group)","room_assignment":["yellow","grey","red","brown","purple","green","pink","blue"],"door_color_assignment":["black","white"],"door_generator_assignment":[0,1],"goal":7,"start":0,"action_noise":0.1,"location_history":"[0,3,7]","action_history":"[1,0]","door_history":"[1,0]","location_rts":"[941,794]","trial_type":"two-door-navigation","trial_index":47,"time_elapsed":1517830,"internal_node_id":"0.0-2.0-45.0"},{"group":"tri cycles (cube, non-group)","room_assignment":["yellow","grey","red","brown","purple","green","pink","blue"],"door_color_assignment":["black","white"],"door_generator_assignment":[0,1],"goal":6,"start":7,"action_noise":0.1,"location_history":"[7,6]","action_history":"[0]","door_history":"[0]","location_rts":"[801]","trial_type":"two-door-navigation","trial_index":48,"time_elapsed":1523140,"internal_node_id":"0.0-2.0-46.0"},{"group":"tri cycles (cube, non-group)","room_assignment":["yellow","grey","red","brown","purple","green","pink","blue"],"door_color_assignment":["black","white"],"door_generator_assignment":[0,1],"goal":2,"start":6,"action_noise":0.1,"location_history":"[6,4,0,3,7,3,4,0,3,7,6,5,2]","action_history":"[1,1,1,0,0,0,1,1,1,0,1,1]","door_history":"[1,1,1,0,0,0,1,1,1,0,1,1]","location_rts":"[1560,983,598,1058,58467,508,1023,765,692,650,1217,494]","trial_type":"two-door-navigation","trial_index":49,"time_elapsed":1606739,"internal_node_id":"0.0-2.0-47.0"},{"group":"tri cycles (cube, non-group)","room_assignment":["yellow","grey","red","brown","purple","green","pink","blue"],"door_color_assignment":["black","white"],"door_generator_assignment":[0,1],"goal":5,"start":2,"action_noise":0.1,"location_history":"[2,6,5]","action_history":"[1,1]","door_history":"[1,1]","location_rts":"[5663,628]","trial_type":"two-door-navigation","trial_index":50,"time_elapsed":1618547,"internal_node_id":"0.0-2.0-48.0"},{"group":"tri cycles (cube, non-group)","room_assignment":["yellow","grey","red","brown","purple","green","pink","blue"],"door_color_assignment":["black","white"],"door_generator_assignment":[0,1],"goal":3,"start":5,"action_noise":0.1,"location_history":"[5,2,1,0,2,1,0,2,6,4,7,6,5,1,0,2,6,5,2,1,0,3]","action_history":"[1,0,0,1,0,0,1,1,0,0,0,1,0,0,0,1,1,1,0,0,1]","door_history":"[1,0,0,1,0,0,1,1,0,0,0,1,0,0,0,1,1,1,0,0,1]","location_rts":"[1133,1243,669,852,940,821,1132,1005,940,581,633,1023,822,394,1464,971,513,769,2062,766,1160]","trial_type":"two-door-navigation","trial_index":51,"time_elapsed":1663083,"internal_node_id":"0.0-2.0-49.0"},{"view_history":"[{\"page_index\":0,\"viewing_time\":50769}]","rt":50770,"trial_type":"instructions","trial_index":52,"time_elapsed":1714854,"internal_node_id":"0.0-3.0"},{"view_history":"[{\"page_index\":0,\"viewing_time\":4875},{\"page_index\":1,\"viewing_time\":4624}]","rt":9499,"trial_type":"instructions","trial_index":53,"time_elapsed":1725353,"internal_node_id":"0.0-4.0"},{"group":"tri cycles (cube, non-group)","fractal_assignment":["../images/cyn_red.png","../images/gry_blk.png","../images/grn_red.png","../images/org_blu.png","../images/pnk_blu.png","../images/ylw_pnk.png","../images/blu_wht.png","../images/ylw_slt.png"],"mutagen_generator_assignment":[0,1],"goal":5,"start":7,"action_noise":0.1,"location_history":"[7,3,4,0,2,1,0,3,7,3,4,0,2,6,5]","action_history":"[1,1,1,1,0,0,1,0,1,1,1,0,1,1]","mutagen_history":"[1,1,1,1,0,0,1,0,1,1,1,0,1,1]","location_rts":"[1190,376,404,381,435,408,499,328,423,612,408,398,616,533]","trial_type":"fractal-mutation","trial_index":54,"time_elapsed":1750180,"internal_node_id":"0.0-5.0-0.0"},{"group":"tri cycles (cube, non-group)","fractal_assignment":["../images/cyn_red.png","../images/gry_blk.png","../images/grn_red.png","../images/org_blu.png","../images/pnk_blu.png","../images/ylw_pnk.png","../images/blu_wht.png","../images/ylw_slt.png"],"mutagen_generator_assignment":[0,1],"goal":2,"start":5,"action_noise":0.1,"location_history":"[5,1,5,1,5,2]","action_history":"[1,0,0,0,1]","mutagen_history":"[1,0,0,0,1]","location_rts":"[621,571,825,525,440]","trial_type":"fractal-mutation","trial_index":55,"time_elapsed":1761777,"internal_node_id":"0.0-5.0-1.0"},{"group":"tri cycles (cube, non-group)","fractal_assignment":["../images/cyn_red.png","../images/gry_blk.png","../images/grn_red.png","../images/org_blu.png","../images/pnk_blu.png","../images/ylw_pnk.png","../images/blu_wht.png","../images/ylw_slt.png"],"mutagen_generator_assignment":[0,1],"goal":0,"start":2,"action_noise":0.1,"location_history":"[2,6,5,2,1,0]","action_history":"[1,1,1,0,0]","mutagen_history":"[1,1,1,0,0]","location_rts":"[435,300,399,268,801]","trial_type":"fractal-mutation","trial_index":56,"time_elapsed":1772577,"internal_node_id":"0.0-5.0-2.0"},{"group":"tri cycles (cube, non-group)","fractal_assignment":["../images/cyn_red.png","../images/gry_blk.png","../images/grn_red.png","../images/org_blu.png","../images/pnk_blu.png","../images/ylw_pnk.png","../images/blu_wht.png","../images/ylw_slt.png"],"mutagen_generator_assignment":[0,1],"goal":1,"start":0,"action_noise":0.1,"location_history":"[0,3,7,6,4,0,2,1]","action_history":"[1,0,0,0,1,0,0]","mutagen_history":"[1,0,0,0,1,0,0]","location_rts":"[381,395,465,409,444,291,377]","trial_type":"fractal-mutation","trial_index":57,"time_elapsed":1785954,"internal_node_id":"0.0-5.0-3.0"},{"group":"tri cycles (cube, non-group)","fractal_assignment":["../images/cyn_red.png","../images/gry_blk.png","../images/grn_red.png","../images/org_blu.png","../images/pnk_blu.png","../images/ylw_pnk.png","../images/blu_wht.png","../images/ylw_slt.png"],"mutagen_generator_assignment":[0,1],"goal":6,"start":1,"action_noise":0.1,"location_history":"[1,5,2,1,0,3,4,0,3,4,7,6]","action_history":"[1,1,0,1,1,1,1,1,1,0,0]","mutagen_history":"[1,1,0,1,1,1,1,1,1,0,0]","location_rts":"[713,377,249,398,340,300,293,204,274,311,186]","trial_type":"fractal-mutation","trial_index":58,"time_elapsed":1804337,"internal_node_id":"0.0-5.0-4.0"},{"group":"tri cycles (cube, non-group)","fractal_assignment":["../images/cyn_red.png","../images/gry_blk.png","../images/grn_red.png","../images/org_blu.png","../images/pnk_blu.png","../images/ylw_pnk.png","../images/blu_wht.png","../images/ylw_slt.png"],"mutagen_generator_assignment":[0,1],"goal":3,"start":6,"action_noise":0.1,"location_history":"[6,4,0,3]","action_history":"[0,1,1]","mutagen_history":"[0,1,1]","location_rts":"[689,305,183]","trial_type":"fractal-mutation","trial_index":59,"time_elapsed":1812070,"internal_node_id":"0.0-5.0-5.0"},{"group":"tri cycles (cube, non-group)","fractal_assignment":["../images/cyn_red.png","../images/gry_blk.png","../images/grn_red.png","../images/org_blu.png","../images/pnk_blu.png","../images/ylw_pnk.png","../images/blu_wht.png","../images/ylw_slt.png"],"mutagen_generator_assignment":[0,1],"goal":4,"start":3,"action_noise":0.1,"location_history":"[3,4]","action_history":"[1]","mutagen_history":"[1]","location_rts":"[677]","trial_type":"fractal-mutation","trial_index":60,"time_elapsed":1817272,"internal_node_id":"0.0-5.0-6.0"},{"group":"tri cycles (cube, non-group)","fractal_assignment":["../images/cyn_red.png","../images/gry_blk.png","../images/grn_red.png","../images/org_blu.png","../images/pnk_blu.png","../images/ylw_pnk.png","../images/blu_wht.png","../images/ylw_slt.png"],"mutagen_generator_assignment":[0,1],"goal":1,"start":4,"action_noise":0.1,"location_history":"[4,7,6,4,7,6,4,7,6,5,2,6,5,2,1]","action_history":"[1,0,0,0,0,0,0,0,1,1,1,1,1,0]","mutagen_history":"[1,0,0,0,0,0,0,0,1,1,1,1,1,0]","location_rts":"[579,244,295,170,271,271,287,305,255,545,294,247,238,255]","trial_type":"fractal-mutation","trial_index":61,"time_elapsed":1839297,"internal_node_id":"0.0-5.0-7.0"},{"group":"tri cycles (cube, non-group)","fractal_assignment":["../images/cyn_red.png","../images/gry_blk.png","../images/grn_red.png","../images/org_blu.png","../images/pnk_blu.png","../images/ylw_pnk.png","../images/blu_wht.png","../images/ylw_slt.png"],"mutagen_generator_assignment":[0,1],"goal":4,"start":1,"action_noise":0.1,"location_history":"[1,0,3,4]","action_history":"[0,1,1]","mutagen_history":"[0,1,1]","location_rts":"[18361,586,409]","trial_type":"fractal-mutation","trial_index":62,"time_elapsed":1865200,"internal_node_id":"0.0-5.0-8.0"},{"group":"tri cycles (cube, non-group)","fractal_assignment":["../images/cyn_red.png","../images/gry_blk.png","../images/grn_red.png","../images/org_blu.png","../images/pnk_blu.png","../images/ylw_pnk.png","../images/blu_wht.png","../images/ylw_slt.png"],"mutagen_generator_assignment":[0,1],"goal":5,"start":4,"action_noise":0.1,"location_history":"[4,7,3,4,0,3,4,7,3,4,7,6,4,7,6,4,7,3,7,6,5]","action_history":"[0,1,1,1,1,1,0,1,1,0,0,0,0,0,0,0,0,0,0,1]","mutagen_history":"[0,1,1,1,1,1,0,1,1,0,0,0,0,0,0,0,0,0,0,1]","location_rts":"[47108,348,179,266,460,339,265,403,298,417,162,183,458,320,619,44,388,494,502,422]","trial_type":"fractal-mutation","trial_index":63,"time_elapsed":1942743,"internal_node_id":"0.0-5.0-9.0"},{"group":"tri cycles (cube, non-group)","fractal_assignment":["../images/cyn_red.png","../images/gry_blk.png","../images/grn_red.png","../images/org_blu.png","../images/pnk_blu.png","../images/ylw_pnk.png","../images/blu_wht.png","../images/ylw_slt.png"],"mutagen_generator_assignment":[0,1],"goal":3,"start":5,"action_noise":0.1,"location_history":"[5,2,6,5,1,5,1,0,3]","action_history":"[1,1,1,0,1,0,0,1]","mutagen_history":"[1,1,1,0,1,0,0,1]","location_rts":"[60630,339,470,891,630,530,291,689]","trial_type":"fractal-mutation","trial_index":64,"time_elapsed":2018858,"internal_node_id":"0.0-5.0-10.0"},{"group":"tri cycles (cube, non-group)","fractal_assignment":["../images/cyn_red.png","../images/gry_blk.png","../images/grn_red.png","../images/org_blu.png","../images/pnk_blu.png","../images/ylw_pnk.png","../images/blu_wht.png","../images/ylw_slt.png"],"mutagen_generator_assignment":[0,1],"goal":6,"start":3,"action_noise":0.1,"location_history":"[3,4,7,6]","action_history":"[1,0,0]","mutagen_history":"[1,0,0]","location_rts":"[825,452,405]","trial_type":"fractal-mutation","trial_index":65,"time_elapsed":2027099,"internal_node_id":"0.0-5.0-11.0"},{"group":"tri cycles (cube, non-group)","fractal_assignment":["../images/cyn_red.png","../images/gry_blk.png","../images/grn_red.png","../images/org_blu.png","../images/pnk_blu.png","../images/ylw_pnk.png","../images/blu_wht.png","../images/ylw_slt.png"],"mutagen_generator_assignment":[0,1],"goal":7,"start":6,"action_noise":0.1,"location_history":"[6,5,1,0,2,1,0,2,6,4,7]","action_history":"[1,0,0,0,0,0,1,1,0,0]","mutagen_history":"[1,0,0,0,0,0,1,1,0,0]","location_rts":"[823,329,281,333,357,379,506,1123,449,393]","trial_type":"fractal-mutation","trial_index":66,"time_elapsed":2045751,"internal_node_id":"0.0-5.0-12.0"},{"group":"tri cycles (cube, non-group)","fractal_assignment":["../images/cyn_red.png","../images/gry_blk.png","../images/grn_red.png","../images/org_blu.png","../images/pnk_blu.png","../images/ylw_pnk.png","../images/blu_wht.png","../images/ylw_slt.png"],"mutagen_generator_assignment":[0,1],"goal":0,"start":7,"action_noise":0.1,"location_history":"[7,6,4,7,3,4,0]","action_history":"[0,0,0,1,1,1]","mutagen_history":"[0,0,0,1,1,1]","location_rts":"[16444,527,423,292,438,390]","trial_type":"fractal-mutation","trial_index":67,"time_elapsed":2073870,"internal_node_id":"0.0-5.0-13.0"},{"group":"tri cycles (cube, non-group)","fractal_assignment":["../images/cyn_red.png","../images/gry_blk.png","../images/grn_red.png","../images/org_blu.png","../images/pnk_blu.png","../images/ylw_pnk.png","../images/blu_wht.png","../images/ylw_slt.png"],"mutagen_generator_assignment":[0,1],"goal":2,"start":0,"action_noise":0.1,"location_history":"[0,3,4,7,6,4,0,3,7,6,4,7,3,4,0,2]","action_history":"[1,1,0,0,0,1,1,0,0,0,0,1,1,1,0]","mutagen_history":"[1,1,0,0,0,1,1,0,0,0,0,1,1,1,0]","location_rts":"[64508,412,438,352,287,304,329,323,272,155,278,199,323,320,322]","trial_type":"fractal-mutation","trial_index":68,"time_elapsed":2161461,"internal_node_id":"0.0-5.0-14.0"},{"group":"tri cycles (cube, non-group)","fractal_assignment":["../images/cyn_red.png","../images/gry_blk.png","../images/grn_red.png","../images/org_blu.png","../images/pnk_blu.png","../images/ylw_pnk.png","../images/blu_wht.png","../images/ylw_slt.png"],"mutagen_generator_assignment":[0,1],"goal":1,"start":2,"action_noise":0.1,"location_history":"[2,6,4,0,3,7,6,5,2,6,4,7,6,4,0,2,1]","action_history":"[1,0,1,0,0,0,0,1,1,0,0,0,0,1,1,0]","mutagen_history":"[1,0,1,0,0,0,0,1,1,0,0,0,0,1,1,0]","location_rts":"[855,194,387,413,149,345,329,419,300,245,361,178,198,320,630,331]","trial_type":"fractal-mutation","trial_index":69,"time_elapsed":2186906,"internal_node_id":"0.0-5.0-15.0"},{"group":"tri cycles (cube, non-group)","fractal_assignment":["../images/cyn_red.png","../images/gry_blk.png","../images/grn_red.png","../images/org_blu.png","../images/pnk_blu.png","../images/ylw_pnk.png","../images/blu_wht.png","../images/ylw_slt.png"],"mutagen_generator_assignment":[0,1],"goal":6,"start":1,"action_noise":0.1,"location_history":"[1,5,1,0,2,1,0,2,6]","action_history":"[1,0,0,0,0,0,0,1]","mutagen_history":"[1,0,0,0,0,0,0,1]","location_rts":"[651,367,280,240,288,275,275,144]","trial_type":"fractal-mutation","trial_index":70,"time_elapsed":2201064,"internal_node_id":"0.0-5.0-16.0"},{"group":"tri cycles (cube, non-group)","fractal_assignment":["../images/cyn_red.png","../images/gry_blk.png","../images/grn_red.png","../images/org_blu.png","../images/pnk_blu.png","../images/ylw_pnk.png","../images/blu_wht.png","../images/ylw_slt.png"],"mutagen_generator_assignment":[0,1],"goal":3,"start":6,"action_noise":0.1,"location_history":"[6,5,2,6,5,1,0,2,1,0,3]","action_history":"[1,1,1,0,0,0,0,0,0,1]","mutagen_history":"[1,1,1,0,0,0,0,0,0,1]","location_rts":"[1194,429,410,197,289,339,322,375,318,283]","trial_type":"fractal-mutation","trial_index":71,"time_elapsed":2218925,"internal_node_id":"0.0-5.0-17.0"},{"group":"tri cycles (cube, non-group)","fractal_assignment":["../images/cyn_red.png","../images/gry_blk.png","../images/grn_red.png","../images/org_blu.png","../images/pnk_blu.png","../images/ylw_pnk.png","../images/blu_wht.png","../images/ylw_slt.png"],"mutagen_generator_assignment":[0,1],"goal":4,"start":3,"action_noise":0.1,"location_history":"[3,4]","action_history":"[1]","mutagen_history":"[1]","location_rts":"[688]","trial_type":"fractal-mutation","trial_index":72,"time_elapsed":2224134,"internal_node_id":"0.0-5.0-18.0"},{"group":"tri cycles (cube, non-group)","fractal_assignment":["../images/cyn_red.png","../images/gry_blk.png","../images/grn_red.png","../images/org_blu.png","../images/pnk_blu.png","../images/ylw_pnk.png","../images/blu_wht.png","../images/ylw_slt.png"],"mutagen_generator_assignment":[0,1],"goal":5,"start":4,"action_noise":0.1,"location_history":"[4,0,3,4,0,3,7,6,4,7,3,4,0,3,7,6,4,7,6,4,0,3,4,0,2,1,5]","action_history":"[1,1,1,1,1,1,0,0,0,1,1,1,1,1,0,0,0,0,0,1,1,1,0,0,0,1]","mutagen_history":"[1,1,1,1,1,1,0,0,0,1,1,1,1,1,0,0,0,0,0,1,1,1,0,0,0,1]","location_rts":"[870,389,523,427,411,533,368,365,611,313,347,380,395,446,371,379,410,401,365,286,346,309,206,370,346,369]","trial_type":"fractal-mutation","trial_index":73,"time_elapsed":2264669,"internal_node_id":"0.0-5.0-19.0"},{"group":"tri cycles (cube, non-group)","fractal_assignment":["../images/cyn_red.png","../images/gry_blk.png","../images/grn_red.png","../images/org_blu.png","../images/pnk_blu.png","../images/ylw_pnk.png","../images/blu_wht.png","../images/ylw_slt.png"],"mutagen_generator_assignment":[0,1],"goal":7,"start":5,"action_noise":0.1,"location_history":"[5,1,0,2,6,4,0,3,7]","action_history":"[0,0,0,0,0,1,0,0]","mutagen_history":"[0,0,0,0,0,1,0,0]","location_rts":"[782,254,325,157,458,336,190,173]","trial_type":"fractal-mutation","trial_index":74,"time_elapsed":2278960,"internal_node_id":"0.0-5.0-20.0"},{"group":"tri cycles (cube, non-group)","fractal_assignment":["../images/cyn_red.png","../images/gry_blk.png","../images/grn_red.png","../images/org_blu.png","../images/pnk_blu.png","../images/ylw_pnk.png","../images/blu_wht.png","../images/ylw_slt.png"],"mutagen_generator_assignment":[0,1],"goal":2,"start":7,"action_noise":0.1,"location_history":"[7,6,5,1,5,1,0,2]","action_history":"[0,1,0,1,1,0,0]","mutagen_history":"[0,1,0,1,1,0,0]","location_rts":"[340,164,379,429,298,204,361]","trial_type":"fractal-mutation","trial_index":75,"time_elapsed":2291766,"internal_node_id":"0.0-5.0-21.0"},{"group":"tri cycles (cube, non-group)","fractal_assignment":["../images/cyn_red.png","../images/gry_blk.png","../images/grn_red.png","../images/org_blu.png","../images/pnk_blu.png","../images/ylw_pnk.png","../images/blu_wht.png","../images/ylw_slt.png"],"mutagen_generator_assignment":[0,1],"goal":0,"start":2,"action_noise":0.1,"location_history":"[2,6,5,2,6,4,7,6,4,7,6,4,7,3,4,7,3,4,7,6,4,0]","action_history":"[1,1,1,1,0,0,0,0,1,0,0,0,1,1,0,1,1,1,0,0,1]","mutagen_history":"[1,1,1,1,0,0,0,0,1,0,0,0,1,1,0,1,1,1,0,0,1]","location_rts":"[381,205,303,1450,328,373,311,390,295,258,301,150,244,280,392,417,304,396,485,374,375]","trial_type":"fractal-mutation","trial_index":76,"time_elapsed":2324718,"internal_node_id":"0.0-5.0-22.0"},{"group":"tri cycles (cube, non-group)","fractal_assignment":["../images/cyn_red.png","../images/gry_blk.png","../images/grn_red.png","../images/org_blu.png","../images/pnk_blu.png","../images/ylw_pnk.png","../images/blu_wht.png","../images/ylw_slt.png"],"mutagen_generator_assignment":[0,1],"goal":7,"start":0,"action_noise":0.1,"location_history":"[0,3,7]","action_history":"[1,0]","mutagen_history":"[1,0]","location_rts":"[1592,414]","trial_type":"fractal-mutation","trial_index":77,"time_elapsed":2332263,"internal_node_id":"0.0-5.0-23.0"},{"group":"tri cycles (cube, non-group)","fractal_assignment":["../images/cyn_red.png","../images/gry_blk.png","../images/grn_red.png","../images/org_blu.png","../images/pnk_blu.png","../images/ylw_pnk.png","../images/blu_wht.png","../images/ylw_slt.png"],"mutagen_generator_assignment":[0,1],"goal":5,"start":7,"action_noise":0.1,"location_history":"[7,3,4,7,3,4,7,6,5]","action_history":"[1,1,0,0,1,0,0,1]","mutagen_history":"[1,1,0,0,1,0,0,1]","location_rts":"[717,552,257,312,415,556,314,741]","trial_type":"fractal-mutation","trial_index":78,"time_elapsed":2347790,"internal_node_id":"0.0-5.0-24.0"},{"group":"tri cycles (cube, non-group)","fractal_assignment":["../images/cyn_red.png","../images/gry_blk.png","../images/grn_red.png","../images/org_blu.png","../images/pnk_blu.png","../images/ylw_pnk.png","../images/blu_wht.png","../images/ylw_slt.png"],"mutagen_generator_assignment":[0,1],"goal":0,"start":5,"action_noise":0.1,"location_history":"[5,2,6,5,1,0]","action_history":"[1,1,1,0,0]","mutagen_history":"[1,1,1,0,0]","location_rts":"[8972,919,473,401,530]","trial_type":"fractal-mutation","trial_index":79,"time_elapsed":2367692,"internal_node_id":"0.0-5.0-25.0"},{"group":"tri cycles (cube, non-group)","fractal_assignment":["../images/cyn_red.png","../images/gry_blk.png","../images/grn_red.png","../images/org_blu.png","../images/pnk_blu.png","../images/ylw_pnk.png","../images/blu_wht.png","../images/ylw_slt.png"],"mutagen_generator_assignment":[0,1],"goal":6,"start":0,"action_noise":0.1,"location_history":"[0,2,6]","action_history":"[0,1]","mutagen_history":"[0,1]","location_rts":"[849,414]","trial_type":"fractal-mutation","trial_index":80,"time_elapsed":2374492,"internal_node_id":"0.0-5.0-26.0"},{"group":"tri cycles (cube, non-group)","fractal_assignment":["../images/cyn_red.png","../images/gry_blk.png","../images/grn_red.png","../images/org_blu.png","../images/pnk_blu.png","../images/ylw_pnk.png","../images/blu_wht.png","../images/ylw_slt.png"],"mutagen_generator_assignment":[0,1],"goal":4,"start":6,"action_noise":0.1,"location_history":"[6,4]","action_history":"[0]","mutagen_history":"[0]","location_rts":"[23862]","trial_type":"fractal-mutation","trial_index":81,"time_elapsed":2402873,"internal_node_id":"0.0-5.0-27.0"},{"group":"tri cycles (cube, non-group)","fractal_assignment":["../images/cyn_red.png","../images/gry_blk.png","../images/grn_red.png","../images/org_blu.png","../images/pnk_blu.png","../images/ylw_pnk.png","../images/blu_wht.png","../images/ylw_slt.png"],"mutagen_generator_assignment":[0,1],"goal":2,"start":4,"action_noise":0.1,"location_history":"[4,7,3,4,0,2]","action_history":"[1,1,1,0,0]","mutagen_history":"[1,1,1,0,0]","location_rts":"[657,353,421,370,391]","trial_type":"fractal-mutation","trial_index":82,"time_elapsed":2413654,"internal_node_id":"0.0-5.0-28.0"},{"group":"tri cycles (cube, non-group)","fractal_assignment":["../images/cyn_red.png","../images/gry_blk.png","../images/grn_red.png","../images/org_blu.png","../images/pnk_blu.png","../images/ylw_pnk.png","../images/blu_wht.png","../images/ylw_slt.png"],"mutagen_generator_assignment":[0,1],"goal":3,"start":2,"action_noise":0.1,"location_history":"[2,6,4,7,6,4,0,3]","action_history":"[1,0,0,0,0,1,1]","mutagen_history":"[1,0,0,0,0,1,1]","location_rts":"[581,187,235,231,312,318,420]","trial_type":"fractal-mutation","trial_index":83,"time_elapsed":2426565,"internal_node_id":"0.0-5.0-29.0"},{"group":"tri cycles (cube, non-group)","fractal_assignment":["../images/cyn_red.png","../images/gry_blk.png","../images/grn_red.png","../images/org_blu.png","../images/pnk_blu.png","../images/ylw_pnk.png","../images/blu_wht.png","../images/ylw_slt.png"],"mutagen_generator_assignment":[0,1],"goal":1,"start":3,"action_noise":0.1,"location_history":"[3,7,3,7,6,5,2,1]","action_history":"[1,0,0,0,1,1,0]","mutagen_history":"[1,0,0,0,1,1,0]","location_rts":"[709,222,306,446,379,436,248]","trial_type":"fractal-mutation","trial_index":84,"time_elapsed":2439951,"internal_node_id":"0.0-5.0-30.0"},{"group":"tri cycles (cube, non-group)","fractal_assignment":["../images/cyn_red.png","../images/gry_blk.png","../images/grn_red.png","../images/org_blu.png","../images/pnk_blu.png","../images/ylw_pnk.png","../images/blu_wht.png","../images/ylw_slt.png"],"mutagen_generator_assignment":[0,1],"goal":4,"start":1,"action_noise":0.1,"location_history":"[1,5,1,0,2,6,5,1,0,2,1,5,2,6,4]","action_history":"[1,0,0,0,1,1,0,0,0,0,1,1,0,0]","mutagen_history":"[1,0,0,0,1,1,0,0,0,0,1,1,0,0]","location_rts":"[18109,387,378,434,358,382,238,273,500,422,273,450,197,371]","trial_type":"fractal-mutation","trial_index":85,"time_elapsed":2480455,"internal_node_id":"0.0-5.0-31.0"},{"group":"tri cycles (cube, non-group)","fractal_assignment":["../images/cyn_red.png","../images/gry_blk.png","../images/grn_red.png","../images/org_blu.png","../images/pnk_blu.png","../images/ylw_pnk.png","../images/blu_wht.png","../images/ylw_slt.png"],"mutagen_generator_assignment":[0,1],"goal":3,"start":4,"action_noise":0.1,"location_history":"[4,0,3]","action_history":"[1,1]","mutagen_history":"[1,1]","location_rts":"[605,404]","trial_type":"fractal-mutation","trial_index":86,"time_elapsed":2487006,"internal_node_id":"0.0-5.0-32.0"},{"group":"tri cycles (cube, non-group)","fractal_assignment":["../images/cyn_red.png","../images/gry_blk.png","../images/grn_red.png","../images/org_blu.png","../images/pnk_blu.png","../images/ylw_pnk.png","../images/blu_wht.png","../images/ylw_slt.png"],"mutagen_generator_assignment":[0,1],"goal":6,"start":3,"action_noise":0.1,"location_history":"[3,4,0,3,7,6]","action_history":"[1,1,1,0,0]","mutagen_history":"[1,1,1,0,0]","location_rts":"[412,424,425,299,281]","trial_type":"fractal-mutation","trial_index":87,"time_elapsed":2497442,"internal_node_id":"0.0-5.0-33.0"},{"group":"tri cycles (cube, non-group)","fractal_assignment":["../images/cyn_red.png","../images/gry_blk.png","../images/grn_red.png","../images/org_blu.png","../images/pnk_blu.png","../images/ylw_pnk.png","../images/blu_wht.png","../images/ylw_slt.png"],"mutagen_generator_assignment":[0,1],"goal":0,"start":6,"action_noise":0.1,"location_history":"[6,5,2,6,4,0]","action_history":"[1,1,1,1,0]","mutagen_history":"[1,1,1,1,0]","location_rts":"[626,379,447,418,313]","trial_type":"fractal-mutation","trial_index":88,"time_elapsed":2508234,"internal_node_id":"0.0-5.0-34.0"},{"group":"tri cycles (cube, non-group)","fractal_assignment":["../images/cyn_red.png","../images/gry_blk.png","../images/grn_red.png","../images/org_blu.png","../images/pnk_blu.png","../images/ylw_pnk.png","../images/blu_wht.png","../images/ylw_slt.png"],"mutagen_generator_assignment":[0,1],"goal":1,"start":0,"action_noise":0.1,"location_history":"[0,2,6,4,0,3,7,3,4,7,6,4,0,3,7,6,4,7,3,4,0,2,1]","action_history":"[0,0,0,1,0,0,1,1,0,0,0,1,1,0,0,0,0,1,1,0,0,0]","mutagen_history":"[0,0,0,1,0,0,1,1,0,0,0,1,1,0,0,0,0,1,1,0,0,0]","location_rts":"[2313,455,499,232,363,393,378,449,336,371,373,351,584,316,565,624,706,443,490,331,369,414]","trial_type":"fractal-mutation","trial_index":89,"time_elapsed":2545476,"internal_node_id":"0.0-5.0-35.0"},{"group":"tri cycles (cube, non-group)","fractal_assignment":["../images/cyn_red.png","../images/gry_blk.png","../images/grn_red.png","../images/org_blu.png","../images/pnk_blu.png","../images/ylw_pnk.png","../images/blu_wht.png","../images/ylw_slt.png"],"mutagen_generator_assignment":[0,1],"goal":5,"start":1,"action_noise":0.1,"location_history":"[1,5]","action_history":"[1]","mutagen_history":"[1]","location_rts":"[726]","trial_type":"fractal-mutation","trial_index":90,"time_elapsed":2550725,"internal_node_id":"0.0-5.0-36.0"},{"group":"tri cycles (cube, non-group)","fractal_assignment":["../images/cyn_red.png","../images/gry_blk.png","../images/grn_red.png","../images/org_blu.png","../images/pnk_blu.png","../images/ylw_pnk.png","../images/blu_wht.png","../images/ylw_slt.png"],"mutagen_generator_assignment":[0,1],"goal":7,"start":5,"action_noise":0.1,"location_history":"[5,2,1,0,2,1,0,2,1,5,1,5,2,1,0,2,6,4,0,2,6,4,7]","action_history":"[1,0,0,0,1,0,0,0,1,0,1,1,0,0,0,1,0,1,1,0,0,0]","mutagen_history":"[1,0,0,0,1,0,0,0,1,0,1,1,0,0,0,1,0,1,1,0,0,0]","location_rts":"[654,174,247,324,264,246,176,301,380,646,699,286,314,377,1311,375,941,670,675,694,438,364]","trial_type":"fractal-mutation","trial_index":91,"time_elapsed":2587176,"internal_node_id":"0.0-5.0-37.0"},{"group":"tri cycles (cube, non-group)","fractal_assignment":["../images/cyn_red.png","../images/gry_blk.png","../images/grn_red.png","../images/org_blu.png","../images/pnk_blu.png","../images/ylw_pnk.png","../images/blu_wht.png","../images/ylw_slt.png"],"mutagen_generator_assignment":[0,1],"goal":2,"start":7,"action_noise":0.1,"location_history":"[7,6,5,1,5,1,5,2]","action_history":"[0,1,0,0,0,1,1]","mutagen_history":"[0,1,0,0,0,1,1]","location_rts":"[732,581,956,474,328,402,635]","trial_type":"fractal-mutation","trial_index":92,"time_elapsed":2601907,"internal_node_id":"0.0-5.0-38.0"},{"group":"tri cycles (cube, non-group)","fractal_assignment":["../images/cyn_red.png","../images/gry_blk.png","../images/grn_red.png","../images/org_blu.png","../images/pnk_blu.png","../images/ylw_pnk.png","../images/blu_wht.png","../images/ylw_slt.png"],"mutagen_generator_assignment":[0,1],"goal":1,"start":2,"action_noise":0.1,"location_history":"[2,6,5,2,1]","action_history":"[1,1,1,0]","mutagen_history":"[1,1,1,0]","location_rts":"[887,685,433,230]","trial_type":"fractal-mutation","trial_index":93,"time_elapsed":2611722,"internal_node_id":"0.0-5.0-39.0"},{"group":"tri cycles (cube, non-group)","fractal_assignment":["../images/cyn_red.png","../images/gry_blk.png","../images/grn_red.png","../images/org_blu.png","../images/pnk_blu.png","../images/ylw_pnk.png","../images/blu_wht.png","../images/ylw_slt.png"],"mutagen_generator_assignment":[0,1],"goal":3,"start":1,"action_noise":0.1,"location_history":"[1,0,3]","action_history":"[0,1]","mutagen_history":"[0,1]","location_rts":"[1186,350]","trial_type":"fractal-mutation","trial_index":94,"time_elapsed":2618797,"internal_node_id":"0.0-5.0-40.0"},{"group":"tri cycles (cube, non-group)","fractal_assignment":["../images/cyn_red.png","../images/gry_blk.png","../images/grn_red.png","../images/org_blu.png","../images/pnk_blu.png","../images/ylw_pnk.png","../images/blu_wht.png","../images/ylw_slt.png"],"mutagen_generator_assignment":[0,1],"goal":4,"start":3,"action_noise":0.1,"location_history":"[3,4]","action_history":"[1]","mutagen_history":"[1]","location_rts":"[702]","trial_type":"fractal-mutation","trial_index":95,"time_elapsed":2624021,"internal_node_id":"0.0-5.0-41.0"},{"group":"tri cycles (cube, non-group)","fractal_assignment":["../images/cyn_red.png","../images/gry_blk.png","../images/grn_red.png","../images/org_blu.png","../images/pnk_blu.png","../images/ylw_pnk.png","../images/blu_wht.png","../images/ylw_slt.png"],"mutagen_generator_assignment":[0,1],"goal":2,"start":4,"action_noise":0.1,"location_history":"[4,0,3,4,0,3,7,6,4,0,2]","action_history":"[1,1,1,1,1,0,0,0,0,0]","mutagen_history":"[1,1,1,1,1,0,0,0,0,0]","location_rts":"[670,530,454,558,512,148,349,369,870,579]","trial_type":"fractal-mutation","trial_index":96,"time_elapsed":2642743,"internal_node_id":"0.0-5.0-42.0"},{"group":"tri cycles (cube, non-group)","fractal_assignment":["../images/cyn_red.png","../images/gry_blk.png","../images/grn_red.png","../images/org_blu.png","../images/pnk_blu.png","../images/ylw_pnk.png","../images/blu_wht.png","../images/ylw_slt.png"],"mutagen_generator_assignment":[0,1],"goal":5,"start":2,"action_noise":0.1,"location_history":"[2,6,5]","action_history":"[1,1]","mutagen_history":"[1,1]","location_rts":"[700,459]","trial_type":"fractal-mutation","trial_index":97,"time_elapsed":2649446,"internal_node_id":"0.0-5.0-43.0"},{"group":"tri cycles (cube, non-group)","fractal_assignment":["../images/cyn_red.png","../images/gry_blk.png","../images/grn_red.png","../images/org_blu.png","../images/pnk_blu.png","../images/ylw_pnk.png","../images/blu_wht.png","../images/ylw_slt.png"],"mutagen_generator_assignment":[0,1],"goal":0,"start":5,"action_noise":0.1,"location_history":"[5,2,6,4,7,3,7,3,7,3,4,7,3,7,6,5,2,6,4,7,6,4,0]","action_history":"[1,1,0,1,1,1,1,1,1,1,0,0,0,0,1,1,0,0,1,0,0,1]","mutagen_history":"[1,1,0,1,1,1,1,1,1,1,0,0,0,0,1,1,0,0,1,0,0,1]","location_rts":"[492,362,318,304,294,241,239,202,228,242,638,312,281,260,209,431,271,430,333,322,261,389]","trial_type":"fractal-mutation","trial_index":98,"time_elapsed":2682429,"internal_node_id":"0.0-5.0-44.0"},{"group":"tri cycles (cube, non-group)","fractal_assignment":["../images/cyn_red.png","../images/gry_blk.png","../images/grn_red.png","../images/org_blu.png","../images/pnk_blu.png","../images/ylw_pnk.png","../images/blu_wht.png","../images/ylw_slt.png"],"mutagen_generator_assignment":[0,1],"goal":7,"start":0,"action_noise":0.1,"location_history":"[0,2,6,4,7]","action_history":"[0,1,0,0]","mutagen_history":"[0,1,0,0]","location_rts":"[35030,429,346,721]","trial_type":"fractal-mutation","trial_index":99,"time_elapsed":2726521,"internal_node_id":"0.0-5.0-45.0"},{"group":"tri cycles (cube, non-group)","fractal_assignment":["../images/cyn_red.png","../images/gry_blk.png","../images/grn_red.png","../images/org_blu.png","../images/pnk_blu.png","../images/ylw_pnk.png","../images/blu_wht.png","../images/ylw_slt.png"],"mutagen_generator_assignment":[0,1],"goal":6,"start":7,"action_noise":0.1,"location_history":"[7,6]","action_history":"[0]","mutagen_history":"[0]","location_rts":"[13090]","trial_type":"fractal-mutation","trial_index":100,"time_elapsed":2744131,"internal_node_id":"0.0-5.0-46.0"},{"group":"tri cycles (cube, non-group)","fractal_assignment":["../images/cyn_red.png","../images/gry_blk.png","../images/grn_red.png","../images/org_blu.png","../images/pnk_blu.png","../images/ylw_pnk.png","../images/blu_wht.png","../images/ylw_slt.png"],"mutagen_generator_assignment":[0,1],"goal":2,"start":6,"action_noise":0.1,"location_history":"[6,5,2]","action_history":"[1,1]","mutagen_history":"[1,1]","location_rts":"[720,529]","trial_type":"fractal-mutation","trial_index":101,"time_elapsed":2750925,"internal_node_id":"0.0-5.0-47.0"},{"group":"tri cycles (cube, non-group)","fractal_assignment":["../images/cyn_red.png","../images/gry_blk.png","../images/grn_red.png","../images/org_blu.png","../images/pnk_blu.png","../images/ylw_pnk.png","../images/blu_wht.png","../images/ylw_slt.png"],"mutagen_generator_assignment":[0,1],"goal":5,"start":2,"action_noise":0.1,"location_history":"[2,1,5]","action_history":"[0,1]","mutagen_history":"[0,1]","location_rts":"[740,352]","trial_type":"fractal-mutation","trial_index":102,"time_elapsed":2757557,"internal_node_id":"0.0-5.0-48.0"},{"group":"tri cycles (cube, non-group)","fractal_assignment":["../images/cyn_red.png","../images/gry_blk.png","../images/grn_red.png","../images/org_blu.png","../images/pnk_blu.png","../images/ylw_pnk.png","../images/blu_wht.png","../images/ylw_slt.png"],"mutagen_generator_assignment":[0,1],"goal":3,"start":5,"action_noise":0.1,"location_history":"[5,1,5,2,1,0,3]","action_history":"[1,1,1,0,0,1]","mutagen_history":"[1,1,1,0,0,1]","location_rts":"[560,461,426,306,406,383]","trial_type":"fractal-mutation","trial_index":103,"time_elapsed":2769725,"internal_node_id":"0.0-5.0-49.0"},{"view_history":"[{\"page_index\":0,\"viewing_time\":4375}]","rt":4375,"trial_type":"instructions","trial_index":104,"time_elapsed":2775099,"internal_node_id":"0.0-6.0"},{"rt":61698,"responses":"{\"Q0\":\"I think it was trying to measure how well I can learn to navigate through the haunted house, but I'm not sure.\"}","trial_type":"survey-text","trial_index":105,"time_elapsed":2837801,"internal_node_id":"0.0-7.0-0.0"},{"rt":247842,"responses":"{\"Q0\":\"I think it was trying to measure how well I could learn how to apply the stimulus in the right way to produce the given pattern, but I'm not sure.\"}","trial_type":"survey-text","trial_index":106,"time_elapsed":3086645,"internal_node_id":"0.0-7.0-1.0"},{"rt":139007,"responses":"{\"Q0\":\"<img src='../images/diagrams/square_cycles.png'>\"}","trial_type":"survey-multi-choice","trial_index":107,"time_elapsed":3226656,"internal_node_id":"0.0-7.0-2.0"},{"rt":222398,"assignments":["../images/ylw_slt.png","../images/pnk_blu.png","../images/blu_wht.png","../images/ylw_pnk.png","../images/grn_red.png","../images/org_blu.png","../images/cyn_red.png","../images/gry_blk.png"],"trial_type":"drag-drop-on-image","trial_index":108,"time_elapsed":3450055,"internal_node_id":"0.0-7.0-3.0"},{"rt":7189,"responses":"{\"Q0\":\"1\"}","trial_type":"survey-likert","trial_index":109,"time_elapsed":3458247,"internal_node_id":"0.0-7.0-4.0"},{"rt":128593,"responses":"{\"Q0\":\"They felt similar in that I made an A or B choice that would determine if I arrived at the result or not. Now that I think about it, they are essentially the same, but they felt quite different during the experiment.\"}","trial_type":"survey-text","trial_index":110,"time_elapsed":3587840,"internal_node_id":"0.0-7.0-5.0"},{"rt":8094,"responses":"{\"Q0\":\"No\"}","trial_type":"survey-multi-choice","trial_index":111,"time_elapsed":3596937,"internal_node_id":"0.0-7.0-6.0"},{"rt":12574,"responses":"{\"Q0\":\"During these questions/I wasn't aware until you pointed it out\"}","trial_type":"survey-multi-choice","trial_index":112,"time_elapsed":3610516,"internal_node_id":"0.0-7.0-7.0"},{"rt":3912,"responses":"{\"Q0\":\"\"}","trial_type":"survey-text","trial_index":113,"time_elapsed":3615428,"internal_node_id":"0.0-7.0-8.0"},{"rt":6845,"responses":"{\"Q0\":\"0\"}","trial_type":"survey-likert","trial_index":114,"time_elapsed":3623276,"internal_node_id":"0.0-7.0-9.0"},{"rt":17939,"responses":"{\"Q0\":\"Same structure\"}","trial_type":"survey-multi-choice","trial_index":115,"time_elapsed":3642217,"internal_node_id":"0.0-7.0-10.0"},{"rt":42375,"responses":"{\"Q0\":\"left (black) door = acid, (white) door = ray\",\"Q1\":\"Not at all confident\"}","trial_type":"survey-multi-choice","trial_index":116,"time_elapsed":3685598,"internal_node_id":"0.0-7.0-11.0"},{"rt":17191,"responses":"{\"Q0\":\"25-35\",\"Q1\":\"Bachelor's degree\",\"Q2\":\"Male\",\"Q3\":\"White\"}","trial_type":"survey-multi-choice","trial_index":117,"time_elapsed":3703798,"internal_node_id":"0.0-8.0"},{"rt":51460,"responses":"{\"Q0\":\"This was very interesting. Thanks for posting.\"}","trial_type":"survey-text","trial_index":118,"time_elapsed":3756259,"internal_node_id":"0.0-9.0"}]