[{"view_history":"[{\"page_index\":0,\"viewing_time\":4388},{\"page_index\":1,\"viewing_time\":2794}]","rt":7183,"trial_type":"instructions","trial_index":0,"time_elapsed":7185,"internal_node_id":"0.0-0.0"},{"view_history":"[{\"page_index\":0,\"viewing_time\":941},{\"page_index\":1,\"viewing_time\":2359}]","rt":3300,"trial_type":"instructions","trial_index":1,"time_elapsed":11487,"internal_node_id":"0.0-1.0"},{"group":"square cycles (cube, non-group)","room_assignment":["purple","yellow","blue","green","red","grey","brown","pink"],"door_color_assignment":["white","black"],"door_generator_assignment":[0,1],"goal":5,"start":7,"action_noise":0.1,"location_history":"[7,6,5]","action_history":"[0,0]","door_history":"[0,0]","location_rts":"[1789,628]","trial_type":"two-door-navigation","trial_index":2,"time_elapsed":19464,"internal_node_id":"0.0-2.0-0.0"},{"group":"square cycles (cube, non-group)","room_assignment":["purple","yellow","blue","green","red","grey","brown","pink"],"door_color_assignment":["white","black"],"door_generator_assignment":[0,1],"goal":2,"start":5,"action_noise":0.1,"location_history":"[5,1,0,4,7,6,7,3,2]","action_history":"[1,1,1,0,0,1,1,1]","door_history":"[1,1,1,0,0,1,1,1]","location_rts":"[495,479,1767,1423,296,976,470,297]","trial_type":"two-door-navigation","trial_index":3,"time_elapsed":37322,"internal_node_id":"0.0-2.0-1.0"},{"group":"square cycles (cube, non-group)","room_assignment":["purple","yellow","blue","green","red","grey","brown","pink"],"door_color_assignment":["white","black"],"door_generator_assignment":[0,1],"goal":0,"start":2,"action_noise":0.1,"location_history":"[2,3,2,6,5,4,5,1,2,3,2,6,5,4,7,6,5,4,5,1,2,3,2,6,5,4,7,6,7,3,0]","action_history":"[0,1,1,0,0,1,1,0,0,1,1,0,0,0,0,0,0,1,0,0,0,1,1,0,0,0,0,1,1,0]","door_history":"[0,1,1,0,0,1,1,0,0,1,1,0,0,0,0,0,0,1,0,0,0,1,1,0,0,0,0,1,1,0]","location_rts":"[932,668,267,654,338,781,383,562,273,730,272,667,352,364,303,377,398,370,645,199,401,580,274,517,387,293,304,456,389,701]","trial_type":"two-door-navigation","trial_index":4,"time_elapsed":85209,"internal_node_id":"0.0-2.0-2.0"},{"group":"square cycles (cube, non-group)","room_assignment":["purple","yellow","blue","green","red","grey","brown","pink"],"door_color_assignment":["white","black"],"door_generator_assignment":[0,1],"goal":1,"start":0,"action_noise":0.1,"location_history":"[0,1]","action_history":"[1]","door_history":"[1]","location_rts":"[713]","trial_type":"two-door-navigation","trial_index":5,"time_elapsed":90450,"internal_node_id":"0.0-2.0-3.0"},{"group":"square cycles (cube, non-group)","room_assignment":["purple","yellow","blue","green","red","grey","brown","pink"],"door_color_assignment":["white","black"],"door_generator_assignment":[0,1],"goal":6,"start":1,"action_noise":0.1,"location_history":"[1,2,6]","action_history":"[0,1]","door_history":"[0,1]","location_rts":"[899,605]","trial_type":"two-door-navigation","trial_index":6,"time_elapsed":97506,"internal_node_id":"0.0-2.0-4.0"},{"group":"square cycles (cube, non-group)","room_assignment":["purple","yellow","blue","green","red","grey","brown","pink"],"door_color_assignment":["white","black"],"door_generator_assignment":[0,1],"goal":3,"start":6,"action_noise":0.1,"location_history":"[6,7,6,5,4,5,4,5,1,0,4,5,4,7,6,7,6,5,4,7,6,7,3]","action_history":"[1,0,0,1,1,0,1,1,1,1,0,0,0,0,0,0,0,0,0,1,1,1]","door_history":"[1,0,0,1,1,0,1,1,1,1,0,0,0,0,0,0,0,0,0,1,1,1]","location_rts":"[973,343,374,657,379,696,613,298,431,837,369,407,354,374,368,345,668,635,326,611,333,328]","trial_type":"two-door-navigation","trial_index":7,"time_elapsed":134096,"internal_node_id":"0.0-2.0-5.0"},{"group":"square cycles (cube, non-group)","room_assignment":["purple","yellow","blue","green","red","grey","brown","pink"],"door_color_assignment":["white","black"],"door_generator_assignment":[0,1],"goal":4,"start":3,"action_noise":0.1,"location_history":"[3,0,1,0,4]","action_history":"[0,1,1,1]","door_history":"[0,1,1,1]","location_rts":"[548,694,326,504]","trial_type":"two-door-navigation","trial_index":8,"time_elapsed":143745,"internal_node_id":"0.0-2.0-6.0"},{"group":"square cycles (cube, non-group)","room_assignment":["purple","yellow","blue","green","red","grey","brown","pink"],"door_color_assignment":["white","black"],"door_generator_assignment":[0,1],"goal":1,"start":4,"action_noise":0.1,"location_history":"[4,7,6,5,4,5,1]","action_history":"[0,0,0,0,1,1]","door_history":"[0,0,0,0,1,1]","location_rts":"[903,444,366,351,930,340]","trial_type":"two-door-navigation","trial_index":9,"time_elapsed":156681,"internal_node_id":"0.0-2.0-7.0"},{"group":"square cycles (cube, non-group)","room_assignment":["purple","yellow","blue","green","red","grey","brown","pink"],"door_color_assignment":["white","black"],"door_generator_assignment":[0,1],"goal":4,"start":1,"action_noise":0.1,"location_history":"[1,2,6,7,3,0,1,2,3,0,4]","action_history":"[0,1,1,1,0,0,0,0,1,1]","door_history":"[0,1,1,1,0,0,0,0,1,1]","location_rts":"[14891,317,434,507,667,440,372,354,638,317]","trial_type":"two-door-navigation","trial_index":10,"time_elapsed":189294,"internal_node_id":"0.0-2.0-8.0"},{"group":"square cycles (cube, non-group)","room_assignment":["purple","yellow","blue","green","red","grey","brown","pink"],"door_color_assignment":["white","black"],"door_generator_assignment":[0,1],"goal":5,"start":4,"action_noise":0.1,"location_history":"[4,7,6,7,3,2,6,7,3,2,6,7,3,2,3,2,6,7,3,0,1,2,3,0,1,2,3,0,1,2,6,7,3,0,1,2,3,0,1,0,4,7,6,5]","action_history":"[0,0,1,1,1,1,1,1,1,1,1,1,1,1,1,1,1,1,0,0,0,0,0,0,0,0,0,0,0,1,1,1,0,0,0,0,0,0,1,1,0,0,0]","door_history":"[0,0,1,1,1,1,1,1,1,1,1,1,1,1,1,1,1,1,0,0,0,0,0,0,0,0,0,0,0,1,1,1,0,0,0,0,0,0,1,1,0,0,0]","location_rts":"[1731,1183,1480,7134,505,343,512,605,365,314,380,558,371,763,325,403,341,407,220,375,316,323,332,348,316,334,381,272,19,976,398,369,569,386,282,311,314,323,263,237,236,584,366]","trial_type":"two-door-navigation","trial_index":11,"time_elapsed":263072,"internal_node_id":"0.0-2.0-9.0"},{"group":"square cycles (cube, non-group)","room_assignment":["purple","yellow","blue","green","red","grey","brown","pink"],"door_color_assignment":["white","black"],"door_generator_assignment":[0,1],"goal":3,"start":5,"action_noise":0.1,"location_history":"[5,1,2,6,7,3]","action_history":"[1,1,1,1,1]","door_history":"[1,1,1,1,1]","location_rts":"[4466,13219,423,297,311]","trial_type":"two-door-navigation","trial_index":12,"time_elapsed":290412,"internal_node_id":"0.0-2.0-10.0"},{"group":"square cycles (cube, non-group)","room_assignment":["purple","yellow","blue","green","red","grey","brown","pink"],"door_color_assignment":["white","black"],"door_generator_assignment":[0,1],"goal":6,"start":3,"action_noise":0.1,"location_history":"[3,0,4,7,6]","action_history":"[0,0,0,0]","door_history":"[0,0,0,0]","location_rts":"[5151,401,693,732]","trial_type":"two-door-navigation","trial_index":13,"time_elapsed":304956,"internal_node_id":"0.0-2.0-11.0"},{"group":"square cycles (cube, non-group)","room_assignment":["purple","yellow","blue","green","red","grey","brown","pink"],"door_color_assignment":["white","black"],"door_generator_assignment":[0,1],"goal":7,"start":6,"action_noise":0.1,"location_history":"[6,5,4,7]","action_history":"[0,0,0]","door_history":"[0,0,0]","location_rts":"[1866,1361,813]","trial_type":"two-door-navigation","trial_index":14,"time_elapsed":315556,"internal_node_id":"0.0-2.0-12.0"},{"group":"square cycles (cube, non-group)","room_assignment":["purple","yellow","blue","green","red","grey","brown","pink"],"door_color_assignment":["white","black"],"door_generator_assignment":[0,1],"goal":0,"start":7,"action_noise":0.1,"location_history":"[7,6,5,1,0]","action_history":"[0,0,0,1]","door_history":"[0,0,0,1]","location_rts":"[39811,876,612,650]","trial_type":"two-door-navigation","trial_index":15,"time_elapsed":365229,"internal_node_id":"0.0-2.0-13.0"},{"group":"square cycles (cube, non-group)","room_assignment":["purple","yellow","blue","green","red","grey","brown","pink"],"door_color_assignment":["white","black"],"door_generator_assignment":[0,1],"goal":2,"start":0,"action_noise":0.1,"location_history":"[0,4,7,6,5,4,7,3,2]","action_history":"[1,1,0,0,0,0,1,1]","door_history":"[1,1,0,0,0,0,1,1]","location_rts":"[4465,685,1289,648,617,937,1189,1719]","trial_type":"two-door-navigation","trial_index":16,"time_elapsed":388737,"internal_node_id":"0.0-2.0-14.0"},{"group":"square cycles (cube, non-group)","room_assignment":["purple","yellow","blue","green","red","grey","brown","pink"],"door_color_assignment":["white","black"],"door_generator_assignment":[0,1],"goal":1,"start":2,"action_noise":0.1,"location_history":"[2,3,0,1]","action_history":"[0,0,0]","door_history":"[0,0,0]","location_rts":"[45402,733,577]","trial_type":"two-door-navigation","trial_index":17,"time_elapsed":442110,"internal_node_id":"0.0-2.0-15.0"},{"group":"square cycles (cube, non-group)","room_assignment":["purple","yellow","blue","green","red","grey","brown","pink"],"door_color_assignment":["white","black"],"door_generator_assignment":[0,1],"goal":6,"start":1,"action_noise":0.1,"location_history":"[1,2,6]","action_history":"[0,1]","door_history":"[0,1]","location_rts":"[6304,1004]","trial_type":"two-door-navigation","trial_index":18,"time_elapsed":455033,"internal_node_id":"0.0-2.0-16.0"},{"group":"square cycles (cube, non-group)","room_assignment":["purple","yellow","blue","green","red","grey","brown","pink"],"door_color_assignment":["white","black"],"door_generator_assignment":[0,1],"goal":3,"start":6,"action_noise":0.1,"location_history":"[6,5,4,7,6,5,4,7,6,5,4,7,6,7,3]","action_history":"[0,0,0,0,0,0,0,0,0,0,0,0,1,1]","door_history":"[0,0,0,0,0,0,0,0,0,0,0,0,1,1]","location_rts":"[8122,3094,1440,1571,601,782,582,1160,3630,589,1662,709,891,572]","trial_type":"two-door-navigation","trial_index":19,"time_elapsed":498687,"internal_node_id":"0.0-2.0-17.0"},{"group":"square cycles (cube, non-group)","room_assignment":["purple","yellow","blue","green","red","grey","brown","pink"],"door_color_assignment":["white","black"],"door_generator_assignment":[0,1],"goal":4,"start":3,"action_noise":0.1,"location_history":"[3,0,1,2,3,2,6,7,6,7,3,0,1,2,3,0,1,0,4]","action_history":"[0,0,0,0,0,1,0,0,1,1,0,0,0,0,0,0,1,1]","door_history":"[0,0,0,0,0,1,0,0,1,1,0,0,0,0,0,0,1,1]","location_rts":"[1452,661,641,771,722,1067,800,473,1152,876,781,600,574,608,617,4811,997,500]","trial_type":"two-door-navigation","trial_index":20,"time_elapsed":539228,"internal_node_id":"0.0-2.0-18.0"},{"group":"square cycles (cube, non-group)","room_assignment":["purple","yellow","blue","green","red","grey","brown","pink"],"door_color_assignment":["white","black"],"door_generator_assignment":[0,1],"goal":5,"start":4,"action_noise":0.1,"location_history":"[4,7,6,5]","action_history":"[0,0,0]","door_history":"[0,0,0]","location_rts":"[32136,720,1050]","trial_type":"two-door-navigation","trial_index":21,"time_elapsed":579805,"internal_node_id":"0.0-2.0-19.0"},{"group":"square cycles (cube, non-group)","room_assignment":["purple","yellow","blue","green","red","grey","brown","pink"],"door_color_assignment":["white","black"],"door_generator_assignment":[0,1],"goal":7,"start":5,"action_noise":0.1,"location_history":"[5,1,0,4,7]","action_history":"[1,1,1,0]","door_history":"[1,1,1,0]","location_rts":"[3584,791,881,887]","trial_type":"two-door-navigation","trial_index":22,"time_elapsed":593683,"internal_node_id":"0.0-2.0-20.0"},{"group":"square cycles (cube, non-group)","room_assignment":["purple","yellow","blue","green","red","grey","brown","pink"],"door_color_assignment":["white","black"],"door_generator_assignment":[0,1],"goal":2,"start":7,"action_noise":0.1,"location_history":"[7,3,0,1,2]","action_history":"[0,0,0,0]","door_history":"[0,0,0,0]","location_rts":"[39513,1141,1293,674]","trial_type":"two-door-navigation","trial_index":23,"time_elapsed":644031,"internal_node_id":"0.0-2.0-21.0"},{"group":"square cycles (cube, non-group)","room_assignment":["purple","yellow","blue","green","red","grey","brown","pink"],"door_color_assignment":["white","black"],"door_generator_assignment":[0,1],"goal":0,"start":2,"action_noise":0.1,"location_history":"[2,3,0]","action_history":"[0,1]","door_history":"[0,1]","location_rts":"[33786,782]","trial_type":"two-door-navigation","trial_index":24,"time_elapsed":684228,"internal_node_id":"0.0-2.0-22.0"},{"group":"square cycles (cube, non-group)","room_assignment":["purple","yellow","blue","green","red","grey","brown","pink"],"door_color_assignment":["white","black"],"door_generator_assignment":[0,1],"goal":7,"start":0,"action_noise":0.1,"location_history":"[0,1,0,4,7]","action_history":"[0,1,1,0]","door_history":"[0,1,1,0]","location_rts":"[1737,1012,590,922]","trial_type":"two-door-navigation","trial_index":25,"time_elapsed":696234,"internal_node_id":"0.0-2.0-23.0"},{"group":"square cycles (cube, non-group)","room_assignment":["purple","yellow","blue","green","red","grey","brown","pink"],"door_color_assignment":["white","black"],"door_generator_assignment":[0,1],"goal":5,"start":7,"action_noise":0.1,"location_history":"[7,6,7,6,5]","action_history":"[0,0,0,0]","door_history":"[0,0,0,0]","location_rts":"[20057,14148,3098,5615]","trial_type":"two-door-navigation","trial_index":26,"time_elapsed":746855,"internal_node_id":"0.0-2.0-24.0"},{"group":"square cycles (cube, non-group)","room_assignment":["purple","yellow","blue","green","red","grey","brown","pink"],"door_color_assignment":["white","black"],"door_generator_assignment":[0,1],"goal":0,"start":5,"action_noise":0.1,"location_history":"[5,4,5,1,0]","action_history":"[0,1,0,0]","door_history":"[0,1,0,0]","location_rts":"[2116,1513,846,553]","trial_type":"two-door-navigation","trial_index":27,"time_elapsed":759614,"internal_node_id":"0.0-2.0-25.0"},{"group":"square cycles (cube, non-group)","room_assignment":["purple","yellow","blue","green","red","grey","brown","pink"],"door_color_assignment":["white","black"],"door_generator_assignment":[0,1],"goal":6,"start":0,"action_noise":0.1,"location_history":"[0,1,0,4,5,4,5,4,5,1,0,4,7,6]","action_history":"[0,1,1,1,0,1,1,1,1,1,1,0,0]","door_history":"[0,1,1,1,0,1,1,1,1,1,1,0,0]","location_rts":"[3913,1100,2314,706,609,621,760,811,741,866,977,728,2999]","trial_type":"two-door-navigation","trial_index":28,"time_elapsed":793868,"internal_node_id":"0.0-2.0-26.0"},{"group":"square cycles (cube, non-group)","room_assignment":["purple","yellow","blue","green","red","grey","brown","pink"],"door_color_assignment":["white","black"],"door_generator_assignment":[0,1],"goal":4,"start":6,"action_noise":0.1,"location_history":"[6,5,1,0,4]","action_history":"[0,1,1,1]","door_history":"[0,1,1,1]","location_rts":"[6911,703,629,609]","trial_type":"two-door-navigation","trial_index":29,"time_elapsed":810460,"internal_node_id":"0.0-2.0-27.0"},{"group":"square cycles (cube, non-group)","room_assignment":["purple","yellow","blue","green","red","grey","brown","pink"],"door_color_assignment":["white","black"],"door_generator_assignment":[0,1],"goal":2,"start":4,"action_noise":0.1,"location_history":"[4,7,3,2]","action_history":"[0,1,1]","door_history":"[0,1,1]","location_rts":"[17247,844,1121]","trial_type":"two-door-navigation","trial_index":30,"time_elapsed":836333,"internal_node_id":"0.0-2.0-28.0"},{"group":"square cycles (cube, non-group)","room_assignment":["purple","yellow","blue","green","red","grey","brown","pink"],"door_color_assignment":["white","black"],"door_generator_assignment":[0,1],"goal":3,"start":2,"action_noise":0.1,"location_history":"[2,3]","action_history":"[0]","door_history":"[0]","location_rts":"[8404]","trial_type":"two-door-navigation","trial_index":31,"time_elapsed":849264,"internal_node_id":"0.0-2.0-29.0"},{"group":"square cycles (cube, non-group)","room_assignment":["purple","yellow","blue","green","red","grey","brown","pink"],"door_color_assignment":["white","black"],"door_generator_assignment":[0,1],"goal":1,"start":3,"action_noise":0.1,"location_history":"[3,0,4,5,1]","action_history":"[0,1,1,1]","door_history":"[0,1,1,1]","location_rts":"[4066,1010,726,611]","trial_type":"two-door-navigation","trial_index":32,"time_elapsed":863259,"internal_node_id":"0.0-2.0-30.0"},{"group":"square cycles (cube, non-group)","room_assignment":["purple","yellow","blue","green","red","grey","brown","pink"],"door_color_assignment":["white","black"],"door_generator_assignment":[0,1],"goal":4,"start":1,"action_noise":0.1,"location_history":"[1,2,3,2,6,7,3,0,1,2,6,7,6,7,3,2,6,7,3,0,4]","action_history":"[0,1,1,1,1,1,0,0,0,1,1,1,1,1,1,1,1,1,1,1]","door_history":"[0,1,1,1,1,1,0,0,0,1,1,1,1,1,1,1,1,1,1,1]","location_rts":"[1702,587,641,619,1125,850,590,995,1869,862,894,797,2739,1270,741,5328,776,722,542,615]","trial_type":"two-door-navigation","trial_index":33,"time_elapsed":912022,"internal_node_id":"0.0-2.0-31.0"},{"group":"square cycles (cube, non-group)","room_assignment":["purple","yellow","blue","green","red","grey","brown","pink"],"door_color_assignment":["white","black"],"door_generator_assignment":[0,1],"goal":3,"start":4,"action_noise":0.1,"location_history":"[4,7,6,5,1,2,6,7,6,5,1,0,4,5,1,0,4,7,6,5,4,7,3]","action_history":"[0,0,0,1,1,1,1,1,1,1,1,1,1,1,1,1,0,0,0,0,0,0]","door_history":"[0,0,0,1,1,1,1,1,1,1,1,1,1,1,1,1,0,0,0,0,0,0]","location_rts":"[2081,784,588,901,530,573,1043,1277,830,1147,1324,1140,980,19736,792,872,865,2697,1229,98271,757,3034]","trial_type":"two-door-navigation","trial_index":34,"time_elapsed":1080123,"internal_node_id":"0.0-2.0-32.0"},{"group":"square cycles (cube, non-group)","room_assignment":["purple","yellow","blue","green","red","grey","brown","pink"],"door_color_assignment":["white","black"],"door_generator_assignment":[0,1],"goal":6,"start":3,"action_noise":0.1,"location_history":"[3,0,1,2,3,0,1,2,3,2,6]","action_history":"[0,0,0,0,0,0,0,0,1,1]","door_history":"[0,0,0,0,0,0,0,0,1,1]","location_rts":"[6475,980,641,3278,8469,812,5487,1175,21631,1258]","trial_type":"two-door-navigation","trial_index":35,"time_elapsed":1144369,"internal_node_id":"0.0-2.0-33.0"},{"group":"square cycles (cube, non-group)","room_assignment":["purple","yellow","blue","green","red","grey","brown","pink"],"door_color_assignment":["white","black"],"door_generator_assignment":[0,1],"goal":0,"start":6,"action_noise":0.1,"location_history":"[6,5,4,5,1,2,3,2,3,0]","action_history":"[0,0,0,0,0,0,0,0,0]","door_history":"[0,0,0,0,0,0,0,0,0]","location_rts":"[29259,3398,3441,1981,1130,8584,2106,2082,5755]","trial_type":"two-door-navigation","trial_index":36,"time_elapsed":1214914,"internal_node_id":"0.0-2.0-34.0"},{"group":"square cycles (cube, non-group)","room_assignment":["purple","yellow","blue","green","red","grey","brown","pink"],"door_color_assignment":["white","black"],"door_generator_assignment":[0,1],"goal":1,"start":0,"action_noise":0.1,"location_history":"[0,1]","action_history":"[0]","door_history":"[0]","location_rts":"[36179]","trial_type":"two-door-navigation","trial_index":37,"time_elapsed":1255655,"internal_node_id":"0.0-2.0-35.0"},{"group":"square cycles (cube, non-group)","room_assignment":["purple","yellow","blue","green","red","grey","brown","pink"],"door_color_assignment":["white","black"],"door_generator_assignment":[0,1],"goal":5,"start":1,"action_noise":0.1,"location_history":"[1,2,3,0,1,2,3,0,1,2,3,0,4,7,6,7,3,2,6,7,3,2,3,2,6,7,6,5]","action_history":"[0,0,0,0,0,0,0,0,0,0,0,0,0,0,0,1,1,1,1,1,1,1,1,1,1,0,0]","door_history":"[0,0,0,0,0,0,0,0,0,0,0,0,0,0,0,1,1,1,1,1,1,1,1,1,1,0,0]","location_rts":"[983,861,499,10196,743,909,1936,3940,3751,639,977,1795,706,762,1023,1085,680,681,2279,761,1192,968,747,2719,930,726,639]","trial_type":"two-door-navigation","trial_index":38,"time_elapsed":1330627,"internal_node_id":"0.0-2.0-36.0"},{"group":"square cycles (cube, non-group)","room_assignment":["purple","yellow","blue","green","red","grey","brown","pink"],"door_color_assignment":["white","black"],"door_generator_assignment":[0,1],"goal":7,"start":5,"action_noise":0.1,"location_history":"[5,1,0,4,7]","action_history":"[1,1,1,0]","door_history":"[1,1,1,0]","location_rts":"[2717,608,961,2673]","trial_type":"two-door-navigation","trial_index":39,"time_elapsed":1345172,"internal_node_id":"0.0-2.0-37.0"},{"group":"square cycles (cube, non-group)","room_assignment":["purple","yellow","blue","green","red","grey","brown","pink"],"door_color_assignment":["white","black"],"door_generator_assignment":[0,1],"goal":2,"start":7,"action_noise":0.1,"location_history":"[7,6,5,1,2]","action_history":"[0,0,0,0]","door_history":"[0,0,0,0]","location_rts":"[5443,901,600,692]","trial_type":"two-door-navigation","trial_index":40,"time_elapsed":1360546,"internal_node_id":"0.0-2.0-38.0"},{"group":"square cycles (cube, non-group)","room_assignment":["purple","yellow","blue","green","red","grey","brown","pink"],"door_color_assignment":["white","black"],"door_generator_assignment":[0,1],"goal":1,"start":2,"action_noise":0.1,"location_history":"[2,3,0,1]","action_history":"[0,0,0]","door_history":"[0,0,0]","location_rts":"[2173,1313,1187]","trial_type":"two-door-navigation","trial_index":41,"time_elapsed":1371885,"internal_node_id":"0.0-2.0-39.0"},{"group":"square cycles (cube, non-group)","room_assignment":["purple","yellow","blue","green","red","grey","brown","pink"],"door_color_assignment":["white","black"],"door_generator_assignment":[0,1],"goal":3,"start":1,"action_noise":0.1,"location_history":"[1,2,3]","action_history":"[0,0]","door_history":"[0,0]","location_rts":"[2949,2313]","trial_type":"two-door-navigation","trial_index":42,"time_elapsed":1382714,"internal_node_id":"0.0-2.0-40.0"},{"group":"square cycles (cube, non-group)","room_assignment":["purple","yellow","blue","green","red","grey","brown","pink"],"door_color_assignment":["white","black"],"door_generator_assignment":[0,1],"goal":4,"start":3,"action_noise":0.1,"location_history":"[3,0,1,2,3,2,6,7,3,0,1,2,3,0,4]","action_history":"[0,0,0,0,1,1,1,1,0,0,0,0,0,0]","door_history":"[0,0,0,0,1,1,1,1,0,0,0,0,0,0]","location_rts":"[9650,1666,2061,1118,796,1219,1240,875,828,2213,9081,713,2396,1116]","trial_type":"two-door-navigation","trial_index":43,"time_elapsed":1435675,"internal_node_id":"0.0-2.0-41.0"},{"group":"square cycles (cube, non-group)","room_assignment":["purple","yellow","blue","green","red","grey","brown","pink"],"door_color_assignment":["white","black"],"door_generator_assignment":[0,1],"goal":2,"start":4,"action_noise":0.1,"location_history":"[4,7,6,5,4,7,6,5,4,7,6,5,4,7,3,0,1,2]","action_history":"[0,0,0,0,0,0,0,0,0,0,0,0,0,0,0,0,0]","door_history":"[0,0,0,0,0,0,0,0,0,0,0,0,0,0,0,0,0]","location_rts":"[54220,1666,1318,3424,787,3815,3902,684,1954,3654,4164,32850,782,679,1415,1004,621]","trial_type":"two-door-navigation","trial_index":44,"time_elapsed":1574045,"internal_node_id":"0.0-2.0-42.0"},{"group":"square cycles (cube, non-group)","room_assignment":["purple","yellow","blue","green","red","grey","brown","pink"],"door_color_assignment":["white","black"],"door_generator_assignment":[0,1],"goal":5,"start":2,"action_noise":0.1,"location_history":"[2,3,0,1,2,6,7,3,2,3,0,1,2,3,0,1,2,6,7,3,2,6,7,3,2,3,2,6,7,3,2,6,7,3,0,4,5]","action_history":"[0,0,0,0,1,1,1,1,0,0,0,0,0,0,0,0,1,1,1,1,1,1,1,1,1,1,1,0,1,1,1,1,1,1,1,1]","door_history":"[0,0,0,0,1,1,1,1,0,0,0,0,0,0,0,0,1,1,1,1,1,1,1,1,1,1,1,0,1,1,1,1,1,1,1,1]","location_rts":"[21463,763,1546,3538,1459,861,726,2061,41019,654,1148,844,1191,669,4791,6570,1671,2275,764,3719,21477,987,7613,1065,714,3096,1739,29219,1032,820,677,4960,1446,13058,2701,3326]","trial_type":"two-door-navigation","trial_index":45,"time_elapsed":1807121,"internal_node_id":"0.0-2.0-43.0"},{"group":"square cycles (cube, non-group)","room_assignment":["purple","yellow","blue","green","red","grey","brown","pink"],"door_color_assignment":["white","black"],"door_generator_assignment":[0,1],"goal":0,"start":5,"action_noise":0.1,"location_history":"[5,4,7,6,5,4,7,6,5,4,7,6,5,4,7,6,5,4,7,6,5,4,7,3,0]","action_history":"[0,0,0,0,0,0,0,0,0,0,0,0,0,0,0,0,0,0,0,0,0,0,0,0]","door_history":"[0,0,0,0,0,0,0,0,0,0,0,0,0,0,0,0,0,0,0,0,0,0,0,0]","location_rts":"[35154,1524,1074,6839,662,1019,818,622,987,616,797,1121,950,1785,4437,613,1351,1385,683,2516,3020,3105,895,1773]","trial_type":"two-door-navigation","trial_index":46,"time_elapsed":1909644,"internal_node_id":"0.0-2.0-44.0"},{"group":"square cycles (cube, non-group)","room_assignment":["purple","yellow","blue","green","red","grey","brown","pink"],"door_color_assignment":["white","black"],"door_generator_assignment":[0,1],"goal":7,"start":0,"action_noise":0.1,"location_history":"[0,1,0,4,7]","action_history":"[0,1,1,0]","door_history":"[0,1,1,0]","location_rts":"[11408,2944,758,1338]","trial_type":"two-door-navigation","trial_index":47,"time_elapsed":1933809,"internal_node_id":"0.0-2.0-45.0"},{"group":"square cycles (cube, non-group)","room_assignment":["purple","yellow","blue","green","red","grey","brown","pink"],"door_color_assignment":["white","black"],"door_generator_assignment":[0,1],"goal":6,"start":7,"action_noise":0.1,"location_history":"[7,6]","action_history":"[0]","door_history":"[0]","location_rts":"[47400]","trial_type":"two-door-navigation","trial_index":48,"time_elapsed":1985774,"internal_node_id":"0.0-2.0-46.0"},{"group":"square cycles (cube, non-group)","room_assignment":["purple","yellow","blue","green","red","grey","brown","pink"],"door_color_assignment":["white","black"],"door_generator_assignment":[0,1],"goal":2,"start":6,"action_noise":0.1,"location_history":"[6,5,4,7,6,5,1,2]","action_history":"[0,0,0,0,0,0,0]","door_history":"[0,0,0,0,0,0,0]","location_rts":"[7922,2781,2326,983,2928,6669,5810]","trial_type":"two-door-navigation","trial_index":49,"time_elapsed":2026089,"internal_node_id":"0.0-2.0-47.0"},{"group":"square cycles (cube, non-group)","room_assignment":["purple","yellow","blue","green","red","grey","brown","pink"],"door_color_assignment":["white","black"],"door_generator_assignment":[0,1],"goal":5,"start":2,"action_noise":0.1,"location_history":"[2,6,7,6,5]","action_history":"[1,1,0,0]","door_history":"[1,1,0,0]","location_rts":"[28153,5869,3260,867]","trial_type":"two-door-navigation","trial_index":50,"time_elapsed":2071946,"internal_node_id":"0.0-2.0-48.0"},{"group":"square cycles (cube, non-group)","room_assignment":["purple","yellow","blue","green","red","grey","brown","pink"],"door_color_assignment":["white","black"],"door_generator_assignment":[0,1],"goal":3,"start":5,"action_noise":0.1,"location_history":"[5,4,7,3]","action_history":"[0,0,0]","door_history":"[0,0,0]","location_rts":"[2699,1331,1436]","trial_type":"two-door-navigation","trial_index":51,"time_elapsed":2084068,"internal_node_id":"0.0-2.0-49.0"},{"view_history":"[{\"page_index\":0,\"viewing_time\":12160}]","rt":12161,"trial_type":"instructions","trial_index":52,"time_elapsed":2097234,"internal_node_id":"0.0-3.0"},{"view_history":"[{\"page_index\":0,\"viewing_time\":13220},{\"page_index\":1,\"viewing_time\":1361}]","rt":14582,"trial_type":"instructions","trial_index":53,"time_elapsed":2112822,"internal_node_id":"0.0-4.0"},{"group":"tri cycles (cube, non-group)","fractal_assignment":["../images/grn_red.png","../images/blu_wht.png","../images/org_blu.png","../images/ylw_slt.png","../images/pnk_blu.png","../images/gry_blk.png","../images/cyn_red.png","../images/ylw_pnk.png"],"mutagen_generator_assignment":[0,1],"goal":5,"start":7,"action_noise":0.1,"location_history":"[7,6,5]","action_history":"[0,1]","mutagen_history":"[0,1]","location_rts":"[18398,10358]","trial_type":"fractal-mutation","trial_index":54,"time_elapsed":2147304,"internal_node_id":"0.0-5.0-0.0"},{"group":"tri cycles (cube, non-group)","fractal_assignment":["../images/grn_red.png","../images/blu_wht.png","../images/org_blu.png","../images/ylw_slt.png","../images/pnk_blu.png","../images/gry_blk.png","../images/cyn_red.png","../images/ylw_pnk.png"],"mutagen_generator_assignment":[0,1],"goal":2,"start":5,"action_noise":0.1,"location_history":"[5,1,0,2]","action_history":"[0,0,0]","mutagen_history":"[0,0,0]","location_rts":"[770,570,4250]","trial_type":"fractal-mutation","trial_index":55,"time_elapsed":2159689,"internal_node_id":"0.0-5.0-1.0"},{"group":"tri cycles (cube, non-group)","fractal_assignment":["../images/grn_red.png","../images/blu_wht.png","../images/org_blu.png","../images/ylw_slt.png","../images/pnk_blu.png","../images/gry_blk.png","../images/cyn_red.png","../images/ylw_pnk.png"],"mutagen_generator_assignment":[0,1],"goal":0,"start":2,"action_noise":0.1,"location_history":"[2,6,4,7,3,4,7,6,4,7,6,4,0]","action_history":"[0,0,0,1,1,0,0,0,0,0,0,1]","mutagen_history":"[0,0,0,1,1,0,0,0,0,0,0,1]","location_rts":"[9365,674,1645,2686,6139,435,1639,3742,4960,491,3414,294]","trial_type":"fractal-mutation","trial_index":56,"time_elapsed":2211749,"internal_node_id":"0.0-5.0-2.0"},{"group":"tri cycles (cube, non-group)","fractal_assignment":["../images/grn_red.png","../images/blu_wht.png","../images/org_blu.png","../images/ylw_slt.png","../images/pnk_blu.png","../images/gry_blk.png","../images/cyn_red.png","../images/ylw_pnk.png"],"mutagen_generator_assignment":[0,1],"goal":1,"start":0,"action_noise":0.1,"location_history":"[0,2,1]","action_history":"[0,0]","mutagen_history":"[0,0]","location_rts":"[9890,525]","trial_type":"fractal-mutation","trial_index":57,"time_elapsed":2227833,"internal_node_id":"0.0-5.0-3.0"},{"group":"tri cycles (cube, non-group)","fractal_assignment":["../images/grn_red.png","../images/blu_wht.png","../images/org_blu.png","../images/ylw_slt.png","../images/pnk_blu.png","../images/gry_blk.png","../images/cyn_red.png","../images/ylw_pnk.png"],"mutagen_generator_assignment":[0,1],"goal":6,"start":1,"action_noise":0.1,"location_history":"[1,0,2,6]","action_history":"[0,0,1]","mutagen_history":"[0,0,1]","location_rts":"[2048,540,5676]","trial_type":"fractal-mutation","trial_index":58,"time_elapsed":2242856,"internal_node_id":"0.0-5.0-4.0"},{"group":"tri cycles (cube, non-group)","fractal_assignment":["../images/grn_red.png","../images/blu_wht.png","../images/org_blu.png","../images/ylw_slt.png","../images/pnk_blu.png","../images/gry_blk.png","../images/cyn_red.png","../images/ylw_pnk.png"],"mutagen_generator_assignment":[0,1],"goal":3,"start":6,"action_noise":0.1,"location_history":"[6,4,7,6,4,7,3]","action_history":"[0,0,0,0,0,1]","mutagen_history":"[0,0,0,0,0,1]","location_rts":"[1652,5140,519,1634,896,758]","trial_type":"fractal-mutation","trial_index":59,"time_elapsed":2263461,"internal_node_id":"0.0-5.0-5.0"},{"group":"tri cycles (cube, non-group)","fractal_assignment":["../images/grn_red.png","../images/blu_wht.png","../images/org_blu.png","../images/ylw_slt.png","../images/pnk_blu.png","../images/gry_blk.png","../images/cyn_red.png","../images/ylw_pnk.png"],"mutagen_generator_assignment":[0,1],"goal":4,"start":3,"action_noise":0.1,"location_history":"[3,7,6,4]","action_history":"[0,0,0]","mutagen_history":"[0,0,0]","location_rts":"[2015,437,663]","trial_type":"fractal-mutation","trial_index":60,"time_elapsed":2273335,"internal_node_id":"0.0-5.0-6.0"},{"group":"tri cycles (cube, non-group)","fractal_assignment":["../images/grn_red.png","../images/blu_wht.png","../images/org_blu.png","../images/ylw_slt.png","../images/pnk_blu.png","../images/gry_blk.png","../images/cyn_red.png","../images/ylw_pnk.png"],"mutagen_generator_assignment":[0,1],"goal":1,"start":4,"action_noise":0.1,"location_history":"[4,7,3,7,3,4,0,3,7,6,4,7,3,4,0,3,7,6,4,7,3,7,6,4,7,6,5,2,6,5,1]","action_history":"[0,0,0,1,1,1,1,0,0,0,0,1,1,1,0,0,0,0,0,0,0,0,0,0,0,1,1,1,1,0]","mutagen_history":"[0,0,0,1,1,1,1,0,0,0,0,1,1,1,0,0,0,0,0,0,0,0,0,0,0,1,1,1,1,0]","location_rts":"[6018,9631,848,1717,458,1121,482,504,340,328,529,388,501,515,1717,1117,682,810,5307,691,4683,1766,4656,884,708,1422,6410,596,546,579]","trial_type":"fractal-mutation","trial_index":61,"time_elapsed":2365467,"internal_node_id":"0.0-5.0-7.0"},{"group":"tri cycles (cube, non-group)","fractal_assignment":["../images/grn_red.png","../images/blu_wht.png","../images/org_blu.png","../images/ylw_slt.png","../images/pnk_blu.png","../images/gry_blk.png","../images/cyn_red.png","../images/ylw_pnk.png"],"mutagen_generator_assignment":[0,1],"goal":4,"start":1,"action_noise":0.1,"location_history":"[1,0,2,1,0,2,1,5,2,1,0,2,1,0,3,4]","action_history":"[0,0,0,0,0,1,1,1,0,0,0,0,0,1,1]","mutagen_history":"[0,0,0,0,0,1,1,1,0,0,0,0,0,1,1]","location_rts":"[5034,11775,504,521,3799,2071,391,566,1035,1777,395,423,551,1517,1220]","trial_type":"fractal-mutation","trial_index":62,"time_elapsed":2416891,"internal_node_id":"0.0-5.0-8.0"},{"group":"tri cycles (cube, non-group)","fractal_assignment":["../images/grn_red.png","../images/blu_wht.png","../images/org_blu.png","../images/ylw_slt.png","../images/pnk_blu.png","../images/gry_blk.png","../images/cyn_red.png","../images/ylw_pnk.png"],"mutagen_generator_assignment":[0,1],"goal":5,"start":4,"action_noise":0.1,"location_history":"[4,7,6,4,7,6,5]","action_history":"[0,0,0,0,0,1]","mutagen_history":"[0,0,0,0,0,1]","location_rts":"[9195,385,423,408,738,1277]","trial_type":"fractal-mutation","trial_index":63,"time_elapsed":2439319,"internal_node_id":"0.0-5.0-9.0"},{"group":"tri cycles (cube, non-group)","fractal_assignment":["../images/grn_red.png","../images/blu_wht.png","../images/org_blu.png","../images/ylw_slt.png","../images/pnk_blu.png","../images/gry_blk.png","../images/cyn_red.png","../images/ylw_pnk.png"],"mutagen_generator_assignment":[0,1],"goal":3,"start":5,"action_noise":0.1,"location_history":"[5,1,0,2,6,5,2,1,0,2,6,5,1,5,1,0,2,1,5,1,0,2,6,4,7,6,4,7,3]","action_history":"[0,0,0,1,1,1,0,0,0,1,1,1,1,0,0,0,0,1,0,0,0,1,0,0,0,0,0,1]","mutagen_history":"[0,0,0,1,1,1,0,0,0,1,1,1,1,0,0,0,0,1,0,0,0,1,0,0,0,0,0,1]","location_rts":"[57056,3134,708,1201,783,912,685,406,365,1137,430,431,312,1058,1018,335,540,2014,2334,1472,507,2675,1555,1037,3094,427,468,957]","trial_type":"fractal-mutation","trial_index":64,"time_elapsed":2560224,"internal_node_id":"0.0-5.0-10.0"},{"group":"tri cycles (cube, non-group)","fractal_assignment":["../images/grn_red.png","../images/blu_wht.png","../images/org_blu.png","../images/ylw_slt.png","../images/pnk_blu.png","../images/gry_blk.png","../images/cyn_red.png","../images/ylw_pnk.png"],"mutagen_generator_assignment":[0,1],"goal":6,"start":3,"action_noise":0.1,"location_history":"[3,7,6]","action_history":"[0,0]","mutagen_history":"[0,0]","location_rts":"[1834,411]","trial_type":"fractal-mutation","trial_index":65,"time_elapsed":2568135,"internal_node_id":"0.0-5.0-11.0"},{"group":"tri cycles (cube, non-group)","fractal_assignment":["../images/grn_red.png","../images/blu_wht.png","../images/org_blu.png","../images/ylw_slt.png","../images/pnk_blu.png","../images/gry_blk.png","../images/cyn_red.png","../images/ylw_pnk.png"],"mutagen_generator_assignment":[0,1],"goal":7,"start":6,"action_noise":0.1,"location_history":"[6,4,7]","action_history":"[0,0]","mutagen_history":"[0,0]","location_rts":"[8528,993]","trial_type":"fractal-mutation","trial_index":66,"time_elapsed":2583288,"internal_node_id":"0.0-5.0-12.0"},{"group":"tri cycles (cube, non-group)","fractal_assignment":["../images/grn_red.png","../images/blu_wht.png","../images/org_blu.png","../images/ylw_slt.png","../images/pnk_blu.png","../images/gry_blk.png","../images/cyn_red.png","../images/ylw_pnk.png"],"mutagen_generator_assignment":[0,1],"goal":0,"start":7,"action_noise":0.1,"location_history":"[7,6,4,0]","action_history":"[0,0,1]","mutagen_history":"[0,0,1]","location_rts":"[16642,731,947]","trial_type":"fractal-mutation","trial_index":67,"time_elapsed":2608384,"internal_node_id":"0.0-5.0-13.0"},{"group":"tri cycles (cube, non-group)","fractal_assignment":["../images/grn_red.png","../images/blu_wht.png","../images/org_blu.png","../images/ylw_slt.png","../images/pnk_blu.png","../images/gry_blk.png","../images/cyn_red.png","../images/ylw_pnk.png"],"mutagen_generator_assignment":[0,1],"goal":2,"start":0,"action_noise":0.1,"location_history":"[0,2]","action_history":"[0]","mutagen_history":"[0]","location_rts":"[4764]","trial_type":"fractal-mutation","trial_index":68,"time_elapsed":2617745,"internal_node_id":"0.0-5.0-14.0"},{"group":"tri cycles (cube, non-group)","fractal_assignment":["../images/grn_red.png","../images/blu_wht.png","../images/org_blu.png","../images/ylw_slt.png","../images/pnk_blu.png","../images/gry_blk.png","../images/cyn_red.png","../images/ylw_pnk.png"],"mutagen_generator_assignment":[0,1],"goal":1,"start":2,"action_noise":0.1,"location_history":"[2,1]","action_history":"[0]","mutagen_history":"[0]","location_rts":"[14315]","trial_type":"fractal-mutation","trial_index":69,"time_elapsed":2636621,"internal_node_id":"0.0-5.0-15.0"},{"group":"tri cycles (cube, non-group)","fractal_assignment":["../images/grn_red.png","../images/blu_wht.png","../images/org_blu.png","../images/ylw_slt.png","../images/pnk_blu.png","../images/gry_blk.png","../images/cyn_red.png","../images/ylw_pnk.png"],"mutagen_generator_assignment":[0,1],"goal":6,"start":1,"action_noise":0.1,"location_history":"[1,0,3,7,3,4,7,6]","action_history":"[0,1,1,1,0,0,0]","mutagen_history":"[0,1,1,1,0,0,0]","location_rts":"[6755,3267,2782,817,5328,617,3178]","trial_type":"fractal-mutation","trial_index":70,"time_elapsed":2670452,"internal_node_id":"0.0-5.0-16.0"},{"group":"tri cycles (cube, non-group)","fractal_assignment":["../images/grn_red.png","../images/blu_wht.png","../images/org_blu.png","../images/ylw_slt.png","../images/pnk_blu.png","../images/gry_blk.png","../images/cyn_red.png","../images/ylw_pnk.png"],"mutagen_generator_assignment":[0,1],"goal":3,"start":6,"action_noise":0.1,"location_history":"[6,4,0,2,1,0,3]","action_history":"[0,1,0,0,0,1]","mutagen_history":"[0,1,0,0,0,1]","location_rts":"[4055,1168,1149,520,1007,1014]","trial_type":"fractal-mutation","trial_index":71,"time_elapsed":2689425,"internal_node_id":"0.0-5.0-17.0"},{"group":"tri cycles (cube, non-group)","fractal_assignment":["../images/grn_red.png","../images/blu_wht.png","../images/org_blu.png","../images/ylw_slt.png","../images/pnk_blu.png","../images/gry_blk.png","../images/cyn_red.png","../images/ylw_pnk.png"],"mutagen_generator_assignment":[0,1],"goal":4,"start":3,"action_noise":0.1,"location_history":"[3,7,6,4]","action_history":"[0,0,0]","mutagen_history":"[0,0,0]","location_rts":"[13386,669,708]","trial_type":"fractal-mutation","trial_index":72,"time_elapsed":2710939,"internal_node_id":"0.0-5.0-18.0"},{"group":"tri cycles (cube, non-group)","fractal_assignment":["../images/grn_red.png","../images/blu_wht.png","../images/org_blu.png","../images/ylw_slt.png","../images/pnk_blu.png","../images/gry_blk.png","../images/cyn_red.png","../images/ylw_pnk.png"],"mutagen_generator_assignment":[0,1],"goal":5,"start":4,"action_noise":0.1,"location_history":"[4,7,6,4,7,6,5]","action_history":"[0,1,0,0,0,1]","mutagen_history":"[0,1,0,0,0,1]","location_rts":"[10255,830,1114,558,402,1059]","trial_type":"fractal-mutation","trial_index":73,"time_elapsed":2735197,"internal_node_id":"0.0-5.0-19.0"},{"group":"tri cycles (cube, non-group)","fractal_assignment":["../images/grn_red.png","../images/blu_wht.png","../images/org_blu.png","../images/ylw_slt.png","../images/pnk_blu.png","../images/gry_blk.png","../images/cyn_red.png","../images/ylw_pnk.png"],"mutagen_generator_assignment":[0,1],"goal":7,"start":5,"action_noise":0.1,"location_history":"[5,1,0,2,6,5,2,1,5,1,0,3,7]","action_history":"[0,0,0,1,1,1,0,1,0,0,0,0]","mutagen_history":"[0,0,0,1,1,1,0,1,0,0,0,0]","location_rts":"[2214,539,885,2318,509,700,961,2009,1019,1082,459,56396]","trial_type":"fractal-mutation","trial_index":74,"time_elapsed":2820757,"internal_node_id":"0.0-5.0-20.0"},{"group":"tri cycles (cube, non-group)","fractal_assignment":["../images/grn_red.png","../images/blu_wht.png","../images/org_blu.png","../images/ylw_slt.png","../images/pnk_blu.png","../images/gry_blk.png","../images/cyn_red.png","../images/ylw_pnk.png"],"mutagen_generator_assignment":[0,1],"goal":2,"start":7,"action_noise":0.1,"location_history":"[7,6,5,2]","action_history":"[0,1,1]","mutagen_history":"[0,1,1]","location_rts":"[2253,840,364]","trial_type":"fractal-mutation","trial_index":75,"time_elapsed":2831005,"internal_node_id":"0.0-5.0-21.0"},{"group":"tri cycles (cube, non-group)","fractal_assignment":["../images/grn_red.png","../images/blu_wht.png","../images/org_blu.png","../images/ylw_slt.png","../images/pnk_blu.png","../images/gry_blk.png","../images/cyn_red.png","../images/ylw_pnk.png"],"mutagen_generator_assignment":[0,1],"goal":0,"start":2,"action_noise":0.1,"location_history":"[2,1,0]","action_history":"[0,0]","mutagen_history":"[0,0]","location_rts":"[2894,438]","trial_type":"fractal-mutation","trial_index":76,"time_elapsed":2840004,"internal_node_id":"0.0-5.0-22.0"},{"group":"tri cycles (cube, non-group)","fractal_assignment":["../images/grn_red.png","../images/blu_wht.png","../images/org_blu.png","../images/ylw_slt.png","../images/pnk_blu.png","../images/gry_blk.png","../images/cyn_red.png","../images/ylw_pnk.png"],"mutagen_generator_assignment":[0,1],"goal":7,"start":0,"action_noise":0.1,"location_history":"[0,3,7]","action_history":"[0,0]","mutagen_history":"[0,0]","location_rts":"[5100,471]","trial_type":"fractal-mutation","trial_index":77,"time_elapsed":2851240,"internal_node_id":"0.0-5.0-23.0"},{"group":"tri cycles (cube, non-group)","fractal_assignment":["../images/grn_red.png","../images/blu_wht.png","../images/org_blu.png","../images/ylw_slt.png","../images/pnk_blu.png","../images/gry_blk.png","../images/cyn_red.png","../images/ylw_pnk.png"],"mutagen_generator_assignment":[0,1],"goal":5,"start":7,"action_noise":0.1,"location_history":"[7,3,4,7,3,4,0,3,7,6,4,7,6,4,7,6,5]","action_history":"[0,1,0,1,1,1,1,0,0,0,0,0,0,0,0,1]","mutagen_history":"[0,1,0,1,1,1,1,0,0,0,0,0,0,0,0,1]","location_rts":"[3474,892,2311,3116,2929,406,464,1849,441,991,530,323,1281,1509,2589,880]","trial_type":"fractal-mutation","trial_index":78,"time_elapsed":2896070,"internal_node_id":"0.0-5.0-24.0"},{"group":"tri cycles (cube, non-group)","fractal_assignment":["../images/grn_red.png","../images/blu_wht.png","../images/org_blu.png","../images/ylw_slt.png","../images/pnk_blu.png","../images/gry_blk.png","../images/cyn_red.png","../images/ylw_pnk.png"],"mutagen_generator_assignment":[0,1],"goal":0,"start":5,"action_noise":0.1,"location_history":"[5,1,5,1,5,1,0]","action_history":"[0,0,0,1,1,0]","mutagen_history":"[0,0,0,1,1,0]","location_rts":"[4797,471,1046,697,1441,983]","trial_type":"fractal-mutation","trial_index":79,"time_elapsed":2915494,"internal_node_id":"0.0-5.0-25.0"},{"group":"tri cycles (cube, non-group)","fractal_assignment":["../images/grn_red.png","../images/blu_wht.png","../images/org_blu.png","../images/ylw_slt.png","../images/pnk_blu.png","../images/gry_blk.png","../images/cyn_red.png","../images/ylw_pnk.png"],"mutagen_generator_assignment":[0,1],"goal":6,"start":0,"action_noise":0.1,"location_history":"[0,2,1,0,3,4,0,3,7,6]","action_history":"[0,0,0,0,1,1,1,0,0]","mutagen_history":"[0,0,0,0,1,1,1,0,0]","location_rts":"[1078,2702,7009,4757,1252,853,577,2092,5549]","trial_type":"fractal-mutation","trial_index":80,"time_elapsed":2954647,"internal_node_id":"0.0-5.0-26.0"},{"group":"tri cycles (cube, non-group)","fractal_assignment":["../images/grn_red.png","../images/blu_wht.png","../images/org_blu.png","../images/ylw_slt.png","../images/pnk_blu.png","../images/gry_blk.png","../images/cyn_red.png","../images/ylw_pnk.png"],"mutagen_generator_assignment":[0,1],"goal":4,"start":6,"action_noise":0.1,"location_history":"[6,4]","action_history":"[0]","mutagen_history":"[0]","location_rts":"[954]","trial_type":"fractal-mutation","trial_index":81,"time_elapsed":2960187,"internal_node_id":"0.0-5.0-27.0"},{"group":"tri cycles (cube, non-group)","fractal_assignment":["../images/grn_red.png","../images/blu_wht.png","../images/org_blu.png","../images/ylw_slt.png","../images/pnk_blu.png","../images/gry_blk.png","../images/cyn_red.png","../images/ylw_pnk.png"],"mutagen_generator_assignment":[0,1],"goal":2,"start":4,"action_noise":0.1,"location_history":"[4,7,3,4,0,3,7,6,4,7,3,4,0,3,4,7,3,7,3,4,0,3,7,3,7,3,4,0,2]","action_history":"[0,1,1,1,1,0,0,0,0,0,1,1,1,0,0,1,0,1,1,1,1,0,0,0,1,1,1,0]","mutagen_history":"[0,1,1,1,1,0,0,0,0,0,1,1,1,0,0,1,0,1,1,1,1,0,0,0,1,1,1,0]","location_rts":"[4937,2690,4118,339,929,503,4722,473,830,87778,1226,542,814,1359,2079,1738,19534,2193,1168,488,606,781,632,781,1277,488,1761,688]","trial_type":"fractal-mutation","trial_index":82,"time_elapsed":3139629,"internal_node_id":"0.0-5.0-28.0"},{"group":"tri cycles (cube, non-group)","fractal_assignment":["../images/grn_red.png","../images/blu_wht.png","../images/org_blu.png","../images/ylw_slt.png","../images/pnk_blu.png","../images/gry_blk.png","../images/cyn_red.png","../images/ylw_pnk.png"],"mutagen_generator_assignment":[0,1],"goal":3,"start":2,"action_noise":0.1,"location_history":"[2,1,0,3]","action_history":"[0,0,1]","mutagen_history":"[0,0,1]","location_rts":"[699,2285,1090]","trial_type":"fractal-mutation","trial_index":83,"time_elapsed":3150473,"internal_node_id":"0.0-5.0-29.0"},{"group":"tri cycles (cube, non-group)","fractal_assignment":["../images/grn_red.png","../images/blu_wht.png","../images/org_blu.png","../images/ylw_slt.png","../images/pnk_blu.png","../images/gry_blk.png","../images/cyn_red.png","../images/ylw_pnk.png"],"mutagen_generator_assignment":[0,1],"goal":1,"start":3,"action_noise":0.1,"location_history":"[3,7,6,4,0,3,4,7,6,5,1]","action_history":"[0,0,0,1,1,1,0,0,0,1]","mutagen_history":"[0,0,0,1,1,1,0,0,0,1]","location_rts":"[1459,361,1295,810,318,1133,1149,1178,596,713]","trial_type":"fractal-mutation","trial_index":84,"time_elapsed":3173838,"internal_node_id":"0.0-5.0-30.0"},{"group":"tri cycles (cube, non-group)","fractal_assignment":["../images/grn_red.png","../images/blu_wht.png","../images/org_blu.png","../images/ylw_slt.png","../images/pnk_blu.png","../images/gry_blk.png","../images/cyn_red.png","../images/ylw_pnk.png"],"mutagen_generator_assignment":[0,1],"goal":4,"start":1,"action_noise":0.1,"location_history":"[1,0,2,6,5,1,5,1,5,2,6,4]","action_history":"[0,0,1,1,0,0,0,1,1,1,0]","mutagen_history":"[0,0,1,1,0,0,0,1,1,1,0]","location_rts":"[1942,426,1392,429,936,517,434,807,500,448,1118]","trial_type":"fractal-mutation","trial_index":85,"time_elapsed":3198049,"internal_node_id":"0.0-5.0-31.0"},{"group":"tri cycles (cube, non-group)","fractal_assignment":["../images/grn_red.png","../images/blu_wht.png","../images/org_blu.png","../images/ylw_slt.png","../images/pnk_blu.png","../images/gry_blk.png","../images/cyn_red.png","../images/ylw_pnk.png"],"mutagen_generator_assignment":[0,1],"goal":3,"start":4,"action_noise":0.1,"location_history":"[4,7,3]","action_history":"[0,1]","mutagen_history":"[0,1]","location_rts":"[113486,1077]","trial_type":"fractal-mutation","trial_index":86,"time_elapsed":3318338,"internal_node_id":"0.0-5.0-32.0"},{"group":"tri cycles (cube, non-group)","fractal_assignment":["../images/grn_red.png","../images/blu_wht.png","../images/org_blu.png","../images/ylw_slt.png","../images/pnk_blu.png","../images/gry_blk.png","../images/cyn_red.png","../images/ylw_pnk.png"],"mutagen_generator_assignment":[0,1],"goal":6,"start":3,"action_noise":0.1,"location_history":"[3,7,6]","action_history":"[0,0]","mutagen_history":"[0,0]","location_rts":"[1157,797]","trial_type":"fractal-mutation","trial_index":87,"time_elapsed":3325986,"internal_node_id":"0.0-5.0-33.0"},{"group":"tri cycles (cube, non-group)","fractal_assignment":["../images/grn_red.png","../images/blu_wht.png","../images/org_blu.png","../images/ylw_slt.png","../images/pnk_blu.png","../images/gry_blk.png","../images/cyn_red.png","../images/ylw_pnk.png"],"mutagen_generator_assignment":[0,1],"goal":0,"start":6,"action_noise":0.1,"location_history":"[6,4,7,6,5,2,6,4,7,6,4,7,6,5,1,5,1,0]","action_history":"[0,0,0,1,1,1,0,0,0,0,0,0,1,1,1,1,0]","mutagen_history":"[0,0,0,1,1,1,0,0,0,0,0,0,1,1,1,1,0]","location_rts":"[2926,615,5324,980,727,856,757,436,1511,1266,3559,649,868,802,608,692,874]","trial_type":"fractal-mutation","trial_index":88,"time_elapsed":3371286,"internal_node_id":"0.0-5.0-34.0"},{"group":"tri cycles (cube, non-group)","fractal_assignment":["../images/grn_red.png","../images/blu_wht.png","../images/org_blu.png","../images/ylw_slt.png","../images/pnk_blu.png","../images/gry_blk.png","../images/cyn_red.png","../images/ylw_pnk.png"],"mutagen_generator_assignment":[0,1],"goal":1,"start":0,"action_noise":0.1,"location_history":"[0,2,1]","action_history":"[0,0]","mutagen_history":"[0,0]","location_rts":"[1073,6920]","trial_type":"fractal-mutation","trial_index":89,"time_elapsed":3384889,"internal_node_id":"0.0-5.0-35.0"},{"group":"tri cycles (cube, non-group)","fractal_assignment":["../images/grn_red.png","../images/blu_wht.png","../images/org_blu.png","../images/ylw_slt.png","../images/pnk_blu.png","../images/gry_blk.png","../images/cyn_red.png","../images/ylw_pnk.png"],"mutagen_generator_assignment":[0,1],"goal":5,"start":1,"action_noise":0.1,"location_history":"[1,0,2,6,5]","action_history":"[0,0,0,1]","mutagen_history":"[0,0,0,1]","location_rts":"[3009,565,1757,883]","trial_type":"fractal-mutation","trial_index":90,"time_elapsed":3398906,"internal_node_id":"0.0-5.0-36.0"},{"group":"tri cycles (cube, non-group)","fractal_assignment":["../images/grn_red.png","../images/blu_wht.png","../images/org_blu.png","../images/ylw_slt.png","../images/pnk_blu.png","../images/gry_blk.png","../images/cyn_red.png","../images/ylw_pnk.png"],"mutagen_generator_assignment":[0,1],"goal":7,"start":5,"action_noise":0.1,"location_history":"[5,1,0,2,1,0,3,4,0,2,1,0,3,4,0,3,7]","action_history":"[0,0,0,0,0,1,1,1,0,0,0,1,1,1,1,0]","mutagen_history":"[0,0,0,0,0,1,1,1,0,0,0,1,1,1,1,0]","location_rts":"[12659,554,1014,500,455,1378,2770,1162,1362,4245,645,1127,574,374,1265,1695]","trial_type":"fractal-mutation","trial_index":91,"time_elapsed":3451534,"internal_node_id":"0.0-5.0-37.0"},{"group":"tri cycles (cube, non-group)","fractal_assignment":["../images/grn_red.png","../images/blu_wht.png","../images/org_blu.png","../images/ylw_slt.png","../images/pnk_blu.png","../images/gry_blk.png","../images/cyn_red.png","../images/ylw_pnk.png"],"mutagen_generator_assignment":[0,1],"goal":2,"start":7,"action_noise":0.1,"location_history":"[7,6,5,2]","action_history":"[0,0,1]","mutagen_history":"[0,0,1]","location_rts":"[788,1706,1631]","trial_type":"fractal-mutation","trial_index":92,"time_elapsed":3462324,"internal_node_id":"0.0-5.0-38.0"},{"group":"tri cycles (cube, non-group)","fractal_assignment":["../images/grn_red.png","../images/blu_wht.png","../images/org_blu.png","../images/ylw_slt.png","../images/pnk_blu.png","../images/gry_blk.png","../images/cyn_red.png","../images/ylw_pnk.png"],"mutagen_generator_assignment":[0,1],"goal":1,"start":2,"action_noise":0.1,"location_history":"[2,6,4,7,6,4,7,3,4,7,6,5,2,6,5,2,1]","action_history":"[0,0,0,0,1,1,1,1,0,0,1,1,1,1,1,0]","mutagen_history":"[0,0,0,0,1,1,1,1,0,0,1,1,1,1,1,0]","location_rts":"[9538,583,420,547,1073,1856,458,1441,1338,921,1249,3722,459,830,5108,1621]","trial_type":"fractal-mutation","trial_index":93,"time_elapsed":3514197,"internal_node_id":"0.0-5.0-39.0"},{"group":"tri cycles (cube, non-group)","fractal_assignment":["../images/grn_red.png","../images/blu_wht.png","../images/org_blu.png","../images/ylw_slt.png","../images/pnk_blu.png","../images/gry_blk.png","../images/cyn_red.png","../images/ylw_pnk.png"],"mutagen_generator_assignment":[0,1],"goal":3,"start":1,"action_noise":0.1,"location_history":"[1,5,1,5,2,6,4,0,2,6,4,0,3]","action_history":"[0,0,1,1,1,0,0,0,0,0,1,1]","mutagen_history":"[0,0,1,1,1,0,0,0,0,0,1,1]","location_rts":"[2114,477,1302,1293,1325,1168,6012,887,12237,628,1168,855]","trial_type":"fractal-mutation","trial_index":94,"time_elapsed":3559995,"internal_node_id":"0.0-5.0-40.0"},{"group":"tri cycles (cube, non-group)","fractal_assignment":["../images/grn_red.png","../images/blu_wht.png","../images/org_blu.png","../images/ylw_slt.png","../images/pnk_blu.png","../images/gry_blk.png","../images/cyn_red.png","../images/ylw_pnk.png"],"mutagen_generator_assignment":[0,1],"goal":4,"start":3,"action_noise":0.1,"location_history":"[3,7,6,4]","action_history":"[0,0,0]","mutagen_history":"[0,0,0]","location_rts":"[6993,392,421]","trial_type":"fractal-mutation","trial_index":95,"time_elapsed":3574574,"internal_node_id":"0.0-5.0-41.0"},{"group":"tri cycles (cube, non-group)","fractal_assignment":["../images/grn_red.png","../images/blu_wht.png","../images/org_blu.png","../images/ylw_slt.png","../images/pnk_blu.png","../images/gry_blk.png","../images/cyn_red.png","../images/ylw_pnk.png"],"mutagen_generator_assignment":[0,1],"goal":2,"start":4,"action_noise":0.1,"location_history":"[4,7,3,4,0,2]","action_history":"[0,1,1,1,0]","mutagen_history":"[0,1,1,1,0]","location_rts":"[4475,3184,968,799,1111]","trial_type":"fractal-mutation","trial_index":96,"time_elapsed":3594060,"internal_node_id":"0.0-5.0-42.0"},{"group":"tri cycles (cube, non-group)","fractal_assignment":["../images/grn_red.png","../images/blu_wht.png","../images/org_blu.png","../images/ylw_slt.png","../images/pnk_blu.png","../images/gry_blk.png","../images/cyn_red.png","../images/ylw_pnk.png"],"mutagen_generator_assignment":[0,1],"goal":5,"start":2,"action_noise":0.1,"location_history":"[2,1,0,2,1,5]","action_history":"[0,0,0,0,1]","mutagen_history":"[0,0,0,0,1]","location_rts":"[2231,1471,682,636,1264]","trial_type":"fractal-mutation","trial_index":97,"time_elapsed":3609155,"internal_node_id":"0.0-5.0-43.0"},{"group":"tri cycles (cube, non-group)","fractal_assignment":["../images/grn_red.png","../images/blu_wht.png","../images/org_blu.png","../images/ylw_slt.png","../images/pnk_blu.png","../images/gry_blk.png","../images/cyn_red.png","../images/ylw_pnk.png"],"mutagen_generator_assignment":[0,1],"goal":0,"start":5,"action_noise":0.1,"location_history":"[5,2,1,5,2,1,0]","action_history":"[0,0,1,1,0,0]","mutagen_history":"[0,0,1,1,0,0]","location_rts":"[6177,482,1159,580,15500,740]","trial_type":"fractal-mutation","trial_index":98,"time_elapsed":3643739,"internal_node_id":"0.0-5.0-44.0"},{"group":"tri cycles (cube, non-group)","fractal_assignment":["../images/grn_red.png","../images/blu_wht.png","../images/org_blu.png","../images/ylw_slt.png","../images/pnk_blu.png","../images/gry_blk.png","../images/cyn_red.png","../images/ylw_pnk.png"],"mutagen_generator_assignment":[0,1],"goal":7,"start":0,"action_noise":0.1,"location_history":"[0,2,1,0,3,7]","action_history":"[0,0,0,1,1]","mutagen_history":"[0,0,0,1,1]","location_rts":"[5544,29964,535,985,516]","trial_type":"fractal-mutation","trial_index":99,"time_elapsed":3690151,"internal_node_id":"0.0-5.0-45.0"},{"group":"tri cycles (cube, non-group)","fractal_assignment":["../images/grn_red.png","../images/blu_wht.png","../images/org_blu.png","../images/ylw_slt.png","../images/pnk_blu.png","../images/gry_blk.png","../images/cyn_red.png","../images/ylw_pnk.png"],"mutagen_generator_assignment":[0,1],"goal":6,"start":7,"action_noise":0.1,"location_history":"[7,6]","action_history":"[0]","mutagen_history":"[0]","location_rts":"[2312]","trial_type":"fractal-mutation","trial_index":100,"time_elapsed":3697058,"internal_node_id":"0.0-5.0-46.0"},{"group":"tri cycles (cube, non-group)","fractal_assignment":["../images/grn_red.png","../images/blu_wht.png","../images/org_blu.png","../images/ylw_slt.png","../images/pnk_blu.png","../images/gry_blk.png","../images/cyn_red.png","../images/ylw_pnk.png"],"mutagen_generator_assignment":[0,1],"goal":2,"start":6,"action_noise":0.1,"location_history":"[6,4,7,6,4,0,3,7,3,4,0,3,7,6,4,7,6,5,2]","action_history":"[0,0,0,1,1,1,0,0,1,1,1,1,0,0,0,0,1,1]","mutagen_history":"[0,0,0,1,1,1,0,0,1,1,1,1,0,0,0,0,1,1]","location_rts":"[6651,20555,550,828,2052,668,1007,20068,1677,508,1105,907,771,469,410,1568,740,480]","trial_type":"fractal-mutation","trial_index":101,"time_elapsed":3781145,"internal_node_id":"0.0-5.0-47.0"},{"group":"tri cycles (cube, non-group)","fractal_assignment":["../images/grn_red.png","../images/blu_wht.png","../images/org_blu.png","../images/ylw_slt.png","../images/pnk_blu.png","../images/gry_blk.png","../images/cyn_red.png","../images/ylw_pnk.png"],"mutagen_generator_assignment":[0,1],"goal":5,"start":2,"action_noise":0.1,"location_history":"[2,6,5]","action_history":"[1,1]","mutagen_history":"[1,1]","location_rts":"[5207,439]","trial_type":"fractal-mutation","trial_index":102,"time_elapsed":3792410,"internal_node_id":"0.0-5.0-48.0"},{"group":"tri cycles (cube, non-group)","fractal_assignment":["../images/grn_red.png","../images/blu_wht.png","../images/org_blu.png","../images/ylw_slt.png","../images/pnk_blu.png","../images/gry_blk.png","../images/cyn_red.png","../images/ylw_pnk.png"],"mutagen_generator_assignment":[0,1],"goal":3,"start":5,"action_noise":0.1,"location_history":"[5,1,5,2,6,5,1,5,2,6,5,1,0,2,6,5,2,6,4,7,3]","action_history":"[0,1,1,1,1,0,1,1,1,1,0,0,0,1,1,1,0,0,0,1]","mutagen_history":"[0,1,1,1,1,0,1,1,1,1,0,0,0,1,1,1,0,0,0,1]","location_rts":"[15341,1179,357,379,346,692,2150,3016,1121,433,3214,1135,534,968,1151,2694,1036,1072,627,1760]","trial_type":"fractal-mutation","trial_index":103,"time_elapsed":3856849,"internal_node_id":"0.0-5.0-49.0"},{"view_history":"[{\"page_index\":0,\"viewing_time\":3410}]","rt":3410,"trial_type":"instructions","trial_index":104,"time_elapsed":3861260,"internal_node_id":"0.0-6.0"},{"rt":15320,"responses":"{\"Q0\":\"I don't know\"}","trial_type":"survey-text","trial_index":105,"time_elapsed":3877589,"internal_node_id":"0.0-7.0-0.0"},{"rt":5985,"responses":"{\"Q0\":\"I don't know\"}","trial_type":"survey-text","trial_index":106,"time_elapsed":3884579,"internal_node_id":"0.0-7.0-1.0"},{"rt":23581,"responses":"{\"Q0\":\"<img src='../images/diagrams/tri_cycles.png'>\"}","trial_type":"survey-multi-choice","trial_index":107,"time_elapsed":3909182,"internal_node_id":"0.0-7.0-2.0"},{"rt":42272,"assignments":["../images/gry_blk.png","../images/ylw_slt.png","../images/ylw_pnk.png","../images/blu_wht.png","../images/cyn_red.png","../images/pnk_blu.png","../images/grn_red.png","../images/org_blu.png"],"trial_type":"drag-drop-on-image","trial_index":108,"time_elapsed":3952466,"internal_node_id":"0.0-7.0-3.0"},{"rt":18516,"responses":"{\"Q0\":\"2\"}","trial_type":"survey-likert","trial_index":109,"time_elapsed":3971992,"internal_node_id":"0.0-7.0-4.0"},{"rt":13033,"responses":"{\"Q0\":\"I didn't notice any similarities\"}","trial_type":"survey-text","trial_index":110,"time_elapsed":3986029,"internal_node_id":"0.0-7.0-5.0"},{"rt":5582,"responses":"{\"Q0\":\"No\"}","trial_type":"survey-multi-choice","trial_index":111,"time_elapsed":3992618,"internal_node_id":"0.0-7.0-6.0"},{"rt":4036,"responses":"{\"Q0\":\"Did not notice\"}","trial_type":"survey-multi-choice","trial_index":112,"time_elapsed":3997666,"internal_node_id":"0.0-7.0-7.0"},{"rt":7097,"responses":"{\"Q0\":\"\"}","trial_type":"survey-text","trial_index":113,"time_elapsed":4005771,"internal_node_id":"0.0-7.0-8.0"},{"rt":3974,"responses":"{\"Q0\":\"2\"}","trial_type":"survey-likert","trial_index":114,"time_elapsed":4010750,"internal_node_id":"0.0-7.0-9.0"},{"rt":8326,"responses":"{\"Q0\":\"Different structure\"}","trial_type":"survey-multi-choice","trial_index":115,"time_elapsed":4020085,"internal_node_id":"0.0-7.0-10.0"},{"rt":31850,"responses":"{\"Q0\":\"left (white) door = ray, (black) door = acid\",\"Q1\":\"Not at all confident\"}","trial_type":"survey-multi-choice","trial_index":116,"time_elapsed":4052955,"internal_node_id":"0.0-7.0-11.0"},{"rt":14681,"responses":"{\"Q0\":\"35-45\",\"Q1\":\"Bachelor's degree\",\"Q2\":\"Female\",\"Q3\":\"White\"}","trial_type":"survey-multi-choice","trial_index":117,"time_elapsed":4068657,"internal_node_id":"0.0-8.0"},{"rt":8453,"responses":"{\"Q0\":\"no\"}","trial_type":"survey-text","trial_index":118,"time_elapsed":4078119,"internal_node_id":"0.0-9.0"}]