[{"view_history":"[{\"page_index\":0,\"viewing_time\":2677},{\"page_index\":1,\"viewing_time\":10197}]","rt":12876,"trial_type":"instructions","trial_index":0,"time_elapsed":12880,"internal_node_id":"0.0-0.0"},{"view_history":"[{\"page_index\":0,\"viewing_time\":2855},{\"page_index\":1,\"viewing_time\":18469}]","rt":21324,"trial_type":"instructions","trial_index":1,"time_elapsed":35208,"internal_node_id":"0.0-1.0"},{"group":"square cycles (cube, non-group)","room_assignment":["grey","pink","purple","green","red","blue","yellow","brown"],"door_color_assignment":["white","black"],"door_generator_assignment":[1,0],"goal":5,"start":7,"action_noise":0.1,"location_history":"[7,6,5]","action_history":"[0,0]","door_history":"[1,1]","location_rts":"[2173,1094]","trial_type":"two-door-navigation","trial_index":2,"time_elapsed":44054,"internal_node_id":"0.0-2.0-0.0"},{"group":"square cycles (cube, non-group)","room_assignment":["grey","pink","purple","green","red","blue","yellow","brown"],"door_color_assignment":["white","black"],"door_generator_assignment":[1,0],"goal":2,"start":5,"action_noise":0.1,"location_history":"[5,1,0,4,7,6,5,1,2]","action_history":"[1,1,0,0,0,0,0,0]","door_history":"[0,0,1,1,1,1,1,1]","location_rts":"[1924,464,403,857,375,858,551,524]","trial_type":"two-door-navigation","trial_index":3,"time_elapsed":61765,"internal_node_id":"0.0-2.0-1.0"},{"group":"square cycles (cube, non-group)","room_assignment":["grey","pink","purple","green","red","blue","yellow","brown"],"door_color_assignment":["white","black"],"door_generator_assignment":[1,0],"goal":0,"start":2,"action_noise":0.1,"location_history":"[2,3,2,6,7,6,7,3,2,6,7,6,5,4,7,6,7,6,7,6,5,4,5,4,7,6,7,6,7,3,2,6,5,4,7,6,5,1,0]","action_history":"[0,1,1,1,0,1,1,1,1,1,0,0,0,0,1,1,0,1,0,0,0,1,0,1,0,1,1,1,1,1,1,0,0,0,0,0,1,1]","door_history":"[1,0,0,0,1,0,0,0,0,0,1,1,1,1,0,0,1,0,1,1,1,0,1,0,1,0,0,0,0,0,0,1,1,1,1,1,0,0]","location_rts":"[1794,130,575,788,575,845,2993,1334,623,436,640,302,255,241,747,313,358,463,82,234,345,318,326,269,975,615,167,68,78,2084,323,1506,794,310,15191,1339,1117,255]","trial_type":"two-door-navigation","trial_index":4,"time_elapsed":144152,"internal_node_id":"0.0-2.0-2.0"},{"group":"square cycles (cube, non-group)","room_assignment":["grey","pink","purple","green","red","blue","yellow","brown"],"door_color_assignment":["white","black"],"door_generator_assignment":[1,0],"goal":1,"start":0,"action_noise":0.1,"location_history":"[0,4,7,6,5,4,7,6,7,3,0,4,7,6,5,4,5,4,7,6,5,4,5,1]","action_history":"[1,0,0,0,0,1,1,1,1,0,1,0,0,0,0,1,0,0,0,0,0,1,1]","door_history":"[0,1,1,1,1,0,0,0,0,1,0,1,1,1,1,0,1,1,1,1,1,0,0]","location_rts":"[853,304,280,324,496,376,226,312,432,230,1160,341,243,257,211,130,124,48,50,147,250,629,78]","trial_type":"two-door-navigation","trial_index":5,"time_elapsed":178803,"internal_node_id":"0.0-2.0-3.0"},{"group":"square cycles (cube, non-group)","room_assignment":["grey","pink","purple","green","red","blue","yellow","brown"],"door_color_assignment":["white","black"],"door_generator_assignment":[1,0],"goal":6,"start":1,"action_noise":0.1,"location_history":"[1,2,6]","action_history":"[0,0]","door_history":"[1,1]","location_rts":"[4302,238]","trial_type":"two-door-navigation","trial_index":6,"time_elapsed":188896,"internal_node_id":"0.0-2.0-4.0"},{"group":"square cycles (cube, non-group)","room_assignment":["grey","pink","purple","green","red","blue","yellow","brown"],"door_color_assignment":["white","black"],"door_generator_assignment":[1,0],"goal":3,"start":6,"action_noise":0.1,"location_history":"[6,5,1,0,4,5,4,7,3]","action_history":"[0,1,1,1,1,0,0,1]","door_history":"[1,0,0,0,0,1,1,0]","location_rts":"[4477,512,100,201,176,238,165,371]","trial_type":"two-door-navigation","trial_index":7,"time_elapsed":206855,"internal_node_id":"0.0-2.0-5.0"},{"group":"square cycles (cube, non-group)","room_assignment":["grey","pink","purple","green","red","blue","yellow","brown"],"door_color_assignment":["white","black"],"door_generator_assignment":[1,0],"goal":4,"start":3,"action_noise":0.1,"location_history":"[3,2,6,5,4]","action_history":"[1,1,0,0]","door_history":"[0,0,1,1]","location_rts":"[472,656,501,274]","trial_type":"two-door-navigation","trial_index":8,"time_elapsed":216377,"internal_node_id":"0.0-2.0-6.0"},{"group":"square cycles (cube, non-group)","room_assignment":["grey","pink","purple","green","red","blue","yellow","brown"],"door_color_assignment":["white","black"],"door_generator_assignment":[1,0],"goal":1,"start":4,"action_noise":0.1,"location_history":"[4,5,4,7,3,0,4,7,3,2,3,0,1]","action_history":"[1,0,0,0,0,1,1,1,1,1,0,0]","door_history":"[0,1,1,1,1,0,0,0,0,0,1,1]","location_rts":"[1412,213,160,119,8741,422,307,322,570,270,364,542]","trial_type":"two-door-navigation","trial_index":9,"time_elapsed":245655,"internal_node_id":"0.0-2.0-7.0"},{"group":"square cycles (cube, non-group)","room_assignment":["grey","pink","purple","green","red","blue","yellow","brown"],"door_color_assignment":["white","black"],"door_generator_assignment":[1,0],"goal":4,"start":1,"action_noise":0.1,"location_history":"[1,2,3,0,4]","action_history":"[0,0,0,1]","door_history":"[1,1,1,0]","location_rts":"[4908,4631,2222,1130]","trial_type":"two-door-navigation","trial_index":10,"time_elapsed":266161,"internal_node_id":"0.0-2.0-8.0"},{"group":"square cycles (cube, non-group)","room_assignment":["grey","pink","purple","green","red","blue","yellow","brown"],"door_color_assignment":["white","black"],"door_generator_assignment":[1,0],"goal":5,"start":4,"action_noise":0.1,"location_history":"[4,5]","action_history":"[1]","door_history":"[0]","location_rts":"[701]","trial_type":"two-door-navigation","trial_index":11,"time_elapsed":271393,"internal_node_id":"0.0-2.0-9.0"},{"group":"square cycles (cube, non-group)","room_assignment":["grey","pink","purple","green","red","blue","yellow","brown"],"door_color_assignment":["white","black"],"door_generator_assignment":[1,0],"goal":3,"start":5,"action_noise":0.1,"location_history":"[5,4,5,1,0,1,2,6,5,4,7,6,5,1,2,6,5,1,2,3]","action_history":"[0,0,1,1,0,0,0,0,1,0,0,0,0,0,1,0,0,0,0]","door_history":"[1,1,0,0,1,1,1,1,0,1,1,1,1,1,0,1,1,1,1]","location_rts":"[534,390,423,305,320,297,239,326,254,237,250,443,273,274,260,349,175,193,164]","trial_type":"two-door-navigation","trial_index":12,"time_elapsed":300137,"internal_node_id":"0.0-2.0-10.0"},{"group":"square cycles (cube, non-group)","room_assignment":["grey","pink","purple","green","red","blue","yellow","brown"],"door_color_assignment":["white","black"],"door_generator_assignment":[1,0],"goal":6,"start":3,"action_noise":0.1,"location_history":"[3,0,4,5,4,7,6]","action_history":"[0,1,1,0,0,0]","door_history":"[1,0,0,1,1,1]","location_rts":"[70262,406,302,45,324,699]","trial_type":"two-door-navigation","trial_index":13,"time_elapsed":381848,"internal_node_id":"0.0-2.0-11.0"},{"group":"square cycles (cube, non-group)","room_assignment":["grey","pink","purple","green","red","blue","yellow","brown"],"door_color_assignment":["white","black"],"door_generator_assignment":[1,0],"goal":7,"start":6,"action_noise":0.1,"location_history":"[6,7]","action_history":"[1]","door_history":"[0]","location_rts":"[471]","trial_type":"two-door-navigation","trial_index":14,"time_elapsed":386849,"internal_node_id":"0.0-2.0-12.0"},{"group":"square cycles (cube, non-group)","room_assignment":["grey","pink","purple","green","red","blue","yellow","brown"],"door_color_assignment":["white","black"],"door_generator_assignment":[1,0],"goal":0,"start":7,"action_noise":0.1,"location_history":"[7,6,5,4,7,3,2,6,7,6,5,4,5,4,5,4,7,6,5,4,5,4,5,4,5,4,5,1,2,6,7,6,5,1,2,3,0]","action_history":"[0,0,0,0,1,1,1,0,0,0,0,0,0,1,0,0,0,0,1,1,1,1,1,0,0,1,0,0,1,1,0,0,0,0,0,0]","door_history":"[1,1,1,1,0,0,0,1,1,1,1,1,1,0,1,1,1,1,0,0,0,0,0,1,1,0,1,1,0,0,1,1,1,1,1,1]","location_rts":"[556,272,373,420,303,274,227,623,113,350,370,288,2135,2500,2133,239,592,3575,44,238,226,443,406,354,320,490,276,396,530,231,248,266,243,404,295,40]","trial_type":"two-door-navigation","trial_index":15,"time_elapsed":448126,"internal_node_id":"0.0-2.0-13.0"},{"group":"square cycles (cube, non-group)","room_assignment":["grey","pink","purple","green","red","blue","yellow","brown"],"door_color_assignment":["white","black"],"door_generator_assignment":[1,0],"goal":2,"start":0,"action_noise":0.1,"location_history":"[0,4,7,6,5,1,0,4,5,1,0,1,2]","action_history":"[0,0,0,0,1,1,1,1,1,1,0,0]","door_history":"[1,1,1,1,0,0,0,0,0,0,1,1]","location_rts":"[24658,31,225,287,362,348,489,390,810,250,285,249]","trial_type":"two-door-navigation","trial_index":16,"time_elapsed":492341,"internal_node_id":"0.0-2.0-14.0"},{"group":"square cycles (cube, non-group)","room_assignment":["grey","pink","purple","green","red","blue","yellow","brown"],"door_color_assignment":["white","black"],"door_generator_assignment":[1,0],"goal":1,"start":2,"action_noise":0.1,"location_history":"[2,6,5,4,5,1]","action_history":"[0,0,0,1,1]","door_history":"[1,1,1,0,0]","location_rts":"[3379,254,2511,237,4374]","trial_type":"two-door-navigation","trial_index":17,"time_elapsed":511740,"internal_node_id":"0.0-2.0-15.0"},{"group":"square cycles (cube, non-group)","room_assignment":["grey","pink","purple","green","red","blue","yellow","brown"],"door_color_assignment":["white","black"],"door_generator_assignment":[1,0],"goal":6,"start":1,"action_noise":0.1,"location_history":"[1,2,6]","action_history":"[0,1]","door_history":"[1,0]","location_rts":"[8926,206]","trial_type":"two-door-navigation","trial_index":18,"time_elapsed":526439,"internal_node_id":"0.0-2.0-16.0"},{"group":"square cycles (cube, non-group)","room_assignment":["grey","pink","purple","green","red","blue","yellow","brown"],"door_color_assignment":["white","black"],"door_generator_assignment":[1,0],"goal":3,"start":6,"action_noise":0.1,"location_history":"[6,7,6,5,4,7,6,5,4,5,4,5,1,0,4,7,6,5,4,7,6,5,1,0,4,5,1,2,6,5,1,2,3]","action_history":"[1,0,0,0,0,0,0,0,1,0,1,1,1,1,0,0,0,0,0,0,0,1,1,1,1,1,0,0,0,0,0,0]","door_history":"[0,1,1,1,1,1,1,1,0,1,0,0,0,0,1,1,1,1,1,1,1,0,0,0,0,0,1,1,1,1,1,1]","location_rts":"[863,360,156,150,422,314,287,31090,41,55,141,801,249,439,113,200,67,228,1436,2638,412,357,458,1510,505,14947,147,308,134,300,78,240]","trial_type":"two-door-navigation","trial_index":19,"time_elapsed":622296,"internal_node_id":"0.0-2.0-17.0"},{"group":"square cycles (cube, non-group)","room_assignment":["grey","pink","purple","green","red","blue","yellow","brown"],"door_color_assignment":["white","black"],"door_generator_assignment":[1,0],"goal":4,"start":3,"action_noise":0.1,"location_history":"[3,2,3,0,1,2,6,7,3,0,1,2,6,7,3,0,1,2,3,0,4]","action_history":"[1,0,0,0,0,1,0,0,0,0,0,1,1,1,0,0,0,0,0,1]","door_history":"[0,1,1,1,1,0,1,1,1,1,1,0,0,0,1,1,1,1,1,0]","location_rts":"[33442,83,0,46,3847,280,50,313,96,281,7394,960,158,383,182,16,223,254,301,246]","trial_type":"two-door-navigation","trial_index":20,"time_elapsed":694868,"internal_node_id":"0.0-2.0-18.0"},{"group":"square cycles (cube, non-group)","room_assignment":["grey","pink","purple","green","red","blue","yellow","brown"],"door_color_assignment":["white","black"],"door_generator_assignment":[1,0],"goal":5,"start":4,"action_noise":0.1,"location_history":"[4,7,3,2,6,5]","action_history":"[0,1,1,1,0]","door_history":"[1,0,0,0,1]","location_rts":"[848,573,390,259,783]","trial_type":"two-door-navigation","trial_index":21,"time_elapsed":706366,"internal_node_id":"0.0-2.0-19.0"},{"group":"square cycles (cube, non-group)","room_assignment":["grey","pink","purple","green","red","blue","yellow","brown"],"door_color_assignment":["white","black"],"door_generator_assignment":[1,0],"goal":7,"start":5,"action_noise":0.1,"location_history":"[5,4,5,1,0,4,7]","action_history":"[0,1,1,1,1,0]","door_history":"[1,0,0,0,0,1]","location_rts":"[10354,546,127,59,258,249]","trial_type":"two-door-navigation","trial_index":22,"time_elapsed":727620,"internal_node_id":"0.0-2.0-20.0"},{"group":"square cycles (cube, non-group)","room_assignment":["grey","pink","purple","green","red","blue","yellow","brown"],"door_color_assignment":["white","black"],"door_generator_assignment":[1,0],"goal":2,"start":7,"action_noise":0.1,"location_history":"[7,6,5,4,5,4,7,6,7,3,2]","action_history":"[1,0,0,0,0,0,0,1,1,1]","door_history":"[0,1,1,1,1,1,1,0,0,0]","location_rts":"[19688,280,1057,418,290,403,4655,362,268,167]","trial_type":"two-door-navigation","trial_index":23,"time_elapsed":768997,"internal_node_id":"0.0-2.0-21.0"},{"group":"square cycles (cube, non-group)","room_assignment":["grey","pink","purple","green","red","blue","yellow","brown"],"door_color_assignment":["white","black"],"door_generator_assignment":[1,0],"goal":0,"start":2,"action_noise":0.1,"location_history":"[2,6,5,4,7,6,7,3,2,6,5,4,7,6,5,1,0]","action_history":"[1,0,0,0,1,1,1,1,0,0,0,0,0,0,0,1]","door_history":"[0,1,1,1,0,0,0,0,1,1,1,1,1,1,1,0]","location_rts":"[4510,574,737,519,1040,8572,566,372,98,507,328,284,887,103,310,106]","trial_type":"two-door-navigation","trial_index":24,"time_elapsed":808468,"internal_node_id":"0.0-2.0-22.0"},{"group":"square cycles (cube, non-group)","room_assignment":["grey","pink","purple","green","red","blue","yellow","brown"],"door_color_assignment":["white","black"],"door_generator_assignment":[1,0],"goal":7,"start":0,"action_noise":0.1,"location_history":"[0,4,5,1,2,3,0,1,2,3,0,4,5,4,5,1,2,3,0,1,2,3,0,1,2,3,0,4,5,1,0,1,2,3,0,1,2,6,7]","action_history":"[1,0,0,0,0,0,0,0,0,0,1,1,0,1,1,0,1,0,0,0,0,0,0,0,0,0,1,1,1,1,0,0,0,0,0,0,1,1]","door_history":"[0,1,1,1,1,1,1,1,1,1,0,0,1,0,0,1,0,1,1,1,1,1,1,1,1,1,0,0,0,0,1,1,1,1,1,1,0,0]","location_rts":"[3630,178,1198,211,104,6392,4067,14999,2972,3814,287,6217,3846,148,769,3958,3746,666,2017,872,391,825,286,529,3231,157,5133,675,247,549,131,89,4450,4321,168,222,356,203]","trial_type":"two-door-navigation","trial_index":25,"time_elapsed":933060,"internal_node_id":"0.0-2.0-23.0"},{"group":"square cycles (cube, non-group)","room_assignment":["grey","pink","purple","green","red","blue","yellow","brown"],"door_color_assignment":["white","black"],"door_generator_assignment":[1,0],"goal":5,"start":7,"action_noise":0.1,"location_history":"[7,3,0,1,2,3,0,1,2,3,0,1,0,4,5]","action_history":"[1,0,0,0,0,0,0,0,0,0,0,1,1,1]","door_history":"[0,1,1,1,1,1,1,1,1,1,1,0,0,0]","location_rts":"[8236,109,140,137,297,373,178,241,3840,99,42,87,137,625]","trial_type":"two-door-navigation","trial_index":26,"time_elapsed":965502,"internal_node_id":"0.0-2.0-24.0"},{"group":"square cycles (cube, non-group)","room_assignment":["grey","pink","purple","green","red","blue","yellow","brown"],"door_color_assignment":["white","black"],"door_generator_assignment":[1,0],"goal":0,"start":5,"action_noise":0.1,"location_history":"[5,1,0]","action_history":"[0,1]","door_history":"[1,0]","location_rts":"[36932,131]","trial_type":"two-door-navigation","trial_index":27,"time_elapsed":1008131,"internal_node_id":"0.0-2.0-25.0"},{"group":"square cycles (cube, non-group)","room_assignment":["grey","pink","purple","green","red","blue","yellow","brown"],"door_color_assignment":["white","black"],"door_generator_assignment":[1,0],"goal":6,"start":0,"action_noise":0.1,"location_history":"[0,4,7,6]","action_history":"[1,0,0]","door_history":"[0,1,1]","location_rts":"[530,384,1274]","trial_type":"two-door-navigation","trial_index":28,"time_elapsed":1016908,"internal_node_id":"0.0-2.0-26.0"},{"group":"square cycles (cube, non-group)","room_assignment":["grey","pink","purple","green","red","blue","yellow","brown"],"door_color_assignment":["white","black"],"door_generator_assignment":[1,0],"goal":4,"start":6,"action_noise":0.1,"location_history":"[6,5,4]","action_history":"[0,0]","door_history":"[1,1]","location_rts":"[2559,257]","trial_type":"two-door-navigation","trial_index":29,"time_elapsed":1025288,"internal_node_id":"0.0-2.0-27.0"},{"group":"square cycles (cube, non-group)","room_assignment":["grey","pink","purple","green","red","blue","yellow","brown"],"door_color_assignment":["white","black"],"door_generator_assignment":[1,0],"goal":2,"start":4,"action_noise":0.1,"location_history":"[4,5,1,2]","action_history":"[0,1,1]","door_history":"[1,0,0]","location_rts":"[376,286,378]","trial_type":"two-door-navigation","trial_index":30,"time_elapsed":1032915,"internal_node_id":"0.0-2.0-28.0"},{"group":"square cycles (cube, non-group)","room_assignment":["grey","pink","purple","green","red","blue","yellow","brown"],"door_color_assignment":["white","black"],"door_generator_assignment":[1,0],"goal":3,"start":2,"action_noise":0.1,"location_history":"[2,6,7,6,5,4,7,3]","action_history":"[1,0,0,0,0,0,0]","door_history":"[0,1,1,1,1,1,1]","location_rts":"[432,1043,216,321,496,249,225]","trial_type":"two-door-navigation","trial_index":31,"time_elapsed":1046595,"internal_node_id":"0.0-2.0-29.0"},{"group":"square cycles (cube, non-group)","room_assignment":["grey","pink","purple","green","red","blue","yellow","brown"],"door_color_assignment":["white","black"],"door_generator_assignment":[1,0],"goal":1,"start":3,"action_noise":0.1,"location_history":"[3,2,3,0,1]","action_history":"[1,1,0,0]","door_history":"[0,0,1,1]","location_rts":"[2466,2134,373,3449]","trial_type":"two-door-navigation","trial_index":32,"time_elapsed":1062639,"internal_node_id":"0.0-2.0-30.0"},{"group":"square cycles (cube, non-group)","room_assignment":["grey","pink","purple","green","red","blue","yellow","brown"],"door_color_assignment":["white","black"],"door_generator_assignment":[1,0],"goal":4,"start":1,"action_noise":0.1,"location_history":"[1,0,4]","action_history":"[0,0]","door_history":"[1,1]","location_rts":"[1469,955]","trial_type":"two-door-navigation","trial_index":33,"time_elapsed":1070624,"internal_node_id":"0.0-2.0-31.0"},{"group":"square cycles (cube, non-group)","room_assignment":["grey","pink","purple","green","red","blue","yellow","brown"],"door_color_assignment":["white","black"],"door_generator_assignment":[1,0],"goal":3,"start":4,"action_noise":0.1,"location_history":"[4,7,6,5,4,5,4,5,1,0,1,2,3]","action_history":"[0,0,0,0,1,0,1,1,1,0,0,0]","door_history":"[1,1,1,1,0,1,0,0,0,1,1,1]","location_rts":"[3033,1468,2488,357,1024,222,9113,2531,4524,330,2053,5346]","trial_type":"two-door-navigation","trial_index":34,"time_elapsed":1118959,"internal_node_id":"0.0-2.0-32.0"},{"group":"square cycles (cube, non-group)","room_assignment":["grey","pink","purple","green","red","blue","yellow","brown"],"door_color_assignment":["white","black"],"door_generator_assignment":[1,0],"goal":6,"start":3,"action_noise":0.1,"location_history":"[3,0,1,2,3,2,6]","action_history":"[0,0,0,0,1,1]","door_history":"[1,1,1,1,0,0]","location_rts":"[1429,2614,437,152,282,2662]","trial_type":"two-door-navigation","trial_index":35,"time_elapsed":1136206,"internal_node_id":"0.0-2.0-33.0"},{"group":"square cycles (cube, non-group)","room_assignment":["grey","pink","purple","green","red","blue","yellow","brown"],"door_color_assignment":["white","black"],"door_generator_assignment":[1,0],"goal":0,"start":6,"action_noise":0.1,"location_history":"[6,7,3,2,6,5,1,2,3,0]","action_history":"[1,1,1,1,0,0,0,0,0]","door_history":"[0,0,0,0,1,1,1,1,1]","location_rts":"[4778,1265,732,4623,389,2819,1978,439,112]","trial_type":"two-door-navigation","trial_index":36,"time_elapsed":1166103,"internal_node_id":"0.0-2.0-34.0"},{"group":"square cycles (cube, non-group)","room_assignment":["grey","pink","purple","green","red","blue","yellow","brown"],"door_color_assignment":["white","black"],"door_generator_assignment":[1,0],"goal":1,"start":0,"action_noise":0.1,"location_history":"[0,1]","action_history":"[0]","door_history":"[1]","location_rts":"[1629]","trial_type":"two-door-navigation","trial_index":37,"time_elapsed":1172265,"internal_node_id":"0.0-2.0-35.0"},{"group":"square cycles (cube, non-group)","room_assignment":["grey","pink","purple","green","red","blue","yellow","brown"],"door_color_assignment":["white","black"],"door_generator_assignment":[1,0],"goal":5,"start":1,"action_noise":0.1,"location_history":"[1,2,3,2,6,7,6,5]","action_history":"[0,0,1,1,0,0,0]","door_history":"[1,1,0,0,1,1,1]","location_rts":"[1170,1422,1876,1900,327,1990,345]","trial_type":"two-door-navigation","trial_index":38,"time_elapsed":1192007,"internal_node_id":"0.0-2.0-36.0"},{"group":"square cycles (cube, non-group)","room_assignment":["grey","pink","purple","green","red","blue","yellow","brown"],"door_color_assignment":["white","black"],"door_generator_assignment":[1,0],"goal":7,"start":5,"action_noise":0.1,"location_history":"[5,4,7]","action_history":"[0,0]","door_history":"[1,1]","location_rts":"[322,262]","trial_type":"two-door-navigation","trial_index":39,"time_elapsed":1198157,"internal_node_id":"0.0-2.0-37.0"},{"group":"square cycles (cube, non-group)","room_assignment":["grey","pink","purple","green","red","blue","yellow","brown"],"door_color_assignment":["white","black"],"door_generator_assignment":[1,0],"goal":2,"start":7,"action_noise":0.1,"location_history":"[7,6,5,1,0,4,5,1,2]","action_history":"[0,0,1,1,1,1,1,0]","door_history":"[1,1,0,0,0,0,0,1]","location_rts":"[2685,315,215,129,195,559,64,198]","trial_type":"two-door-navigation","trial_index":40,"time_elapsed":1214243,"internal_node_id":"0.0-2.0-38.0"},{"group":"square cycles (cube, non-group)","room_assignment":["grey","pink","purple","green","red","blue","yellow","brown"],"door_color_assignment":["white","black"],"door_generator_assignment":[1,0],"goal":1,"start":2,"action_noise":0.1,"location_history":"[2,3,0,1]","action_history":"[0,0,0]","door_history":"[1,1,1]","location_rts":"[347,96,13349]","trial_type":"two-door-navigation","trial_index":41,"time_elapsed":1234630,"internal_node_id":"0.0-2.0-39.0"},{"group":"square cycles (cube, non-group)","room_assignment":["grey","pink","purple","green","red","blue","yellow","brown"],"door_color_assignment":["white","black"],"door_generator_assignment":[1,0],"goal":3,"start":1,"action_noise":0.1,"location_history":"[1,0,1,2,3]","action_history":"[1,0,0,0]","door_history":"[0,1,1,1]","location_rts":"[9593,286,2187,168]","trial_type":"two-door-navigation","trial_index":42,"time_elapsed":1254477,"internal_node_id":"0.0-2.0-40.0"},{"group":"square cycles (cube, non-group)","room_assignment":["grey","pink","purple","green","red","blue","yellow","brown"],"door_color_assignment":["white","black"],"door_generator_assignment":[1,0],"goal":4,"start":3,"action_noise":0.1,"location_history":"[3,0,1,0,4]","action_history":"[0,0,1,1]","door_history":"[1,1,0,0]","location_rts":"[6146,189,931,7881]","trial_type":"two-door-navigation","trial_index":43,"time_elapsed":1277237,"internal_node_id":"0.0-2.0-41.0"},{"group":"square cycles (cube, non-group)","room_assignment":["grey","pink","purple","green","red","blue","yellow","brown"],"door_color_assignment":["white","black"],"door_generator_assignment":[1,0],"goal":2,"start":4,"action_noise":0.1,"location_history":"[4,7,6,5,4,7,6,5,1,0,4,5,1,0,4,7,6,7,6,7,3,2]","action_history":"[0,0,0,0,0,0,0,0,1,1,1,1,1,1,0,0,0,0,1,1,1]","door_history":"[1,1,1,1,1,1,1,1,0,0,0,0,0,0,1,1,1,1,0,0,0]","location_rts":"[2368,572,102,27,678,73,54,358,218,184,238,340,906,82,652,87,129,10,448,53,128]","trial_type":"two-door-navigation","trial_index":44,"time_elapsed":1310032,"internal_node_id":"0.0-2.0-42.0"},{"group":"square cycles (cube, non-group)","room_assignment":["grey","pink","purple","green","red","blue","yellow","brown"],"door_color_assignment":["white","black"],"door_generator_assignment":[1,0],"goal":5,"start":2,"action_noise":0.1,"location_history":"[2,3,0,1,2,6,7,6,5]","action_history":"[0,0,0,0,1,1,0,0]","door_history":"[1,1,1,1,0,0,1,1]","location_rts":"[1090,329,383,346,273,227,615,224]","trial_type":"two-door-navigation","trial_index":45,"time_elapsed":1325244,"internal_node_id":"0.0-2.0-43.0"},{"group":"square cycles (cube, non-group)","room_assignment":["grey","pink","purple","green","red","blue","yellow","brown"],"door_color_assignment":["white","black"],"door_generator_assignment":[1,0],"goal":0,"start":5,"action_noise":0.1,"location_history":"[5,4,5,4,5,1,0]","action_history":"[0,1,1,1,1,1]","door_history":"[1,0,0,0,0,0]","location_rts":"[335,925,953,255,942,423]","trial_type":"two-door-navigation","trial_index":46,"time_elapsed":1338744,"internal_node_id":"0.0-2.0-44.0"},{"group":"square cycles (cube, non-group)","room_assignment":["grey","pink","purple","green","red","blue","yellow","brown"],"door_color_assignment":["white","black"],"door_generator_assignment":[1,0],"goal":7,"start":0,"action_noise":0.1,"location_history":"[0,1,2,3,0,4,7]","action_history":"[0,0,0,0,0,0]","door_history":"[1,1,1,1,1,1]","location_rts":"[1348,10258,91,293,1105,1062]","trial_type":"two-door-navigation","trial_index":47,"time_elapsed":1362586,"internal_node_id":"0.0-2.0-45.0"},{"group":"square cycles (cube, non-group)","room_assignment":["grey","pink","purple","green","red","blue","yellow","brown"],"door_color_assignment":["white","black"],"door_generator_assignment":[1,0],"goal":6,"start":7,"action_noise":0.1,"location_history":"[7,3,0,1,0,1,2,3,0,1,0,4,5,1,2,3,0,1,2,3,0,4,5,4,5,4,7,3,2,6]","action_history":"[1,0,0,0,0,0,0,0,0,1,1,1,1,0,0,0,0,0,0,0,1,1,0,1,0,0,1,1,1]","door_history":"[0,1,1,1,1,1,1,1,1,0,0,0,0,1,1,1,1,1,1,1,0,0,1,0,1,1,0,0,0]","location_rts":"[2375,153,116,86,211,129,343,224,99,192,769,37,1013,661,262,329,314,283,89,682,45,187,283,1023,325,219,365,53,236]","trial_type":"two-door-navigation","trial_index":48,"time_elapsed":1406989,"internal_node_id":"0.0-2.0-46.0"},{"group":"square cycles (cube, non-group)","room_assignment":["grey","pink","purple","green","red","blue","yellow","brown"],"door_color_assignment":["white","black"],"door_generator_assignment":[1,0],"goal":2,"start":6,"action_noise":0.1,"location_history":"[6,5,1,0,4,5,4,5,4,7,6,5,4,7,3,0,1,2]","action_history":"[0,1,1,1,1,0,0,0,0,0,0,0,0,1,0,0,0]","door_history":"[1,0,0,0,0,1,1,1,1,1,1,1,1,0,1,1,1]","location_rts":"[646,343,687,80,327,80,274,362,19,400,198,222,806,189,537,249,684]","trial_type":"two-door-navigation","trial_index":49,"time_elapsed":1434078,"internal_node_id":"0.0-2.0-47.0"},{"group":"square cycles (cube, non-group)","room_assignment":["grey","pink","purple","green","red","blue","yellow","brown"],"door_color_assignment":["white","black"],"door_generator_assignment":[1,0],"goal":5,"start":2,"action_noise":0.1,"location_history":"[2,3,0,4,7,3,2,3,0,1,2,6,5]","action_history":"[0,0,0,0,1,1,0,0,0,0,1,1]","door_history":"[1,1,1,1,0,0,1,1,1,1,0,0]","location_rts":"[2390,71,242,32,913,231,213,99,116,198,761,214]","trial_type":"two-door-navigation","trial_index":50,"time_elapsed":1455407,"internal_node_id":"0.0-2.0-48.0"},{"group":"square cycles (cube, non-group)","room_assignment":["grey","pink","purple","green","red","blue","yellow","brown"],"door_color_assignment":["white","black"],"door_generator_assignment":[1,0],"goal":3,"start":5,"action_noise":0.1,"location_history":"[5,4,7,6,7,3]","action_history":"[0,0,0,1,1]","door_history":"[1,1,1,0,0]","location_rts":"[827,158,701,330,23]","trial_type":"two-door-navigation","trial_index":51,"time_elapsed":1466089,"internal_node_id":"0.0-2.0-49.0"},{"view_history":"[{\"page_index\":0,\"viewing_time\":5033}]","rt":5035,"trial_type":"instructions","trial_index":52,"time_elapsed":1472125,"internal_node_id":"0.0-3.0"},{"view_history":"[{\"page_index\":0,\"viewing_time\":2340},{\"page_index\":1,\"viewing_time\":7588}]","rt":9928,"trial_type":"instructions","trial_index":53,"time_elapsed":1483055,"internal_node_id":"0.0-4.0"},{"group":"square cycles (cube, non-group)","fractal_assignment":["../images/cyn_red.png","../images/gry_blk.png","../images/ylw_pnk.png","../images/blu_wht.png","../images/grn_red.png","../images/ylw_slt.png","../images/org_blu.png","../images/pnk_blu.png"],"mutagen_generator_assignment":[0,1],"goal":5,"start":7,"action_noise":0.1,"location_history":"[7,6,7,3,2,3,0,1,0,4,7,6,7,6,7,6,5]","action_history":"[0,1,1,1,0,0,0,1,1,0,0,1,0,1,0,0]","mutagen_history":"[0,1,1,1,0,0,0,1,1,0,0,1,0,1,0,0]","location_rts":"[6451,111,196,198,354,59,24441,228,17003,3001,313,492,1170,310,2098,3132]","trial_type":"fractal-mutation","trial_index":54,"time_elapsed":1563182,"internal_node_id":"0.0-5.0-0.0"},{"group":"square cycles (cube, non-group)","fractal_assignment":["../images/cyn_red.png","../images/gry_blk.png","../images/ylw_pnk.png","../images/blu_wht.png","../images/grn_red.png","../images/ylw_slt.png","../images/org_blu.png","../images/pnk_blu.png"],"mutagen_generator_assignment":[0,1],"goal":2,"start":5,"action_noise":0.1,"location_history":"[5,4,5,1,0,4,7,3,0,1,0,4,5,1,0,4,7,6,7,3,0,1,2]","action_history":"[0,1,1,1,1,0,0,0,0,1,1,1,1,1,1,0,0,0,0,0,0,0]","mutagen_history":"[0,1,1,1,1,0,0,0,0,1,1,1,1,1,1,0,0,0,0,0,0,0]","location_rts":"[801,192,119,180,224,121,260,64,79,229,113,235,44,190,132,178,247,1001,122,824,48,556]","trial_type":"fractal-mutation","trial_index":55,"time_elapsed":1595608,"internal_node_id":"0.0-5.0-1.0"},{"group":"square cycles (cube, non-group)","fractal_assignment":["../images/cyn_red.png","../images/gry_blk.png","../images/ylw_pnk.png","../images/blu_wht.png","../images/grn_red.png","../images/ylw_slt.png","../images/org_blu.png","../images/pnk_blu.png"],"mutagen_generator_assignment":[0,1],"goal":0,"start":2,"action_noise":0.1,"location_history":"[2,3,0]","action_history":"[0,1]","mutagen_history":"[0,1]","location_rts":"[14692,85]","trial_type":"fractal-mutation","trial_index":56,"time_elapsed":1615972,"internal_node_id":"0.0-5.0-2.0"},{"group":"square cycles (cube, non-group)","fractal_assignment":["../images/cyn_red.png","../images/gry_blk.png","../images/ylw_pnk.png","../images/blu_wht.png","../images/grn_red.png","../images/ylw_slt.png","../images/org_blu.png","../images/pnk_blu.png"],"mutagen_generator_assignment":[0,1],"goal":1,"start":0,"action_noise":0.1,"location_history":"[0,4,5,1]","action_history":"[0,1,1]","mutagen_history":"[0,1,1]","location_rts":"[21431,229,517]","trial_type":"fractal-mutation","trial_index":57,"time_elapsed":1644804,"internal_node_id":"0.0-5.0-3.0"},{"group":"square cycles (cube, non-group)","fractal_assignment":["../images/cyn_red.png","../images/gry_blk.png","../images/ylw_pnk.png","../images/blu_wht.png","../images/grn_red.png","../images/ylw_slt.png","../images/org_blu.png","../images/pnk_blu.png"],"mutagen_generator_assignment":[0,1],"goal":6,"start":1,"action_noise":0.1,"location_history":"[1,2,6]","action_history":"[0,1]","mutagen_history":"[0,1]","location_rts":"[1753,956]","trial_type":"fractal-mutation","trial_index":58,"time_elapsed":1653121,"internal_node_id":"0.0-5.0-4.0"},{"group":"square cycles (cube, non-group)","fractal_assignment":["../images/cyn_red.png","../images/gry_blk.png","../images/ylw_pnk.png","../images/blu_wht.png","../images/grn_red.png","../images/ylw_slt.png","../images/org_blu.png","../images/pnk_blu.png"],"mutagen_generator_assignment":[0,1],"goal":3,"start":6,"action_noise":0.1,"location_history":"[6,5,1,0,4,5,1,0,1,0,1,0,4,5,1,2,3]","action_history":"[0,1,1,1,1,0,1,0,0,0,1,1,1,1,0,0]","mutagen_history":"[0,1,1,1,1,0,1,0,0,0,1,1,1,1,0,0]","location_rts":"[1780,288,502,94,311,445,711,357,561,358,201,133,173,243,1221,1115]","trial_type":"fractal-mutation","trial_index":59,"time_elapsed":1681915,"internal_node_id":"0.0-5.0-5.0"},{"group":"square cycles (cube, non-group)","fractal_assignment":["../images/cyn_red.png","../images/gry_blk.png","../images/ylw_pnk.png","../images/blu_wht.png","../images/grn_red.png","../images/ylw_slt.png","../images/org_blu.png","../images/pnk_blu.png"],"mutagen_generator_assignment":[0,1],"goal":4,"start":3,"action_noise":0.1,"location_history":"[3,0,1,2,3,0,4]","action_history":"[0,0,0,0,0,1]","mutagen_history":"[0,0,0,0,0,1]","location_rts":"[500,1311,2731,1290,410,466]","trial_type":"fractal-mutation","trial_index":60,"time_elapsed":1698377,"internal_node_id":"0.0-5.0-6.0"},{"group":"square cycles (cube, non-group)","fractal_assignment":["../images/cyn_red.png","../images/gry_blk.png","../images/ylw_pnk.png","../images/blu_wht.png","../images/grn_red.png","../images/ylw_slt.png","../images/org_blu.png","../images/pnk_blu.png"],"mutagen_generator_assignment":[0,1],"goal":1,"start":4,"action_noise":0.1,"location_history":"[4,7,6,5,4,5,1]","action_history":"[1,0,0,0,1,1]","mutagen_history":"[1,0,0,0,1,1]","location_rts":"[554,8697,205,112,495,932]","trial_type":"fractal-mutation","trial_index":61,"time_elapsed":1719162,"internal_node_id":"0.0-5.0-7.0"},{"group":"square cycles (cube, non-group)","fractal_assignment":["../images/cyn_red.png","../images/gry_blk.png","../images/ylw_pnk.png","../images/blu_wht.png","../images/grn_red.png","../images/ylw_slt.png","../images/org_blu.png","../images/pnk_blu.png"],"mutagen_generator_assignment":[0,1],"goal":4,"start":1,"action_noise":0.1,"location_history":"[1,0,1,0,1,0,1,0,1,2,3,0,1,2,3,0,4]","action_history":"[1,1,1,0,1,0,1,0,0,0,1,0,0,0,0,1]","mutagen_history":"[1,1,1,0,1,0,1,0,0,0,1,0,0,0,0,1]","location_rts":"[6858,203,262,287,18565,2339,2831,295,359,588,3106,99,43,295,302,7505]","trial_type":"fractal-mutation","trial_index":62,"time_elapsed":1783352,"internal_node_id":"0.0-5.0-8.0"},{"group":"square cycles (cube, non-group)","fractal_assignment":["../images/cyn_red.png","../images/gry_blk.png","../images/ylw_pnk.png","../images/blu_wht.png","../images/grn_red.png","../images/ylw_slt.png","../images/org_blu.png","../images/pnk_blu.png"],"mutagen_generator_assignment":[0,1],"goal":5,"start":4,"action_noise":0.1,"location_history":"[4,5]","action_history":"[1]","mutagen_history":"[1]","location_rts":"[8705]","trial_type":"fractal-mutation","trial_index":63,"time_elapsed":1796612,"internal_node_id":"0.0-5.0-9.0"},{"group":"square cycles (cube, non-group)","fractal_assignment":["../images/cyn_red.png","../images/gry_blk.png","../images/ylw_pnk.png","../images/blu_wht.png","../images/grn_red.png","../images/ylw_slt.png","../images/org_blu.png","../images/pnk_blu.png"],"mutagen_generator_assignment":[0,1],"goal":3,"start":5,"action_noise":0.1,"location_history":"[5,4,7,6,5,4,7,6,7,3]","action_history":"[0,0,0,0,0,0,0,1,1]","mutagen_history":"[0,0,0,0,0,0,0,1,1]","location_rts":"[2794,285,1180,2145,1558,1634,374,575,2638]","trial_type":"fractal-mutation","trial_index":64,"time_elapsed":1822685,"internal_node_id":"0.0-5.0-10.0"},{"group":"square cycles (cube, non-group)","fractal_assignment":["../images/cyn_red.png","../images/gry_blk.png","../images/ylw_pnk.png","../images/blu_wht.png","../images/grn_red.png","../images/ylw_slt.png","../images/org_blu.png","../images/pnk_blu.png"],"mutagen_generator_assignment":[0,1],"goal":6,"start":3,"action_noise":0.1,"location_history":"[3,0,1,2,6]","action_history":"[0,0,0,1]","mutagen_history":"[0,0,0,1]","location_rts":"[638,1465,229,3272]","trial_type":"fractal-mutation","trial_index":65,"time_elapsed":1835969,"internal_node_id":"0.0-5.0-11.0"},{"group":"square cycles (cube, non-group)","fractal_assignment":["../images/cyn_red.png","../images/gry_blk.png","../images/ylw_pnk.png","../images/blu_wht.png","../images/grn_red.png","../images/ylw_slt.png","../images/org_blu.png","../images/pnk_blu.png"],"mutagen_generator_assignment":[0,1],"goal":7,"start":6,"action_noise":0.1,"location_history":"[6,7]","action_history":"[1]","mutagen_history":"[1]","location_rts":"[1745]","trial_type":"fractal-mutation","trial_index":66,"time_elapsed":1842276,"internal_node_id":"0.0-5.0-12.0"},{"group":"square cycles (cube, non-group)","fractal_assignment":["../images/cyn_red.png","../images/gry_blk.png","../images/ylw_pnk.png","../images/blu_wht.png","../images/grn_red.png","../images/ylw_slt.png","../images/org_blu.png","../images/pnk_blu.png"],"mutagen_generator_assignment":[0,1],"goal":0,"start":7,"action_noise":0.1,"location_history":"[7,6,5,4,7,6,7,3,2,3,2,6,5,4,5,4,5,4,5,4,5,1,0]","action_history":"[0,0,0,0,0,1,1,1,0,0,1,0,0,1,0,1,0,1,0,1,1,1]","mutagen_history":"[0,0,0,0,0,1,1,1,0,0,1,0,0,1,0,1,0,1,0,1,1,1]","location_rts":"[1077,838,147,199,1773,4754,1109,2206,799,626,453,55,36,108,191,73,817,478,1982,182,393,3201]","trial_type":"fractal-mutation","trial_index":67,"time_elapsed":1890274,"internal_node_id":"0.0-5.0-13.0"},{"group":"square cycles (cube, non-group)","fractal_assignment":["../images/cyn_red.png","../images/gry_blk.png","../images/ylw_pnk.png","../images/blu_wht.png","../images/grn_red.png","../images/ylw_slt.png","../images/org_blu.png","../images/pnk_blu.png"],"mutagen_generator_assignment":[0,1],"goal":2,"start":0,"action_noise":0.1,"location_history":"[0,4,7,3,0,1,0,4,5,1,0,4,5,1,0,4,5,4,5,1,2]","action_history":"[1,0,1,0,0,1,1,1,1,1,1,1,1,1,1,1,0,1,1,0]","mutagen_history":"[1,0,1,0,0,1,1,1,1,1,1,1,1,1,1,1,0,1,1,0]","location_rts":"[1032,126,400,384,1258,438,1502,3807,24,98,250,1308,1562,161,3345,276,1193,2935,1250,1077]","trial_type":"fractal-mutation","trial_index":68,"time_elapsed":1937267,"internal_node_id":"0.0-5.0-14.0"},{"group":"square cycles (cube, non-group)","fractal_assignment":["../images/cyn_red.png","../images/gry_blk.png","../images/ylw_pnk.png","../images/blu_wht.png","../images/grn_red.png","../images/ylw_slt.png","../images/org_blu.png","../images/pnk_blu.png"],"mutagen_generator_assignment":[0,1],"goal":1,"start":2,"action_noise":0.1,"location_history":"[2,6,5,1]","action_history":"[1,0,1]","mutagen_history":"[1,0,1]","location_rts":"[5526,533,2005]","trial_type":"fractal-mutation","trial_index":69,"time_elapsed":1951989,"internal_node_id":"0.0-5.0-15.0"},{"group":"square cycles (cube, non-group)","fractal_assignment":["../images/cyn_red.png","../images/gry_blk.png","../images/ylw_pnk.png","../images/blu_wht.png","../images/grn_red.png","../images/ylw_slt.png","../images/org_blu.png","../images/pnk_blu.png"],"mutagen_generator_assignment":[0,1],"goal":6,"start":1,"action_noise":0.1,"location_history":"[1,0,1,2,3,0,1,0,4,5,1,2,3,0,4,5,4,5,4,5,1,0,1,2,3,0,1,0,4,7,3,0,1,2,6]","action_history":"[1,0,0,0,0,1,1,1,1,1,0,0,0,1,1,0,1,0,1,1,1,0,0,0,1,0,1,1,1,1,0,0,0,1]","mutagen_history":"[1,0,0,0,0,1,1,1,1,1,0,0,0,1,1,0,1,0,1,1,1,0,0,0,1,0,1,1,1,1,0,0,0,1]","location_rts":"[1071,390,360,412,54,844,538,2308,1037,761,609,568,1273,1186,1771,962,2792,1285,13977,2979,62,384,752,1705,45,1033,547,593,16,2539,444,901,157,205]","trial_type":"fractal-mutation","trial_index":70,"time_elapsed":2035689,"internal_node_id":"0.0-5.0-16.0"},{"group":"square cycles (cube, non-group)","fractal_assignment":["../images/cyn_red.png","../images/gry_blk.png","../images/ylw_pnk.png","../images/blu_wht.png","../images/grn_red.png","../images/ylw_slt.png","../images/org_blu.png","../images/pnk_blu.png"],"mutagen_generator_assignment":[0,1],"goal":3,"start":6,"action_noise":0.1,"location_history":"[6,7,3]","action_history":"[1,1]","mutagen_history":"[1,1]","location_rts":"[2534,1055]","trial_type":"fractal-mutation","trial_index":71,"time_elapsed":2044889,"internal_node_id":"0.0-5.0-17.0"},{"group":"square cycles (cube, non-group)","fractal_assignment":["../images/cyn_red.png","../images/gry_blk.png","../images/ylw_pnk.png","../images/blu_wht.png","../images/grn_red.png","../images/ylw_slt.png","../images/org_blu.png","../images/pnk_blu.png"],"mutagen_generator_assignment":[0,1],"goal":4,"start":3,"action_noise":0.1,"location_history":"[3,2,6,7,3,0,4]","action_history":"[1,1,1,1,0,1]","mutagen_history":"[1,1,1,1,0,1]","location_rts":"[1862,1013,276,765,966,770]","trial_type":"fractal-mutation","trial_index":72,"time_elapsed":2060376,"internal_node_id":"0.0-5.0-18.0"},{"group":"square cycles (cube, non-group)","fractal_assignment":["../images/cyn_red.png","../images/gry_blk.png","../images/ylw_pnk.png","../images/blu_wht.png","../images/grn_red.png","../images/ylw_slt.png","../images/org_blu.png","../images/pnk_blu.png"],"mutagen_generator_assignment":[0,1],"goal":5,"start":4,"action_noise":0.1,"location_history":"[4,7,3,2,6,7,3,2,3,0,1,2,6,7,3,2,6,7,6,5]","action_history":"[0,1,1,1,1,1,1,0,0,0,0,1,1,1,1,1,1,0,0]","mutagen_history":"[0,1,1,1,1,1,1,0,0,0,0,1,1,1,1,1,1,0,0]","location_rts":"[130,2381,1394,918,531,1507,5700,982,125,289,304,184,5,681,360,706,1679,659,3341]","trial_type":"fractal-mutation","trial_index":73,"time_elapsed":2105691,"internal_node_id":"0.0-5.0-19.0"},{"group":"square cycles (cube, non-group)","fractal_assignment":["../images/cyn_red.png","../images/gry_blk.png","../images/ylw_pnk.png","../images/blu_wht.png","../images/grn_red.png","../images/ylw_slt.png","../images/org_blu.png","../images/pnk_blu.png"],"mutagen_generator_assignment":[0,1],"goal":7,"start":5,"action_noise":0.1,"location_history":"[5,1,0,4,5,1,0,1,2,3,2,3,2,6,7]","action_history":"[1,1,1,1,1,1,0,0,0,1,0,1,1,1]","mutagen_history":"[1,1,1,1,1,1,0,0,0,1,0,1,1,1]","location_rts":"[7633,1068,2393,646,6340,1587,146,184,261,1187,58,236,1378,482]","trial_type":"fractal-mutation","trial_index":74,"time_elapsed":2147510,"internal_node_id":"0.0-5.0-20.0"},{"group":"square cycles (cube, non-group)","fractal_assignment":["../images/cyn_red.png","../images/gry_blk.png","../images/ylw_pnk.png","../images/blu_wht.png","../images/grn_red.png","../images/ylw_slt.png","../images/org_blu.png","../images/pnk_blu.png"],"mutagen_generator_assignment":[0,1],"goal":2,"start":7,"action_noise":0.1,"location_history":"[7,3,2]","action_history":"[1,1]","mutagen_history":"[1,1]","location_rts":"[230,1765]","trial_type":"fractal-mutation","trial_index":75,"time_elapsed":2155131,"internal_node_id":"0.0-5.0-21.0"},{"group":"square cycles (cube, non-group)","fractal_assignment":["../images/cyn_red.png","../images/gry_blk.png","../images/ylw_pnk.png","../images/blu_wht.png","../images/grn_red.png","../images/ylw_slt.png","../images/org_blu.png","../images/pnk_blu.png"],"mutagen_generator_assignment":[0,1],"goal":0,"start":2,"action_noise":0.1,"location_history":"[2,6,7,3,0]","action_history":"[1,1,1,0]","mutagen_history":"[1,1,1,0]","location_rts":"[1259,5618,465,316]","trial_type":"fractal-mutation","trial_index":76,"time_elapsed":2170500,"internal_node_id":"0.0-5.0-22.0"},{"group":"square cycles (cube, non-group)","fractal_assignment":["../images/cyn_red.png","../images/gry_blk.png","../images/ylw_pnk.png","../images/blu_wht.png","../images/grn_red.png","../images/ylw_slt.png","../images/org_blu.png","../images/pnk_blu.png"],"mutagen_generator_assignment":[0,1],"goal":7,"start":0,"action_noise":0.1,"location_history":"[0,4,5,4,5,1,0,4,7]","action_history":"[1,1,0,1,1,1,1,0]","mutagen_history":"[1,1,0,1,1,1,1,0]","location_rts":"[276,223,374,6139,1782,890,117,878]","trial_type":"fractal-mutation","trial_index":77,"time_elapsed":2193089,"internal_node_id":"0.0-5.0-23.0"},{"group":"square cycles (cube, non-group)","fractal_assignment":["../images/cyn_red.png","../images/gry_blk.png","../images/ylw_pnk.png","../images/blu_wht.png","../images/grn_red.png","../images/ylw_slt.png","../images/org_blu.png","../images/pnk_blu.png"],"mutagen_generator_assignment":[0,1],"goal":5,"start":7,"action_noise":0.1,"location_history":"[7,3,0,4,5]","action_history":"[1,0,1,1]","mutagen_history":"[1,0,1,1]","location_rts":"[1296,81,621,2094]","trial_type":"fractal-mutation","trial_index":78,"time_elapsed":2204880,"internal_node_id":"0.0-5.0-24.0"},{"group":"square cycles (cube, non-group)","fractal_assignment":["../images/cyn_red.png","../images/gry_blk.png","../images/ylw_pnk.png","../images/blu_wht.png","../images/grn_red.png","../images/ylw_slt.png","../images/org_blu.png","../images/pnk_blu.png"],"mutagen_generator_assignment":[0,1],"goal":0,"start":5,"action_noise":0.1,"location_history":"[5,4,5,1,2,6,5,1,0]","action_history":"[1,1,1,1,1,0,1,1]","mutagen_history":"[1,1,1,1,1,0,1,1]","location_rts":"[879,297,1442,2569,756,1052,1900,231]","trial_type":"fractal-mutation","trial_index":79,"time_elapsed":2225919,"internal_node_id":"0.0-5.0-25.0"},{"group":"square cycles (cube, non-group)","fractal_assignment":["../images/cyn_red.png","../images/gry_blk.png","../images/ylw_pnk.png","../images/blu_wht.png","../images/grn_red.png","../images/ylw_slt.png","../images/org_blu.png","../images/pnk_blu.png"],"mutagen_generator_assignment":[0,1],"goal":6,"start":0,"action_noise":0.1,"location_history":"[0,4,5,1,2,6]","action_history":"[1,1,1,1,1]","mutagen_history":"[1,1,1,1,1]","location_rts":"[564,8478,1,1171,1111]","trial_type":"fractal-mutation","trial_index":80,"time_elapsed":2246034,"internal_node_id":"0.0-5.0-26.0"},{"group":"square cycles (cube, non-group)","fractal_assignment":["../images/cyn_red.png","../images/gry_blk.png","../images/ylw_pnk.png","../images/blu_wht.png","../images/grn_red.png","../images/ylw_slt.png","../images/org_blu.png","../images/pnk_blu.png"],"mutagen_generator_assignment":[0,1],"goal":4,"start":6,"action_noise":0.1,"location_history":"[6,7,3,2,6,7,3,0,1,0,4]","action_history":"[1,1,1,1,1,1,0,0,1,1]","mutagen_history":"[1,1,1,1,1,1,0,0,1,1]","location_rts":"[2965,4546,2681,243,7,75,172,120,77,1122]","trial_type":"fractal-mutation","trial_index":81,"time_elapsed":2272052,"internal_node_id":"0.0-5.0-27.0"},{"group":"square cycles (cube, non-group)","fractal_assignment":["../images/cyn_red.png","../images/gry_blk.png","../images/ylw_pnk.png","../images/blu_wht.png","../images/grn_red.png","../images/ylw_slt.png","../images/org_blu.png","../images/pnk_blu.png"],"mutagen_generator_assignment":[0,1],"goal":2,"start":4,"action_noise":0.1,"location_history":"[4,7,3,2]","action_history":"[0,1,1]","mutagen_history":"[0,1,1]","location_rts":"[829,2662,269]","trial_type":"fractal-mutation","trial_index":82,"time_elapsed":2282461,"internal_node_id":"0.0-5.0-28.0"},{"group":"square cycles (cube, non-group)","fractal_assignment":["../images/cyn_red.png","../images/gry_blk.png","../images/ylw_pnk.png","../images/blu_wht.png","../images/grn_red.png","../images/ylw_slt.png","../images/org_blu.png","../images/pnk_blu.png"],"mutagen_generator_assignment":[0,1],"goal":3,"start":2,"action_noise":0.1,"location_history":"[2,6,7,6,5,1,0,1,0,1,0,4,5,1,2,3]","action_history":"[1,1,0,0,1,1,0,0,0,1,1,1,1,0,0]","mutagen_history":"[1,1,0,0,1,1,0,0,0,1,1,1,1,0,0]","location_rts":"[2609,700,188,443,19,94,199,103,44,266,380,185,1244,2254,186]","trial_type":"fractal-mutation","trial_index":83,"time_elapsed":2310588,"internal_node_id":"0.0-5.0-29.0"},{"group":"square cycles (cube, non-group)","fractal_assignment":["../images/cyn_red.png","../images/gry_blk.png","../images/ylw_pnk.png","../images/blu_wht.png","../images/grn_red.png","../images/ylw_slt.png","../images/org_blu.png","../images/pnk_blu.png"],"mutagen_generator_assignment":[0,1],"goal":1,"start":3,"action_noise":0.1,"location_history":"[3,2,3,0,4,7,3,0,4,7,3,2,3,2,6,7,6,5,4,5,1]","action_history":"[1,0,0,1,1,0,0,1,0,1,1,1,1,1,1,0,0,0,1,1]","mutagen_history":"[1,0,0,1,1,0,0,1,0,1,1,1,1,1,1,0,0,0,1,1]","location_rts":"[1826,828,675,902,230,4096,935,1504,7920,1969,2674,2050,1343,2203,2504,469,3341,457,887,17]","trial_type":"fractal-mutation","trial_index":84,"time_elapsed":2371884,"internal_node_id":"0.0-5.0-30.0"},{"group":"square cycles (cube, non-group)","fractal_assignment":["../images/cyn_red.png","../images/gry_blk.png","../images/ylw_pnk.png","../images/blu_wht.png","../images/grn_red.png","../images/ylw_slt.png","../images/org_blu.png","../images/pnk_blu.png"],"mutagen_generator_assignment":[0,1],"goal":4,"start":1,"action_noise":0.1,"location_history":"[1,2,3,2,6,7,3,0,1,0,4]","action_history":"[0,0,1,1,1,0,0,0,1,1]","mutagen_history":"[0,0,1,1,1,0,0,0,1,1]","location_rts":"[5670,1654,80,6,460,110,179,195,1073,31]","trial_type":"fractal-mutation","trial_index":85,"time_elapsed":2395310,"internal_node_id":"0.0-5.0-31.0"},{"group":"square cycles (cube, non-group)","fractal_assignment":["../images/cyn_red.png","../images/gry_blk.png","../images/ylw_pnk.png","../images/blu_wht.png","../images/grn_red.png","../images/ylw_slt.png","../images/org_blu.png","../images/pnk_blu.png"],"mutagen_generator_assignment":[0,1],"goal":3,"start":4,"action_noise":0.1,"location_history":"[4,5,4,7,6,5,1,2,6,5,4,7,6,5,1,2,3]","action_history":"[1,0,0,0,1,1,0,1,0,0,0,0,1,1,0,1]","mutagen_history":"[1,0,0,0,1,1,0,1,0,0,0,0,1,1,0,1]","location_rts":"[481,43,306,437,120,321,148,1,955,384,626,41,512,491,452,514]","trial_type":"fractal-mutation","trial_index":86,"time_elapsed":2421391,"internal_node_id":"0.0-5.0-32.0"},{"group":"square cycles (cube, non-group)","fractal_assignment":["../images/cyn_red.png","../images/gry_blk.png","../images/ylw_pnk.png","../images/blu_wht.png","../images/grn_red.png","../images/ylw_slt.png","../images/org_blu.png","../images/pnk_blu.png"],"mutagen_generator_assignment":[0,1],"goal":6,"start":3,"action_noise":0.1,"location_history":"[3,2,3,2,3,0,4,5,4,7,6]","action_history":"[1,0,1,0,0,1,1,0,0,0]","mutagen_history":"[1,0,1,0,0,1,1,0,0,0]","location_rts":"[535,295,133,331,170,138,1234,346,363,261]","trial_type":"fractal-mutation","trial_index":87,"time_elapsed":2439162,"internal_node_id":"0.0-5.0-33.0"},{"group":"square cycles (cube, non-group)","fractal_assignment":["../images/cyn_red.png","../images/gry_blk.png","../images/ylw_pnk.png","../images/blu_wht.png","../images/grn_red.png","../images/ylw_slt.png","../images/org_blu.png","../images/pnk_blu.png"],"mutagen_generator_assignment":[0,1],"goal":0,"start":6,"action_noise":0.1,"location_history":"[6,7,3,2,3,2,6,5,1,0]","action_history":"[1,1,1,0,0,0,0,1,1]","mutagen_history":"[1,1,1,0,0,0,0,1,1]","location_rts":"[532,709,277,375,150,192,234,273,26]","trial_type":"fractal-mutation","trial_index":88,"time_elapsed":2454865,"internal_node_id":"0.0-5.0-34.0"},{"group":"square cycles (cube, non-group)","fractal_assignment":["../images/cyn_red.png","../images/gry_blk.png","../images/ylw_pnk.png","../images/blu_wht.png","../images/grn_red.png","../images/ylw_slt.png","../images/org_blu.png","../images/pnk_blu.png"],"mutagen_generator_assignment":[0,1],"goal":1,"start":0,"action_noise":0.1,"location_history":"[0,1]","action_history":"[0]","mutagen_history":"[0]","location_rts":"[471]","trial_type":"fractal-mutation","trial_index":89,"time_elapsed":2459891,"internal_node_id":"0.0-5.0-35.0"},{"group":"square cycles (cube, non-group)","fractal_assignment":["../images/cyn_red.png","../images/gry_blk.png","../images/ylw_pnk.png","../images/blu_wht.png","../images/grn_red.png","../images/ylw_slt.png","../images/org_blu.png","../images/pnk_blu.png"],"mutagen_generator_assignment":[0,1],"goal":5,"start":1,"action_noise":0.1,"location_history":"[1,0,1,2,3,0,4,5]","action_history":"[1,0,0,1,0,1,1]","mutagen_history":"[1,0,0,1,0,1,1]","location_rts":"[885,591,449,574,301,268,425]","trial_type":"fractal-mutation","trial_index":90,"time_elapsed":2474238,"internal_node_id":"0.0-5.0-36.0"},{"group":"square cycles (cube, non-group)","fractal_assignment":["../images/cyn_red.png","../images/gry_blk.png","../images/ylw_pnk.png","../images/blu_wht.png","../images/grn_red.png","../images/ylw_slt.png","../images/org_blu.png","../images/pnk_blu.png"],"mutagen_generator_assignment":[0,1],"goal":7,"start":5,"action_noise":0.1,"location_history":"[5,4,7]","action_history":"[1,0]","mutagen_history":"[1,0]","location_rts":"[492,269]","trial_type":"fractal-mutation","trial_index":91,"time_elapsed":2480621,"internal_node_id":"0.0-5.0-37.0"},{"group":"square cycles (cube, non-group)","fractal_assignment":["../images/cyn_red.png","../images/gry_blk.png","../images/ylw_pnk.png","../images/blu_wht.png","../images/grn_red.png","../images/ylw_slt.png","../images/org_blu.png","../images/pnk_blu.png"],"mutagen_generator_assignment":[0,1],"goal":2,"start":7,"action_noise":0.1,"location_history":"[7,3,2]","action_history":"[1,1]","mutagen_history":"[1,1]","location_rts":"[425,239]","trial_type":"fractal-mutation","trial_index":92,"time_elapsed":2486898,"internal_node_id":"0.0-5.0-38.0"},{"group":"square cycles (cube, non-group)","fractal_assignment":["../images/cyn_red.png","../images/gry_blk.png","../images/ylw_pnk.png","../images/blu_wht.png","../images/grn_red.png","../images/ylw_slt.png","../images/org_blu.png","../images/pnk_blu.png"],"mutagen_generator_assignment":[0,1],"goal":1,"start":2,"action_noise":0.1,"location_history":"[2,6,5,1]","action_history":"[0,0,1]","mutagen_history":"[0,0,1]","location_rts":"[459,266,103]","trial_type":"fractal-mutation","trial_index":93,"time_elapsed":2494381,"internal_node_id":"0.0-5.0-39.0"},{"group":"square cycles (cube, non-group)","fractal_assignment":["../images/cyn_red.png","../images/gry_blk.png","../images/ylw_pnk.png","../images/blu_wht.png","../images/grn_red.png","../images/ylw_slt.png","../images/org_blu.png","../images/pnk_blu.png"],"mutagen_generator_assignment":[0,1],"goal":3,"start":1,"action_noise":0.1,"location_history":"[1,0,4,5,4,7,3]","action_history":"[1,1,0,0,0,1]","mutagen_history":"[1,1,0,0,0,1]","location_rts":"[473,114,95,587,239,327]","trial_type":"fractal-mutation","trial_index":94,"time_elapsed":2506004,"internal_node_id":"0.0-5.0-40.0"},{"group":"square cycles (cube, non-group)","fractal_assignment":["../images/cyn_red.png","../images/gry_blk.png","../images/ylw_pnk.png","../images/blu_wht.png","../images/grn_red.png","../images/ylw_slt.png","../images/org_blu.png","../images/pnk_blu.png"],"mutagen_generator_assignment":[0,1],"goal":4,"start":3,"action_noise":0.1,"location_history":"[3,2,3,0,1,0,4]","action_history":"[1,1,0,0,1,1]","mutagen_history":"[1,1,0,0,1,1]","location_rts":"[2153,421,1633,820,110,6235]","trial_type":"fractal-mutation","trial_index":95,"time_elapsed":2527168,"internal_node_id":"0.0-5.0-41.0"},{"group":"square cycles (cube, non-group)","fractal_assignment":["../images/cyn_red.png","../images/gry_blk.png","../images/ylw_pnk.png","../images/blu_wht.png","../images/grn_red.png","../images/ylw_slt.png","../images/org_blu.png","../images/pnk_blu.png"],"mutagen_generator_assignment":[0,1],"goal":2,"start":4,"action_noise":0.1,"location_history":"[4,5,1,0,4,7,6,7,6,5,4,5,4,5,4,7,6,5,4,7,3,2]","action_history":"[1,1,0,1,0,0,1,0,0,0,1,1,1,0,0,0,1,0,0,1,1]","mutagen_history":"[1,1,0,1,0,0,1,0,0,0,1,1,1,0,0,0,1,0,0,1,1]","location_rts":"[2001,217,1163,579,579,656,168,12,150,47,17,185,189,212,1263,156,234,223,56,139,234]","trial_type":"fractal-mutation","trial_index":96,"time_elapsed":2561142,"internal_node_id":"0.0-5.0-42.0"},{"group":"square cycles (cube, non-group)","fractal_assignment":["../images/cyn_red.png","../images/gry_blk.png","../images/ylw_pnk.png","../images/blu_wht.png","../images/grn_red.png","../images/ylw_slt.png","../images/org_blu.png","../images/pnk_blu.png"],"mutagen_generator_assignment":[0,1],"goal":5,"start":2,"action_noise":0.1,"location_history":"[2,3,2,6,7,6,5]","action_history":"[0,1,1,1,0,0]","mutagen_history":"[0,1,1,1,0,0]","location_rts":"[40,403,417,726,727,569]","trial_type":"fractal-mutation","trial_index":97,"time_elapsed":2573821,"internal_node_id":"0.0-5.0-43.0"},{"group":"square cycles (cube, non-group)","fractal_assignment":["../images/cyn_red.png","../images/gry_blk.png","../images/ylw_pnk.png","../images/blu_wht.png","../images/grn_red.png","../images/ylw_slt.png","../images/org_blu.png","../images/pnk_blu.png"],"mutagen_generator_assignment":[0,1],"goal":0,"start":5,"action_noise":0.1,"location_history":"[5,4,7,3,2,6,7,3,0]","action_history":"[0,0,1,1,1,1,1,0]","mutagen_history":"[0,0,1,1,1,1,1,0]","location_rts":"[524,678,662,257,61,368,249,283]","trial_type":"fractal-mutation","trial_index":98,"time_elapsed":2588806,"internal_node_id":"0.0-5.0-44.0"},{"group":"square cycles (cube, non-group)","fractal_assignment":["../images/cyn_red.png","../images/gry_blk.png","../images/ylw_pnk.png","../images/blu_wht.png","../images/grn_red.png","../images/ylw_slt.png","../images/org_blu.png","../images/pnk_blu.png"],"mutagen_generator_assignment":[0,1],"goal":7,"start":0,"action_noise":0.1,"location_history":"[0,1,0,4,7]","action_history":"[1,1,1,0]","mutagen_history":"[1,1,1,0]","location_rts":"[419,95,84,231]","trial_type":"fractal-mutation","trial_index":99,"time_elapsed":2597346,"internal_node_id":"0.0-5.0-45.0"},{"group":"square cycles (cube, non-group)","fractal_assignment":["../images/cyn_red.png","../images/gry_blk.png","../images/ylw_pnk.png","../images/blu_wht.png","../images/grn_red.png","../images/ylw_slt.png","../images/org_blu.png","../images/pnk_blu.png"],"mutagen_generator_assignment":[0,1],"goal":6,"start":7,"action_noise":0.1,"location_history":"[7,6]","action_history":"[0]","mutagen_history":"[0]","location_rts":"[499]","trial_type":"fractal-mutation","trial_index":100,"time_elapsed":2602397,"internal_node_id":"0.0-5.0-46.0"},{"group":"square cycles (cube, non-group)","fractal_assignment":["../images/cyn_red.png","../images/gry_blk.png","../images/ylw_pnk.png","../images/blu_wht.png","../images/grn_red.png","../images/ylw_slt.png","../images/org_blu.png","../images/pnk_blu.png"],"mutagen_generator_assignment":[0,1],"goal":2,"start":6,"action_noise":0.1,"location_history":"[6,7,3,2]","action_history":"[1,1,1]","mutagen_history":"[1,1,1]","location_rts":"[419,229,168]","trial_type":"fractal-mutation","trial_index":101,"time_elapsed":2609875,"internal_node_id":"0.0-5.0-47.0"},{"group":"square cycles (cube, non-group)","fractal_assignment":["../images/cyn_red.png","../images/gry_blk.png","../images/ylw_pnk.png","../images/blu_wht.png","../images/grn_red.png","../images/ylw_slt.png","../images/org_blu.png","../images/pnk_blu.png"],"mutagen_generator_assignment":[0,1],"goal":5,"start":2,"action_noise":0.1,"location_history":"[2,3,0,4,5]","action_history":"[0,0,0,1]","mutagen_history":"[0,0,0,1]","location_rts":"[363,169,97,357]","trial_type":"fractal-mutation","trial_index":102,"time_elapsed":2618556,"internal_node_id":"0.0-5.0-48.0"},{"group":"square cycles (cube, non-group)","fractal_assignment":["../images/cyn_red.png","../images/gry_blk.png","../images/ylw_pnk.png","../images/blu_wht.png","../images/grn_red.png","../images/ylw_slt.png","../images/org_blu.png","../images/pnk_blu.png"],"mutagen_generator_assignment":[0,1],"goal":3,"start":5,"action_noise":0.1,"location_history":"[5,1,2,3]","action_history":"[1,0,0]","mutagen_history":"[1,0,0]","location_rts":"[194,232,986]","trial_type":"fractal-mutation","trial_index":103,"time_elapsed":2626605,"internal_node_id":"0.0-5.0-49.0"},{"view_history":"[{\"page_index\":0,\"viewing_time\":3708}]","rt":3710,"trial_type":"instructions","trial_index":104,"time_elapsed":2631316,"internal_node_id":"0.0-6.0"},{"rt":23891,"responses":"{\"Q0\":\"If participants would look for patterns\"}","trial_type":"survey-text","trial_index":105,"time_elapsed":2656222,"internal_node_id":"0.0-7.0-0.0"},{"rt":15701,"responses":"{\"Q0\":\"If we could figure out the pattern correctly.\"}","trial_type":"survey-text","trial_index":106,"time_elapsed":2672931,"internal_node_id":"0.0-7.0-1.0"},{"rt":54181,"responses":"{\"Q0\":\"<img src='../images/diagrams/square_cycles.png'>\"}","trial_type":"survey-multi-choice","trial_index":107,"time_elapsed":2728130,"internal_node_id":"0.0-7.0-2.0"},{"rt":31782,"assignments":["../images/blu_wht.png","../images/ylw_slt.png","../images/org_blu.png","../images/gry_blk.png","../images/grn_red.png","../images/pnk_blu.png","../images/cyn_red.png","../images/ylw_pnk.png"],"trial_type":"drag-drop-on-image","trial_index":108,"time_elapsed":2760919,"internal_node_id":"0.0-7.0-3.0"},{"rt":5857,"responses":"{\"Q0\":\"2\"}","trial_type":"survey-likert","trial_index":109,"time_elapsed":2767787,"internal_node_id":"0.0-7.0-4.0"},{"rt":44762,"responses":"{\"Q0\":\"There were two choices to choose from each led to another choice to be made. Sometimes the pattern worked and others it didn't\"}","trial_type":"survey-text","trial_index":110,"time_elapsed":2813555,"internal_node_id":"0.0-7.0-5.0"},{"rt":4540,"responses":"{\"Q0\":\"Yes\"}","trial_type":"survey-multi-choice","trial_index":111,"time_elapsed":2819103,"internal_node_id":"0.0-7.0-6.0"},{"rt":9310,"responses":"{\"Q0\":\"Between sessions 1 and 2\"}","trial_type":"survey-multi-choice","trial_index":112,"time_elapsed":2829425,"internal_node_id":"0.0-7.0-7.0"},{"rt":17788,"responses":"{\"Q0\":\"\"}","trial_type":"survey-text","trial_index":113,"time_elapsed":2848219,"internal_node_id":"0.0-7.0-8.0"},{"rt":5011,"responses":"{\"Q0\":\"1\"}","trial_type":"survey-likert","trial_index":114,"time_elapsed":2854237,"internal_node_id":"0.0-7.0-9.0"},{"rt":10188,"responses":"{\"Q0\":\"Different structure\"}","trial_type":"survey-multi-choice","trial_index":115,"time_elapsed":2865436,"internal_node_id":"0.0-7.0-10.0"},{"rt":26866,"responses":"{\"Q0\":\"left (white) door = acid, (black) door = ray\",\"Q1\":\"Slightly confident\"}","trial_type":"survey-multi-choice","trial_index":116,"time_elapsed":2893325,"internal_node_id":"0.0-7.0-11.0"},{"rt":10755,"responses":"{\"Q0\":\"25-35\",\"Q1\":\"Associates or other two-year degree\",\"Q2\":\"Female\",\"Q3\":\"White\"}","trial_type":"survey-multi-choice","trial_index":117,"time_elapsed":2905120,"internal_node_id":"0.0-8.0"},{"rt":12245,"responses":"{\"Q0\":\"\"}","trial_type":"survey-text","trial_index":118,"time_elapsed":2918367,"internal_node_id":"0.0-9.0"}]