[{"view_history":"[{\"page_index\":0,\"viewing_time\":260349},{\"page_index\":1,\"viewing_time\":17384}]","rt":277734,"trial_type":"instructions","trial_index":0,"time_elapsed":277735,"internal_node_id":"0.0-0.0"},{"view_history":"[{\"page_index\":0,\"viewing_time\":5628},{\"page_index\":1,\"viewing_time\":31059}]","rt":36688,"trial_type":"instructions","trial_index":1,"time_elapsed":315425,"internal_node_id":"0.0-1.0"},{"group":"square cycles (cube, non-group)","room_assignment":["pink","blue","green","yellow","purple","brown","red","grey"],"door_color_assignment":["white","black"],"door_generator_assignment":[0,1],"goal":5,"start":7,"action_noise":0.1,"location_history":"[7,3,2,3,0,4,7,6,5]","action_history":"[1,1,0,0,1,0,0,0]","door_history":"[1,1,0,0,1,0,0,0]","location_rts":"[1908,1447,617,654,889,502,466,412]","trial_type":"two-door-navigation","trial_index":2,"time_elapsed":333966,"internal_node_id":"0.0-2.0-0.0"},{"group":"square cycles (cube, non-group)","room_assignment":["pink","blue","green","yellow","purple","brown","red","grey"],"door_color_assignment":["white","black"],"door_generator_assignment":[0,1],"goal":2,"start":5,"action_noise":0.1,"location_history":"[5,4,7,3,0,1,2]","action_history":"[0,1,1,0,0,0]","door_history":"[0,1,1,0,0,0]","location_rts":"[69421,13862,8430,1213,361,761]","trial_type":"two-door-navigation","trial_index":3,"time_elapsed":437622,"internal_node_id":"0.0-2.0-1.0"},{"group":"square cycles (cube, non-group)","room_assignment":["pink","blue","green","yellow","purple","brown","red","grey"],"door_color_assignment":["white","black"],"door_generator_assignment":[0,1],"goal":0,"start":2,"action_noise":0.1,"location_history":"[2,3,0]","action_history":"[0,0]","door_history":"[0,0]","location_rts":"[5568,424]","trial_type":"two-door-navigation","trial_index":4,"time_elapsed":449151,"internal_node_id":"0.0-2.0-2.0"},{"group":"square cycles (cube, non-group)","room_assignment":["pink","blue","green","yellow","purple","brown","red","grey"],"door_color_assignment":["white","black"],"door_generator_assignment":[0,1],"goal":1,"start":0,"action_noise":0.1,"location_history":"[0,1]","action_history":"[0]","door_history":"[0]","location_rts":"[1824]","trial_type":"two-door-navigation","trial_index":5,"time_elapsed":455497,"internal_node_id":"0.0-2.0-3.0"},{"group":"square cycles (cube, non-group)","room_assignment":["pink","blue","green","yellow","purple","brown","red","grey"],"door_color_assignment":["white","black"],"door_generator_assignment":[0,1],"goal":6,"start":1,"action_noise":0.1,"location_history":"[1,0,4,7,6]","action_history":"[1,1,0,0]","door_history":"[1,1,0,0]","location_rts":"[5096,1056,807,412]","trial_type":"two-door-navigation","trial_index":6,"time_elapsed":470441,"internal_node_id":"0.0-2.0-4.0"},{"group":"square cycles (cube, non-group)","room_assignment":["pink","blue","green","yellow","purple","brown","red","grey"],"door_color_assignment":["white","black"],"door_generator_assignment":[0,1],"goal":3,"start":6,"action_noise":0.1,"location_history":"[6,5,1,2,6,5,4,7,6,7,6,7,3]","action_history":"[0,1,0,0,0,0,0,0,1,0,1,1]","door_history":"[0,1,0,0,0,0,0,0,1,0,1,1]","location_rts":"[18151,875,1445,342,369,465,1072,1075,685,377,779,436]","trial_type":"two-door-navigation","trial_index":7,"time_elapsed":512236,"internal_node_id":"0.0-2.0-5.0"},{"group":"square cycles (cube, non-group)","room_assignment":["pink","blue","green","yellow","purple","brown","red","grey"],"door_color_assignment":["white","black"],"door_generator_assignment":[0,1],"goal":4,"start":3,"action_noise":0.1,"location_history":"[3,0,4]","action_history":"[0,1]","door_history":"[0,1]","location_rts":"[10311,1123]","trial_type":"two-door-navigation","trial_index":8,"time_elapsed":529212,"internal_node_id":"0.0-2.0-6.0"},{"group":"square cycles (cube, non-group)","room_assignment":["pink","blue","green","yellow","purple","brown","red","grey"],"door_color_assignment":["white","black"],"door_generator_assignment":[0,1],"goal":1,"start":4,"action_noise":0.1,"location_history":"[4,5,4,7,3,2,3,0,1]","action_history":"[1,0,0,1,0,0,0,0]","door_history":"[1,0,0,1,0,0,0,0]","location_rts":"[9060,1293,477,957,605,1191,343,420]","trial_type":"two-door-navigation","trial_index":9,"time_elapsed":555199,"internal_node_id":"0.0-2.0-7.0"},{"group":"square cycles (cube, non-group)","room_assignment":["pink","blue","green","yellow","purple","brown","red","grey"],"door_color_assignment":["white","black"],"door_generator_assignment":[0,1],"goal":4,"start":1,"action_noise":0.1,"location_history":"[1,0,1,2,6,5,4]","action_history":"[1,0,1,1,0,0]","door_history":"[1,0,1,1,0,0]","location_rts":"[17956,1067,866,2338,736,397]","trial_type":"two-door-navigation","trial_index":10,"time_elapsed":588180,"internal_node_id":"0.0-2.0-8.0"},{"group":"square cycles (cube, non-group)","room_assignment":["pink","blue","green","yellow","purple","brown","red","grey"],"door_color_assignment":["white","black"],"door_generator_assignment":[0,1],"goal":5,"start":4,"action_noise":0.1,"location_history":"[4,5]","action_history":"[1]","door_history":"[1]","location_rts":"[26265]","trial_type":"two-door-navigation","trial_index":11,"time_elapsed":618965,"internal_node_id":"0.0-2.0-9.0"},{"group":"square cycles (cube, non-group)","room_assignment":["pink","blue","green","yellow","purple","brown","red","grey"],"door_color_assignment":["white","black"],"door_generator_assignment":[0,1],"goal":3,"start":5,"action_noise":0.1,"location_history":"[5,4,7,3]","action_history":"[0,0,0]","door_history":"[0,0,0]","location_rts":"[2915,614,580]","trial_type":"two-door-navigation","trial_index":12,"time_elapsed":629672,"internal_node_id":"0.0-2.0-10.0"},{"group":"square cycles (cube, non-group)","room_assignment":["pink","blue","green","yellow","purple","brown","red","grey"],"door_color_assignment":["white","black"],"door_generator_assignment":[0,1],"goal":6,"start":3,"action_noise":0.1,"location_history":"[3,2,3,0,4,7,3,0,1,0,4,5,4,7,3,0,1,2,3,0,1,0,4,7,6]","action_history":"[0,0,0,1,0,0,0,0,1,0,0,0,0,0,0,0,0,1,0,0,1,1,0,0]","door_history":"[0,0,0,1,0,0,0,0,1,0,0,0,0,0,0,0,0,1,0,0,1,1,0,0]","location_rts":"[2903,380,766,1461,644,377,7357,390,969,484,772,804,951,607,528,541,521,1929,1713,551,2267,1053,859,531]","trial_type":"two-door-navigation","trial_index":13,"time_elapsed":686977,"internal_node_id":"0.0-2.0-11.0"},{"group":"square cycles (cube, non-group)","room_assignment":["pink","blue","green","yellow","purple","brown","red","grey"],"door_color_assignment":["white","black"],"door_generator_assignment":[0,1],"goal":7,"start":6,"action_noise":0.1,"location_history":"[6,5,4,5,4,7]","action_history":"[0,0,0,0,0]","door_history":"[0,0,0,0,0]","location_rts":"[1981,449,483,684,476]","trial_type":"two-door-navigation","trial_index":14,"time_elapsed":699638,"internal_node_id":"0.0-2.0-12.0"},{"group":"square cycles (cube, non-group)","room_assignment":["pink","blue","green","yellow","purple","brown","red","grey"],"door_color_assignment":["white","black"],"door_generator_assignment":[0,1],"goal":0,"start":7,"action_noise":0.1,"location_history":"[7,3,0]","action_history":"[1,0]","door_history":"[1,0]","location_rts":"[3438,955]","trial_type":"two-door-navigation","trial_index":15,"time_elapsed":709570,"internal_node_id":"0.0-2.0-13.0"},{"group":"square cycles (cube, non-group)","room_assignment":["pink","blue","green","yellow","purple","brown","red","grey"],"door_color_assignment":["white","black"],"door_generator_assignment":[0,1],"goal":2,"start":0,"action_noise":0.1,"location_history":"[0,1,2]","action_history":"[0,0]","door_history":"[0,0]","location_rts":"[2151,437]","trial_type":"two-door-navigation","trial_index":16,"time_elapsed":717693,"internal_node_id":"0.0-2.0-14.0"},{"group":"square cycles (cube, non-group)","room_assignment":["pink","blue","green","yellow","purple","brown","red","grey"],"door_color_assignment":["white","black"],"door_generator_assignment":[0,1],"goal":1,"start":2,"action_noise":0.1,"location_history":"[2,3,0,1]","action_history":"[0,0,0]","door_history":"[0,0,0]","location_rts":"[1640,451,371]","trial_type":"two-door-navigation","trial_index":17,"time_elapsed":726715,"internal_node_id":"0.0-2.0-15.0"},{"group":"square cycles (cube, non-group)","room_assignment":["pink","blue","green","yellow","purple","brown","red","grey"],"door_color_assignment":["white","black"],"door_generator_assignment":[0,1],"goal":6,"start":1,"action_noise":0.1,"location_history":"[1,0,4,5,4,7,6]","action_history":"[1,1,0,0,0,0]","door_history":"[1,1,0,0,0,0]","location_rts":"[1641,1347,813,498,527,630]","trial_type":"two-door-navigation","trial_index":18,"time_elapsed":741796,"internal_node_id":"0.0-2.0-16.0"},{"group":"square cycles (cube, non-group)","room_assignment":["pink","blue","green","yellow","purple","brown","red","grey"],"door_color_assignment":["white","black"],"door_generator_assignment":[0,1],"goal":3,"start":6,"action_noise":0.1,"location_history":"[6,5,4,7,6,5,1,2,6,5,4,7,6,5,4,5,4,7,6,7,3]","action_history":"[0,0,0,0,0,0,0,1,0,0,0,0,0,0,0,0,0,0,1,1]","door_history":"[0,0,0,0,0,0,0,1,0,0,0,0,0,0,0,0,0,0,1,1]","location_rts":"[1668,477,496,417,585,573,1058,1006,804,1292,775,585,854,744,716,736,531,1045,1096,987]","trial_type":"two-door-navigation","trial_index":19,"time_elapsed":782111,"internal_node_id":"0.0-2.0-17.0"},{"group":"square cycles (cube, non-group)","room_assignment":["pink","blue","green","yellow","purple","brown","red","grey"],"door_color_assignment":["white","black"],"door_generator_assignment":[0,1],"goal":4,"start":3,"action_noise":0.1,"location_history":"[3,0,1,0,1,0,1,0,4]","action_history":"[0,0,1,1,1,1,1,1]","door_history":"[0,0,1,1,1,1,1,1]","location_rts":"[2057,743,1608,1329,649,2655,1456,921]","trial_type":"two-door-navigation","trial_index":20,"time_elapsed":805169,"internal_node_id":"0.0-2.0-18.0"},{"group":"square cycles (cube, non-group)","room_assignment":["pink","blue","green","yellow","purple","brown","red","grey"],"door_color_assignment":["white","black"],"door_generator_assignment":[0,1],"goal":5,"start":4,"action_noise":0.1,"location_history":"[4,7,3,0,1,2,3,0,1,2,3,0,1,2,6,5]","action_history":"[1,1,0,0,0,0,0,0,0,0,0,0,0,1,0]","door_history":"[1,1,0,0,0,0,0,0,0,0,0,0,0,1,0]","location_rts":"[3143,1604,1878,298,549,678,607,419,761,2002,723,646,1413,1064,3051]","trial_type":"two-door-navigation","trial_index":21,"time_elapsed":842797,"internal_node_id":"0.0-2.0-19.0"},{"group":"square cycles (cube, non-group)","room_assignment":["pink","blue","green","yellow","purple","brown","red","grey"],"door_color_assignment":["white","black"],"door_generator_assignment":[0,1],"goal":7,"start":5,"action_noise":0.1,"location_history":"[5,4,7]","action_history":"[0,0]","door_history":"[0,0]","location_rts":"[1992,1108]","trial_type":"two-door-navigation","trial_index":22,"time_elapsed":851434,"internal_node_id":"0.0-2.0-20.0"},{"group":"square cycles (cube, non-group)","room_assignment":["pink","blue","green","yellow","purple","brown","red","grey"],"door_color_assignment":["white","black"],"door_generator_assignment":[0,1],"goal":2,"start":7,"action_noise":0.1,"location_history":"[7,3,0,1,2]","action_history":"[1,0,0,0]","door_history":"[1,0,0,0]","location_rts":"[5556,4249,429,452]","trial_type":"two-door-navigation","trial_index":23,"time_elapsed":869693,"internal_node_id":"0.0-2.0-21.0"},{"group":"square cycles (cube, non-group)","room_assignment":["pink","blue","green","yellow","purple","brown","red","grey"],"door_color_assignment":["white","black"],"door_generator_assignment":[0,1],"goal":0,"start":2,"action_noise":0.1,"location_history":"[2,3,0]","action_history":"[0,0]","door_history":"[0,0]","location_rts":"[2569,338]","trial_type":"two-door-navigation","trial_index":24,"time_elapsed":878141,"internal_node_id":"0.0-2.0-22.0"},{"group":"square cycles (cube, non-group)","room_assignment":["pink","blue","green","yellow","purple","brown","red","grey"],"door_color_assignment":["white","black"],"door_generator_assignment":[0,1],"goal":7,"start":0,"action_noise":0.1,"location_history":"[0,1,0,4,7]","action_history":"[0,1,1,0]","door_history":"[0,1,1,0]","location_rts":"[1905,941,1549,775]","trial_type":"two-door-navigation","trial_index":25,"time_elapsed":890892,"internal_node_id":"0.0-2.0-23.0"},{"group":"square cycles (cube, non-group)","room_assignment":["pink","blue","green","yellow","purple","brown","red","grey"],"door_color_assignment":["white","black"],"door_generator_assignment":[0,1],"goal":5,"start":7,"action_noise":0.1,"location_history":"[7,6,5]","action_history":"[0,0]","door_history":"[0,0]","location_rts":"[21013,893]","trial_type":"two-door-navigation","trial_index":26,"time_elapsed":918348,"internal_node_id":"0.0-2.0-24.0"},{"group":"square cycles (cube, non-group)","room_assignment":["pink","blue","green","yellow","purple","brown","red","grey"],"door_color_assignment":["white","black"],"door_generator_assignment":[0,1],"goal":0,"start":5,"action_noise":0.1,"location_history":"[5,1,2,3,2,3,0]","action_history":"[1,0,0,0,0,0]","door_history":"[1,0,0,0,0,0]","location_rts":"[10277,767,370,346,543,375]","trial_type":"two-door-navigation","trial_index":27,"time_elapsed":940640,"internal_node_id":"0.0-2.0-25.0"},{"group":"square cycles (cube, non-group)","room_assignment":["pink","blue","green","yellow","purple","brown","red","grey"],"door_color_assignment":["white","black"],"door_generator_assignment":[0,1],"goal":6,"start":0,"action_noise":0.1,"location_history":"[0,4,5,4,7,6]","action_history":"[1,0,0,0,0]","door_history":"[1,0,0,0,0]","location_rts":"[1413,808,668,1002,624]","trial_type":"two-door-navigation","trial_index":28,"time_elapsed":953753,"internal_node_id":"0.0-2.0-26.0"},{"group":"square cycles (cube, non-group)","room_assignment":["pink","blue","green","yellow","purple","brown","red","grey"],"door_color_assignment":["white","black"],"door_generator_assignment":[0,1],"goal":4,"start":6,"action_noise":0.1,"location_history":"[6,7,6,5,4]","action_history":"[0,0,0,0]","door_history":"[0,0,0,0]","location_rts":"[1263,391,448,566]","trial_type":"two-door-navigation","trial_index":29,"time_elapsed":963992,"internal_node_id":"0.0-2.0-27.0"},{"group":"square cycles (cube, non-group)","room_assignment":["pink","blue","green","yellow","purple","brown","red","grey"],"door_color_assignment":["white","black"],"door_generator_assignment":[0,1],"goal":2,"start":4,"action_noise":0.1,"location_history":"[4,5,4,5,1,2]","action_history":"[1,0,1,1,0]","door_history":"[1,0,1,1,0]","location_rts":"[14832,1083,1181,1191,2391]","trial_type":"two-door-navigation","trial_index":30,"time_elapsed":993270,"internal_node_id":"0.0-2.0-28.0"},{"group":"square cycles (cube, non-group)","room_assignment":["pink","blue","green","yellow","purple","brown","red","grey"],"door_color_assignment":["white","black"],"door_generator_assignment":[0,1],"goal":3,"start":2,"action_noise":0.1,"location_history":"[2,3]","action_history":"[0]","door_history":"[0]","location_rts":"[9539]","trial_type":"two-door-navigation","trial_index":31,"time_elapsed":1007331,"internal_node_id":"0.0-2.0-29.0"},{"group":"square cycles (cube, non-group)","room_assignment":["pink","blue","green","yellow","purple","brown","red","grey"],"door_color_assignment":["white","black"],"door_generator_assignment":[0,1],"goal":1,"start":3,"action_noise":0.1,"location_history":"[3,0,1]","action_history":"[0,0]","door_history":"[0,0]","location_rts":"[3890,444]","trial_type":"two-door-navigation","trial_index":32,"time_elapsed":1017200,"internal_node_id":"0.0-2.0-30.0"},{"group":"square cycles (cube, non-group)","room_assignment":["pink","blue","green","yellow","purple","brown","red","grey"],"door_color_assignment":["white","black"],"door_generator_assignment":[0,1],"goal":4,"start":1,"action_noise":0.1,"location_history":"[1,0,1,0,4]","action_history":"[1,0,1,1]","door_history":"[1,0,1,1]","location_rts":"[1962,831,789,574]","trial_type":"two-door-navigation","trial_index":33,"time_elapsed":1028918,"internal_node_id":"0.0-2.0-31.0"},{"group":"square cycles (cube, non-group)","room_assignment":["pink","blue","green","yellow","purple","brown","red","grey"],"door_color_assignment":["white","black"],"door_generator_assignment":[0,1],"goal":3,"start":4,"action_noise":0.1,"location_history":"[4,5,4,5,4,5,1,0,1,2,3]","action_history":"[1,0,1,1,1,1,0,0,0,0]","door_history":"[1,0,1,1,1,1,0,0,0,0]","location_rts":"[2843,1355,807,966,1674,788,1088,650,570,411]","trial_type":"two-door-navigation","trial_index":34,"time_elapsed":1053757,"internal_node_id":"0.0-2.0-32.0"},{"group":"square cycles (cube, non-group)","room_assignment":["pink","blue","green","yellow","purple","brown","red","grey"],"door_color_assignment":["white","black"],"door_generator_assignment":[0,1],"goal":6,"start":3,"action_noise":0.1,"location_history":"[3,2,6]","action_history":"[1,1]","door_history":"[1,1]","location_rts":"[5049,1189]","trial_type":"two-door-navigation","trial_index":35,"time_elapsed":1065533,"internal_node_id":"0.0-2.0-33.0"},{"group":"square cycles (cube, non-group)","room_assignment":["pink","blue","green","yellow","purple","brown","red","grey"],"door_color_assignment":["white","black"],"door_generator_assignment":[0,1],"goal":0,"start":6,"action_noise":0.1,"location_history":"[6,7,6,5,4,5,4,5,1,2,3,0]","action_history":"[1,0,0,0,1,0,1,1,0,0,0]","door_history":"[1,0,0,0,1,0,1,1,0,0,0]","location_rts":"[22015,627,555,978,875,1182,808,417,1268,472,315]","trial_type":"two-door-navigation","trial_index":36,"time_elapsed":1109738,"internal_node_id":"0.0-2.0-34.0"},{"group":"square cycles (cube, non-group)","room_assignment":["pink","blue","green","yellow","purple","brown","red","grey"],"door_color_assignment":["white","black"],"door_generator_assignment":[0,1],"goal":1,"start":0,"action_noise":0.1,"location_history":"[0,1]","action_history":"[0]","door_history":"[0]","location_rts":"[1012]","trial_type":"two-door-navigation","trial_index":37,"time_elapsed":1115269,"internal_node_id":"0.0-2.0-35.0"},{"group":"square cycles (cube, non-group)","room_assignment":["pink","blue","green","yellow","purple","brown","red","grey"],"door_color_assignment":["white","black"],"door_generator_assignment":[0,1],"goal":5,"start":1,"action_noise":0.1,"location_history":"[1,2,3,0,1,2,6,5]","action_history":"[0,0,0,0,0,1,0]","door_history":"[0,0,0,0,0,1,0]","location_rts":"[1351,755,658,434,816,1160,1090]","trial_type":"two-door-navigation","trial_index":38,"time_elapsed":1132153,"internal_node_id":"0.0-2.0-36.0"},{"group":"square cycles (cube, non-group)","room_assignment":["pink","blue","green","yellow","purple","brown","red","grey"],"door_color_assignment":["white","black"],"door_generator_assignment":[0,1],"goal":7,"start":5,"action_noise":0.1,"location_history":"[5,1,2,3,0,1,0,4,7]","action_history":"[1,0,0,0,0,1,1,0]","door_history":"[1,0,0,0,0,1,1,0]","location_rts":"[10693,722,532,552,465,900,1816,1308]","trial_type":"two-door-navigation","trial_index":39,"time_elapsed":1160796,"internal_node_id":"0.0-2.0-37.0"},{"group":"square cycles (cube, non-group)","room_assignment":["pink","blue","green","yellow","purple","brown","red","grey"],"door_color_assignment":["white","black"],"door_generator_assignment":[0,1],"goal":2,"start":7,"action_noise":0.1,"location_history":"[7,3,0,1,2]","action_history":"[1,0,0,0]","door_history":"[1,0,0,0]","location_rts":"[3356,905,398,284]","trial_type":"two-door-navigation","trial_index":40,"time_elapsed":1173322,"internal_node_id":"0.0-2.0-38.0"},{"group":"square cycles (cube, non-group)","room_assignment":["pink","blue","green","yellow","purple","brown","red","grey"],"door_color_assignment":["white","black"],"door_generator_assignment":[0,1],"goal":1,"start":2,"action_noise":0.1,"location_history":"[2,3,0,1]","action_history":"[0,0,0]","door_history":"[0,0,0]","location_rts":"[1223,505,321]","trial_type":"two-door-navigation","trial_index":41,"time_elapsed":1181930,"internal_node_id":"0.0-2.0-39.0"},{"group":"square cycles (cube, non-group)","room_assignment":["pink","blue","green","yellow","purple","brown","red","grey"],"door_color_assignment":["white","black"],"door_generator_assignment":[0,1],"goal":3,"start":1,"action_noise":0.1,"location_history":"[1,2,3]","action_history":"[0,0]","door_history":"[0,0]","location_rts":"[2019,371]","trial_type":"two-door-navigation","trial_index":42,"time_elapsed":1189859,"internal_node_id":"0.0-2.0-40.0"},{"group":"square cycles (cube, non-group)","room_assignment":["pink","blue","green","yellow","purple","brown","red","grey"],"door_color_assignment":["white","black"],"door_generator_assignment":[0,1],"goal":4,"start":3,"action_noise":0.1,"location_history":"[3,2,3,2,3,2,6,5,4]","action_history":"[1,0,1,1,1,1,0,0]","door_history":"[1,0,1,1,1,1,0,0]","location_rts":"[1926,654,608,385,474,619,1508,530]","trial_type":"two-door-navigation","trial_index":43,"time_elapsed":1208199,"internal_node_id":"0.0-2.0-41.0"},{"group":"square cycles (cube, non-group)","room_assignment":["pink","blue","green","yellow","purple","brown","red","grey"],"door_color_assignment":["white","black"],"door_generator_assignment":[0,1],"goal":2,"start":4,"action_noise":0.1,"location_history":"[4,7,6,7,3,0,1,2]","action_history":"[1,0,1,1,0,0,0]","door_history":"[1,0,1,1,0,0,0]","location_rts":"[3098,827,3458,742,1223,336,396]","trial_type":"two-door-navigation","trial_index":44,"time_elapsed":1228904,"internal_node_id":"0.0-2.0-42.0"},{"group":"square cycles (cube, non-group)","room_assignment":["pink","blue","green","yellow","purple","brown","red","grey"],"door_color_assignment":["white","black"],"door_generator_assignment":[0,1],"goal":5,"start":2,"action_noise":0.1,"location_history":"[2,3,0,1,2,6,5]","action_history":"[0,0,0,0,1,0]","door_history":"[0,0,0,0,1,0]","location_rts":"[1607,613,1218,529,1384,1020]","trial_type":"two-door-navigation","trial_index":45,"time_elapsed":1244884,"internal_node_id":"0.0-2.0-43.0"},{"group":"square cycles (cube, non-group)","room_assignment":["pink","blue","green","yellow","purple","brown","red","grey"],"door_color_assignment":["white","black"],"door_generator_assignment":[0,1],"goal":0,"start":5,"action_noise":0.1,"location_history":"[5,1,2,3,0]","action_history":"[1,0,0,0]","door_history":"[1,0,0,0]","location_rts":"[2698,1841,436,426]","trial_type":"two-door-navigation","trial_index":46,"time_elapsed":1257856,"internal_node_id":"0.0-2.0-44.0"},{"group":"square cycles (cube, non-group)","room_assignment":["pink","blue","green","yellow","purple","brown","red","grey"],"door_color_assignment":["white","black"],"door_generator_assignment":[0,1],"goal":7,"start":0,"action_noise":0.1,"location_history":"[0,1,0,4,7]","action_history":"[1,1,1,0]","door_history":"[1,1,1,0]","location_rts":"[1677,1026,820,1293]","trial_type":"two-door-navigation","trial_index":47,"time_elapsed":1270238,"internal_node_id":"0.0-2.0-45.0"},{"group":"square cycles (cube, non-group)","room_assignment":["pink","blue","green","yellow","purple","brown","red","grey"],"door_color_assignment":["white","black"],"door_generator_assignment":[0,1],"goal":6,"start":7,"action_noise":0.1,"location_history":"[7,6]","action_history":"[0]","door_history":"[0]","location_rts":"[1691]","trial_type":"two-door-navigation","trial_index":48,"time_elapsed":1276450,"internal_node_id":"0.0-2.0-46.0"},{"group":"square cycles (cube, non-group)","room_assignment":["pink","blue","green","yellow","purple","brown","red","grey"],"door_color_assignment":["white","black"],"door_generator_assignment":[0,1],"goal":2,"start":6,"action_noise":0.1,"location_history":"[6,7,3,0,1,2]","action_history":"[1,1,0,0,0]","door_history":"[1,1,0,0,0]","location_rts":"[2247,1154,984,440,352]","trial_type":"two-door-navigation","trial_index":49,"time_elapsed":1290224,"internal_node_id":"0.0-2.0-47.0"},{"group":"square cycles (cube, non-group)","room_assignment":["pink","blue","green","yellow","purple","brown","red","grey"],"door_color_assignment":["white","black"],"door_generator_assignment":[0,1],"goal":5,"start":2,"action_noise":0.1,"location_history":"[2,6,5]","action_history":"[1,0]","door_history":"[1,0]","location_rts":"[2316,1274]","trial_type":"two-door-navigation","trial_index":50,"time_elapsed":1299352,"internal_node_id":"0.0-2.0-48.0"},{"group":"square cycles (cube, non-group)","room_assignment":["pink","blue","green","yellow","purple","brown","red","grey"],"door_color_assignment":["white","black"],"door_generator_assignment":[0,1],"goal":3,"start":5,"action_noise":0.1,"location_history":"[5,4,5,4,5,1,2,3]","action_history":"[1,1,1,1,1,0,0]","door_history":"[1,1,1,1,1,0,0]","location_rts":"[4573,1232,1027,902,871,1008,9713]","trial_type":"two-door-navigation","trial_index":51,"time_elapsed":1329311,"internal_node_id":"0.0-2.0-49.0"},{"view_history":"[{\"page_index\":0,\"viewing_time\":2174}]","rt":2174,"trial_type":"instructions","trial_index":52,"time_elapsed":1332486,"internal_node_id":"0.0-3.0"},{"view_history":"[{\"page_index\":0,\"viewing_time\":2097},{\"page_index\":1,\"viewing_time\":11265}]","rt":13362,"trial_type":"instructions","trial_index":53,"time_elapsed":1346849,"internal_node_id":"0.0-4.0"},{"group":"tri cycles (cube, non-group)","fractal_assignment":["../images/cyn_red.png","../images/org_blu.png","../images/pnk_blu.png","../images/ylw_slt.png","../images/blu_wht.png","../images/ylw_pnk.png","../images/grn_red.png","../images/gry_blk.png"],"mutagen_generator_assignment":[1,0],"goal":5,"start":7,"action_noise":0.1,"location_history":"[7,6,5]","action_history":"[0,1]","mutagen_history":"[1,0]","location_rts":"[3778,693]","trial_type":"fractal-mutation","trial_index":54,"time_elapsed":1356879,"internal_node_id":"0.0-5.0-0.0"},{"group":"tri cycles (cube, non-group)","fractal_assignment":["../images/cyn_red.png","../images/org_blu.png","../images/pnk_blu.png","../images/ylw_slt.png","../images/blu_wht.png","../images/ylw_pnk.png","../images/grn_red.png","../images/gry_blk.png"],"mutagen_generator_assignment":[1,0],"goal":2,"start":5,"action_noise":0.1,"location_history":"[5,1,5,1,0,2]","action_history":"[0,1,0,0,0]","mutagen_history":"[1,0,1,1,1]","location_rts":"[1537,1689,1098,555,2251]","trial_type":"fractal-mutation","trial_index":55,"time_elapsed":1372674,"internal_node_id":"0.0-5.0-1.0"},{"group":"tri cycles (cube, non-group)","fractal_assignment":["../images/cyn_red.png","../images/org_blu.png","../images/pnk_blu.png","../images/ylw_slt.png","../images/blu_wht.png","../images/ylw_pnk.png","../images/grn_red.png","../images/gry_blk.png"],"mutagen_generator_assignment":[1,0],"goal":0,"start":2,"action_noise":0.1,"location_history":"[2,6,4,7,6,5,1,0]","action_history":"[1,0,0,0,1,0,0]","mutagen_history":"[0,1,1,1,0,1,1]","location_rts":"[1117,1301,538,634,696,763,364]","trial_type":"fractal-mutation","trial_index":56,"time_elapsed":1388813,"internal_node_id":"0.0-5.0-2.0"},{"group":"tri cycles (cube, non-group)","fractal_assignment":["../images/cyn_red.png","../images/org_blu.png","../images/pnk_blu.png","../images/ylw_slt.png","../images/blu_wht.png","../images/ylw_pnk.png","../images/grn_red.png","../images/gry_blk.png"],"mutagen_generator_assignment":[1,0],"goal":1,"start":0,"action_noise":0.1,"location_history":"[0,3,7,6,5,1]","action_history":"[1,0,0,1,0]","mutagen_history":"[0,1,1,0,1]","location_rts":"[2633,797,1362,1284,413]","trial_type":"fractal-mutation","trial_index":57,"time_elapsed":1403948,"internal_node_id":"0.0-5.0-3.0"},{"group":"tri cycles (cube, non-group)","fractal_assignment":["../images/cyn_red.png","../images/org_blu.png","../images/pnk_blu.png","../images/ylw_slt.png","../images/blu_wht.png","../images/ylw_pnk.png","../images/grn_red.png","../images/gry_blk.png"],"mutagen_generator_assignment":[1,0],"goal":6,"start":1,"action_noise":0.1,"location_history":"[1,5,2,1,0,2,1,5,1,0,3,7,6]","action_history":"[0,1,0,0,0,0,1,0,0,1,0,0]","mutagen_history":"[1,0,1,1,1,1,0,1,1,0,1,1]","location_rts":"[1130,2460,900,569,4608,802,900,376,434,1264,890,636]","trial_type":"fractal-mutation","trial_index":58,"time_elapsed":1434751,"internal_node_id":"0.0-5.0-4.0"},{"group":"tri cycles (cube, non-group)","fractal_assignment":["../images/cyn_red.png","../images/org_blu.png","../images/pnk_blu.png","../images/ylw_slt.png","../images/blu_wht.png","../images/ylw_pnk.png","../images/grn_red.png","../images/gry_blk.png"],"mutagen_generator_assignment":[1,0],"goal":3,"start":6,"action_noise":0.1,"location_history":"[6,5,1,0,2,1,5,1,0,3]","action_history":"[1,0,0,1,0,1,0,0,1]","mutagen_history":"[0,1,1,0,1,0,1,1,0]","location_rts":"[2088,732,918,828,810,1921,355,948,710]","trial_type":"fractal-mutation","trial_index":59,"time_elapsed":1456822,"internal_node_id":"0.0-5.0-5.0"},{"group":"tri cycles (cube, non-group)","fractal_assignment":["../images/cyn_red.png","../images/org_blu.png","../images/pnk_blu.png","../images/ylw_slt.png","../images/blu_wht.png","../images/ylw_pnk.png","../images/grn_red.png","../images/gry_blk.png"],"mutagen_generator_assignment":[1,0],"goal":4,"start":3,"action_noise":0.1,"location_history":"[3,7,6,4]","action_history":"[0,0,0]","mutagen_history":"[1,1,1]","location_rts":"[890,656,962]","trial_type":"fractal-mutation","trial_index":60,"time_elapsed":1465933,"internal_node_id":"0.0-5.0-6.0"},{"group":"tri cycles (cube, non-group)","fractal_assignment":["../images/cyn_red.png","../images/org_blu.png","../images/pnk_blu.png","../images/ylw_slt.png","../images/blu_wht.png","../images/ylw_pnk.png","../images/grn_red.png","../images/gry_blk.png"],"mutagen_generator_assignment":[1,0],"goal":1,"start":4,"action_noise":0.1,"location_history":"[4,7,6,5,1]","action_history":"[0,0,1,0]","mutagen_history":"[1,1,0,1]","location_rts":"[1372,646,789,449]","trial_type":"fractal-mutation","trial_index":61,"time_elapsed":1476802,"internal_node_id":"0.0-5.0-7.0"},{"group":"tri cycles (cube, non-group)","fractal_assignment":["../images/cyn_red.png","../images/org_blu.png","../images/pnk_blu.png","../images/ylw_slt.png","../images/blu_wht.png","../images/ylw_pnk.png","../images/grn_red.png","../images/gry_blk.png"],"mutagen_generator_assignment":[1,0],"goal":4,"start":1,"action_noise":0.1,"location_history":"[1,0,2,1,0,3,4]","action_history":"[0,0,0,0,0,1]","mutagen_history":"[1,1,1,1,1,0]","location_rts":"[1286,1814,790,715,613,1722]","trial_type":"fractal-mutation","trial_index":62,"time_elapsed":1493416,"internal_node_id":"0.0-5.0-8.0"},{"group":"tri cycles (cube, non-group)","fractal_assignment":["../images/cyn_red.png","../images/org_blu.png","../images/pnk_blu.png","../images/ylw_slt.png","../images/blu_wht.png","../images/ylw_pnk.png","../images/grn_red.png","../images/gry_blk.png"],"mutagen_generator_assignment":[1,0],"goal":5,"start":4,"action_noise":0.1,"location_history":"[4,7,6,5]","action_history":"[0,0,1]","mutagen_history":"[1,1,0]","location_rts":"[1668,729,869]","trial_type":"fractal-mutation","trial_index":63,"time_elapsed":1503280,"internal_node_id":"0.0-5.0-9.0"},{"group":"tri cycles (cube, non-group)","fractal_assignment":["../images/cyn_red.png","../images/org_blu.png","../images/pnk_blu.png","../images/ylw_slt.png","../images/blu_wht.png","../images/ylw_pnk.png","../images/grn_red.png","../images/gry_blk.png"],"mutagen_generator_assignment":[1,0],"goal":3,"start":5,"action_noise":0.1,"location_history":"[5,1,5,2,1,0,3]","action_history":"[0,0,1,0,0,1]","mutagen_history":"[1,1,0,1,1,0]","location_rts":"[1424,1015,1113,1158,489,785]","trial_type":"fractal-mutation","trial_index":64,"time_elapsed":1518952,"internal_node_id":"0.0-5.0-10.0"},{"group":"tri cycles (cube, non-group)","fractal_assignment":["../images/cyn_red.png","../images/org_blu.png","../images/pnk_blu.png","../images/ylw_slt.png","../images/blu_wht.png","../images/ylw_pnk.png","../images/grn_red.png","../images/gry_blk.png"],"mutagen_generator_assignment":[1,0],"goal":6,"start":3,"action_noise":0.1,"location_history":"[3,7,6]","action_history":"[0,0]","mutagen_history":"[1,1]","location_rts":"[1071,418]","trial_type":"fractal-mutation","trial_index":65,"time_elapsed":1526002,"internal_node_id":"0.0-5.0-11.0"},{"group":"tri cycles (cube, non-group)","fractal_assignment":["../images/cyn_red.png","../images/org_blu.png","../images/pnk_blu.png","../images/ylw_slt.png","../images/blu_wht.png","../images/ylw_pnk.png","../images/grn_red.png","../images/gry_blk.png"],"mutagen_generator_assignment":[1,0],"goal":7,"start":6,"action_noise":0.1,"location_history":"[6,4,7]","action_history":"[0,0]","mutagen_history":"[1,1]","location_rts":"[3023,437]","trial_type":"fractal-mutation","trial_index":66,"time_elapsed":1535022,"internal_node_id":"0.0-5.0-12.0"},{"group":"tri cycles (cube, non-group)","fractal_assignment":["../images/cyn_red.png","../images/org_blu.png","../images/pnk_blu.png","../images/ylw_slt.png","../images/blu_wht.png","../images/ylw_pnk.png","../images/grn_red.png","../images/gry_blk.png"],"mutagen_generator_assignment":[1,0],"goal":0,"start":7,"action_noise":0.1,"location_history":"[7,6,5,1,0]","action_history":"[0,0,0,0]","mutagen_history":"[1,1,1,1]","location_rts":"[978,1949,948,667]","trial_type":"fractal-mutation","trial_index":67,"time_elapsed":1547184,"internal_node_id":"0.0-5.0-13.0"},{"group":"tri cycles (cube, non-group)","fractal_assignment":["../images/cyn_red.png","../images/org_blu.png","../images/pnk_blu.png","../images/ylw_slt.png","../images/blu_wht.png","../images/ylw_pnk.png","../images/grn_red.png","../images/gry_blk.png"],"mutagen_generator_assignment":[1,0],"goal":2,"start":0,"action_noise":0.1,"location_history":"[0,2]","action_history":"[0]","mutagen_history":"[1]","location_rts":"[2863]","trial_type":"fractal-mutation","trial_index":68,"time_elapsed":1554579,"internal_node_id":"0.0-5.0-14.0"},{"group":"tri cycles (cube, non-group)","fractal_assignment":["../images/cyn_red.png","../images/org_blu.png","../images/pnk_blu.png","../images/ylw_slt.png","../images/blu_wht.png","../images/ylw_pnk.png","../images/grn_red.png","../images/gry_blk.png"],"mutagen_generator_assignment":[1,0],"goal":1,"start":2,"action_noise":0.1,"location_history":"[2,6,4,7,6,5,1]","action_history":"[1,0,1,0,1,0]","mutagen_history":"[0,1,0,1,0,1]","location_rts":"[1422,714,1964,468,1172,319]","trial_type":"fractal-mutation","trial_index":69,"time_elapsed":1570296,"internal_node_id":"0.0-5.0-15.0"},{"group":"tri cycles (cube, non-group)","fractal_assignment":["../images/cyn_red.png","../images/org_blu.png","../images/pnk_blu.png","../images/ylw_slt.png","../images/blu_wht.png","../images/ylw_pnk.png","../images/grn_red.png","../images/gry_blk.png"],"mutagen_generator_assignment":[1,0],"goal":6,"start":1,"action_noise":0.1,"location_history":"[1,0,3,7,6]","action_history":"[0,1,0,0]","mutagen_history":"[1,0,1,1]","location_rts":"[2407,1614,478,446]","trial_type":"fractal-mutation","trial_index":70,"time_elapsed":1582867,"internal_node_id":"0.0-5.0-16.0"},{"group":"tri cycles (cube, non-group)","fractal_assignment":["../images/cyn_red.png","../images/org_blu.png","../images/pnk_blu.png","../images/ylw_slt.png","../images/blu_wht.png","../images/ylw_pnk.png","../images/grn_red.png","../images/gry_blk.png"],"mutagen_generator_assignment":[1,0],"goal":3,"start":6,"action_noise":0.1,"location_history":"[6,5,1,5,2,1,0,3]","action_history":"[1,0,0,1,0,0,1]","mutagen_history":"[0,1,1,0,1,1,0]","location_rts":"[2645,917,1994,730,792,634,551]","trial_type":"fractal-mutation","trial_index":71,"time_elapsed":1601838,"internal_node_id":"0.0-5.0-17.0"},{"group":"tri cycles (cube, non-group)","fractal_assignment":["../images/cyn_red.png","../images/org_blu.png","../images/pnk_blu.png","../images/ylw_slt.png","../images/blu_wht.png","../images/ylw_pnk.png","../images/grn_red.png","../images/gry_blk.png"],"mutagen_generator_assignment":[1,0],"goal":4,"start":3,"action_noise":0.1,"location_history":"[3,7,6,4]","action_history":"[0,0,0]","mutagen_history":"[1,1,1]","location_rts":"[1594,720,948]","trial_type":"fractal-mutation","trial_index":72,"time_elapsed":1611686,"internal_node_id":"0.0-5.0-18.0"},{"group":"tri cycles (cube, non-group)","fractal_assignment":["../images/cyn_red.png","../images/org_blu.png","../images/pnk_blu.png","../images/ylw_slt.png","../images/blu_wht.png","../images/ylw_pnk.png","../images/grn_red.png","../images/gry_blk.png"],"mutagen_generator_assignment":[1,0],"goal":5,"start":4,"action_noise":0.1,"location_history":"[4,0,2,6,4,0,2,1,5]","action_history":"[1,0,1,0,1,1,0,1]","mutagen_history":"[0,1,0,1,0,0,1,0]","location_rts":"[3289,1905,1732,621,1397,687,773,797]","trial_type":"fractal-mutation","trial_index":73,"time_elapsed":1634610,"internal_node_id":"0.0-5.0-19.0"},{"group":"tri cycles (cube, non-group)","fractal_assignment":["../images/cyn_red.png","../images/org_blu.png","../images/pnk_blu.png","../images/ylw_slt.png","../images/blu_wht.png","../images/ylw_pnk.png","../images/grn_red.png","../images/gry_blk.png"],"mutagen_generator_assignment":[1,0],"goal":7,"start":5,"action_noise":0.1,"location_history":"[5,2,1,0,2,1,0,2,1,5,1,0,2,1,5,1,5,1,0,2,6,4,7]","action_history":"[0,0,0,0,0,0,1,0,1,0,1,0,0,1,0,1,0,0,0,1,0,0]","mutagen_history":"[1,1,1,1,1,1,0,1,0,1,0,1,1,0,1,0,1,1,1,0,1,1]","location_rts":"[773,472,865,1706,463,1368,696,334,596,397,999,1606,553,722,319,679,701,376,1049,701,645,1150]","trial_type":"fractal-mutation","trial_index":74,"time_elapsed":1677893,"internal_node_id":"0.0-5.0-20.0"},{"group":"tri cycles (cube, non-group)","fractal_assignment":["../images/cyn_red.png","../images/org_blu.png","../images/pnk_blu.png","../images/ylw_slt.png","../images/blu_wht.png","../images/ylw_pnk.png","../images/grn_red.png","../images/gry_blk.png"],"mutagen_generator_assignment":[1,0],"goal":2,"start":7,"action_noise":0.1,"location_history":"[7,6,5,2]","action_history":"[0,0,0]","mutagen_history":"[1,1,1]","location_rts":"[1481,640,886]","trial_type":"fractal-mutation","trial_index":75,"time_elapsed":1687490,"internal_node_id":"0.0-5.0-21.0"},{"group":"tri cycles (cube, non-group)","fractal_assignment":["../images/cyn_red.png","../images/org_blu.png","../images/pnk_blu.png","../images/ylw_slt.png","../images/blu_wht.png","../images/ylw_pnk.png","../images/grn_red.png","../images/gry_blk.png"],"mutagen_generator_assignment":[1,0],"goal":0,"start":2,"action_noise":0.1,"location_history":"[2,1,0]","action_history":"[0,0]","mutagen_history":"[1,1]","location_rts":"[1222,340]","trial_type":"fractal-mutation","trial_index":76,"time_elapsed":1694605,"internal_node_id":"0.0-5.0-22.0"},{"group":"tri cycles (cube, non-group)","fractal_assignment":["../images/cyn_red.png","../images/org_blu.png","../images/pnk_blu.png","../images/ylw_slt.png","../images/blu_wht.png","../images/ylw_pnk.png","../images/grn_red.png","../images/gry_blk.png"],"mutagen_generator_assignment":[1,0],"goal":7,"start":0,"action_noise":0.1,"location_history":"[0,2,1,0,2,1,0,2,6,4,7]","action_history":"[0,0,0,1,0,0,0,1,0,0]","mutagen_history":"[1,1,1,0,1,1,1,0,1,1]","location_rts":"[709,593,854,793,488,1843,18615,1088,305,428]","trial_type":"fractal-mutation","trial_index":77,"time_elapsed":1734109,"internal_node_id":"0.0-5.0-23.0"},{"group":"tri cycles (cube, non-group)","fractal_assignment":["../images/cyn_red.png","../images/org_blu.png","../images/pnk_blu.png","../images/ylw_slt.png","../images/blu_wht.png","../images/ylw_pnk.png","../images/grn_red.png","../images/gry_blk.png"],"mutagen_generator_assignment":[1,0],"goal":5,"start":7,"action_noise":0.1,"location_history":"[7,6,5]","action_history":"[0,1]","mutagen_history":"[1,0]","location_rts":"[8706,902]","trial_type":"fractal-mutation","trial_index":78,"time_elapsed":1749284,"internal_node_id":"0.0-5.0-24.0"},{"group":"tri cycles (cube, non-group)","fractal_assignment":["../images/cyn_red.png","../images/org_blu.png","../images/pnk_blu.png","../images/ylw_slt.png","../images/blu_wht.png","../images/ylw_pnk.png","../images/grn_red.png","../images/gry_blk.png"],"mutagen_generator_assignment":[1,0],"goal":0,"start":5,"action_noise":0.1,"location_history":"[5,1,0]","action_history":"[0,0]","mutagen_history":"[1,1]","location_rts":"[1329,510]","trial_type":"fractal-mutation","trial_index":79,"time_elapsed":1756691,"internal_node_id":"0.0-5.0-25.0"},{"group":"tri cycles (cube, non-group)","fractal_assignment":["../images/cyn_red.png","../images/org_blu.png","../images/pnk_blu.png","../images/ylw_slt.png","../images/blu_wht.png","../images/ylw_pnk.png","../images/grn_red.png","../images/gry_blk.png"],"mutagen_generator_assignment":[1,0],"goal":6,"start":0,"action_noise":0.1,"location_history":"[0,2,6]","action_history":"[0,0]","mutagen_history":"[1,1]","location_rts":"[2443,503]","trial_type":"fractal-mutation","trial_index":80,"time_elapsed":1765196,"internal_node_id":"0.0-5.0-26.0"},{"group":"tri cycles (cube, non-group)","fractal_assignment":["../images/cyn_red.png","../images/org_blu.png","../images/pnk_blu.png","../images/ylw_slt.png","../images/blu_wht.png","../images/ylw_pnk.png","../images/grn_red.png","../images/gry_blk.png"],"mutagen_generator_assignment":[1,0],"goal":4,"start":6,"action_noise":0.1,"location_history":"[6,4]","action_history":"[0]","mutagen_history":"[1]","location_rts":"[1733]","trial_type":"fractal-mutation","trial_index":81,"time_elapsed":1771457,"internal_node_id":"0.0-5.0-27.0"},{"group":"tri cycles (cube, non-group)","fractal_assignment":["../images/cyn_red.png","../images/org_blu.png","../images/pnk_blu.png","../images/ylw_slt.png","../images/blu_wht.png","../images/ylw_pnk.png","../images/grn_red.png","../images/gry_blk.png"],"mutagen_generator_assignment":[1,0],"goal":2,"start":4,"action_noise":0.1,"location_history":"[4,7,3,4,7,6,4,0,2]","action_history":"[0,0,0,0,0,0,1,0]","mutagen_history":"[1,1,1,1,1,1,0,1]","location_rts":"[1566,744,2639,858,615,784,890,910]","trial_type":"fractal-mutation","trial_index":82,"time_elapsed":1792179,"internal_node_id":"0.0-5.0-28.0"},{"group":"tri cycles (cube, non-group)","fractal_assignment":["../images/cyn_red.png","../images/org_blu.png","../images/pnk_blu.png","../images/ylw_slt.png","../images/blu_wht.png","../images/ylw_pnk.png","../images/grn_red.png","../images/gry_blk.png"],"mutagen_generator_assignment":[1,0],"goal":3,"start":2,"action_noise":0.1,"location_history":"[2,1,0,3]","action_history":"[0,0,1]","mutagen_history":"[1,1,0]","location_rts":"[1797,361,955]","trial_type":"fractal-mutation","trial_index":83,"time_elapsed":1801882,"internal_node_id":"0.0-5.0-29.0"},{"group":"tri cycles (cube, non-group)","fractal_assignment":["../images/cyn_red.png","../images/org_blu.png","../images/pnk_blu.png","../images/ylw_slt.png","../images/blu_wht.png","../images/ylw_pnk.png","../images/grn_red.png","../images/gry_blk.png"],"mutagen_generator_assignment":[1,0],"goal":1,"start":3,"action_noise":0.1,"location_history":"[3,4,0,3,7,6,5,1]","action_history":"[1,0,1,0,0,1,0]","mutagen_history":"[0,1,0,1,1,0,1]","location_rts":"[3599,971,1928,875,1382,776,337]","trial_type":"fractal-mutation","trial_index":84,"time_elapsed":1822454,"internal_node_id":"0.0-5.0-30.0"},{"group":"tri cycles (cube, non-group)","fractal_assignment":["../images/cyn_red.png","../images/org_blu.png","../images/pnk_blu.png","../images/ylw_slt.png","../images/blu_wht.png","../images/ylw_pnk.png","../images/grn_red.png","../images/gry_blk.png"],"mutagen_generator_assignment":[1,0],"goal":4,"start":1,"action_noise":0.1,"location_history":"[1,0,2,1,0,2,1,5,1,0,3,7,6,4]","action_history":"[0,0,0,0,0,0,1,0,0,1,0,0,0]","mutagen_history":"[1,1,1,1,1,1,0,1,1,0,1,1,1]","location_rts":"[1105,1440,634,560,439,869,588,255,390,866,355,647,494]","trial_type":"fractal-mutation","trial_index":85,"time_elapsed":1847963,"internal_node_id":"0.0-5.0-31.0"},{"group":"tri cycles (cube, non-group)","fractal_assignment":["../images/cyn_red.png","../images/org_blu.png","../images/pnk_blu.png","../images/ylw_slt.png","../images/blu_wht.png","../images/ylw_pnk.png","../images/grn_red.png","../images/gry_blk.png"],"mutagen_generator_assignment":[1,0],"goal":3,"start":4,"action_noise":0.1,"location_history":"[4,7,6,5,1,0,2,1,0,3]","action_history":"[0,0,1,0,0,1,0,0,1]","mutagen_history":"[1,1,0,1,1,0,1,1,0]","location_rts":"[1524,542,632,2130,614,1166,639,389,679]","trial_type":"fractal-mutation","trial_index":86,"time_elapsed":1869008,"internal_node_id":"0.0-5.0-32.0"},{"group":"tri cycles (cube, non-group)","fractal_assignment":["../images/cyn_red.png","../images/org_blu.png","../images/pnk_blu.png","../images/ylw_slt.png","../images/blu_wht.png","../images/ylw_pnk.png","../images/grn_red.png","../images/gry_blk.png"],"mutagen_generator_assignment":[1,0],"goal":6,"start":3,"action_noise":0.1,"location_history":"[3,7,6]","action_history":"[0,0]","mutagen_history":"[1,1]","location_rts":"[1657,453]","trial_type":"fractal-mutation","trial_index":87,"time_elapsed":1876676,"internal_node_id":"0.0-5.0-33.0"},{"group":"tri cycles (cube, non-group)","fractal_assignment":["../images/cyn_red.png","../images/org_blu.png","../images/pnk_blu.png","../images/ylw_slt.png","../images/blu_wht.png","../images/ylw_pnk.png","../images/grn_red.png","../images/gry_blk.png"],"mutagen_generator_assignment":[1,0],"goal":0,"start":6,"action_noise":0.1,"location_history":"[6,4,0]","action_history":"[0,0]","mutagen_history":"[1,1]","location_rts":"[1324,402]","trial_type":"fractal-mutation","trial_index":88,"time_elapsed":1883960,"internal_node_id":"0.0-5.0-34.0"},{"group":"tri cycles (cube, non-group)","fractal_assignment":["../images/cyn_red.png","../images/org_blu.png","../images/pnk_blu.png","../images/ylw_slt.png","../images/blu_wht.png","../images/ylw_pnk.png","../images/grn_red.png","../images/gry_blk.png"],"mutagen_generator_assignment":[1,0],"goal":1,"start":0,"action_noise":0.1,"location_history":"[0,3,7,6,5,1]","action_history":"[1,1,0,1,0]","mutagen_history":"[0,0,1,0,1]","location_rts":"[1256,635,754,1166,358]","trial_type":"fractal-mutation","trial_index":89,"time_elapsed":1896759,"internal_node_id":"0.0-5.0-35.0"},{"group":"tri cycles (cube, non-group)","fractal_assignment":["../images/cyn_red.png","../images/org_blu.png","../images/pnk_blu.png","../images/ylw_slt.png","../images/blu_wht.png","../images/ylw_pnk.png","../images/grn_red.png","../images/gry_blk.png"],"mutagen_generator_assignment":[1,0],"goal":5,"start":1,"action_noise":0.1,"location_history":"[1,5]","action_history":"[1]","mutagen_history":"[0]","location_rts":"[2065]","trial_type":"fractal-mutation","trial_index":90,"time_elapsed":1903358,"internal_node_id":"0.0-5.0-36.0"},{"group":"tri cycles (cube, non-group)","fractal_assignment":["../images/cyn_red.png","../images/org_blu.png","../images/pnk_blu.png","../images/ylw_slt.png","../images/blu_wht.png","../images/ylw_pnk.png","../images/grn_red.png","../images/gry_blk.png"],"mutagen_generator_assignment":[1,0],"goal":7,"start":5,"action_noise":0.1,"location_history":"[5,2,1,0,2,1,5,1,5,2,1,5,1,0,3,7]","action_history":"[0,0,0,0,0,1,0,0,0,0,1,0,0,1,0]","mutagen_history":"[1,1,1,1,1,0,1,1,1,1,0,1,1,0,1]","location_rts":"[720,474,594,788,533,606,307,453,678,624,634,298,869,785,402]","trial_type":"fractal-mutation","trial_index":91,"time_elapsed":1931069,"internal_node_id":"0.0-5.0-37.0"},{"group":"tri cycles (cube, non-group)","fractal_assignment":["../images/cyn_red.png","../images/org_blu.png","../images/pnk_blu.png","../images/ylw_slt.png","../images/blu_wht.png","../images/ylw_pnk.png","../images/grn_red.png","../images/gry_blk.png"],"mutagen_generator_assignment":[1,0],"goal":2,"start":7,"action_noise":0.1,"location_history":"[7,6,4,7,6,4,0,2]","action_history":"[0,0,1,0,0,1,0]","mutagen_history":"[1,1,0,1,1,0,1]","location_rts":"[1194,405,1210,732,647,820,664]","trial_type":"fractal-mutation","trial_index":92,"time_elapsed":1947439,"internal_node_id":"0.0-5.0-38.0"},{"group":"tri cycles (cube, non-group)","fractal_assignment":["../images/cyn_red.png","../images/org_blu.png","../images/pnk_blu.png","../images/ylw_slt.png","../images/blu_wht.png","../images/ylw_pnk.png","../images/grn_red.png","../images/gry_blk.png"],"mutagen_generator_assignment":[1,0],"goal":1,"start":2,"action_noise":0.1,"location_history":"[2,1]","action_history":"[0]","mutagen_history":"[1]","location_rts":"[1616]","trial_type":"fractal-mutation","trial_index":93,"time_elapsed":1953583,"internal_node_id":"0.0-5.0-39.0"},{"group":"tri cycles (cube, non-group)","fractal_assignment":["../images/cyn_red.png","../images/org_blu.png","../images/pnk_blu.png","../images/ylw_slt.png","../images/blu_wht.png","../images/ylw_pnk.png","../images/grn_red.png","../images/gry_blk.png"],"mutagen_generator_assignment":[1,0],"goal":3,"start":1,"action_noise":0.1,"location_history":"[1,0,3]","action_history":"[0,1]","mutagen_history":"[1,0]","location_rts":"[1776,748]","trial_type":"fractal-mutation","trial_index":94,"time_elapsed":1961668,"internal_node_id":"0.0-5.0-40.0"},{"group":"tri cycles (cube, non-group)","fractal_assignment":["../images/cyn_red.png","../images/org_blu.png","../images/pnk_blu.png","../images/ylw_slt.png","../images/blu_wht.png","../images/ylw_pnk.png","../images/grn_red.png","../images/gry_blk.png"],"mutagen_generator_assignment":[1,0],"goal":4,"start":3,"action_noise":0.1,"location_history":"[3,7,3,7,3,7,3,7,6,4]","action_history":"[0,0,0,1,0,1,0,0,0]","mutagen_history":"[1,1,1,0,1,0,1,1,1]","location_rts":"[906,1352,645,521,285,624,519,507,747]","trial_type":"fractal-mutation","trial_index":95,"time_elapsed":1980512,"internal_node_id":"0.0-5.0-41.0"},{"group":"tri cycles (cube, non-group)","fractal_assignment":["../images/cyn_red.png","../images/org_blu.png","../images/pnk_blu.png","../images/ylw_slt.png","../images/blu_wht.png","../images/ylw_pnk.png","../images/grn_red.png","../images/gry_blk.png"],"mutagen_generator_assignment":[1,0],"goal":2,"start":4,"action_noise":0.1,"location_history":"[4,7,6,4,0,2]","action_history":"[0,0,0,1,0]","mutagen_history":"[1,1,1,0,1]","location_rts":"[1256,607,1364,719,1346]","trial_type":"fractal-mutation","trial_index":96,"time_elapsed":1994436,"internal_node_id":"0.0-5.0-42.0"},{"group":"tri cycles (cube, non-group)","fractal_assignment":["../images/cyn_red.png","../images/org_blu.png","../images/pnk_blu.png","../images/ylw_slt.png","../images/blu_wht.png","../images/ylw_pnk.png","../images/grn_red.png","../images/gry_blk.png"],"mutagen_generator_assignment":[1,0],"goal":5,"start":2,"action_noise":0.1,"location_history":"[2,6,5]","action_history":"[1,1]","mutagen_history":"[0,0]","location_rts":"[1988,1153]","trial_type":"fractal-mutation","trial_index":97,"time_elapsed":2003125,"internal_node_id":"0.0-5.0-43.0"},{"group":"tri cycles (cube, non-group)","fractal_assignment":["../images/cyn_red.png","../images/org_blu.png","../images/pnk_blu.png","../images/ylw_slt.png","../images/blu_wht.png","../images/ylw_pnk.png","../images/grn_red.png","../images/gry_blk.png"],"mutagen_generator_assignment":[1,0],"goal":0,"start":5,"action_noise":0.1,"location_history":"[5,1,5,2,1,5,1,5,1,0]","action_history":"[0,0,1,0,0,0,1,0,0]","mutagen_history":"[1,1,0,1,1,1,0,1,1]","location_rts":"[2515,869,1139,649,341,382,1173,306,392]","trial_type":"fractal-mutation","trial_index":98,"time_elapsed":2023666,"internal_node_id":"0.0-5.0-44.0"},{"group":"tri cycles (cube, non-group)","fractal_assignment":["../images/cyn_red.png","../images/org_blu.png","../images/pnk_blu.png","../images/ylw_slt.png","../images/blu_wht.png","../images/ylw_pnk.png","../images/grn_red.png","../images/gry_blk.png"],"mutagen_generator_assignment":[1,0],"goal":7,"start":0,"action_noise":0.1,"location_history":"[0,3,4,7]","action_history":"[1,1,0]","mutagen_history":"[0,0,1]","location_rts":"[5791,2008,1660]","trial_type":"fractal-mutation","trial_index":99,"time_elapsed":2039697,"internal_node_id":"0.0-5.0-45.0"},{"group":"tri cycles (cube, non-group)","fractal_assignment":["../images/cyn_red.png","../images/org_blu.png","../images/pnk_blu.png","../images/ylw_slt.png","../images/blu_wht.png","../images/ylw_pnk.png","../images/grn_red.png","../images/gry_blk.png"],"mutagen_generator_assignment":[1,0],"goal":6,"start":7,"action_noise":0.1,"location_history":"[7,6]","action_history":"[0]","mutagen_history":"[1]","location_rts":"[1321]","trial_type":"fractal-mutation","trial_index":100,"time_elapsed":2045564,"internal_node_id":"0.0-5.0-46.0"},{"group":"tri cycles (cube, non-group)","fractal_assignment":["../images/cyn_red.png","../images/org_blu.png","../images/pnk_blu.png","../images/ylw_slt.png","../images/blu_wht.png","../images/ylw_pnk.png","../images/grn_red.png","../images/gry_blk.png"],"mutagen_generator_assignment":[1,0],"goal":2,"start":6,"action_noise":0.1,"location_history":"[6,4,7,6,4,7,3,7,6,4,0,3,4,0,2]","action_history":"[0,0,0,1,0,1,0,0,0,1,0,1,1,0]","mutagen_history":"[1,1,1,0,1,0,1,1,1,0,1,0,0,1]","location_rts":"[2700,1143,3966,1484,620,592,499,491,536,1059,799,1508,858,577]","trial_type":"fractal-mutation","trial_index":101,"time_elapsed":2080259,"internal_node_id":"0.0-5.0-47.0"},{"group":"tri cycles (cube, non-group)","fractal_assignment":["../images/cyn_red.png","../images/org_blu.png","../images/pnk_blu.png","../images/ylw_slt.png","../images/blu_wht.png","../images/ylw_pnk.png","../images/grn_red.png","../images/gry_blk.png"],"mutagen_generator_assignment":[1,0],"goal":5,"start":2,"action_noise":0.1,"location_history":"[2,6,4,0,2,6,4,7,6,5]","action_history":"[1,0,1,1,1,1,0,0,1]","mutagen_history":"[0,1,0,0,0,0,1,1,0]","location_rts":"[2440,577,746,782,751,757,784,390,742]","trial_type":"fractal-mutation","trial_index":102,"time_elapsed":2100966,"internal_node_id":"0.0-5.0-48.0"},{"group":"tri cycles (cube, non-group)","fractal_assignment":["../images/cyn_red.png","../images/org_blu.png","../images/pnk_blu.png","../images/ylw_slt.png","../images/blu_wht.png","../images/ylw_pnk.png","../images/grn_red.png","../images/gry_blk.png"],"mutagen_generator_assignment":[1,0],"goal":3,"start":5,"action_noise":0.1,"location_history":"[5,1,0,3]","action_history":"[0,0,1]","mutagen_history":"[1,1,0]","location_rts":"[1354,774,1477]","trial_type":"fractal-mutation","trial_index":103,"time_elapsed":2111157,"internal_node_id":"0.0-5.0-49.0"},{"view_history":"[{\"page_index\":0,\"viewing_time\":4735}]","rt":4736,"trial_type":"instructions","trial_index":104,"time_elapsed":2116894,"internal_node_id":"0.0-6.0"},{"rt":39116,"responses":"{\"Q0\":\"How well people would remember which rooms and doors were mostly likely to lead to others and people's decisions between the doors.\"}","trial_type":"survey-text","trial_index":105,"time_elapsed":2157015,"internal_node_id":"0.0-7.0-0.0"},{"rt":54040,"responses":"{\"Q0\":\"How well people can use and learn patterns and use them to get to the image shown.\"}","trial_type":"survey-text","trial_index":106,"time_elapsed":2212058,"internal_node_id":"0.0-7.0-1.0"},{"rt":75876,"responses":"{\"Q0\":\"<img src='../images/diagrams/square_cycles.png'>\"}","trial_type":"survey-multi-choice","trial_index":107,"time_elapsed":2288939,"internal_node_id":"0.0-7.0-2.0"},{"rt":150666,"assignments":["../images/grn_red.png","../images/gry_blk.png","../images/ylw_slt.png","../images/pnk_blu.png","../images/org_blu.png","../images/blu_wht.png","../images/cyn_red.png","../images/ylw_pnk.png"],"trial_type":"drag-drop-on-image","trial_index":108,"time_elapsed":2440609,"internal_node_id":"0.0-7.0-3.0"},{"rt":6469,"responses":"{\"Q0\":\"3\"}","trial_type":"survey-likert","trial_index":109,"time_elapsed":2448081,"internal_node_id":"0.0-7.0-4.0"},{"rt":94902,"responses":"{\"Q0\":\"Some of the options lead to more than one option but there were colors/images that always lead to a certain other color/image.\"}","trial_type":"survey-text","trial_index":110,"time_elapsed":2543985,"internal_node_id":"0.0-7.0-5.0"},{"rt":8834,"responses":"{\"Q0\":\"Yes\"}","trial_type":"survey-multi-choice","trial_index":111,"time_elapsed":2553821,"internal_node_id":"0.0-7.0-6.0"},{"rt":23457,"responses":"{\"Q0\":\"During session 2\"}","trial_type":"survey-multi-choice","trial_index":112,"time_elapsed":2578281,"internal_node_id":"0.0-7.0-7.0"},{"rt":8138,"responses":"{\"Q0\":\"\"}","trial_type":"survey-text","trial_index":113,"time_elapsed":2587422,"internal_node_id":"0.0-7.0-8.0"},{"rt":7906,"responses":"{\"Q0\":\"1\"}","trial_type":"survey-likert","trial_index":114,"time_elapsed":2596329,"internal_node_id":"0.0-7.0-9.0"},{"rt":13001,"responses":"{\"Q0\":\"Same structure\"}","trial_type":"survey-multi-choice","trial_index":115,"time_elapsed":2610332,"internal_node_id":"0.0-7.0-10.0"},{"rt":48322,"responses":"{\"Q0\":\"left (white) door = ray, (black) door = acid\",\"Q1\":\"Pretty confident\"}","trial_type":"survey-multi-choice","trial_index":116,"time_elapsed":2659662,"internal_node_id":"0.0-7.0-11.0"},{"rt":11092,"responses":"{\"Q0\":\"35-45\",\"Q1\":\"Associates or other two-year degree\",\"Q2\":\"Female\",\"Q3\":\"Asian\"}","trial_type":"survey-multi-choice","trial_index":117,"time_elapsed":2671770,"internal_node_id":"0.0-8.0"},{"rt":18801,"responses":"{\"Q0\":\"This was an interesting study. Thank you!\"}","trial_type":"survey-text","trial_index":118,"time_elapsed":2691573,"internal_node_id":"0.0-9.0"}]