[{"view_history":"[{\"page_index\":0,\"viewing_time\":67957},{\"page_index\":1,\"viewing_time\":6284}]","rt":74242,"trial_type":"instructions","trial_index":0,"time_elapsed":74245,"internal_node_id":"0.0-0.0"},{"view_history":"[{\"page_index\":0,\"viewing_time\":7954},{\"page_index\":1,\"viewing_time\":5971}]","rt":13926,"trial_type":"instructions","trial_index":1,"time_elapsed":89176,"internal_node_id":"0.0-1.0"},{"group":"square cycles (cube, non-group)","room_assignment":["green","purple","pink","brown","red","grey","yellow","blue"],"door_color_assignment":["white","black"],"door_generator_assignment":[1,0],"goal":5,"start":7,"action_noise":0.1,"location_history":"[7,3,0,1,2,3,2,6,5]","action_history":"[0,0,0,0,0,1,1,1]","door_history":"[1,1,1,1,1,0,0,0]","location_rts":"[1063,453,341,385,589,616,454,383]","trial_type":"two-door-navigation","trial_index":2,"time_elapsed":105218,"internal_node_id":"0.0-2.0-0.0"},{"group":"square cycles (cube, non-group)","room_assignment":["green","purple","pink","brown","red","grey","yellow","blue"],"door_color_assignment":["white","black"],"door_generator_assignment":[1,0],"goal":2,"start":5,"action_noise":0.1,"location_history":"[5,4,7,6,5,1,0,4,7,3,0,1,2]","action_history":"[0,0,0,1,1,1,1,0,0,0,0,0]","door_history":"[1,1,1,0,0,0,0,1,1,1,1,1]","location_rts":"[1652,380,336,646,342,344,400,381,515,361,381,348]","trial_type":"two-door-navigation","trial_index":3,"time_elapsed":127167,"internal_node_id":"0.0-2.0-1.0"},{"group":"square cycles (cube, non-group)","room_assignment":["green","purple","pink","brown","red","grey","yellow","blue"],"door_color_assignment":["white","black"],"door_generator_assignment":[1,0],"goal":0,"start":2,"action_noise":0.1,"location_history":"[2,3,0]","action_history":"[0,0]","door_history":"[1,1]","location_rts":"[1983,527]","trial_type":"two-door-navigation","trial_index":4,"time_elapsed":135286,"internal_node_id":"0.0-2.0-2.0"},{"group":"square cycles (cube, non-group)","room_assignment":["green","purple","pink","brown","red","grey","yellow","blue"],"door_color_assignment":["white","black"],"door_generator_assignment":[1,0],"goal":1,"start":0,"action_noise":0.1,"location_history":"[0,4,5,1]","action_history":"[1,1,1]","door_history":"[0,0,0]","location_rts":"[2573,317,379]","trial_type":"two-door-navigation","trial_index":5,"time_elapsed":145126,"internal_node_id":"0.0-2.0-3.0"},{"group":"square cycles (cube, non-group)","room_assignment":["green","purple","pink","brown","red","grey","yellow","blue"],"door_color_assignment":["white","black"],"door_generator_assignment":[1,0],"goal":6,"start":1,"action_noise":0.1,"location_history":"[1,0,4,7,6]","action_history":"[1,1,1,1]","door_history":"[0,0,0,0]","location_rts":"[944,266,647,545]","trial_type":"two-door-navigation","trial_index":6,"time_elapsed":155161,"internal_node_id":"0.0-2.0-4.0"},{"group":"square cycles (cube, non-group)","room_assignment":["green","purple","pink","brown","red","grey","yellow","blue"],"door_color_assignment":["white","black"],"door_generator_assignment":[1,0],"goal":3,"start":6,"action_noise":0.1,"location_history":"[6,5,4,5,1,0,4,7,6,5,4,5,1,0,1,2,6,7,3]","action_history":"[0,0,1,1,1,1,0,0,0,0,1,1,1,0,0,0,0,1]","door_history":"[1,1,0,0,0,0,1,1,1,1,0,0,0,1,1,1,1,0]","location_rts":"[1922,4086,23044,423,6616,1717,3505,405,429,4486,611,734,374,1078,332,777,388,498]","trial_type":"two-door-navigation","trial_index":7,"time_elapsed":228655,"internal_node_id":"0.0-2.0-5.0"},{"group":"square cycles (cube, non-group)","room_assignment":["green","purple","pink","brown","red","grey","yellow","blue"],"door_color_assignment":["white","black"],"door_generator_assignment":[1,0],"goal":4,"start":3,"action_noise":0.1,"location_history":"[3,0,4]","action_history":"[1,1]","door_history":"[0,0]","location_rts":"[12666,380]","trial_type":"two-door-navigation","trial_index":8,"time_elapsed":247264,"internal_node_id":"0.0-2.0-6.0"},{"group":"square cycles (cube, non-group)","room_assignment":["green","purple","pink","brown","red","grey","yellow","blue"],"door_color_assignment":["white","black"],"door_generator_assignment":[1,0],"goal":1,"start":4,"action_noise":0.1,"location_history":"[4,7,6,5,4,5,1]","action_history":"[0,0,0,0,1,1]","door_history":"[1,1,1,1,0,0]","location_rts":"[1269,549,282,359,580,226]","trial_type":"two-door-navigation","trial_index":9,"time_elapsed":260272,"internal_node_id":"0.0-2.0-7.0"},{"group":"square cycles (cube, non-group)","room_assignment":["green","purple","pink","brown","red","grey","yellow","blue"],"door_color_assignment":["white","black"],"door_generator_assignment":[1,0],"goal":4,"start":1,"action_noise":0.1,"location_history":"[1,2,3,2,6,7,6,5,1,0,4]","action_history":"[0,0,1,1,1,0,0,0,1,1]","door_history":"[1,1,0,0,0,1,1,1,0,0]","location_rts":"[6482,7507,2760,532,523,711,339,589,617,507]","trial_type":"two-door-navigation","trial_index":10,"time_elapsed":294650,"internal_node_id":"0.0-2.0-8.0"},{"group":"square cycles (cube, non-group)","room_assignment":["green","purple","pink","brown","red","grey","yellow","blue"],"door_color_assignment":["white","black"],"door_generator_assignment":[1,0],"goal":5,"start":4,"action_noise":0.1,"location_history":"[4,5]","action_history":"[0]","door_history":"[1]","location_rts":"[1127]","trial_type":"two-door-navigation","trial_index":11,"time_elapsed":300306,"internal_node_id":"0.0-2.0-9.0"},{"group":"square cycles (cube, non-group)","room_assignment":["green","purple","pink","brown","red","grey","yellow","blue"],"door_color_assignment":["white","black"],"door_generator_assignment":[1,0],"goal":3,"start":5,"action_noise":0.1,"location_history":"[5,1,0,4,5,1,2,3]","action_history":"[1,1,1,1,0,0,0]","door_history":"[0,0,0,0,1,1,1]","location_rts":"[1609,501,557,429,768,462,575]","trial_type":"two-door-navigation","trial_index":12,"time_elapsed":315927,"internal_node_id":"0.0-2.0-10.0"},{"group":"square cycles (cube, non-group)","room_assignment":["green","purple","pink","brown","red","grey","yellow","blue"],"door_color_assignment":["white","black"],"door_generator_assignment":[1,0],"goal":6,"start":3,"action_noise":0.1,"location_history":"[3,2,6]","action_history":"[1,1]","door_history":"[0,0]","location_rts":"[1101,469]","trial_type":"two-door-navigation","trial_index":13,"time_elapsed":323065,"internal_node_id":"0.0-2.0-11.0"},{"group":"square cycles (cube, non-group)","room_assignment":["green","purple","pink","brown","red","grey","yellow","blue"],"door_color_assignment":["white","black"],"door_generator_assignment":[1,0],"goal":7,"start":6,"action_noise":0.1,"location_history":"[6,5,1,0,4,5,4,7]","action_history":"[0,1,1,1,1,0,0]","door_history":"[1,0,0,0,0,1,1]","location_rts":"[1144,1219,935,786,754,1358,339]","trial_type":"two-door-navigation","trial_index":14,"time_elapsed":340313,"internal_node_id":"0.0-2.0-12.0"},{"group":"square cycles (cube, non-group)","room_assignment":["green","purple","pink","brown","red","grey","yellow","blue"],"door_color_assignment":["white","black"],"door_generator_assignment":[1,0],"goal":0,"start":7,"action_noise":0.1,"location_history":"[7,3,2,3,0]","action_history":"[1,1,0,0]","door_history":"[0,0,1,1]","location_rts":"[898,546,1206,950]","trial_type":"two-door-navigation","trial_index":15,"time_elapsed":351564,"internal_node_id":"0.0-2.0-13.0"},{"group":"square cycles (cube, non-group)","room_assignment":["green","purple","pink","brown","red","grey","yellow","blue"],"door_color_assignment":["white","black"],"door_generator_assignment":[1,0],"goal":2,"start":0,"action_noise":0.1,"location_history":"[0,4,7,3,2]","action_history":"[1,1,1,1]","door_history":"[0,0,0,0]","location_rts":"[3046,366,318,474]","trial_type":"two-door-navigation","trial_index":16,"time_elapsed":363477,"internal_node_id":"0.0-2.0-14.0"},{"group":"square cycles (cube, non-group)","room_assignment":["green","purple","pink","brown","red","grey","yellow","blue"],"door_color_assignment":["white","black"],"door_generator_assignment":[1,0],"goal":1,"start":2,"action_noise":0.1,"location_history":"[2,3,0,1]","action_history":"[0,0,0]","door_history":"[1,1,1]","location_rts":"[945,487,520]","trial_type":"two-door-navigation","trial_index":17,"time_elapsed":372041,"internal_node_id":"0.0-2.0-15.0"},{"group":"square cycles (cube, non-group)","room_assignment":["green","purple","pink","brown","red","grey","yellow","blue"],"door_color_assignment":["white","black"],"door_generator_assignment":[1,0],"goal":6,"start":1,"action_noise":0.1,"location_history":"[1,0,4,5,1,0,1,2,3,0,1,2,6]","action_history":"[1,1,1,1,1,0,0,0,0,0,0,1]","door_history":"[0,0,0,0,0,1,1,1,1,1,1,0]","location_rts":"[1551,491,379,334,461,384,348,491,696,594,629,662]","trial_type":"two-door-navigation","trial_index":18,"time_elapsed":394925,"internal_node_id":"0.0-2.0-16.0"},{"group":"square cycles (cube, non-group)","room_assignment":["green","purple","pink","brown","red","grey","yellow","blue"],"door_color_assignment":["white","black"],"door_generator_assignment":[1,0],"goal":3,"start":6,"action_noise":0.1,"location_history":"[6,7,3]","action_history":"[1,1]","door_history":"[0,0]","location_rts":"[1223,703]","trial_type":"two-door-navigation","trial_index":19,"time_elapsed":402412,"internal_node_id":"0.0-2.0-17.0"},{"group":"square cycles (cube, non-group)","room_assignment":["green","purple","pink","brown","red","grey","yellow","blue"],"door_color_assignment":["white","black"],"door_generator_assignment":[1,0],"goal":4,"start":3,"action_noise":0.1,"location_history":"[3,0,1,0,4]","action_history":"[0,0,1,1]","door_history":"[1,1,0,0]","location_rts":"[1543,548,593,492]","trial_type":"two-door-navigation","trial_index":20,"time_elapsed":413194,"internal_node_id":"0.0-2.0-18.0"},{"group":"square cycles (cube, non-group)","room_assignment":["green","purple","pink","brown","red","grey","yellow","blue"],"door_color_assignment":["white","black"],"door_generator_assignment":[1,0],"goal":5,"start":4,"action_noise":0.1,"location_history":"[4,7,6,7,3,2,6,5]","action_history":"[0,0,0,1,1,1,1]","door_history":"[1,1,1,0,0,0,0]","location_rts":"[2746,393,391,673,913,517,394]","trial_type":"two-door-navigation","trial_index":21,"time_elapsed":429943,"internal_node_id":"0.0-2.0-19.0"},{"group":"square cycles (cube, non-group)","room_assignment":["green","purple","pink","brown","red","grey","yellow","blue"],"door_color_assignment":["white","black"],"door_generator_assignment":[1,0],"goal":7,"start":5,"action_noise":0.1,"location_history":"[5,4,5,1,0,4,7]","action_history":"[0,1,1,1,1,0]","door_history":"[1,0,0,0,0,1]","location_rts":"[3566,681,427,595,505,1161]","trial_type":"two-door-navigation","trial_index":22,"time_elapsed":446572,"internal_node_id":"0.0-2.0-20.0"},{"group":"square cycles (cube, non-group)","room_assignment":["green","purple","pink","brown","red","grey","yellow","blue"],"door_color_assignment":["white","black"],"door_generator_assignment":[1,0],"goal":2,"start":7,"action_noise":0.1,"location_history":"[7,3,2]","action_history":"[1,1]","door_history":"[0,0]","location_rts":"[1538,707]","trial_type":"two-door-navigation","trial_index":23,"time_elapsed":454378,"internal_node_id":"0.0-2.0-21.0"},{"group":"square cycles (cube, non-group)","room_assignment":["green","purple","pink","brown","red","grey","yellow","blue"],"door_color_assignment":["white","black"],"door_generator_assignment":[1,0],"goal":0,"start":2,"action_noise":0.1,"location_history":"[2,3,0]","action_history":"[0,1]","door_history":"[1,0]","location_rts":"[13080,636]","trial_type":"two-door-navigation","trial_index":24,"time_elapsed":473683,"internal_node_id":"0.0-2.0-22.0"},{"group":"square cycles (cube, non-group)","room_assignment":["green","purple","pink","brown","red","grey","yellow","blue"],"door_color_assignment":["white","black"],"door_generator_assignment":[1,0],"goal":7,"start":0,"action_noise":0.1,"location_history":"[0,1,2,6,5,1,0,4,7]","action_history":"[0,0,0,0,1,1,1,0]","door_history":"[1,1,1,1,0,0,0,1]","location_rts":"[964,444,456,657,546,531,470,478]","trial_type":"two-door-navigation","trial_index":25,"time_elapsed":490573,"internal_node_id":"0.0-2.0-23.0"},{"group":"square cycles (cube, non-group)","room_assignment":["green","purple","pink","brown","red","grey","yellow","blue"],"door_color_assignment":["white","black"],"door_generator_assignment":[1,0],"goal":5,"start":7,"action_noise":0.1,"location_history":"[7,3,2,3,0,4,5]","action_history":"[1,1,0,0,0,1]","door_history":"[0,0,1,1,1,0]","location_rts":"[2180,501,424,465,493,963]","trial_type":"two-door-navigation","trial_index":26,"time_elapsed":506270,"internal_node_id":"0.0-2.0-24.0"},{"group":"square cycles (cube, non-group)","room_assignment":["green","purple","pink","brown","red","grey","yellow","blue"],"door_color_assignment":["white","black"],"door_generator_assignment":[1,0],"goal":0,"start":5,"action_noise":0.1,"location_history":"[5,4,7,6,5,1,2,6,5,4,5,1,0]","action_history":"[0,0,0,0,1,1,1,0,0,1,1,1]","door_history":"[1,1,1,1,0,0,0,1,1,0,0,0]","location_rts":"[2674,344,411,568,693,454,584,470,458,334,1965,557]","trial_type":"two-door-navigation","trial_index":27,"time_elapsed":531836,"internal_node_id":"0.0-2.0-25.0"},{"group":"square cycles (cube, non-group)","room_assignment":["green","purple","pink","brown","red","grey","yellow","blue"],"door_color_assignment":["white","black"],"door_generator_assignment":[1,0],"goal":6,"start":0,"action_noise":0.1,"location_history":"[0,1,0,1,2,6]","action_history":"[0,0,0,0,1]","door_history":"[1,1,1,1,0]","location_rts":"[3181,308,459,367,568]","trial_type":"two-door-navigation","trial_index":28,"time_elapsed":545383,"internal_node_id":"0.0-2.0-26.0"},{"group":"square cycles (cube, non-group)","room_assignment":["green","purple","pink","brown","red","grey","yellow","blue"],"door_color_assignment":["white","black"],"door_generator_assignment":[1,0],"goal":4,"start":6,"action_noise":0.1,"location_history":"[6,7,3,2,6,5,4]","action_history":"[1,1,1,1,0,0]","door_history":"[0,0,0,0,1,1]","location_rts":"[983,1359,392,417,535,316]","trial_type":"two-door-navigation","trial_index":29,"time_elapsed":559081,"internal_node_id":"0.0-2.0-27.0"},{"group":"square cycles (cube, non-group)","room_assignment":["green","purple","pink","brown","red","grey","yellow","blue"],"door_color_assignment":["white","black"],"door_generator_assignment":[1,0],"goal":2,"start":4,"action_noise":0.1,"location_history":"[4,5,1,2]","action_history":"[0,0,0]","door_history":"[1,1,1]","location_rts":"[695,420,466]","trial_type":"two-door-navigation","trial_index":30,"time_elapsed":567257,"internal_node_id":"0.0-2.0-28.0"},{"group":"square cycles (cube, non-group)","room_assignment":["green","purple","pink","brown","red","grey","yellow","blue"],"door_color_assignment":["white","black"],"door_generator_assignment":[1,0],"goal":3,"start":2,"action_noise":0.1,"location_history":"[2,6,5,1,0,4,5,1,0,1,2,6,7,3]","action_history":"[1,1,1,1,1,0,0,0,0,0,1,1,1]","door_history":"[0,0,0,0,0,1,1,1,1,1,0,0,0]","location_rts":"[1028,894,360,373,366,844,402,408,416,438,1385,394,411]","trial_type":"two-door-navigation","trial_index":31,"time_elapsed":591952,"internal_node_id":"0.0-2.0-29.0"},{"group":"square cycles (cube, non-group)","room_assignment":["green","purple","pink","brown","red","grey","yellow","blue"],"door_color_assignment":["white","black"],"door_generator_assignment":[1,0],"goal":1,"start":3,"action_noise":0.1,"location_history":"[3,0,1]","action_history":"[0,0]","door_history":"[1,1]","location_rts":"[541,311]","trial_type":"two-door-navigation","trial_index":32,"time_elapsed":598366,"internal_node_id":"0.0-2.0-30.0"},{"group":"square cycles (cube, non-group)","room_assignment":["green","purple","pink","brown","red","grey","yellow","blue"],"door_color_assignment":["white","black"],"door_generator_assignment":[1,0],"goal":4,"start":1,"action_noise":0.1,"location_history":"[1,2,3,0,1,2,6,7,3,2,6,5,4]","action_history":"[0,0,0,0,0,1,1,1,1,1,0,0]","door_history":"[1,1,1,1,1,0,0,0,0,0,1,1]","location_rts":"[824,235,518,295,333,473,237,321,338,492,577,401]","trial_type":"two-door-navigation","trial_index":33,"time_elapsed":619553,"internal_node_id":"0.0-2.0-31.0"},{"group":"square cycles (cube, non-group)","room_assignment":["green","purple","pink","brown","red","grey","yellow","blue"],"door_color_assignment":["white","black"],"door_generator_assignment":[1,0],"goal":3,"start":4,"action_noise":0.1,"location_history":"[4,7,6,5,4,5,1,0,4,5,4,5,4,7,6,7,3]","action_history":"[0,0,0,0,0,1,1,1,1,0,0,0,0,1,1,1]","door_history":"[1,1,1,1,1,0,0,0,0,1,1,1,1,0,0,0]","location_rts":"[1106,409,409,391,346,493,354,385,430,1096,385,343,352,646,331,377]","trial_type":"two-door-navigation","trial_index":34,"time_elapsed":647453,"internal_node_id":"0.0-2.0-32.0"},{"group":"square cycles (cube, non-group)","room_assignment":["green","purple","pink","brown","red","grey","yellow","blue"],"door_color_assignment":["white","black"],"door_generator_assignment":[1,0],"goal":6,"start":3,"action_noise":0.1,"location_history":"[3,2,6]","action_history":"[1,1]","door_history":"[0,0]","location_rts":"[619,393]","trial_type":"two-door-navigation","trial_index":35,"time_elapsed":654038,"internal_node_id":"0.0-2.0-33.0"},{"group":"square cycles (cube, non-group)","room_assignment":["green","purple","pink","brown","red","grey","yellow","blue"],"door_color_assignment":["white","black"],"door_generator_assignment":[1,0],"goal":0,"start":6,"action_noise":0.1,"location_history":"[6,7,3,2,3,0]","action_history":"[1,1,1,0,0]","door_history":"[0,0,0,1,1]","location_rts":"[1246,477,381,580,312]","trial_type":"two-door-navigation","trial_index":36,"time_elapsed":665701,"internal_node_id":"0.0-2.0-34.0"},{"group":"square cycles (cube, non-group)","room_assignment":["green","purple","pink","brown","red","grey","yellow","blue"],"door_color_assignment":["white","black"],"door_generator_assignment":[1,0],"goal":1,"start":0,"action_noise":0.1,"location_history":"[0,1]","action_history":"[0]","door_history":"[1]","location_rts":"[537]","trial_type":"two-door-navigation","trial_index":37,"time_elapsed":670796,"internal_node_id":"0.0-2.0-35.0"},{"group":"square cycles (cube, non-group)","room_assignment":["green","purple","pink","brown","red","grey","yellow","blue"],"door_color_assignment":["white","black"],"door_generator_assignment":[1,0],"goal":5,"start":1,"action_noise":0.1,"location_history":"[1,0,4,7,6,5]","action_history":"[1,1,1,0,0]","door_history":"[0,0,0,1,1]","location_rts":"[7956,2905,786,639,374]","trial_type":"two-door-navigation","trial_index":38,"time_elapsed":692600,"internal_node_id":"0.0-2.0-36.0"},{"group":"square cycles (cube, non-group)","room_assignment":["green","purple","pink","brown","red","grey","yellow","blue"],"door_color_assignment":["white","black"],"door_generator_assignment":[1,0],"goal":7,"start":5,"action_noise":0.1,"location_history":"[5,4,7]","action_history":"[0,0]","door_history":"[1,1]","location_rts":"[971,456]","trial_type":"two-door-navigation","trial_index":39,"time_elapsed":700105,"internal_node_id":"0.0-2.0-37.0"},{"group":"square cycles (cube, non-group)","room_assignment":["green","purple","pink","brown","red","grey","yellow","blue"],"door_color_assignment":["white","black"],"door_generator_assignment":[1,0],"goal":2,"start":7,"action_noise":0.1,"location_history":"[7,6,7,6,5,1,0,4,7,6,7,3,0,1,0,4,7,6,7,3,0,1,2]","action_history":"[1,1,0,0,1,1,0,0,0,1,1,0,0,1,1,0,0,1,1,0,0,0]","door_history":"[0,0,1,1,0,0,1,1,1,0,0,1,1,0,0,1,1,0,0,1,1,1]","location_rts":"[1353,548,1064,494,1073,808,609,411,458,610,513,527,554,653,1252,869,539,1040,452,595,372,316]","trial_type":"two-door-navigation","trial_index":40,"time_elapsed":741396,"internal_node_id":"0.0-2.0-38.0"},{"group":"square cycles (cube, non-group)","room_assignment":["green","purple","pink","brown","red","grey","yellow","blue"],"door_color_assignment":["white","black"],"door_generator_assignment":[1,0],"goal":1,"start":2,"action_noise":0.1,"location_history":"[2,6,7,3,2,3,0,1]","action_history":"[1,1,1,1,0,0,0]","door_history":"[0,0,0,0,1,1,1]","location_rts":"[1469,1001,961,1009,1319,384,502]","trial_type":"two-door-navigation","trial_index":41,"time_elapsed":758751,"internal_node_id":"0.0-2.0-39.0"},{"group":"square cycles (cube, non-group)","room_assignment":["green","purple","pink","brown","red","grey","yellow","blue"],"door_color_assignment":["white","black"],"door_generator_assignment":[1,0],"goal":3,"start":1,"action_noise":0.1,"location_history":"[1,2,3]","action_history":"[0,0]","door_history":"[1,1]","location_rts":"[1076,606]","trial_type":"two-door-navigation","trial_index":42,"time_elapsed":766029,"internal_node_id":"0.0-2.0-40.0"},{"group":"square cycles (cube, non-group)","room_assignment":["green","purple","pink","brown","red","grey","yellow","blue"],"door_color_assignment":["white","black"],"door_generator_assignment":[1,0],"goal":4,"start":3,"action_noise":0.1,"location_history":"[3,2,6,7,3,2,3,0,4]","action_history":"[1,1,1,1,1,0,0,0]","door_history":"[0,0,0,0,0,1,1,1]","location_rts":"[1097,547,968,444,361,1030,306,311]","trial_type":"two-door-navigation","trial_index":43,"time_elapsed":782848,"internal_node_id":"0.0-2.0-41.0"},{"group":"square cycles (cube, non-group)","room_assignment":["green","purple","pink","brown","red","grey","yellow","blue"],"door_color_assignment":["white","black"],"door_generator_assignment":[1,0],"goal":2,"start":4,"action_noise":0.1,"location_history":"[4,5,4,5,1,2]","action_history":"[1,1,1,1,0]","door_history":"[0,0,0,0,1]","location_rts":"[1265,260,339,381,852]","trial_type":"two-door-navigation","trial_index":44,"time_elapsed":794598,"internal_node_id":"0.0-2.0-42.0"},{"group":"square cycles (cube, non-group)","room_assignment":["green","purple","pink","brown","red","grey","yellow","blue"],"door_color_assignment":["white","black"],"door_generator_assignment":[1,0],"goal":5,"start":2,"action_noise":0.1,"location_history":"[2,6,7,3,0,4,7,6,7,6,7,6,5]","action_history":"[1,1,1,0,0,0,0,1,1,1,0,0]","door_history":"[0,0,0,1,1,1,1,0,0,0,1,1]","location_rts":"[9399,476,536,642,536,538,672,6611,434,395,665,426]","trial_type":"two-door-navigation","trial_index":45,"time_elapsed":831876,"internal_node_id":"0.0-2.0-43.0"},{"group":"square cycles (cube, non-group)","room_assignment":["green","purple","pink","brown","red","grey","yellow","blue"],"door_color_assignment":["white","black"],"door_generator_assignment":[1,0],"goal":0,"start":5,"action_noise":0.1,"location_history":"[5,4,7,6,5,1,0]","action_history":"[0,0,0,0,1,1]","door_history":"[1,1,1,1,0,0]","location_rts":"[946,360,405,558,678,284]","trial_type":"two-door-navigation","trial_index":46,"time_elapsed":844834,"internal_node_id":"0.0-2.0-44.0"},{"group":"square cycles (cube, non-group)","room_assignment":["green","purple","pink","brown","red","grey","yellow","blue"],"door_color_assignment":["white","black"],"door_generator_assignment":[1,0],"goal":7,"start":0,"action_noise":0.1,"location_history":"[0,1,2,6,5,4,5,1,0,4,5,4,7]","action_history":"[0,0,0,0,0,1,1,1,1,1,0,0]","door_history":"[1,1,1,1,1,0,0,0,0,0,1,1]","location_rts":"[1496,396,421,589,595,767,426,551,1166,493,558,338]","trial_type":"two-door-navigation","trial_index":47,"time_elapsed":868497,"internal_node_id":"0.0-2.0-45.0"},{"group":"square cycles (cube, non-group)","room_assignment":["green","purple","pink","brown","red","grey","yellow","blue"],"door_color_assignment":["white","black"],"door_generator_assignment":[1,0],"goal":6,"start":7,"action_noise":0.1,"location_history":"[7,3,2,6]","action_history":"[1,1,1]","door_history":"[0,0,0]","location_rts":"[1205,379,900]","trial_type":"two-door-navigation","trial_index":48,"time_elapsed":877560,"internal_node_id":"0.0-2.0-46.0"},{"group":"square cycles (cube, non-group)","room_assignment":["green","purple","pink","brown","red","grey","yellow","blue"],"door_color_assignment":["white","black"],"door_generator_assignment":[1,0],"goal":2,"start":6,"action_noise":0.1,"location_history":"[6,5,4,7,6,5,1,0,4,7,6,5,4,5,1,2]","action_history":"[0,0,0,0,1,1,1,1,0,0,0,0,1,1,1]","door_history":"[1,1,1,1,0,0,0,0,1,1,1,1,0,0,0]","location_rts":"[1154,378,667,709,1491,316,458,368,738,345,363,330,883,263,408]","trial_type":"two-door-navigation","trial_index":49,"time_elapsed":905602,"internal_node_id":"0.0-2.0-47.0"},{"group":"square cycles (cube, non-group)","room_assignment":["green","purple","pink","brown","red","grey","yellow","blue"],"door_color_assignment":["white","black"],"door_generator_assignment":[1,0],"goal":5,"start":2,"action_noise":0.1,"location_history":"[2,6,5]","action_history":"[0,0]","door_history":"[1,1]","location_rts":"[1130,419]","trial_type":"two-door-navigation","trial_index":50,"time_elapsed":912766,"internal_node_id":"0.0-2.0-48.0"},{"group":"square cycles (cube, non-group)","room_assignment":["green","purple","pink","brown","red","grey","yellow","blue"],"door_color_assignment":["white","black"],"door_generator_assignment":[1,0],"goal":3,"start":5,"action_noise":0.1,"location_history":"[5,4,7,6,7,6,7,3]","action_history":"[0,0,0,0,0,1,1]","door_history":"[1,1,1,1,1,0,0]","location_rts":"[912,2350,405,328,436,1076,346]","trial_type":"two-door-navigation","trial_index":51,"time_elapsed":929340,"internal_node_id":"0.0-2.0-49.0"},{"view_history":"[{\"page_index\":0,\"viewing_time\":4492}]","rt":4494,"trial_type":"instructions","trial_index":52,"time_elapsed":934835,"internal_node_id":"0.0-3.0"},{"view_history":"[{\"page_index\":0,\"viewing_time\":2094},{\"page_index\":1,\"viewing_time\":10114}]","rt":12208,"trial_type":"instructions","trial_index":53,"time_elapsed":948045,"internal_node_id":"0.0-4.0"},{"group":"tri cycles (cube, non-group)","fractal_assignment":["../images/ylw_pnk.png","../images/blu_wht.png","../images/ylw_slt.png","../images/org_blu.png","../images/gry_blk.png","../images/grn_red.png","../images/cyn_red.png","../images/pnk_blu.png"],"mutagen_generator_assignment":[0,1],"goal":5,"start":7,"action_noise":0.1,"location_history":"[7,3,4,7,6,5]","action_history":"[1,1,0,0,1]","mutagen_history":"[1,1,0,0,1]","location_rts":"[2395,1601,520,575,1220]","trial_type":"fractal-mutation","trial_index":54,"time_elapsed":963214,"internal_node_id":"0.0-5.0-0.0"},{"group":"tri cycles (cube, non-group)","fractal_assignment":["../images/ylw_pnk.png","../images/blu_wht.png","../images/ylw_slt.png","../images/org_blu.png","../images/gry_blk.png","../images/grn_red.png","../images/cyn_red.png","../images/pnk_blu.png"],"mutagen_generator_assignment":[0,1],"goal":2,"start":5,"action_noise":0.1,"location_history":"[5,2]","action_history":"[1]","mutagen_history":"[1]","location_rts":"[1379]","trial_type":"fractal-mutation","trial_index":55,"time_elapsed":969230,"internal_node_id":"0.0-5.0-1.0"},{"group":"tri cycles (cube, non-group)","fractal_assignment":["../images/ylw_pnk.png","../images/blu_wht.png","../images/ylw_slt.png","../images/org_blu.png","../images/gry_blk.png","../images/grn_red.png","../images/cyn_red.png","../images/pnk_blu.png"],"mutagen_generator_assignment":[0,1],"goal":0,"start":2,"action_noise":0.1,"location_history":"[2,6,4,7,3,4,0]","action_history":"[1,0,0,1,1,1]","mutagen_history":"[1,0,0,1,1,1]","location_rts":"[3159,614,486,418,720,754]","trial_type":"fractal-mutation","trial_index":56,"time_elapsed":985265,"internal_node_id":"0.0-5.0-2.0"},{"group":"tri cycles (cube, non-group)","fractal_assignment":["../images/ylw_pnk.png","../images/blu_wht.png","../images/ylw_slt.png","../images/org_blu.png","../images/gry_blk.png","../images/grn_red.png","../images/cyn_red.png","../images/pnk_blu.png"],"mutagen_generator_assignment":[0,1],"goal":1,"start":0,"action_noise":0.1,"location_history":"[0,3,7,3,4,7,3,4,7,3,4,0,2,6,5,1]","action_history":"[0,0,1,0,0,1,1,0,1,1,1,0,1,1,0]","mutagen_history":"[0,0,1,0,0,1,1,0,1,1,1,0,1,1,0]","location_rts":"[592,521,1427,372,800,465,428,451,461,336,320,793,1317,558,807]","trial_type":"fractal-mutation","trial_index":57,"time_elapsed":1014346,"internal_node_id":"0.0-5.0-3.0"},{"group":"tri cycles (cube, non-group)","fractal_assignment":["../images/ylw_pnk.png","../images/blu_wht.png","../images/ylw_slt.png","../images/org_blu.png","../images/gry_blk.png","../images/grn_red.png","../images/cyn_red.png","../images/pnk_blu.png"],"mutagen_generator_assignment":[0,1],"goal":6,"start":1,"action_noise":0.1,"location_history":"[1,5,1,0,3,4,7,3,4,7,3,4,0,2,1,0,2,6]","action_history":"[1,0,0,1,1,1,0,1,1,1,1,1,0,0,0,0,1]","mutagen_history":"[1,0,0,1,1,1,0,1,1,1,1,1,0,0,0,0,1]","location_rts":"[699,1485,748,593,6110,624,1055,550,549,702,649,445,400,440,444,723,787]","trial_type":"fractal-mutation","trial_index":58,"time_elapsed":1053117,"internal_node_id":"0.0-5.0-4.0"},{"group":"tri cycles (cube, non-group)","fractal_assignment":["../images/ylw_pnk.png","../images/blu_wht.png","../images/ylw_slt.png","../images/org_blu.png","../images/gry_blk.png","../images/grn_red.png","../images/cyn_red.png","../images/pnk_blu.png"],"mutagen_generator_assignment":[0,1],"goal":3,"start":6,"action_noise":0.1,"location_history":"[6,4,7,3]","action_history":"[0,0,1]","mutagen_history":"[0,0,1]","location_rts":"[2625,971,487]","trial_type":"fractal-mutation","trial_index":59,"time_elapsed":1063849,"internal_node_id":"0.0-5.0-5.0"},{"group":"tri cycles (cube, non-group)","fractal_assignment":["../images/ylw_pnk.png","../images/blu_wht.png","../images/ylw_slt.png","../images/org_blu.png","../images/gry_blk.png","../images/grn_red.png","../images/cyn_red.png","../images/pnk_blu.png"],"mutagen_generator_assignment":[0,1],"goal":4,"start":3,"action_noise":0.1,"location_history":"[3,7,6,5,2,1,0,3,4]","action_history":"[1,0,1,0,0,0,1,1]","mutagen_history":"[1,0,1,0,0,0,1,1]","location_rts":"[3195,445,495,342,468,712,512,542]","trial_type":"fractal-mutation","trial_index":60,"time_elapsed":1082499,"internal_node_id":"0.0-5.0-6.0"},{"group":"tri cycles (cube, non-group)","fractal_assignment":["../images/ylw_pnk.png","../images/blu_wht.png","../images/ylw_slt.png","../images/org_blu.png","../images/gry_blk.png","../images/grn_red.png","../images/cyn_red.png","../images/pnk_blu.png"],"mutagen_generator_assignment":[0,1],"goal":1,"start":4,"action_noise":0.1,"location_history":"[4,0,3,4,0,3,4,7,6,4,7,3,7,6,5,2,1]","action_history":"[1,0,0,1,1,1,0,0,0,0,1,0,1,1,1,0]","mutagen_history":"[1,0,0,1,1,1,0,0,0,0,1,0,1,1,1,0]","location_rts":"[2239,425,416,1731,1072,1426,1066,322,551,751,664,399,1123,446,861,448]","trial_type":"fractal-mutation","trial_index":61,"time_elapsed":1116901,"internal_node_id":"0.0-5.0-7.0"},{"group":"tri cycles (cube, non-group)","fractal_assignment":["../images/ylw_pnk.png","../images/blu_wht.png","../images/ylw_slt.png","../images/org_blu.png","../images/gry_blk.png","../images/grn_red.png","../images/cyn_red.png","../images/pnk_blu.png"],"mutagen_generator_assignment":[0,1],"goal":4,"start":1,"action_noise":0.1,"location_history":"[1,5,1,0,3,4]","action_history":"[1,0,0,1,1]","mutagen_history":"[1,0,0,1,1]","location_rts":"[2358,2024,7080,1178,475]","trial_type":"fractal-mutation","trial_index":62,"time_elapsed":1138846,"internal_node_id":"0.0-5.0-8.0"},{"group":"tri cycles (cube, non-group)","fractal_assignment":["../images/ylw_pnk.png","../images/blu_wht.png","../images/ylw_slt.png","../images/org_blu.png","../images/gry_blk.png","../images/grn_red.png","../images/cyn_red.png","../images/pnk_blu.png"],"mutagen_generator_assignment":[0,1],"goal":5,"start":4,"action_noise":0.1,"location_history":"[4,7,6,5]","action_history":"[0,0,1]","mutagen_history":"[0,0,1]","location_rts":"[10214,672,625]","trial_type":"fractal-mutation","trial_index":63,"time_elapsed":1157049,"internal_node_id":"0.0-5.0-9.0"},{"group":"tri cycles (cube, non-group)","fractal_assignment":["../images/ylw_pnk.png","../images/blu_wht.png","../images/ylw_slt.png","../images/org_blu.png","../images/gry_blk.png","../images/grn_red.png","../images/cyn_red.png","../images/pnk_blu.png"],"mutagen_generator_assignment":[0,1],"goal":3,"start":5,"action_noise":0.1,"location_history":"[5,2,1,5,2,1,0,2,1,0,3]","action_history":"[0,1,1,1,0,0,1,0,0,1]","mutagen_history":"[0,1,1,1,0,0,1,0,0,1]","location_rts":"[20491,3534,4391,1729,696,461,1159,14878,488,1423]","trial_type":"fractal-mutation","trial_index":64,"time_elapsed":1220431,"internal_node_id":"0.0-5.0-10.0"},{"group":"tri cycles (cube, non-group)","fractal_assignment":["../images/ylw_pnk.png","../images/blu_wht.png","../images/ylw_slt.png","../images/org_blu.png","../images/gry_blk.png","../images/grn_red.png","../images/cyn_red.png","../images/pnk_blu.png"],"mutagen_generator_assignment":[0,1],"goal":6,"start":3,"action_noise":0.1,"location_history":"[3,4,0,3,7,3,4,7,6]","action_history":"[1,1,1,0,1,1,0,0]","mutagen_history":"[1,1,1,0,1,1,0,0]","location_rts":"[1015,414,821,397,1193,1313,409,570]","trial_type":"fractal-mutation","trial_index":65,"time_elapsed":1238724,"internal_node_id":"0.0-5.0-11.0"},{"group":"tri cycles (cube, non-group)","fractal_assignment":["../images/ylw_pnk.png","../images/blu_wht.png","../images/ylw_slt.png","../images/org_blu.png","../images/gry_blk.png","../images/grn_red.png","../images/cyn_red.png","../images/pnk_blu.png"],"mutagen_generator_assignment":[0,1],"goal":7,"start":6,"action_noise":0.1,"location_history":"[6,5,1,0,3,7]","action_history":"[1,0,0,1,1]","mutagen_history":"[1,0,0,1,1]","location_rts":"[8484,890,560,530,1826]","trial_type":"fractal-mutation","trial_index":66,"time_elapsed":1260071,"internal_node_id":"0.0-5.0-12.0"},{"group":"tri cycles (cube, non-group)","fractal_assignment":["../images/ylw_pnk.png","../images/blu_wht.png","../images/ylw_slt.png","../images/org_blu.png","../images/gry_blk.png","../images/grn_red.png","../images/cyn_red.png","../images/pnk_blu.png"],"mutagen_generator_assignment":[0,1],"goal":0,"start":7,"action_noise":0.1,"location_history":"[7,3,7,6,5,1,0]","action_history":"[1,0,0,1,0,0]","mutagen_history":"[1,0,0,1,0,0]","location_rts":"[898,479,570,721,510,398]","trial_type":"fractal-mutation","trial_index":67,"time_elapsed":1273460,"internal_node_id":"0.0-5.0-13.0"},{"group":"tri cycles (cube, non-group)","fractal_assignment":["../images/ylw_pnk.png","../images/blu_wht.png","../images/ylw_slt.png","../images/org_blu.png","../images/gry_blk.png","../images/grn_red.png","../images/cyn_red.png","../images/pnk_blu.png"],"mutagen_generator_assignment":[0,1],"goal":2,"start":0,"action_noise":0.1,"location_history":"[0,2]","action_history":"[1]","mutagen_history":"[1]","location_rts":"[1883]","trial_type":"fractal-mutation","trial_index":68,"time_elapsed":1279932,"internal_node_id":"0.0-5.0-14.0"},{"group":"tri cycles (cube, non-group)","fractal_assignment":["../images/ylw_pnk.png","../images/blu_wht.png","../images/ylw_slt.png","../images/org_blu.png","../images/gry_blk.png","../images/grn_red.png","../images/cyn_red.png","../images/pnk_blu.png"],"mutagen_generator_assignment":[0,1],"goal":1,"start":2,"action_noise":0.1,"location_history":"[2,6,4,7,3,7,6,4,7,6,4,0,3,7,3,7,6,4,0,3,7,6,4,7,3,4,0,3,7,6,4,0,2,1]","action_history":"[1,0,0,1,0,0,0,0,0,0,1,1,0,1,0,0,0,1,1,0,0,0,0,1,1,1,1,1,0,0,1,0,0]","mutagen_history":"[1,0,0,1,0,0,0,0,0,0,1,1,0,1,0,0,0,1,1,0,0,0,0,1,1,1,1,1,0,0,1,0,0]","location_rts":"[1533,803,718,708,325,496,1586,870,805,1793,1037,638,602,1814,1327,768,1634,353,718,950,560,873,1527,987,824,1533,1721,869,1090,878,1573,1022,1798]","trial_type":"fractal-mutation","trial_index":69,"time_elapsed":1352904,"internal_node_id":"0.0-5.0-15.0"},{"group":"tri cycles (cube, non-group)","fractal_assignment":["../images/ylw_pnk.png","../images/blu_wht.png","../images/ylw_slt.png","../images/org_blu.png","../images/gry_blk.png","../images/grn_red.png","../images/cyn_red.png","../images/pnk_blu.png"],"mutagen_generator_assignment":[0,1],"goal":6,"start":1,"action_noise":0.1,"location_history":"[1,5,2,1,0,2,6]","action_history":"[1,0,0,0,0,1]","mutagen_history":"[1,0,0,0,0,1]","location_rts":"[2144,1386,571,793,1723,1087]","trial_type":"fractal-mutation","trial_index":70,"time_elapsed":1370490,"internal_node_id":"0.0-5.0-16.0"},{"group":"tri cycles (cube, non-group)","fractal_assignment":["../images/ylw_pnk.png","../images/blu_wht.png","../images/ylw_slt.png","../images/org_blu.png","../images/gry_blk.png","../images/grn_red.png","../images/cyn_red.png","../images/pnk_blu.png"],"mutagen_generator_assignment":[0,1],"goal":3,"start":6,"action_noise":0.1,"location_history":"[6,5,1,5,2,6,4,7,6,5,2,1,0,3]","action_history":"[1,0,1,1,1,0,0,0,1,1,0,0,1]","mutagen_history":"[1,0,1,1,1,0,0,0,1,1,0,0,1]","location_rts":"[1658,325,639,443,481,974,400,814,898,563,908,721,648]","trial_type":"fractal-mutation","trial_index":71,"time_elapsed":1397219,"internal_node_id":"0.0-5.0-17.0"},{"group":"tri cycles (cube, non-group)","fractal_assignment":["../images/ylw_pnk.png","../images/blu_wht.png","../images/ylw_slt.png","../images/org_blu.png","../images/gry_blk.png","../images/grn_red.png","../images/cyn_red.png","../images/pnk_blu.png"],"mutagen_generator_assignment":[0,1],"goal":4,"start":3,"action_noise":0.1,"location_history":"[3,4]","action_history":"[1]","mutagen_history":"[1]","location_rts":"[2337]","trial_type":"fractal-mutation","trial_index":72,"time_elapsed":1404198,"internal_node_id":"0.0-5.0-18.0"},{"group":"tri cycles (cube, non-group)","fractal_assignment":["../images/ylw_pnk.png","../images/blu_wht.png","../images/ylw_slt.png","../images/org_blu.png","../images/gry_blk.png","../images/grn_red.png","../images/cyn_red.png","../images/pnk_blu.png"],"mutagen_generator_assignment":[0,1],"goal":5,"start":4,"action_noise":0.1,"location_history":"[4,0,2,1,0,2,6,5]","action_history":"[1,0,0,0,0,1,1]","mutagen_history":"[1,0,0,0,0,1,1]","location_rts":"[874,561,431,444,661,509,906]","trial_type":"fractal-mutation","trial_index":73,"time_elapsed":1419527,"internal_node_id":"0.0-5.0-19.0"},{"group":"tri cycles (cube, non-group)","fractal_assignment":["../images/ylw_pnk.png","../images/blu_wht.png","../images/ylw_slt.png","../images/org_blu.png","../images/gry_blk.png","../images/grn_red.png","../images/cyn_red.png","../images/pnk_blu.png"],"mutagen_generator_assignment":[0,1],"goal":7,"start":5,"action_noise":0.1,"location_history":"[5,2,1,0,3,4,0,3,7]","action_history":"[1,0,0,1,1,1,1,0]","mutagen_history":"[1,0,0,1,1,1,1,0]","location_rts":"[887,581,816,514,459,601,498,390]","trial_type":"fractal-mutation","trial_index":74,"time_elapsed":1436257,"internal_node_id":"0.0-5.0-20.0"},{"group":"tri cycles (cube, non-group)","fractal_assignment":["../images/ylw_pnk.png","../images/blu_wht.png","../images/ylw_slt.png","../images/org_blu.png","../images/gry_blk.png","../images/grn_red.png","../images/cyn_red.png","../images/pnk_blu.png"],"mutagen_generator_assignment":[0,1],"goal":2,"start":7,"action_noise":0.1,"location_history":"[7,3,4,7,6,4,0,3,7,6,4,7,3,4,7,6,5,2]","action_history":"[1,1,0,0,0,1,1,1,0,0,0,1,1,0,0,0,1]","mutagen_history":"[1,1,0,0,0,1,1,1,0,0,0,1,1,0,0,0,1]","location_rts":"[4330,564,382,484,736,485,401,431,422,427,883,538,482,876,441,516,457]","trial_type":"fractal-mutation","trial_index":75,"time_elapsed":1470540,"internal_node_id":"0.0-5.0-21.0"},{"group":"tri cycles (cube, non-group)","fractal_assignment":["../images/ylw_pnk.png","../images/blu_wht.png","../images/ylw_slt.png","../images/org_blu.png","../images/gry_blk.png","../images/grn_red.png","../images/cyn_red.png","../images/pnk_blu.png"],"mutagen_generator_assignment":[0,1],"goal":0,"start":2,"action_noise":0.1,"location_history":"[2,1,0]","action_history":"[1,0]","mutagen_history":"[1,0]","location_rts":"[1263,432]","trial_type":"fractal-mutation","trial_index":76,"time_elapsed":1477856,"internal_node_id":"0.0-5.0-22.0"},{"group":"tri cycles (cube, non-group)","fractal_assignment":["../images/ylw_pnk.png","../images/blu_wht.png","../images/ylw_slt.png","../images/org_blu.png","../images/gry_blk.png","../images/grn_red.png","../images/cyn_red.png","../images/pnk_blu.png"],"mutagen_generator_assignment":[0,1],"goal":7,"start":0,"action_noise":0.1,"location_history":"[0,2,6,5,2,1,0,3,7]","action_history":"[0,1,1,1,0,0,1,1]","mutagen_history":"[0,1,1,1,0,0,1,1]","location_rts":"[1609,775,558,684,654,826,744,510]","trial_type":"fractal-mutation","trial_index":77,"time_elapsed":1496171,"internal_node_id":"0.0-5.0-23.0"},{"group":"tri cycles (cube, non-group)","fractal_assignment":["../images/ylw_pnk.png","../images/blu_wht.png","../images/ylw_slt.png","../images/org_blu.png","../images/gry_blk.png","../images/grn_red.png","../images/cyn_red.png","../images/pnk_blu.png"],"mutagen_generator_assignment":[0,1],"goal":5,"start":7,"action_noise":0.1,"location_history":"[7,3,4,7,6,5]","action_history":"[1,1,0,0,1]","mutagen_history":"[1,1,0,0,1]","location_rts":"[1423,492,494,459,779]","trial_type":"fractal-mutation","trial_index":78,"time_elapsed":1508594,"internal_node_id":"0.0-5.0-24.0"},{"group":"tri cycles (cube, non-group)","fractal_assignment":["../images/ylw_pnk.png","../images/blu_wht.png","../images/ylw_slt.png","../images/org_blu.png","../images/gry_blk.png","../images/grn_red.png","../images/cyn_red.png","../images/pnk_blu.png"],"mutagen_generator_assignment":[0,1],"goal":0,"start":5,"action_noise":0.1,"location_history":"[5,1,5,1,0]","action_history":"[0,1,0,0]","mutagen_history":"[0,1,0,0]","location_rts":"[1848,3105,1667,1740]","trial_type":"fractal-mutation","trial_index":79,"time_elapsed":1524672,"internal_node_id":"0.0-5.0-25.0"},{"group":"tri cycles (cube, non-group)","fractal_assignment":["../images/ylw_pnk.png","../images/blu_wht.png","../images/ylw_slt.png","../images/org_blu.png","../images/gry_blk.png","../images/grn_red.png","../images/cyn_red.png","../images/pnk_blu.png"],"mutagen_generator_assignment":[0,1],"goal":6,"start":0,"action_noise":0.1,"location_history":"[0,2,1,5,1,5,1,0,2,6]","action_history":"[0,0,1,1,1,0,0,0,1]","mutagen_history":"[0,0,1,1,1,0,0,0,1]","location_rts":"[1071,744,465,2151,612,911,458,556,394]","trial_type":"fractal-mutation","trial_index":80,"time_elapsed":1545012,"internal_node_id":"0.0-5.0-26.0"},{"group":"tri cycles (cube, non-group)","fractal_assignment":["../images/ylw_pnk.png","../images/blu_wht.png","../images/ylw_slt.png","../images/org_blu.png","../images/gry_blk.png","../images/grn_red.png","../images/cyn_red.png","../images/pnk_blu.png"],"mutagen_generator_assignment":[0,1],"goal":4,"start":6,"action_noise":0.1,"location_history":"[6,5,1,5,2,6,5,2,1,0,3,4]","action_history":"[0,0,1,1,1,1,1,0,0,1,1]","mutagen_history":"[0,0,1,1,1,1,1,0,0,1,1]","location_rts":"[1071,910,729,424,884,593,565,436,597,722,1145]","trial_type":"fractal-mutation","trial_index":81,"time_elapsed":1568356,"internal_node_id":"0.0-5.0-27.0"},{"group":"tri cycles (cube, non-group)","fractal_assignment":["../images/ylw_pnk.png","../images/blu_wht.png","../images/ylw_slt.png","../images/org_blu.png","../images/gry_blk.png","../images/grn_red.png","../images/cyn_red.png","../images/pnk_blu.png"],"mutagen_generator_assignment":[0,1],"goal":2,"start":4,"action_noise":0.1,"location_history":"[4,0,3,7,3,4,0,2]","action_history":"[1,1,0,1,1,1,0]","mutagen_history":"[1,1,0,1,1,1,0]","location_rts":"[1385,1272,558,5217,558,762,664]","trial_type":"fractal-mutation","trial_index":82,"time_elapsed":1589752,"internal_node_id":"0.0-5.0-28.0"},{"group":"tri cycles (cube, non-group)","fractal_assignment":["../images/ylw_pnk.png","../images/blu_wht.png","../images/ylw_slt.png","../images/org_blu.png","../images/gry_blk.png","../images/grn_red.png","../images/cyn_red.png","../images/pnk_blu.png"],"mutagen_generator_assignment":[0,1],"goal":3,"start":2,"action_noise":0.1,"location_history":"[2,6,4,7,6,5,1,0,3]","action_history":"[1,0,0,0,1,0,0,1]","mutagen_history":"[1,0,0,0,1,0,0,1]","location_rts":"[793,788,445,518,645,402,651,930]","trial_type":"fractal-mutation","trial_index":83,"time_elapsed":1606886,"internal_node_id":"0.0-5.0-29.0"},{"group":"tri cycles (cube, non-group)","fractal_assignment":["../images/ylw_pnk.png","../images/blu_wht.png","../images/ylw_slt.png","../images/org_blu.png","../images/gry_blk.png","../images/grn_red.png","../images/cyn_red.png","../images/pnk_blu.png"],"mutagen_generator_assignment":[0,1],"goal":1,"start":3,"action_noise":0.1,"location_history":"[3,4,7,6,4,7,3,7,3,4,0,3,4,7,6,4,7,6,4,0,2,6,5,2,6,4,0,2,1]","action_history":"[1,0,0,0,0,1,0,1,1,1,1,1,0,0,0,0,0,0,1,0,1,1,1,1,0,0,0,0]","mutagen_history":"[1,0,0,0,0,1,0,1,1,1,1,1,0,0,0,0,0,0,1,0,1,1,1,1,0,0,0,0]","location_rts":"[800,545,783,1319,681,482,482,726,329,746,472,608,412,491,1381,778,750,692,430,932,1085,662,406,947,610,563,1309,1252]","trial_type":"fractal-mutation","trial_index":84,"time_elapsed":1660528,"internal_node_id":"0.0-5.0-30.0"},{"group":"tri cycles (cube, non-group)","fractal_assignment":["../images/ylw_pnk.png","../images/blu_wht.png","../images/ylw_slt.png","../images/org_blu.png","../images/gry_blk.png","../images/grn_red.png","../images/cyn_red.png","../images/pnk_blu.png"],"mutagen_generator_assignment":[0,1],"goal":4,"start":1,"action_noise":0.1,"location_history":"[1,5,1,0,2,1,5,2,6,5,1,0,2,1,5,2,6,4]","action_history":"[1,0,0,0,0,1,1,1,1,0,0,0,0,1,1,1,0]","mutagen_history":"[1,0,0,0,0,1,1,1,1,0,0,0,0,1,1,1,0]","location_rts":"[1053,602,446,729,467,878,423,354,764,442,691,458,454,720,423,449,878]","trial_type":"fractal-mutation","trial_index":85,"time_elapsed":1692372,"internal_node_id":"0.0-5.0-31.0"},{"group":"tri cycles (cube, non-group)","fractal_assignment":["../images/ylw_pnk.png","../images/blu_wht.png","../images/ylw_slt.png","../images/org_blu.png","../images/gry_blk.png","../images/grn_red.png","../images/cyn_red.png","../images/pnk_blu.png"],"mutagen_generator_assignment":[0,1],"goal":3,"start":4,"action_noise":0.1,"location_history":"[4,0,3]","action_history":"[1,1]","mutagen_history":"[1,1]","location_rts":"[1548,775]","trial_type":"fractal-mutation","trial_index":86,"time_elapsed":1700320,"internal_node_id":"0.0-5.0-32.0"},{"group":"tri cycles (cube, non-group)","fractal_assignment":["../images/ylw_pnk.png","../images/blu_wht.png","../images/ylw_slt.png","../images/org_blu.png","../images/gry_blk.png","../images/grn_red.png","../images/cyn_red.png","../images/pnk_blu.png"],"mutagen_generator_assignment":[0,1],"goal":6,"start":3,"action_noise":0.1,"location_history":"[3,4,0,2,1,5,2,6]","action_history":"[1,0,0,0,1,1,1]","mutagen_history":"[1,0,0,0,1,1,1]","location_rts":"[680,444,738,525,410,1025,596]","trial_type":"fractal-mutation","trial_index":87,"time_elapsed":1715640,"internal_node_id":"0.0-5.0-33.0"},{"group":"tri cycles (cube, non-group)","fractal_assignment":["../images/ylw_pnk.png","../images/blu_wht.png","../images/ylw_slt.png","../images/org_blu.png","../images/gry_blk.png","../images/grn_red.png","../images/cyn_red.png","../images/pnk_blu.png"],"mutagen_generator_assignment":[0,1],"goal":0,"start":6,"action_noise":0.1,"location_history":"[6,5,1,0]","action_history":"[1,0,0]","mutagen_history":"[1,0,0]","location_rts":"[897,393,479]","trial_type":"fractal-mutation","trial_index":88,"time_elapsed":1724097,"internal_node_id":"0.0-5.0-34.0"},{"group":"tri cycles (cube, non-group)","fractal_assignment":["../images/ylw_pnk.png","../images/blu_wht.png","../images/ylw_slt.png","../images/org_blu.png","../images/gry_blk.png","../images/grn_red.png","../images/cyn_red.png","../images/pnk_blu.png"],"mutagen_generator_assignment":[0,1],"goal":1,"start":0,"action_noise":0.1,"location_history":"[0,3,7,6,5,2,6,5,1]","action_history":"[1,0,0,1,1,1,1,0]","mutagen_history":"[1,0,0,1,1,1,1,0]","location_rts":"[7886,2599,505,1442,4551,1176,720,1568]","trial_type":"fractal-mutation","trial_index":89,"time_elapsed":1756516,"internal_node_id":"0.0-5.0-35.0"},{"group":"tri cycles (cube, non-group)","fractal_assignment":["../images/ylw_pnk.png","../images/blu_wht.png","../images/ylw_slt.png","../images/org_blu.png","../images/gry_blk.png","../images/grn_red.png","../images/cyn_red.png","../images/pnk_blu.png"],"mutagen_generator_assignment":[0,1],"goal":5,"start":1,"action_noise":0.1,"location_history":"[1,0,3,4,0,3,7,6,5]","action_history":"[0,1,1,1,1,0,1,1]","mutagen_history":"[0,1,1,1,1,0,1,1]","location_rts":"[5611,622,268,698,1234,336,630,2908]","trial_type":"fractal-mutation","trial_index":90,"time_elapsed":1781061,"internal_node_id":"0.0-5.0-36.0"},{"group":"tri cycles (cube, non-group)","fractal_assignment":["../images/ylw_pnk.png","../images/blu_wht.png","../images/ylw_slt.png","../images/org_blu.png","../images/gry_blk.png","../images/grn_red.png","../images/cyn_red.png","../images/pnk_blu.png"],"mutagen_generator_assignment":[0,1],"goal":7,"start":5,"action_noise":0.1,"location_history":"[5,2,1,0,2,6,4,0,3,7]","action_history":"[1,0,0,0,1,1,1,1,0]","mutagen_history":"[1,0,0,0,1,1,1,1,0]","location_rts":"[1411,1150,2244,5312,1243,377,2420,3313,339]","trial_type":"fractal-mutation","trial_index":91,"time_elapsed":1811882,"internal_node_id":"0.0-5.0-37.0"},{"group":"tri cycles (cube, non-group)","fractal_assignment":["../images/ylw_pnk.png","../images/blu_wht.png","../images/ylw_slt.png","../images/org_blu.png","../images/gry_blk.png","../images/grn_red.png","../images/cyn_red.png","../images/pnk_blu.png"],"mutagen_generator_assignment":[0,1],"goal":2,"start":7,"action_noise":0.1,"location_history":"[7,3,7,6,4,0,3,4,0,3,4,0,2]","action_history":"[1,0,0,0,1,1,0,1,1,1,1,1]","mutagen_history":"[1,0,0,0,1,1,0,1,1,1,1,1]","location_rts":"[1219,346,532,801,434,402,310,360,288,381,434,461]","trial_type":"fractal-mutation","trial_index":92,"time_elapsed":1834049,"internal_node_id":"0.0-5.0-38.0"},{"group":"tri cycles (cube, non-group)","fractal_assignment":["../images/ylw_pnk.png","../images/blu_wht.png","../images/ylw_slt.png","../images/org_blu.png","../images/gry_blk.png","../images/grn_red.png","../images/cyn_red.png","../images/pnk_blu.png"],"mutagen_generator_assignment":[0,1],"goal":1,"start":2,"action_noise":0.1,"location_history":"[2,6,4,7,6,5,2,6,5,1]","action_history":"[1,0,0,0,0,1,1,1,0]","mutagen_history":"[1,0,0,0,0,1,1,1,0]","location_rts":"[645,355,11,662,872,984,393,560,314]","trial_type":"fractal-mutation","trial_index":93,"time_elapsed":1851812,"internal_node_id":"0.0-5.0-39.0"},{"group":"tri cycles (cube, non-group)","fractal_assignment":["../images/ylw_pnk.png","../images/blu_wht.png","../images/ylw_slt.png","../images/org_blu.png","../images/gry_blk.png","../images/grn_red.png","../images/cyn_red.png","../images/pnk_blu.png"],"mutagen_generator_assignment":[0,1],"goal":3,"start":1,"action_noise":0.1,"location_history":"[1,0,3]","action_history":"[0,1]","mutagen_history":"[0,1]","location_rts":"[836,703]","trial_type":"fractal-mutation","trial_index":94,"time_elapsed":1858964,"internal_node_id":"0.0-5.0-40.0"},{"group":"tri cycles (cube, non-group)","fractal_assignment":["../images/ylw_pnk.png","../images/blu_wht.png","../images/ylw_slt.png","../images/org_blu.png","../images/gry_blk.png","../images/grn_red.png","../images/cyn_red.png","../images/pnk_blu.png"],"mutagen_generator_assignment":[0,1],"goal":4,"start":3,"action_noise":0.1,"location_history":"[3,7,3,4]","action_history":"[0,1,1]","mutagen_history":"[0,1,1]","location_rts":"[2106,691,1164]","trial_type":"fractal-mutation","trial_index":95,"time_elapsed":1869566,"internal_node_id":"0.0-5.0-41.0"},{"group":"tri cycles (cube, non-group)","fractal_assignment":["../images/ylw_pnk.png","../images/blu_wht.png","../images/ylw_slt.png","../images/org_blu.png","../images/gry_blk.png","../images/grn_red.png","../images/cyn_red.png","../images/pnk_blu.png"],"mutagen_generator_assignment":[0,1],"goal":2,"start":4,"action_noise":0.1,"location_history":"[4,0,2]","action_history":"[1,0]","mutagen_history":"[1,0]","location_rts":"[930,322]","trial_type":"fractal-mutation","trial_index":96,"time_elapsed":1876536,"internal_node_id":"0.0-5.0-42.0"},{"group":"tri cycles (cube, non-group)","fractal_assignment":["../images/ylw_pnk.png","../images/blu_wht.png","../images/ylw_slt.png","../images/org_blu.png","../images/gry_blk.png","../images/grn_red.png","../images/cyn_red.png","../images/pnk_blu.png"],"mutagen_generator_assignment":[0,1],"goal":5,"start":2,"action_noise":0.1,"location_history":"[2,1,0,2,1,0,3,7,6,5]","action_history":"[1,0,0,0,0,1,0,0,1]","mutagen_history":"[1,0,0,0,0,1,0,0,1]","location_rts":"[935,432,565,610,649,737,539,810,920]","trial_type":"fractal-mutation","trial_index":97,"time_elapsed":1895713,"internal_node_id":"0.0-5.0-43.0"},{"group":"tri cycles (cube, non-group)","fractal_assignment":["../images/ylw_pnk.png","../images/blu_wht.png","../images/ylw_slt.png","../images/org_blu.png","../images/gry_blk.png","../images/grn_red.png","../images/cyn_red.png","../images/pnk_blu.png"],"mutagen_generator_assignment":[0,1],"goal":0,"start":5,"action_noise":0.1,"location_history":"[5,2,6,5,1,5,1,0]","action_history":"[1,1,0,1,1,0,0]","mutagen_history":"[1,1,0,1,1,0,0]","location_rts":"[841,507,379,760,411,472,365]","trial_type":"fractal-mutation","trial_index":98,"time_elapsed":1910364,"internal_node_id":"0.0-5.0-44.0"},{"group":"tri cycles (cube, non-group)","fractal_assignment":["../images/ylw_pnk.png","../images/blu_wht.png","../images/ylw_slt.png","../images/org_blu.png","../images/gry_blk.png","../images/grn_red.png","../images/cyn_red.png","../images/pnk_blu.png"],"mutagen_generator_assignment":[0,1],"goal":7,"start":0,"action_noise":0.1,"location_history":"[0,2,6,5,2,1,0,2,1,5,2,6,5,1,0,2,1,5,1,5,2,1,0,2,1,5,2,6,5,2,1,0,2,1,5,1,5,1,0,3,4,0,2,1,5,1,0,2,6,5,1,5,2,1,5,1,0,2,1,5,2,1,0,3,7]","action_history":"[0,1,1,1,0,0,0,0,1,1,1,0,0,0,1,1,1,0,0,1,0,0,0,0,1,1,1,1,1,0,0,0,0,1,1,1,0,0,1,1,1,0,0,1,1,0,0,1,1,0,1,1,1,1,0,0,0,1,1,1,0,0,1,1]","mutagen_history":"[0,1,1,1,0,0,0,0,1,1,1,0,0,0,1,1,1,0,0,1,0,0,0,0,1,1,1,1,1,0,0,0,0,1,1,1,0,0,1,1,1,0,0,1,1,0,0,1,1,0,1,1,1,1,0,0,0,1,1,1,0,0,1,1]","location_rts":"[1890,920,438,475,427,256,525,713,538,556,592,608,789,796,616,699,1022,465,538,682,1127,1145,1105,1026,474,448,466,675,479,229,586,514,805,591,461,618,326,3535,690,113,1218,821,542,365,495,400,1100,592,1099,405,512,385,496,461,242,295,500,1530,565,504,402,553,638,440]","trial_type":"fractal-mutation","trial_index":99,"time_elapsed":2025189,"internal_node_id":"0.0-5.0-45.0"},{"group":"tri cycles (cube, non-group)","fractal_assignment":["../images/ylw_pnk.png","../images/blu_wht.png","../images/ylw_slt.png","../images/org_blu.png","../images/gry_blk.png","../images/grn_red.png","../images/cyn_red.png","../images/pnk_blu.png"],"mutagen_generator_assignment":[0,1],"goal":6,"start":7,"action_noise":0.1,"location_history":"[7,6]","action_history":"[0]","mutagen_history":"[0]","location_rts":"[1745]","trial_type":"fractal-mutation","trial_index":100,"time_elapsed":2031582,"internal_node_id":"0.0-5.0-46.0"},{"group":"tri cycles (cube, non-group)","fractal_assignment":["../images/ylw_pnk.png","../images/blu_wht.png","../images/ylw_slt.png","../images/org_blu.png","../images/gry_blk.png","../images/grn_red.png","../images/cyn_red.png","../images/pnk_blu.png"],"mutagen_generator_assignment":[0,1],"goal":2,"start":6,"action_noise":0.1,"location_history":"[6,4,0,3,7,3,7,6,5,2]","action_history":"[0,1,1,0,1,0,0,1,1]","mutagen_history":"[0,1,1,0,1,0,0,1,1]","location_rts":"[1703,365,750,340,1283,649,297,570,277]","trial_type":"fractal-mutation","trial_index":101,"time_elapsed":2050809,"internal_node_id":"0.0-5.0-47.0"},{"group":"tri cycles (cube, non-group)","fractal_assignment":["../images/ylw_pnk.png","../images/blu_wht.png","../images/ylw_slt.png","../images/org_blu.png","../images/gry_blk.png","../images/grn_red.png","../images/cyn_red.png","../images/pnk_blu.png"],"mutagen_generator_assignment":[0,1],"goal":5,"start":2,"action_noise":0.1,"location_history":"[2,6,5]","action_history":"[1,1]","mutagen_history":"[1,1]","location_rts":"[926,599]","trial_type":"fractal-mutation","trial_index":102,"time_elapsed":2057961,"internal_node_id":"0.0-5.0-48.0"},{"group":"tri cycles (cube, non-group)","fractal_assignment":["../images/ylw_pnk.png","../images/blu_wht.png","../images/ylw_slt.png","../images/org_blu.png","../images/gry_blk.png","../images/grn_red.png","../images/cyn_red.png","../images/pnk_blu.png"],"mutagen_generator_assignment":[0,1],"goal":3,"start":5,"action_noise":0.1,"location_history":"[5,2,1,0,2,6,5,1,0,3]","action_history":"[1,0,0,1,1,0,0,0,1]","mutagen_history":"[1,0,0,1,1,0,0,0,1]","location_rts":"[1828,436,541,568,1412,477,469,792,777]","trial_type":"fractal-mutation","trial_index":103,"time_elapsed":2078278,"internal_node_id":"0.0-5.0-49.0"},{"view_history":"[{\"page_index\":0,\"viewing_time\":3069}]","rt":3069,"trial_type":"instructions","trial_index":104,"time_elapsed":2082349,"internal_node_id":"0.0-6.0"},{"rt":18287,"responses":"{\"Q0\":\"Pattern recognition. \"}","trial_type":"survey-text","trial_index":105,"time_elapsed":2101649,"internal_node_id":"0.0-7.0-0.0"},{"rt":24809,"responses":"{\"Q0\":\"How well patterns were remembered over the course of time. \"}","trial_type":"survey-text","trial_index":106,"time_elapsed":2127463,"internal_node_id":"0.0-7.0-1.0"},{"rt":23144,"responses":"{\"Q0\":\"<img src='../images/diagrams/square_cycles.png'>\"}","trial_type":"survey-multi-choice","trial_index":107,"time_elapsed":2151621,"internal_node_id":"0.0-7.0-2.0"},{"rt":83205,"assignments":["../images/pnk_blu.png","../images/gry_blk.png","../images/org_blu.png","../images/grn_red.png","../images/blu_wht.png","../images/cyn_red.png","../images/ylw_pnk.png","../images/ylw_slt.png"],"trial_type":"drag-drop-on-image","trial_index":108,"time_elapsed":2235833,"internal_node_id":"0.0-7.0-3.0"},{"rt":8931,"responses":"{\"Q0\":\"3\"}","trial_type":"survey-likert","trial_index":109,"time_elapsed":2245773,"internal_node_id":"0.0-7.0-4.0"},{"rt":90535,"responses":"{\"Q0\":\"There were small patterns that were part of a larger pattern. For instance, there was a sequence of colors that led to a particular color, but that was changed throughout the process. \"}","trial_type":"survey-text","trial_index":110,"time_elapsed":2337315,"internal_node_id":"0.0-7.0-5.0"},{"rt":17401,"responses":"{\"Q0\":\"No\"}","trial_type":"survey-multi-choice","trial_index":111,"time_elapsed":2355724,"internal_node_id":"0.0-7.0-6.0"},{"rt":16069,"responses":"{\"Q0\":\"During these questions/I wasn't aware until you pointed it out\"}","trial_type":"survey-multi-choice","trial_index":112,"time_elapsed":2372803,"internal_node_id":"0.0-7.0-7.0"},{"rt":28532,"responses":"{\"Q0\":\"\"}","trial_type":"survey-text","trial_index":113,"time_elapsed":2402338,"internal_node_id":"0.0-7.0-8.0"},{"rt":7923,"responses":"{\"Q0\":\"1\"}","trial_type":"survey-likert","trial_index":114,"time_elapsed":2411276,"internal_node_id":"0.0-7.0-9.0"},{"rt":10007,"responses":"{\"Q0\":\"Different structure\"}","trial_type":"survey-multi-choice","trial_index":115,"time_elapsed":2422291,"internal_node_id":"0.0-7.0-10.0"},{"rt":57897,"responses":"{\"Q0\":\"left (white) door = acid, (black) door = ray\",\"Q1\":\"Moderately confident\"}","trial_type":"survey-multi-choice","trial_index":116,"time_elapsed":2481204,"internal_node_id":"0.0-7.0-11.0"},{"rt":11878,"responses":"{\"Q0\":\"25-35\",\"Q1\":\"Some college\",\"Q2\":\"Female\",\"Q3\":\"White\"}","trial_type":"survey-multi-choice","trial_index":117,"time_elapsed":2494108,"internal_node_id":"0.0-8.0"},{"rt":4883,"responses":"{\"Q0\":\"No\"}","trial_type":"survey-text","trial_index":118,"time_elapsed":2499995,"internal_node_id":"0.0-9.0"}]