[{"view_history":"[{\"page_index\":0,\"viewing_time\":18601},{\"page_index\":1,\"viewing_time\":6750}]","rt":25351,"trial_type":"instructions","trial_index":0,"time_elapsed":25352,"internal_node_id":"0.0-0.0"},{"view_history":"[{\"page_index\":0,\"viewing_time\":2798},{\"page_index\":1,\"viewing_time\":10311}]","rt":13110,"trial_type":"instructions","trial_index":1,"time_elapsed":39465,"internal_node_id":"0.0-1.0"},{"group":"tri cycles (cube, non-group)","room_assignment":["grey","yellow","pink","brown","blue","red","purple","green"],"door_color_assignment":["black","white"],"door_generator_assignment":[1,0],"goal":5,"start":7,"action_noise":0.1,"location_history":"[7,6,4,0,3,7,6,5]","action_history":"[0,0,1,1,0,0,1]","door_history":"[1,1,0,0,1,1,0]","location_rts":"[3341,687,781,468,802,541,872]","trial_type":"two-door-navigation","trial_index":2,"time_elapsed":57645,"internal_node_id":"0.0-2.0-0.0"},{"group":"tri cycles (cube, non-group)","room_assignment":["grey","yellow","pink","brown","blue","red","purple","green"],"door_color_assignment":["black","white"],"door_generator_assignment":[1,0],"goal":2,"start":5,"action_noise":0.1,"location_history":"[5,2]","action_history":"[1]","door_history":"[0]","location_rts":"[4609]","trial_type":"two-door-navigation","trial_index":3,"time_elapsed":66786,"internal_node_id":"0.0-2.0-1.0"},{"group":"tri cycles (cube, non-group)","room_assignment":["grey","yellow","pink","brown","blue","red","purple","green"],"door_color_assignment":["black","white"],"door_generator_assignment":[1,0],"goal":0,"start":2,"action_noise":0.1,"location_history":"[2,1,0]","action_history":"[0,0]","door_history":"[1,1]","location_rts":"[4667,500]","trial_type":"two-door-navigation","trial_index":4,"time_elapsed":77512,"internal_node_id":"0.0-2.0-2.0"},{"group":"tri cycles (cube, non-group)","room_assignment":["grey","yellow","pink","brown","blue","red","purple","green"],"door_color_assignment":["black","white"],"door_generator_assignment":[1,0],"goal":1,"start":0,"action_noise":0.1,"location_history":"[0,3,4,7,6,5,2,1]","action_history":"[1,1,0,0,1,1,0]","door_history":"[0,0,1,1,0,0,1]","location_rts":"[2422,544,719,532,1394,1042,1235]","trial_type":"two-door-navigation","trial_index":5,"time_elapsed":96083,"internal_node_id":"0.0-2.0-3.0"},{"group":"tri cycles (cube, non-group)","room_assignment":["grey","yellow","pink","brown","blue","red","purple","green"],"door_color_assignment":["black","white"],"door_generator_assignment":[1,0],"goal":6,"start":1,"action_noise":0.1,"location_history":"[1,5,2,1,0,3,4,7,6]","action_history":"[1,1,0,0,1,1,0,0]","door_history":"[0,0,1,1,0,0,1,1]","location_rts":"[1820,696,972,613,1525,415,810,423]","trial_type":"two-door-navigation","trial_index":6,"time_elapsed":115062,"internal_node_id":"0.0-2.0-4.0"},{"group":"tri cycles (cube, non-group)","room_assignment":["grey","yellow","pink","brown","blue","red","purple","green"],"door_color_assignment":["black","white"],"door_generator_assignment":[1,0],"goal":3,"start":6,"action_noise":0.1,"location_history":"[6,4,7,3]","action_history":"[0,0,1]","door_history":"[1,1,0]","location_rts":"[1405,632,1136]","trial_type":"two-door-navigation","trial_index":7,"time_elapsed":124816,"internal_node_id":"0.0-2.0-5.0"},{"group":"tri cycles (cube, non-group)","room_assignment":["grey","yellow","pink","brown","blue","red","purple","green"],"door_color_assignment":["black","white"],"door_generator_assignment":[1,0],"goal":4,"start":3,"action_noise":0.1,"location_history":"[3,4]","action_history":"[1]","door_history":"[0]","location_rts":"[1418]","trial_type":"two-door-navigation","trial_index":8,"time_elapsed":130768,"internal_node_id":"0.0-2.0-6.0"},{"group":"tri cycles (cube, non-group)","room_assignment":["grey","yellow","pink","brown","blue","red","purple","green"],"door_color_assignment":["black","white"],"door_generator_assignment":[1,0],"goal":1,"start":4,"action_noise":0.1,"location_history":"[4,0,3,7,6,5,2,1]","action_history":"[1,1,0,0,1,1,0]","door_history":"[0,0,1,1,0,0,1]","location_rts":"[1334,607,833,478,1437,554,703]","trial_type":"two-door-navigation","trial_index":9,"time_elapsed":147401,"internal_node_id":"0.0-2.0-7.0"},{"group":"tri cycles (cube, non-group)","room_assignment":["grey","yellow","pink","brown","blue","red","purple","green"],"door_color_assignment":["black","white"],"door_generator_assignment":[1,0],"goal":4,"start":1,"action_noise":0.1,"location_history":"[1,0,2,6,5,1,0,3,4]","action_history":"[0,0,1,1,0,0,1,1]","door_history":"[1,1,0,0,1,1,0,0]","location_rts":"[1142,521,759,602,897,459,706,439]","trial_type":"two-door-navigation","trial_index":10,"time_elapsed":164619,"internal_node_id":"0.0-2.0-8.0"},{"group":"tri cycles (cube, non-group)","room_assignment":["grey","yellow","pink","brown","blue","red","purple","green"],"door_color_assignment":["black","white"],"door_generator_assignment":[1,0],"goal":5,"start":4,"action_noise":0.1,"location_history":"[4,0,3,7,3,4,0,2,1,5]","action_history":"[1,1,0,0,1,1,0,0,1]","door_history":"[0,0,1,1,0,0,1,1,0]","location_rts":"[794,782,942,544,1241,776,1163,543,994]","trial_type":"two-door-navigation","trial_index":11,"time_elapsed":185116,"internal_node_id":"0.0-2.0-9.0"},{"group":"tri cycles (cube, non-group)","room_assignment":["grey","yellow","pink","brown","blue","red","purple","green"],"door_color_assignment":["black","white"],"door_generator_assignment":[1,0],"goal":3,"start":5,"action_noise":0.1,"location_history":"[5,2,6,4,7,3]","action_history":"[1,1,0,0,1]","door_history":"[0,0,1,1,0]","location_rts":"[1871,627,1081,445,1090]","trial_type":"two-door-navigation","trial_index":12,"time_elapsed":198855,"internal_node_id":"0.0-2.0-10.0"},{"group":"tri cycles (cube, non-group)","room_assignment":["grey","yellow","pink","brown","blue","red","purple","green"],"door_color_assignment":["black","white"],"door_generator_assignment":[1,0],"goal":6,"start":3,"action_noise":0.1,"location_history":"[3,4,0,2,1,5,1,5,1,0,3,7,6]","action_history":"[1,1,0,0,1,1,0,0,1,1,0,0]","door_history":"[0,0,1,1,0,0,1,1,0,0,1,1]","location_rts":"[2934,580,763,511,1687,415,619,480,1036,465,1081,515]","trial_type":"two-door-navigation","trial_index":13,"time_elapsed":225745,"internal_node_id":"0.0-2.0-11.0"},{"group":"tri cycles (cube, non-group)","room_assignment":["grey","yellow","pink","brown","blue","red","purple","green"],"door_color_assignment":["black","white"],"door_generator_assignment":[1,0],"goal":7,"start":6,"action_noise":0.1,"location_history":"[6,4,7]","action_history":"[0,0]","door_history":"[1,1]","location_rts":"[1173,605]","trial_type":"two-door-navigation","trial_index":14,"time_elapsed":233079,"internal_node_id":"0.0-2.0-12.0"},{"group":"tri cycles (cube, non-group)","room_assignment":["grey","yellow","pink","brown","blue","red","purple","green"],"door_color_assignment":["black","white"],"door_generator_assignment":[1,0],"goal":0,"start":7,"action_noise":0.1,"location_history":"[7,6,4,0]","action_history":"[0,0,1]","door_history":"[1,1,0]","location_rts":"[1137,457,477]","trial_type":"two-door-navigation","trial_index":15,"time_elapsed":241729,"internal_node_id":"0.0-2.0-13.0"},{"group":"tri cycles (cube, non-group)","room_assignment":["grey","yellow","pink","brown","blue","red","purple","green"],"door_color_assignment":["black","white"],"door_generator_assignment":[1,0],"goal":2,"start":0,"action_noise":0.1,"location_history":"[0,2]","action_history":"[0]","door_history":"[1]","location_rts":"[1200]","trial_type":"two-door-navigation","trial_index":16,"time_elapsed":247459,"internal_node_id":"0.0-2.0-14.0"},{"group":"tri cycles (cube, non-group)","room_assignment":["grey","yellow","pink","brown","blue","red","purple","green"],"door_color_assignment":["black","white"],"door_generator_assignment":[1,0],"goal":1,"start":2,"action_noise":0.1,"location_history":"[2,1]","action_history":"[0]","door_history":"[1]","location_rts":"[1056]","trial_type":"two-door-navigation","trial_index":17,"time_elapsed":253044,"internal_node_id":"0.0-2.0-15.0"},{"group":"tri cycles (cube, non-group)","room_assignment":["grey","yellow","pink","brown","blue","red","purple","green"],"door_color_assignment":["black","white"],"door_generator_assignment":[1,0],"goal":6,"start":1,"action_noise":0.1,"location_history":"[1,0,2,6]","action_history":"[0,0,1]","door_history":"[1,1,0]","location_rts":"[1032,573,1039]","trial_type":"two-door-navigation","trial_index":18,"time_elapsed":262270,"internal_node_id":"0.0-2.0-16.0"},{"group":"tri cycles (cube, non-group)","room_assignment":["grey","yellow","pink","brown","blue","red","purple","green"],"door_color_assignment":["black","white"],"door_generator_assignment":[1,0],"goal":3,"start":6,"action_noise":0.1,"location_history":"[6,4,7,3]","action_history":"[0,0,1]","door_history":"[1,1,0]","location_rts":"[999,433,1163]","trial_type":"two-door-navigation","trial_index":19,"time_elapsed":271436,"internal_node_id":"0.0-2.0-17.0"},{"group":"tri cycles (cube, non-group)","room_assignment":["grey","yellow","pink","brown","blue","red","purple","green"],"door_color_assignment":["black","white"],"door_generator_assignment":[1,0],"goal":4,"start":3,"action_noise":0.1,"location_history":"[3,7,6,4]","action_history":"[0,0,1]","door_history":"[1,1,0]","location_rts":"[1010,550,641]","trial_type":"two-door-navigation","trial_index":20,"time_elapsed":280218,"internal_node_id":"0.0-2.0-18.0"},{"group":"tri cycles (cube, non-group)","room_assignment":["grey","yellow","pink","brown","blue","red","purple","green"],"door_color_assignment":["black","white"],"door_generator_assignment":[1,0],"goal":5,"start":4,"action_noise":0.1,"location_history":"[4,7,6,5]","action_history":"[0,0,1]","door_history":"[1,1,0]","location_rts":"[1020,462,1150]","trial_type":"two-door-navigation","trial_index":21,"time_elapsed":289433,"internal_node_id":"0.0-2.0-19.0"},{"group":"tri cycles (cube, non-group)","room_assignment":["grey","yellow","pink","brown","blue","red","purple","green"],"door_color_assignment":["black","white"],"door_generator_assignment":[1,0],"goal":7,"start":5,"action_noise":0.1,"location_history":"[5,1,0,3,4,7]","action_history":"[0,0,1,1,0]","door_history":"[1,1,0,0,1]","location_rts":"[1232,610,785,534,1468]","trial_type":"two-door-navigation","trial_index":22,"time_elapsed":302683,"internal_node_id":"0.0-2.0-20.0"},{"group":"tri cycles (cube, non-group)","room_assignment":["grey","yellow","pink","brown","blue","red","purple","green"],"door_color_assignment":["black","white"],"door_generator_assignment":[1,0],"goal":2,"start":7,"action_noise":0.1,"location_history":"[7,3,4,0,2]","action_history":"[0,0,1,1]","door_history":"[1,1,0,0]","location_rts":"[1221,554,384,518]","trial_type":"two-door-navigation","trial_index":23,"time_elapsed":312961,"internal_node_id":"0.0-2.0-21.0"},{"group":"tri cycles (cube, non-group)","room_assignment":["grey","yellow","pink","brown","blue","red","purple","green"],"door_color_assignment":["black","white"],"door_generator_assignment":[1,0],"goal":0,"start":2,"action_noise":0.1,"location_history":"[2,1,0]","action_history":"[0,0]","door_history":"[1,1]","location_rts":"[705,409]","trial_type":"two-door-navigation","trial_index":24,"time_elapsed":319627,"internal_node_id":"0.0-2.0-22.0"},{"group":"tri cycles (cube, non-group)","room_assignment":["grey","yellow","pink","brown","blue","red","purple","green"],"door_color_assignment":["black","white"],"door_generator_assignment":[1,0],"goal":7,"start":0,"action_noise":0.1,"location_history":"[0,2,1,5,2,1,0,3,4,7]","action_history":"[0,0,1,1,0,0,1,1,0]","door_history":"[1,1,0,0,1,1,0,0,1]","location_rts":"[824,579,891,438,1132,409,516,404,871]","trial_type":"two-door-navigation","trial_index":25,"time_elapsed":338422,"internal_node_id":"0.0-2.0-23.0"},{"group":"tri cycles (cube, non-group)","room_assignment":["grey","yellow","pink","brown","blue","red","purple","green"],"door_color_assignment":["black","white"],"door_generator_assignment":[1,0],"goal":5,"start":7,"action_noise":0.1,"location_history":"[7,6,4,0,3,7,6,5]","action_history":"[0,0,1,1,0,0,1]","door_history":"[1,1,0,0,1,1,0]","location_rts":"[848,369,457,464,1057,466,504]","trial_type":"two-door-navigation","trial_index":26,"time_elapsed":353261,"internal_node_id":"0.0-2.0-24.0"},{"group":"tri cycles (cube, non-group)","room_assignment":["grey","yellow","pink","brown","blue","red","purple","green"],"door_color_assignment":["black","white"],"door_generator_assignment":[1,0],"goal":0,"start":5,"action_noise":0.1,"location_history":"[5,1,0]","action_history":"[0,0]","door_history":"[1,1]","location_rts":"[913,504]","trial_type":"two-door-navigation","trial_index":27,"time_elapsed":360234,"internal_node_id":"0.0-2.0-25.0"},{"group":"tri cycles (cube, non-group)","room_assignment":["grey","yellow","pink","brown","blue","red","purple","green"],"door_color_assignment":["black","white"],"door_generator_assignment":[1,0],"goal":6,"start":0,"action_noise":0.1,"location_history":"[0,2,1,5,2,1,5,2,6]","action_history":"[0,0,1,1,0,0,1,1]","door_history":"[1,1,0,0,1,1,0,0]","location_rts":"[836,395,432,430,859,383,1031,486]","trial_type":"two-door-navigation","trial_index":28,"time_elapsed":376798,"internal_node_id":"0.0-2.0-26.0"},{"group":"tri cycles (cube, non-group)","room_assignment":["grey","yellow","pink","brown","blue","red","purple","green"],"door_color_assignment":["black","white"],"door_generator_assignment":[1,0],"goal":4,"start":6,"action_noise":0.1,"location_history":"[6,4]","action_history":"[0]","door_history":"[1]","location_rts":"[804]","trial_type":"two-door-navigation","trial_index":29,"time_elapsed":382132,"internal_node_id":"0.0-2.0-27.0"},{"group":"tri cycles (cube, non-group)","room_assignment":["grey","yellow","pink","brown","blue","red","purple","green"],"door_color_assignment":["black","white"],"door_generator_assignment":[1,0],"goal":2,"start":4,"action_noise":0.1,"location_history":"[4,0,2]","action_history":"[1,1]","door_history":"[0,0]","location_rts":"[1155,642]","trial_type":"two-door-navigation","trial_index":30,"time_elapsed":389486,"internal_node_id":"0.0-2.0-28.0"},{"group":"tri cycles (cube, non-group)","room_assignment":["grey","yellow","pink","brown","blue","red","purple","green"],"door_color_assignment":["black","white"],"door_generator_assignment":[1,0],"goal":3,"start":2,"action_noise":0.1,"location_history":"[2,1,0,3]","action_history":"[0,0,1]","door_history":"[1,1,0]","location_rts":"[1680,440,1637]","trial_type":"two-door-navigation","trial_index":31,"time_elapsed":399817,"internal_node_id":"0.0-2.0-29.0"},{"group":"tri cycles (cube, non-group)","room_assignment":["grey","yellow","pink","brown","blue","red","purple","green"],"door_color_assignment":["black","white"],"door_generator_assignment":[1,0],"goal":1,"start":3,"action_noise":0.1,"location_history":"[3,7,6,5,2,1]","action_history":"[0,0,1,1,0]","door_history":"[1,1,0,0,1]","location_rts":"[1580,473,648,440,1041]","trial_type":"two-door-navigation","trial_index":32,"time_elapsed":412632,"internal_node_id":"0.0-2.0-30.0"},{"group":"tri cycles (cube, non-group)","room_assignment":["grey","yellow","pink","brown","blue","red","purple","green"],"door_color_assignment":["black","white"],"door_generator_assignment":[1,0],"goal":4,"start":1,"action_noise":0.1,"location_history":"[1,0,2,1,5,1,0,3,4]","action_history":"[0,0,1,1,0,0,1,1]","door_history":"[1,1,0,0,1,1,0,0]","location_rts":"[1343,658,974,504,1041,423,611,378]","trial_type":"two-door-navigation","trial_index":33,"time_elapsed":430265,"internal_node_id":"0.0-2.0-31.0"},{"group":"tri cycles (cube, non-group)","room_assignment":["grey","yellow","pink","brown","blue","red","purple","green"],"door_color_assignment":["black","white"],"door_generator_assignment":[1,0],"goal":3,"start":4,"action_noise":0.1,"location_history":"[4,0,3]","action_history":"[1,1]","door_history":"[0,0]","location_rts":"[1296,783]","trial_type":"two-door-navigation","trial_index":34,"time_elapsed":437900,"internal_node_id":"0.0-2.0-32.0"},{"group":"tri cycles (cube, non-group)","room_assignment":["grey","yellow","pink","brown","blue","red","purple","green"],"door_color_assignment":["black","white"],"door_generator_assignment":[1,0],"goal":6,"start":3,"action_noise":0.1,"location_history":"[3,7,6]","action_history":"[0,0]","door_history":"[1,1]","location_rts":"[1127,442]","trial_type":"two-door-navigation","trial_index":35,"time_elapsed":445020,"internal_node_id":"0.0-2.0-33.0"},{"group":"tri cycles (cube, non-group)","room_assignment":["grey","yellow","pink","brown","blue","red","purple","green"],"door_color_assignment":["black","white"],"door_generator_assignment":[1,0],"goal":0,"start":6,"action_noise":0.1,"location_history":"[6,4,0]","action_history":"[1,1]","door_history":"[0,0]","location_rts":"[1135,511]","trial_type":"two-door-navigation","trial_index":36,"time_elapsed":452221,"internal_node_id":"0.0-2.0-34.0"},{"group":"tri cycles (cube, non-group)","room_assignment":["grey","yellow","pink","brown","blue","red","purple","green"],"door_color_assignment":["black","white"],"door_generator_assignment":[1,0],"goal":1,"start":0,"action_noise":0.1,"location_history":"[0,2,1]","action_history":"[0,0]","door_history":"[1,1]","location_rts":"[865,439]","trial_type":"two-door-navigation","trial_index":37,"time_elapsed":459077,"internal_node_id":"0.0-2.0-35.0"},{"group":"tri cycles (cube, non-group)","room_assignment":["grey","yellow","pink","brown","blue","red","purple","green"],"door_color_assignment":["black","white"],"door_generator_assignment":[1,0],"goal":5,"start":1,"action_noise":0.1,"location_history":"[1,5]","action_history":"[1]","door_history":"[0]","location_rts":"[1168]","trial_type":"two-door-navigation","trial_index":38,"time_elapsed":464770,"internal_node_id":"0.0-2.0-36.0"},{"group":"tri cycles (cube, non-group)","room_assignment":["grey","yellow","pink","brown","blue","red","purple","green"],"door_color_assignment":["black","white"],"door_generator_assignment":[1,0],"goal":7,"start":5,"action_noise":0.1,"location_history":"[5,1,0,3,4,0,3,4,0,3,7]","action_history":"[0,0,1,1,0,0,1,1,1,0]","door_history":"[1,1,0,0,1,1,0,0,0,1]","location_rts":"[869,518,1247,462,948,580,1328,557,539,616]","trial_type":"two-door-navigation","trial_index":39,"time_elapsed":486190,"internal_node_id":"0.0-2.0-37.0"},{"group":"tri cycles (cube, non-group)","room_assignment":["grey","yellow","pink","brown","blue","red","purple","green"],"door_color_assignment":["black","white"],"door_generator_assignment":[1,0],"goal":2,"start":7,"action_noise":0.1,"location_history":"[7,6,4,0,3,7,6,5,2]","action_history":"[0,0,1,1,0,0,1,1]","door_history":"[1,1,0,0,1,1,0,0]","location_rts":"[984,441,531,494,1568,398,432,431]","trial_type":"two-door-navigation","trial_index":40,"time_elapsed":503181,"internal_node_id":"0.0-2.0-38.0"},{"group":"tri cycles (cube, non-group)","room_assignment":["grey","yellow","pink","brown","blue","red","purple","green"],"door_color_assignment":["black","white"],"door_generator_assignment":[1,0],"goal":1,"start":2,"action_noise":0.1,"location_history":"[2,6,5,1]","action_history":"[1,1,0]","door_history":"[0,0,1]","location_rts":"[1446,424,987]","trial_type":"two-door-navigation","trial_index":41,"time_elapsed":512617,"internal_node_id":"0.0-2.0-39.0"},{"group":"tri cycles (cube, non-group)","room_assignment":["grey","yellow","pink","brown","blue","red","purple","green"],"door_color_assignment":["black","white"],"door_generator_assignment":[1,0],"goal":3,"start":1,"action_noise":0.1,"location_history":"[1,0,2,6,5,1,0,3]","action_history":"[0,0,1,1,0,0,1]","door_history":"[1,1,0,0,1,1,0]","location_rts":"[883,544,585,482,1135,405,497]","trial_type":"two-door-navigation","trial_index":42,"time_elapsed":527842,"internal_node_id":"0.0-2.0-40.0"},{"group":"tri cycles (cube, non-group)","room_assignment":["grey","yellow","pink","brown","blue","red","purple","green"],"door_color_assignment":["black","white"],"door_generator_assignment":[1,0],"goal":4,"start":3,"action_noise":0.1,"location_history":"[3,4]","action_history":"[1]","door_history":"[0]","location_rts":"[1012]","trial_type":"two-door-navigation","trial_index":43,"time_elapsed":533387,"internal_node_id":"0.0-2.0-41.0"},{"group":"tri cycles (cube, non-group)","room_assignment":["grey","yellow","pink","brown","blue","red","purple","green"],"door_color_assignment":["black","white"],"door_generator_assignment":[1,0],"goal":2,"start":4,"action_noise":0.1,"location_history":"[4,7,6,5,2]","action_history":"[0,0,1,1]","door_history":"[1,1,0,0]","location_rts":"[947,579,681,415]","trial_type":"two-door-navigation","trial_index":44,"time_elapsed":543607,"internal_node_id":"0.0-2.0-42.0"},{"group":"tri cycles (cube, non-group)","room_assignment":["grey","yellow","pink","brown","blue","red","purple","green"],"door_color_assignment":["black","white"],"door_generator_assignment":[1,0],"goal":5,"start":2,"action_noise":0.1,"location_history":"[2,1,0,3,4,7,6,5]","action_history":"[0,0,1,1,0,0,1]","door_history":"[1,1,0,0,1,1,0]","location_rts":"[1238,449,519,464,991,505,1303]","trial_type":"two-door-navigation","trial_index":45,"time_elapsed":559755,"internal_node_id":"0.0-2.0-43.0"},{"group":"tri cycles (cube, non-group)","room_assignment":["grey","yellow","pink","brown","blue","red","purple","green"],"door_color_assignment":["black","white"],"door_generator_assignment":[1,0],"goal":0,"start":5,"action_noise":0.1,"location_history":"[5,1,0]","action_history":"[0,0]","door_history":"[1,1]","location_rts":"[849,523]","trial_type":"two-door-navigation","trial_index":46,"time_elapsed":566681,"internal_node_id":"0.0-2.0-44.0"},{"group":"tri cycles (cube, non-group)","room_assignment":["grey","yellow","pink","brown","blue","red","purple","green"],"door_color_assignment":["black","white"],"door_generator_assignment":[1,0],"goal":7,"start":0,"action_noise":0.1,"location_history":"[0,3,4,7]","action_history":"[1,1,0]","door_history":"[0,0,1]","location_rts":"[682,439,931]","trial_type":"two-door-navigation","trial_index":47,"time_elapsed":575311,"internal_node_id":"0.0-2.0-45.0"},{"group":"tri cycles (cube, non-group)","room_assignment":["grey","yellow","pink","brown","blue","red","purple","green"],"door_color_assignment":["black","white"],"door_generator_assignment":[1,0],"goal":6,"start":7,"action_noise":0.1,"location_history":"[7,6]","action_history":"[0]","door_history":"[1]","location_rts":"[933]","trial_type":"two-door-navigation","trial_index":48,"time_elapsed":580773,"internal_node_id":"0.0-2.0-46.0"},{"group":"tri cycles (cube, non-group)","room_assignment":["grey","yellow","pink","brown","blue","red","purple","green"],"door_color_assignment":["black","white"],"door_generator_assignment":[1,0],"goal":2,"start":6,"action_noise":0.1,"location_history":"[6,5,2]","action_history":"[1,1]","door_history":"[0,0]","location_rts":"[686,582]","trial_type":"two-door-navigation","trial_index":49,"time_elapsed":587595,"internal_node_id":"0.0-2.0-47.0"},{"group":"tri cycles (cube, non-group)","room_assignment":["grey","yellow","pink","brown","blue","red","purple","green"],"door_color_assignment":["black","white"],"door_generator_assignment":[1,0],"goal":5,"start":2,"action_noise":0.1,"location_history":"[2,6,4,7,3,7,6,5]","action_history":"[0,0,1,1,0,0,1]","door_history":"[1,1,0,0,1,1,0]","location_rts":"[625,887,745,488,1319,479,1029]","trial_type":"two-door-navigation","trial_index":50,"time_elapsed":603849,"internal_node_id":"0.0-2.0-48.0"},{"group":"tri cycles (cube, non-group)","room_assignment":["grey","yellow","pink","brown","blue","red","purple","green"],"door_color_assignment":["black","white"],"door_generator_assignment":[1,0],"goal":3,"start":5,"action_noise":0.1,"location_history":"[5,1,0,3]","action_history":"[0,0,1]","door_history":"[1,1,0]","location_rts":"[780,531,920]","trial_type":"two-door-navigation","trial_index":51,"time_elapsed":612662,"internal_node_id":"0.0-2.0-49.0"},{"view_history":"[{\"page_index\":0,\"viewing_time\":3214}]","rt":3214,"trial_type":"instructions","trial_index":52,"time_elapsed":616878,"internal_node_id":"0.0-3.0"},{"view_history":"[{\"page_index\":0,\"viewing_time\":2609},{\"page_index\":1,\"viewing_time\":15372}]","rt":17981,"trial_type":"instructions","trial_index":53,"time_elapsed":635860,"internal_node_id":"0.0-4.0"},{"group":"square cycles (cube, non-group)","fractal_assignment":["../images/grn_red.png","../images/ylw_pnk.png","../images/org_blu.png","../images/ylw_slt.png","../images/gry_blk.png","../images/cyn_red.png","../images/pnk_blu.png","../images/blu_wht.png"],"mutagen_generator_assignment":[1,0],"goal":5,"start":7,"action_noise":0.1,"location_history":"[7,3,2,6,5]","action_history":"[1,1,0,0]","mutagen_history":"[0,0,1,1]","location_rts":"[4133,580,662,565]","trial_type":"fractal-mutation","trial_index":54,"time_elapsed":649565,"internal_node_id":"0.0-5.0-0.0"},{"group":"square cycles (cube, non-group)","fractal_assignment":["../images/grn_red.png","../images/ylw_pnk.png","../images/org_blu.png","../images/ylw_slt.png","../images/gry_blk.png","../images/cyn_red.png","../images/pnk_blu.png","../images/blu_wht.png"],"mutagen_generator_assignment":[1,0],"goal":2,"start":5,"action_noise":0.1,"location_history":"[5,4,7,3,2]","action_history":"[0,0,1,1]","mutagen_history":"[1,1,0,0]","location_rts":"[1405,561,537,484]","trial_type":"fractal-mutation","trial_index":55,"time_elapsed":660254,"internal_node_id":"0.0-5.0-1.0"},{"group":"square cycles (cube, non-group)","fractal_assignment":["../images/grn_red.png","../images/ylw_pnk.png","../images/org_blu.png","../images/ylw_slt.png","../images/gry_blk.png","../images/cyn_red.png","../images/pnk_blu.png","../images/blu_wht.png"],"mutagen_generator_assignment":[1,0],"goal":0,"start":2,"action_noise":0.1,"location_history":"[2,3,0]","action_history":"[0,0]","mutagen_history":"[1,1]","location_rts":"[1348,730]","trial_type":"fractal-mutation","trial_index":56,"time_elapsed":667938,"internal_node_id":"0.0-5.0-2.0"},{"group":"square cycles (cube, non-group)","fractal_assignment":["../images/grn_red.png","../images/ylw_pnk.png","../images/org_blu.png","../images/ylw_slt.png","../images/gry_blk.png","../images/cyn_red.png","../images/pnk_blu.png","../images/blu_wht.png"],"mutagen_generator_assignment":[1,0],"goal":1,"start":0,"action_noise":0.1,"location_history":"[0,4,5,4,7,6,7,3,0,4,7,3,0,4,5,4,7,6,7,3,2,6,5,4,7,6,7,3,2,3,0,1]","action_history":"[1,1,0,0,0,1,1,1,1,0,0,0,1,1,0,0,0,1,1,1,1,0,1,0,0,1,1,1,0,0,0]","mutagen_history":"[0,0,1,1,1,0,0,0,0,1,1,1,0,0,1,1,1,0,0,0,0,1,0,1,1,0,0,0,1,1,1]","location_rts":"[1189,688,659,562,580,557,501,541,988,537,493,644,943,728,826,591,555,582,490,477,982,792,1140,677,635,700,483,474,1254,1032,1078]","trial_type":"fractal-mutation","trial_index":57,"time_elapsed":726160,"internal_node_id":"0.0-5.0-3.0"},{"group":"square cycles (cube, non-group)","fractal_assignment":["../images/grn_red.png","../images/ylw_pnk.png","../images/org_blu.png","../images/ylw_slt.png","../images/gry_blk.png","../images/cyn_red.png","../images/pnk_blu.png","../images/blu_wht.png"],"mutagen_generator_assignment":[1,0],"goal":6,"start":1,"action_noise":0.1,"location_history":"[1,0,4,7,6]","action_history":"[1,1,0,0]","mutagen_history":"[0,0,1,1]","location_rts":"[1845,1013,573,486]","trial_type":"fractal-mutation","trial_index":58,"time_elapsed":737742,"internal_node_id":"0.0-5.0-4.0"},{"group":"square cycles (cube, non-group)","fractal_assignment":["../images/grn_red.png","../images/ylw_pnk.png","../images/org_blu.png","../images/ylw_slt.png","../images/gry_blk.png","../images/cyn_red.png","../images/pnk_blu.png","../images/blu_wht.png"],"mutagen_generator_assignment":[1,0],"goal":3,"start":6,"action_noise":0.1,"location_history":"[6,5,4,5,1,0,1,2,6,5,4,7,6,7,3]","action_history":"[0,0,1,1,1,0,0,1,1,0,0,0,1,1]","mutagen_history":"[1,1,0,0,0,1,1,0,0,1,1,1,0,0]","location_rts":"[1529,924,819,717,1027,750,909,978,1109,570,637,608,697,592]","trial_type":"fractal-mutation","trial_index":59,"time_elapsed":767724,"internal_node_id":"0.0-5.0-5.0"},{"group":"square cycles (cube, non-group)","fractal_assignment":["../images/grn_red.png","../images/ylw_pnk.png","../images/org_blu.png","../images/ylw_slt.png","../images/gry_blk.png","../images/cyn_red.png","../images/pnk_blu.png","../images/blu_wht.png"],"mutagen_generator_assignment":[1,0],"goal":4,"start":3,"action_noise":0.1,"location_history":"[3,0,4]","action_history":"[1,1]","mutagen_history":"[0,0]","location_rts":"[1539,1019]","trial_type":"fractal-mutation","trial_index":60,"time_elapsed":775859,"internal_node_id":"0.0-5.0-6.0"},{"group":"square cycles (cube, non-group)","fractal_assignment":["../images/grn_red.png","../images/ylw_pnk.png","../images/org_blu.png","../images/ylw_slt.png","../images/gry_blk.png","../images/cyn_red.png","../images/pnk_blu.png","../images/blu_wht.png"],"mutagen_generator_assignment":[1,0],"goal":1,"start":4,"action_noise":0.1,"location_history":"[4,7,6,5,1]","action_history":"[0,0,0,1]","mutagen_history":"[1,1,1,0]","location_rts":"[1132,586,737,1221]","trial_type":"fractal-mutation","trial_index":61,"time_elapsed":787232,"internal_node_id":"0.0-5.0-7.0"},{"group":"square cycles (cube, non-group)","fractal_assignment":["../images/grn_red.png","../images/ylw_pnk.png","../images/org_blu.png","../images/ylw_slt.png","../images/gry_blk.png","../images/cyn_red.png","../images/pnk_blu.png","../images/blu_wht.png"],"mutagen_generator_assignment":[1,0],"goal":4,"start":1,"action_noise":0.1,"location_history":"[1,0,4]","action_history":"[1,1]","mutagen_history":"[0,0]","location_rts":"[1512,750]","trial_type":"fractal-mutation","trial_index":62,"time_elapsed":795077,"internal_node_id":"0.0-5.0-8.0"},{"group":"square cycles (cube, non-group)","fractal_assignment":["../images/grn_red.png","../images/ylw_pnk.png","../images/org_blu.png","../images/ylw_slt.png","../images/gry_blk.png","../images/cyn_red.png","../images/pnk_blu.png","../images/blu_wht.png"],"mutagen_generator_assignment":[1,0],"goal":5,"start":4,"action_noise":0.1,"location_history":"[4,5]","action_history":"[0]","mutagen_history":"[1]","location_rts":"[1231]","trial_type":"fractal-mutation","trial_index":63,"time_elapsed":800861,"internal_node_id":"0.0-5.0-9.0"},{"group":"square cycles (cube, non-group)","fractal_assignment":["../images/grn_red.png","../images/ylw_pnk.png","../images/org_blu.png","../images/ylw_slt.png","../images/gry_blk.png","../images/cyn_red.png","../images/pnk_blu.png","../images/blu_wht.png"],"mutagen_generator_assignment":[1,0],"goal":3,"start":5,"action_noise":0.1,"location_history":"[5,4,7,3]","action_history":"[0,0,1]","mutagen_history":"[1,1,0]","location_rts":"[1635,1405,616]","trial_type":"fractal-mutation","trial_index":64,"time_elapsed":811154,"internal_node_id":"0.0-5.0-10.0"},{"group":"square cycles (cube, non-group)","fractal_assignment":["../images/grn_red.png","../images/ylw_pnk.png","../images/org_blu.png","../images/ylw_slt.png","../images/gry_blk.png","../images/cyn_red.png","../images/pnk_blu.png","../images/blu_wht.png"],"mutagen_generator_assignment":[1,0],"goal":6,"start":3,"action_noise":0.1,"location_history":"[3,0,1,0,4,5,4,7,3,2,6]","action_history":"[0,0,1,1,0,0,0,1,1,1]","mutagen_history":"[1,1,0,0,1,1,1,0,0,0]","location_rts":"[1537,708,652,628,897,589,568,633,581,568]","trial_type":"fractal-mutation","trial_index":65,"time_elapsed":832475,"internal_node_id":"0.0-5.0-11.0"},{"group":"square cycles (cube, non-group)","fractal_assignment":["../images/grn_red.png","../images/ylw_pnk.png","../images/org_blu.png","../images/ylw_slt.png","../images/gry_blk.png","../images/cyn_red.png","../images/pnk_blu.png","../images/blu_wht.png"],"mutagen_generator_assignment":[1,0],"goal":7,"start":6,"action_noise":0.1,"location_history":"[6,5,4,5,1,2,3,0,4,5,1,0,1,2,3,2,3,2,6,7]","action_history":"[0,0,1,1,0,0,0,1,1,1,1,0,0,0,0,0,1,1,1]","mutagen_history":"[1,1,0,0,1,1,1,0,0,0,0,1,1,1,1,1,0,0,0]","location_rts":"[1783,515,1072,710,1043,503,719,557,536,520,810,401,465,461,566,467,718,642,620]","trial_type":"fractal-mutation","trial_index":66,"time_elapsed":868934,"internal_node_id":"0.0-5.0-12.0"},{"group":"square cycles (cube, non-group)","fractal_assignment":["../images/grn_red.png","../images/ylw_pnk.png","../images/org_blu.png","../images/ylw_slt.png","../images/gry_blk.png","../images/cyn_red.png","../images/pnk_blu.png","../images/blu_wht.png"],"mutagen_generator_assignment":[1,0],"goal":0,"start":7,"action_noise":0.1,"location_history":"[7,6,5,4,5,1,2,3,2,6,5,4,5,1,0]","action_history":"[0,0,0,1,1,0,0,1,1,0,0,1,1,1]","mutagen_history":"[1,1,1,0,0,1,1,0,0,1,1,0,0,0]","location_rts":"[1204,816,835,824,991,1321,917,607,662,790,652,474,437,566]","trial_type":"fractal-mutation","trial_index":67,"time_elapsed":898127,"internal_node_id":"0.0-5.0-13.0"},{"group":"square cycles (cube, non-group)","fractal_assignment":["../images/grn_red.png","../images/ylw_pnk.png","../images/org_blu.png","../images/ylw_slt.png","../images/gry_blk.png","../images/cyn_red.png","../images/pnk_blu.png","../images/blu_wht.png"],"mutagen_generator_assignment":[1,0],"goal":2,"start":0,"action_noise":0.1,"location_history":"[0,1,2]","action_history":"[0,0]","mutagen_history":"[1,1]","location_rts":"[845,994]","trial_type":"fractal-mutation","trial_index":68,"time_elapsed":905570,"internal_node_id":"0.0-5.0-14.0"},{"group":"square cycles (cube, non-group)","fractal_assignment":["../images/grn_red.png","../images/ylw_pnk.png","../images/org_blu.png","../images/ylw_slt.png","../images/gry_blk.png","../images/cyn_red.png","../images/pnk_blu.png","../images/blu_wht.png"],"mutagen_generator_assignment":[1,0],"goal":1,"start":2,"action_noise":0.1,"location_history":"[2,6,7,6,5,4,5,1]","action_history":"[1,1,0,0,0,1,1]","mutagen_history":"[0,0,1,1,1,0,0]","location_rts":"[2288,618,419,494,785,492,525]","trial_type":"fractal-mutation","trial_index":69,"time_elapsed":921977,"internal_node_id":"0.0-5.0-15.0"},{"group":"square cycles (cube, non-group)","fractal_assignment":["../images/grn_red.png","../images/ylw_pnk.png","../images/org_blu.png","../images/ylw_slt.png","../images/gry_blk.png","../images/cyn_red.png","../images/pnk_blu.png","../images/blu_wht.png"],"mutagen_generator_assignment":[1,0],"goal":6,"start":1,"action_noise":0.1,"location_history":"[1,0,4,7,6]","action_history":"[1,1,0,0]","mutagen_history":"[0,0,1,1]","location_rts":"[1635,1190,648,564]","trial_type":"fractal-mutation","trial_index":70,"time_elapsed":933707,"internal_node_id":"0.0-5.0-16.0"},{"group":"square cycles (cube, non-group)","fractal_assignment":["../images/grn_red.png","../images/ylw_pnk.png","../images/org_blu.png","../images/ylw_slt.png","../images/gry_blk.png","../images/cyn_red.png","../images/pnk_blu.png","../images/blu_wht.png"],"mutagen_generator_assignment":[1,0],"goal":3,"start":6,"action_noise":0.1,"location_history":"[6,5,4,5,1,0,4,7,6,5,4,7,6,7,3]","action_history":"[0,0,1,1,1,0,0,0,1,1,0,0,0,1]","mutagen_history":"[1,1,0,0,0,1,1,1,0,0,1,1,1,0]","location_rts":"[1335,516,631,533,570,464,472,550,1154,596,445,494,969,572]","trial_type":"fractal-mutation","trial_index":71,"time_elapsed":961088,"internal_node_id":"0.0-5.0-17.0"},{"group":"square cycles (cube, non-group)","fractal_assignment":["../images/grn_red.png","../images/ylw_pnk.png","../images/org_blu.png","../images/ylw_slt.png","../images/gry_blk.png","../images/cyn_red.png","../images/pnk_blu.png","../images/blu_wht.png"],"mutagen_generator_assignment":[1,0],"goal":4,"start":3,"action_noise":0.1,"location_history":"[3,2,3,2,6,7,3,0,4]","action_history":"[0,0,1,1,0,0,0,1]","mutagen_history":"[1,1,0,0,1,1,1,0]","location_rts":"[1285,970,969,800,690,736,948,696]","trial_type":"fractal-mutation","trial_index":72,"time_elapsed":980040,"internal_node_id":"0.0-5.0-18.0"},{"group":"square cycles (cube, non-group)","fractal_assignment":["../images/grn_red.png","../images/ylw_pnk.png","../images/org_blu.png","../images/ylw_slt.png","../images/gry_blk.png","../images/cyn_red.png","../images/pnk_blu.png","../images/blu_wht.png"],"mutagen_generator_assignment":[1,0],"goal":5,"start":4,"action_noise":0.1,"location_history":"[4,7,6,7,3,0,1,2,6,7,3,2,3,0,1,0,4,7,6,5]","action_history":"[0,0,1,1,0,0,0,1,1,1,1,0,0,0,1,1,0,0,0]","mutagen_history":"[1,1,0,0,1,1,1,0,0,0,0,1,1,1,0,0,1,1,1]","location_rts":"[1228,528,591,533,664,816,1232,860,733,741,687,698,736,874,1098,1306,816,606,648]","trial_type":"fractal-mutation","trial_index":73,"time_elapsed":1018771,"internal_node_id":"0.0-5.0-19.0"},{"group":"square cycles (cube, non-group)","fractal_assignment":["../images/grn_red.png","../images/ylw_pnk.png","../images/org_blu.png","../images/ylw_slt.png","../images/gry_blk.png","../images/cyn_red.png","../images/pnk_blu.png","../images/blu_wht.png"],"mutagen_generator_assignment":[1,0],"goal":7,"start":5,"action_noise":0.1,"location_history":"[5,4,7]","action_history":"[0,0]","mutagen_history":"[1,1]","location_rts":"[1246,727]","trial_type":"fractal-mutation","trial_index":74,"time_elapsed":1026347,"internal_node_id":"0.0-5.0-20.0"},{"group":"square cycles (cube, non-group)","fractal_assignment":["../images/grn_red.png","../images/ylw_pnk.png","../images/org_blu.png","../images/ylw_slt.png","../images/gry_blk.png","../images/cyn_red.png","../images/pnk_blu.png","../images/blu_wht.png"],"mutagen_generator_assignment":[1,0],"goal":2,"start":7,"action_noise":0.1,"location_history":"[7,3,2]","action_history":"[1,1]","mutagen_history":"[0,0]","location_rts":"[2282,893]","trial_type":"fractal-mutation","trial_index":75,"time_elapsed":1035101,"internal_node_id":"0.0-5.0-21.0"},{"group":"square cycles (cube, non-group)","fractal_assignment":["../images/grn_red.png","../images/ylw_pnk.png","../images/org_blu.png","../images/ylw_slt.png","../images/gry_blk.png","../images/cyn_red.png","../images/pnk_blu.png","../images/blu_wht.png"],"mutagen_generator_assignment":[1,0],"goal":0,"start":2,"action_noise":0.1,"location_history":"[2,3,0]","action_history":"[0,0]","mutagen_history":"[1,1]","location_rts":"[2130,1397]","trial_type":"fractal-mutation","trial_index":76,"time_elapsed":1044233,"internal_node_id":"0.0-5.0-22.0"},{"group":"square cycles (cube, non-group)","fractal_assignment":["../images/grn_red.png","../images/ylw_pnk.png","../images/org_blu.png","../images/ylw_slt.png","../images/gry_blk.png","../images/cyn_red.png","../images/pnk_blu.png","../images/blu_wht.png"],"mutagen_generator_assignment":[1,0],"goal":7,"start":0,"action_noise":0.1,"location_history":"[0,4,5,1,0,4,7]","action_history":"[1,1,1,1,0,0]","mutagen_history":"[0,0,0,0,1,1]","location_rts":"[1197,797,849,794,511,542]","trial_type":"fractal-mutation","trial_index":77,"time_elapsed":1058653,"internal_node_id":"0.0-5.0-23.0"},{"group":"square cycles (cube, non-group)","fractal_assignment":["../images/grn_red.png","../images/ylw_pnk.png","../images/org_blu.png","../images/ylw_slt.png","../images/gry_blk.png","../images/cyn_red.png","../images/pnk_blu.png","../images/blu_wht.png"],"mutagen_generator_assignment":[1,0],"goal":5,"start":7,"action_noise":0.1,"location_history":"[7,3,2,6,5]","action_history":"[1,1,1,0]","mutagen_history":"[0,0,0,1]","location_rts":"[1967,914,1104,637]","trial_type":"fractal-mutation","trial_index":78,"time_elapsed":1070922,"internal_node_id":"0.0-5.0-24.0"},{"group":"square cycles (cube, non-group)","fractal_assignment":["../images/grn_red.png","../images/ylw_pnk.png","../images/org_blu.png","../images/ylw_slt.png","../images/gry_blk.png","../images/cyn_red.png","../images/pnk_blu.png","../images/blu_wht.png"],"mutagen_generator_assignment":[1,0],"goal":0,"start":5,"action_noise":0.1,"location_history":"[5,4,5,1,0]","action_history":"[0,1,1,1]","mutagen_history":"[1,0,0,0]","location_rts":"[2225,1389,1889,1750]","trial_type":"fractal-mutation","trial_index":79,"time_elapsed":1085836,"internal_node_id":"0.0-5.0-25.0"},{"group":"square cycles (cube, non-group)","fractal_assignment":["../images/grn_red.png","../images/ylw_pnk.png","../images/org_blu.png","../images/ylw_slt.png","../images/gry_blk.png","../images/cyn_red.png","../images/pnk_blu.png","../images/blu_wht.png"],"mutagen_generator_assignment":[1,0],"goal":6,"start":0,"action_noise":0.1,"location_history":"[0,1,0,4,5,4,7,6]","action_history":"[0,0,1,1,0,0,0]","mutagen_history":"[1,1,0,0,1,1,1]","location_rts":"[1209,766,604,1296,664,570,1006]","trial_type":"fractal-mutation","trial_index":80,"time_elapsed":1102787,"internal_node_id":"0.0-5.0-26.0"},{"group":"square cycles (cube, non-group)","fractal_assignment":["../images/grn_red.png","../images/ylw_pnk.png","../images/org_blu.png","../images/ylw_slt.png","../images/gry_blk.png","../images/cyn_red.png","../images/pnk_blu.png","../images/blu_wht.png"],"mutagen_generator_assignment":[1,0],"goal":4,"start":6,"action_noise":0.1,"location_history":"[6,7,3,2,3,0,4]","action_history":"[1,1,0,0,0,1]","mutagen_history":"[0,0,1,1,1,0]","location_rts":"[1581,769,557,734,1076,556]","trial_type":"fractal-mutation","trial_index":81,"time_elapsed":1117809,"internal_node_id":"0.0-5.0-27.0"},{"group":"square cycles (cube, non-group)","fractal_assignment":["../images/grn_red.png","../images/ylw_pnk.png","../images/org_blu.png","../images/ylw_slt.png","../images/gry_blk.png","../images/cyn_red.png","../images/pnk_blu.png","../images/blu_wht.png"],"mutagen_generator_assignment":[1,0],"goal":2,"start":4,"action_noise":0.1,"location_history":"[4,5,4,5,4,7,3,2]","action_history":"[1,0,1,0,0,1,1]","mutagen_history":"[0,1,0,1,1,0,0]","location_rts":"[2017,1657,824,880,499,814,658]","trial_type":"fractal-mutation","trial_index":82,"time_elapsed":1135953,"internal_node_id":"0.0-5.0-28.0"},{"group":"square cycles (cube, non-group)","fractal_assignment":["../images/grn_red.png","../images/ylw_pnk.png","../images/org_blu.png","../images/ylw_slt.png","../images/gry_blk.png","../images/cyn_red.png","../images/pnk_blu.png","../images/blu_wht.png"],"mutagen_generator_assignment":[1,0],"goal":3,"start":2,"action_noise":0.1,"location_history":"[2,3]","action_history":"[1]","mutagen_history":"[0]","location_rts":"[1193]","trial_type":"fractal-mutation","trial_index":83,"time_elapsed":1141687,"internal_node_id":"0.0-5.0-29.0"},{"group":"square cycles (cube, non-group)","fractal_assignment":["../images/grn_red.png","../images/ylw_pnk.png","../images/org_blu.png","../images/ylw_slt.png","../images/gry_blk.png","../images/cyn_red.png","../images/pnk_blu.png","../images/blu_wht.png"],"mutagen_generator_assignment":[1,0],"goal":1,"start":3,"action_noise":0.1,"location_history":"[3,0,1]","action_history":"[0,0]","mutagen_history":"[1,1]","location_rts":"[1136,1145]","trial_type":"fractal-mutation","trial_index":84,"time_elapsed":1149567,"internal_node_id":"0.0-5.0-30.0"},{"group":"square cycles (cube, non-group)","fractal_assignment":["../images/grn_red.png","../images/ylw_pnk.png","../images/org_blu.png","../images/ylw_slt.png","../images/gry_blk.png","../images/cyn_red.png","../images/pnk_blu.png","../images/blu_wht.png"],"mutagen_generator_assignment":[1,0],"goal":4,"start":1,"action_noise":0.1,"location_history":"[1,0,4]","action_history":"[1,1]","mutagen_history":"[0,0]","location_rts":"[1228,659]","trial_type":"fractal-mutation","trial_index":85,"time_elapsed":1157023,"internal_node_id":"0.0-5.0-31.0"},{"group":"square cycles (cube, non-group)","fractal_assignment":["../images/grn_red.png","../images/ylw_pnk.png","../images/org_blu.png","../images/ylw_slt.png","../images/gry_blk.png","../images/cyn_red.png","../images/pnk_blu.png","../images/blu_wht.png"],"mutagen_generator_assignment":[1,0],"goal":3,"start":4,"action_noise":0.1,"location_history":"[4,5,4,5,1,2,3]","action_history":"[0,0,1,1,0,0]","mutagen_history":"[1,1,0,0,1,1]","location_rts":"[715,603,1209,612,625,572]","trial_type":"fractal-mutation","trial_index":86,"time_elapsed":1171099,"internal_node_id":"0.0-5.0-32.0"},{"group":"square cycles (cube, non-group)","fractal_assignment":["../images/grn_red.png","../images/ylw_pnk.png","../images/org_blu.png","../images/ylw_slt.png","../images/gry_blk.png","../images/cyn_red.png","../images/pnk_blu.png","../images/blu_wht.png"],"mutagen_generator_assignment":[1,0],"goal":6,"start":3,"action_noise":0.1,"location_history":"[3,2,3,0,4,5,4,7,3,2,6]","action_history":"[0,0,0,1,1,0,0,0,1,1]","mutagen_history":"[1,1,1,0,0,1,1,1,0,0]","location_rts":"[1012,727,800,565,599,700,606,1051,810,555]","trial_type":"fractal-mutation","trial_index":87,"time_elapsed":1192487,"internal_node_id":"0.0-5.0-33.0"},{"group":"square cycles (cube, non-group)","fractal_assignment":["../images/grn_red.png","../images/ylw_pnk.png","../images/org_blu.png","../images/ylw_slt.png","../images/gry_blk.png","../images/cyn_red.png","../images/pnk_blu.png","../images/blu_wht.png"],"mutagen_generator_assignment":[1,0],"goal":0,"start":6,"action_noise":0.1,"location_history":"[6,7,3,0]","action_history":"[1,1,0]","mutagen_history":"[0,0,1]","location_rts":"[1031,566,511]","trial_type":"fractal-mutation","trial_index":88,"time_elapsed":1201214,"internal_node_id":"0.0-5.0-34.0"},{"group":"square cycles (cube, non-group)","fractal_assignment":["../images/grn_red.png","../images/ylw_pnk.png","../images/org_blu.png","../images/ylw_slt.png","../images/gry_blk.png","../images/cyn_red.png","../images/pnk_blu.png","../images/blu_wht.png"],"mutagen_generator_assignment":[1,0],"goal":1,"start":0,"action_noise":0.1,"location_history":"[0,1]","action_history":"[0]","mutagen_history":"[1]","location_rts":"[769]","trial_type":"fractal-mutation","trial_index":89,"time_elapsed":1206546,"internal_node_id":"0.0-5.0-35.0"},{"group":"square cycles (cube, non-group)","fractal_assignment":["../images/grn_red.png","../images/ylw_pnk.png","../images/org_blu.png","../images/ylw_slt.png","../images/gry_blk.png","../images/cyn_red.png","../images/pnk_blu.png","../images/blu_wht.png"],"mutagen_generator_assignment":[1,0],"goal":5,"start":1,"action_noise":0.1,"location_history":"[1,0,4,5]","action_history":"[1,1,1]","mutagen_history":"[0,0,0]","location_rts":"[1201,1247,637]","trial_type":"fractal-mutation","trial_index":90,"time_elapsed":1216249,"internal_node_id":"0.0-5.0-36.0"},{"group":"square cycles (cube, non-group)","fractal_assignment":["../images/grn_red.png","../images/ylw_pnk.png","../images/org_blu.png","../images/ylw_slt.png","../images/gry_blk.png","../images/cyn_red.png","../images/pnk_blu.png","../images/blu_wht.png"],"mutagen_generator_assignment":[1,0],"goal":7,"start":5,"action_noise":0.1,"location_history":"[5,4,7]","action_history":"[0,0]","mutagen_history":"[1,1]","location_rts":"[929,637]","trial_type":"fractal-mutation","trial_index":91,"time_elapsed":1223415,"internal_node_id":"0.0-5.0-37.0"},{"group":"square cycles (cube, non-group)","fractal_assignment":["../images/grn_red.png","../images/ylw_pnk.png","../images/org_blu.png","../images/ylw_slt.png","../images/gry_blk.png","../images/cyn_red.png","../images/pnk_blu.png","../images/blu_wht.png"],"mutagen_generator_assignment":[1,0],"goal":2,"start":7,"action_noise":0.1,"location_history":"[7,3,2]","action_history":"[1,1]","mutagen_history":"[0,0]","location_rts":"[554,788]","trial_type":"fractal-mutation","trial_index":92,"time_elapsed":1230342,"internal_node_id":"0.0-5.0-38.0"},{"group":"square cycles (cube, non-group)","fractal_assignment":["../images/grn_red.png","../images/ylw_pnk.png","../images/org_blu.png","../images/ylw_slt.png","../images/gry_blk.png","../images/cyn_red.png","../images/pnk_blu.png","../images/blu_wht.png"],"mutagen_generator_assignment":[1,0],"goal":1,"start":2,"action_noise":0.1,"location_history":"[2,3,0,4,5,4,7,6,7,3,2,6,5,4,7,3,2,3,0,1]","action_history":"[0,0,1,1,0,0,0,1,1,1,1,0,0,0,1,1,0,0,0]","mutagen_history":"[1,1,0,0,1,1,1,0,0,0,0,1,1,1,0,0,1,1,1]","location_rts":"[583,586,1023,583,616,500,638,527,511,521,857,632,614,543,534,462,1056,666,784]","trial_type":"fractal-mutation","trial_index":93,"time_elapsed":1265940,"internal_node_id":"0.0-5.0-39.0"},{"group":"square cycles (cube, non-group)","fractal_assignment":["../images/grn_red.png","../images/ylw_pnk.png","../images/org_blu.png","../images/ylw_slt.png","../images/gry_blk.png","../images/cyn_red.png","../images/pnk_blu.png","../images/blu_wht.png"],"mutagen_generator_assignment":[1,0],"goal":3,"start":1,"action_noise":0.1,"location_history":"[1,2,3]","action_history":"[0,0]","mutagen_history":"[1,1]","location_rts":"[1460,850]","trial_type":"fractal-mutation","trial_index":94,"time_elapsed":1273841,"internal_node_id":"0.0-5.0-40.0"},{"group":"square cycles (cube, non-group)","fractal_assignment":["../images/grn_red.png","../images/ylw_pnk.png","../images/org_blu.png","../images/ylw_slt.png","../images/gry_blk.png","../images/cyn_red.png","../images/pnk_blu.png","../images/blu_wht.png"],"mutagen_generator_assignment":[1,0],"goal":4,"start":3,"action_noise":0.1,"location_history":"[3,2,6,5,4]","action_history":"[1,1,0,0]","mutagen_history":"[0,0,1,1]","location_rts":"[1384,711,713,519]","trial_type":"fractal-mutation","trial_index":95,"time_elapsed":1284838,"internal_node_id":"0.0-5.0-41.0"},{"group":"square cycles (cube, non-group)","fractal_assignment":["../images/grn_red.png","../images/ylw_pnk.png","../images/org_blu.png","../images/ylw_slt.png","../images/gry_blk.png","../images/cyn_red.png","../images/pnk_blu.png","../images/blu_wht.png"],"mutagen_generator_assignment":[1,0],"goal":2,"start":4,"action_noise":0.1,"location_history":"[4,5,1,0,4,7,6,5,4,5,1,0,1,0,4,7,3,0,4,7,3,2]","action_history":"[1,0,0,1,1,0,0,0,1,1,1,0,0,1,1,1,0,0,0,1,1]","mutagen_history":"[0,1,1,0,0,1,1,1,0,0,0,1,1,0,0,0,1,1,1,0,0]","location_rts":"[1645,977,718,1053,565,543,493,856,516,632,1277,1065,614,812,493,471,574,646,755,513,490]","trial_type":"fractal-mutation","trial_index":96,"time_elapsed":1325899,"internal_node_id":"0.0-5.0-42.0"},{"group":"square cycles (cube, non-group)","fractal_assignment":["../images/grn_red.png","../images/ylw_pnk.png","../images/org_blu.png","../images/ylw_slt.png","../images/gry_blk.png","../images/cyn_red.png","../images/pnk_blu.png","../images/blu_wht.png"],"mutagen_generator_assignment":[1,0],"goal":5,"start":2,"action_noise":0.1,"location_history":"[2,3,0,4,5]","action_history":"[0,0,1,1]","mutagen_history":"[1,1,0,0]","location_rts":"[1322,705,1346,515]","trial_type":"fractal-mutation","trial_index":97,"time_elapsed":1337459,"internal_node_id":"0.0-5.0-43.0"},{"group":"square cycles (cube, non-group)","fractal_assignment":["../images/grn_red.png","../images/ylw_pnk.png","../images/org_blu.png","../images/ylw_slt.png","../images/gry_blk.png","../images/cyn_red.png","../images/pnk_blu.png","../images/blu_wht.png"],"mutagen_generator_assignment":[1,0],"goal":0,"start":5,"action_noise":0.1,"location_history":"[5,4,7,3,2,6,5,4,5,1,0]","action_history":"[0,0,1,1,1,0,0,1,1,1]","mutagen_history":"[1,1,0,0,0,1,1,0,0,0]","location_rts":"[1528,522,502,460,785,858,671,582,868,1567]","trial_type":"fractal-mutation","trial_index":98,"time_elapsed":1359730,"internal_node_id":"0.0-5.0-44.0"},{"group":"square cycles (cube, non-group)","fractal_assignment":["../images/grn_red.png","../images/ylw_pnk.png","../images/org_blu.png","../images/ylw_slt.png","../images/gry_blk.png","../images/cyn_red.png","../images/pnk_blu.png","../images/blu_wht.png"],"mutagen_generator_assignment":[1,0],"goal":7,"start":0,"action_noise":0.1,"location_history":"[0,1,2,3,2,6,5,4,5,1,0,1,0,1,0,4,5,4,5,4,5,1,0,1,2,3,0,1,0,4,7]","action_history":"[0,0,1,1,1,0,0,1,1,1,0,0,0,1,1,1,0,0,0,1,1,1,0,0,0,0,0,1,1,0]","mutagen_history":"[1,1,0,0,0,1,1,0,0,0,1,1,1,0,0,0,1,1,1,0,0,0,1,1,1,1,1,0,0,1]","location_rts":"[1091,872,928,604,921,629,473,1232,501,852,429,476,588,508,489,559,493,594,581,587,492,525,412,429,463,509,422,562,368,436]","trial_type":"fractal-mutation","trial_index":99,"time_elapsed":1412588,"internal_node_id":"0.0-5.0-45.0"},{"group":"square cycles (cube, non-group)","fractal_assignment":["../images/grn_red.png","../images/ylw_pnk.png","../images/org_blu.png","../images/ylw_slt.png","../images/gry_blk.png","../images/cyn_red.png","../images/pnk_blu.png","../images/blu_wht.png"],"mutagen_generator_assignment":[1,0],"goal":6,"start":7,"action_noise":0.1,"location_history":"[7,6]","action_history":"[0]","mutagen_history":"[1]","location_rts":"[1547]","trial_type":"fractal-mutation","trial_index":100,"time_elapsed":1418696,"internal_node_id":"0.0-5.0-46.0"},{"group":"square cycles (cube, non-group)","fractal_assignment":["../images/grn_red.png","../images/ylw_pnk.png","../images/org_blu.png","../images/ylw_slt.png","../images/gry_blk.png","../images/cyn_red.png","../images/pnk_blu.png","../images/blu_wht.png"],"mutagen_generator_assignment":[1,0],"goal":2,"start":6,"action_noise":0.1,"location_history":"[6,7,3,0,1,2]","action_history":"[1,1,0,0,0]","mutagen_history":"[0,0,1,1,1]","location_rts":"[1345,779,509,633,1132]","trial_type":"fractal-mutation","trial_index":101,"time_elapsed":1431823,"internal_node_id":"0.0-5.0-47.0"},{"group":"square cycles (cube, non-group)","fractal_assignment":["../images/grn_red.png","../images/ylw_pnk.png","../images/org_blu.png","../images/ylw_slt.png","../images/gry_blk.png","../images/cyn_red.png","../images/pnk_blu.png","../images/blu_wht.png"],"mutagen_generator_assignment":[1,0],"goal":5,"start":2,"action_noise":0.1,"location_history":"[2,6,7,6,5]","action_history":"[1,1,0,0]","mutagen_history":"[0,0,1,1]","location_rts":"[1363,687,532,569]","trial_type":"fractal-mutation","trial_index":102,"time_elapsed":1442659,"internal_node_id":"0.0-5.0-48.0"},{"group":"square cycles (cube, non-group)","fractal_assignment":["../images/grn_red.png","../images/ylw_pnk.png","../images/org_blu.png","../images/ylw_slt.png","../images/gry_blk.png","../images/cyn_red.png","../images/pnk_blu.png","../images/blu_wht.png"],"mutagen_generator_assignment":[1,0],"goal":3,"start":5,"action_noise":0.1,"location_history":"[5,1,0,1,0,4,5,4,5,1,0,4,7,6,5,1,0,4,7,3]","action_history":"[0,0,0,1,1,0,0,1,1,1,1,0,0,0,1,1,0,0,1]","mutagen_history":"[1,1,1,0,0,1,1,0,0,0,0,1,1,1,0,0,1,1,0]","location_rts":"[1315,746,537,595,601,835,575,573,508,646,714,529,583,573,427,452,445,446,610]","trial_type":"fractal-mutation","trial_index":103,"time_elapsed":1477703,"internal_node_id":"0.0-5.0-49.0"},{"view_history":"[{\"page_index\":0,\"viewing_time\":4332}]","rt":4332,"trial_type":"instructions","trial_index":104,"time_elapsed":1483036,"internal_node_id":"0.0-6.0"},{"rt":43600,"responses":"{\"Q0\":\"The ability to remember previous directions experienced.\"}","trial_type":"survey-text","trial_index":105,"time_elapsed":1527643,"internal_node_id":"0.0-7.0-0.0"},{"rt":18557,"responses":"{\"Q0\":\"The ability to remember patter regeneration.\"}","trial_type":"survey-text","trial_index":106,"time_elapsed":1547204,"internal_node_id":"0.0-7.0-1.0"},{"rt":31886,"responses":"{\"Q0\":\"<img src='../images/diagrams/square_cycles.png'>\"}","trial_type":"survey-multi-choice","trial_index":107,"time_elapsed":1580102,"internal_node_id":"0.0-7.0-2.0"},{"rt":53567,"assignments":["../images/org_blu.png","../images/ylw_pnk.png","../images/gry_blk.png","../images/blu_wht.png","../images/ylw_slt.png","../images/cyn_red.png","../images/grn_red.png","../images/pnk_blu.png"],"trial_type":"drag-drop-on-image","trial_index":108,"time_elapsed":1634675,"internal_node_id":"0.0-7.0-3.0"},{"rt":7956,"responses":"{\"Q0\":\"1\"}","trial_type":"survey-likert","trial_index":109,"time_elapsed":1643637,"internal_node_id":"0.0-7.0-4.0"},{"rt":71351,"responses":"{\"Q0\":\"There appeared to be patterns that were interrupted from time to time. Or as it was called in the first: haunted.\"}","trial_type":"survey-text","trial_index":110,"time_elapsed":1715991,"internal_node_id":"0.0-7.0-5.0"},{"rt":8757,"responses":"{\"Q0\":\"Yes\"}","trial_type":"survey-multi-choice","trial_index":111,"time_elapsed":1725753,"internal_node_id":"0.0-7.0-6.0"},{"rt":12248,"responses":"{\"Q0\":\"During session 2\"}","trial_type":"survey-multi-choice","trial_index":112,"time_elapsed":1739010,"internal_node_id":"0.0-7.0-7.0"},{"rt":49066,"responses":"{\"Q0\":\"It was the fact that patterns appeared \\\"haunted\\\" in the second experiment as well.\"}","trial_type":"survey-text","trial_index":113,"time_elapsed":1789083,"internal_node_id":"0.0-7.0-8.0"},{"rt":9502,"responses":"{\"Q0\":\"2\"}","trial_type":"survey-likert","trial_index":114,"time_elapsed":1799589,"internal_node_id":"0.0-7.0-9.0"},{"rt":12835,"responses":"{\"Q0\":\"Same structure\"}","trial_type":"survey-multi-choice","trial_index":115,"time_elapsed":1813430,"internal_node_id":"0.0-7.0-10.0"},{"rt":47251,"responses":"{\"Q0\":\"left (black) door = ray, (white) door = acid\",\"Q1\":\"Not at all confident\"}","trial_type":"survey-multi-choice","trial_index":116,"time_elapsed":1861695,"internal_node_id":"0.0-7.0-11.0"},{"rt":15051,"responses":"{\"Q0\":\"55-65\",\"Q1\":\"Master's degree\",\"Q2\":\"Male\",\"Q3\":\"White\"}","trial_type":"survey-multi-choice","trial_index":117,"time_elapsed":1877769,"internal_node_id":"0.0-8.0"},{"rt":11597,"responses":"{\"Q0\":\"no further comments\"}","trial_type":"survey-text","trial_index":118,"time_elapsed":1890370,"internal_node_id":"0.0-9.0"}]