[{"view_history":"[{\"page_index\":0,\"viewing_time\":1621},{\"page_index\":1,\"viewing_time\":1604}]","rt":3226,"trial_type":"instructions","trial_index":0,"time_elapsed":3228,"internal_node_id":"0.0-0.0"},{"view_history":"[{\"page_index\":0,\"viewing_time\":2147},{\"page_index\":1,\"viewing_time\":3459}]","rt":5606,"trial_type":"instructions","trial_index":1,"time_elapsed":9837,"internal_node_id":"0.0-1.0"},{"group":"square cycles (cube, non-group)","room_assignment":["blue","pink","green","red","grey","yellow","brown","purple"],"door_color_assignment":["black","white"],"door_generator_assignment":[0,1],"goal":5,"start":7,"action_noise":0.1,"location_history":"[7,6,5]","action_history":"[0,0]","door_history":"[0,0]","location_rts":"[4367,877]","trial_type":"two-door-navigation","trial_index":2,"time_elapsed":20640,"internal_node_id":"0.0-2.0-0.0"},{"group":"square cycles (cube, non-group)","room_assignment":["blue","pink","green","red","grey","yellow","brown","purple"],"door_color_assignment":["black","white"],"door_generator_assignment":[0,1],"goal":2,"start":5,"action_noise":0.1,"location_history":"[5,4,7,6,7,6,7,3,0,1,2]","action_history":"[0,0,0,0,0,1,0,0,0,0]","door_history":"[0,0,0,0,0,1,0,0,0,0]","location_rts":"[902,565,461,484,490,778,899,387,444,436]","trial_type":"two-door-navigation","trial_index":3,"time_elapsed":40208,"internal_node_id":"0.0-2.0-1.0"},{"group":"square cycles (cube, non-group)","room_assignment":["blue","pink","green","red","grey","yellow","brown","purple"],"door_color_assignment":["black","white"],"door_generator_assignment":[0,1],"goal":0,"start":2,"action_noise":0.1,"location_history":"[2,3,0]","action_history":"[0,0]","door_history":"[0,0]","location_rts":"[526,404]","trial_type":"two-door-navigation","trial_index":4,"time_elapsed":46681,"internal_node_id":"0.0-2.0-2.0"},{"group":"square cycles (cube, non-group)","room_assignment":["blue","pink","green","red","grey","yellow","brown","purple"],"door_color_assignment":["black","white"],"door_generator_assignment":[0,1],"goal":1,"start":0,"action_noise":0.1,"location_history":"[0,1]","action_history":"[0]","door_history":"[0]","location_rts":"[810]","trial_type":"two-door-navigation","trial_index":5,"time_elapsed":52016,"internal_node_id":"0.0-2.0-3.0"},{"group":"square cycles (cube, non-group)","room_assignment":["blue","pink","green","red","grey","yellow","brown","purple"],"door_color_assignment":["black","white"],"door_generator_assignment":[0,1],"goal":6,"start":1,"action_noise":0.1,"location_history":"[1,2,3,2,3,0,1,2,3,2,3,0,4,7,3,2,3,0,4,5,4,7,3,0,1,0,1,2,3,0,1,0,1,2,3,0,1,2,3,0,1,2,3,0,1,2,3,0,1,2,6]","action_history":"[0,0,0,0,0,0,0,0,0,0,0,0,0,1,0,0,0,1,1,0,0,0,0,0,0,0,0,0,0,0,0,0,0,0,0,0,0,0,0,0,0,0,0,0,0,0,0,0,0,0]","door_history":"[0,0,0,0,0,0,0,0,0,0,0,0,0,1,0,0,0,1,1,0,0,0,0,0,0,0,0,0,0,0,0,0,0,0,0,0,0,0,0,0,0,0,0,0,0,0,0,0,0,0]","location_rts":"[762,644,592,446,461,618,751,637,522,416,467,454,442,1107,857,492,423,2819,2680,930,874,514,1202,420,289,1194,519,396,273,858,763,614,454,560,1069,775,493,742,588,1871,70,657,545,440,187,175,2634,273,420,568]","trial_type":"two-door-navigation","trial_index":6,"time_elapsed":143550,"internal_node_id":"0.0-2.0-4.0"},{"group":"square cycles (cube, non-group)","room_assignment":["blue","pink","green","red","grey","yellow","brown","purple"],"door_color_assignment":["black","white"],"door_generator_assignment":[0,1],"goal":3,"start":6,"action_noise":0.1,"location_history":"[6,7,6,5,4,5,4,7,6,5,4,7,6,5,1,2,3]","action_history":"[0,0,0,0,0,0,0,0,0,0,0,0,0,1,0,0]","door_history":"[0,0,0,0,0,0,0,0,0,0,0,0,0,1,0,0]","location_rts":"[976,469,876,1515,841,461,400,438,648,405,407,585,444,811,1109,674]","trial_type":"two-door-navigation","trial_index":7,"time_elapsed":174442,"internal_node_id":"0.0-2.0-5.0"},{"group":"square cycles (cube, non-group)","room_assignment":["blue","pink","green","red","grey","yellow","brown","purple"],"door_color_assignment":["black","white"],"door_generator_assignment":[0,1],"goal":4,"start":3,"action_noise":0.1,"location_history":"[3,0,1,2,3,2,6,5,1,0,4]","action_history":"[0,0,0,0,1,1,0,0,0,0]","door_history":"[0,0,0,0,1,1,0,0,0,0]","location_rts":"[899,579,460,483,954,413,1175,491,248,977]","trial_type":"two-door-navigation","trial_index":8,"time_elapsed":194828,"internal_node_id":"0.0-2.0-6.0"},{"group":"square cycles (cube, non-group)","room_assignment":["blue","pink","green","red","grey","yellow","brown","purple"],"door_color_assignment":["black","white"],"door_generator_assignment":[0,1],"goal":1,"start":4,"action_noise":0.1,"location_history":"[4,7,6,5,4,7,6,5,4,7,6,5,4,7,6,5,4,7,3,2,3,0,1]","action_history":"[0,0,0,0,0,0,0,0,0,0,0,0,0,0,0,0,0,1,1,0,0,0]","door_history":"[0,0,0,0,0,0,0,0,0,0,0,0,0,0,0,0,0,1,1,0,0,0]","location_rts":"[1252,393,1326,142,1165,528,1271,158,460,577,414,641,671,602,256,530,947,397,991,477,476,498]","trial_type":"two-door-navigation","trial_index":9,"time_elapsed":234951,"internal_node_id":"0.0-2.0-7.0"},{"group":"square cycles (cube, non-group)","room_assignment":["blue","pink","green","red","grey","yellow","brown","purple"],"door_color_assignment":["black","white"],"door_generator_assignment":[0,1],"goal":4,"start":1,"action_noise":0.1,"location_history":"[1,0,1,2,3,0,1,2,3,0,4]","action_history":"[1,0,0,0,0,0,0,0,0,0]","door_history":"[1,0,0,0,0,0,0,0,0,0]","location_rts":"[1823,655,1122,463,505,790,780,104,689,952]","trial_type":"two-door-navigation","trial_index":10,"time_elapsed":256547,"internal_node_id":"0.0-2.0-8.0"},{"group":"square cycles (cube, non-group)","room_assignment":["blue","pink","green","red","grey","yellow","brown","purple"],"door_color_assignment":["black","white"],"door_generator_assignment":[0,1],"goal":5,"start":4,"action_noise":0.1,"location_history":"[4,7,6,5]","action_history":"[0,0,0]","door_history":"[0,0,0]","location_rts":"[963,384,1840]","trial_type":"two-door-navigation","trial_index":11,"time_elapsed":266296,"internal_node_id":"0.0-2.0-9.0"},{"group":"square cycles (cube, non-group)","room_assignment":["blue","pink","green","red","grey","yellow","brown","purple"],"door_color_assignment":["black","white"],"door_generator_assignment":[0,1],"goal":3,"start":5,"action_noise":0.1,"location_history":"[5,4,7,6,5,4,7,6,5,4,7,6,5,4,7,6,5,1,2,3]","action_history":"[0,0,0,0,0,0,0,0,0,0,0,0,0,0,0,0,1,0,0]","door_history":"[0,0,0,0,0,0,0,0,0,0,0,0,0,0,0,0,1,0,0]","location_rts":"[741,430,466,497,656,2315,523,453,387,476,506,5159,707,627,820,471,1567,1154,446]","trial_type":"two-door-navigation","trial_index":12,"time_elapsed":307592,"internal_node_id":"0.0-2.0-10.0"},{"group":"square cycles (cube, non-group)","room_assignment":["blue","pink","green","red","grey","yellow","brown","purple"],"door_color_assignment":["black","white"],"door_generator_assignment":[0,1],"goal":6,"start":3,"action_noise":0.1,"location_history":"[3,2,3,0,1,2,3,0,1,2,3,0,1,2,3,0,4,7,6]","action_history":"[0,0,0,0,0,0,0,0,0,0,0,0,0,0,0,1,0,0]","door_history":"[0,0,0,0,0,0,0,0,0,0,0,0,0,0,0,1,0,0]","location_rts":"[4255,478,937,548,547,420,376,469,317,757,477,561,562,644,890,840,780,438]","trial_type":"two-door-navigation","trial_index":13,"time_elapsed":343756,"internal_node_id":"0.0-2.0-11.0"},{"group":"square cycles (cube, non-group)","room_assignment":["blue","pink","green","red","grey","yellow","brown","purple"],"door_color_assignment":["black","white"],"door_generator_assignment":[0,1],"goal":7,"start":6,"action_noise":0.1,"location_history":"[6,5,4,5,4,5,4,7]","action_history":"[0,0,0,0,0,0,0]","door_history":"[0,0,0,0,0,0,0]","location_rts":"[774,427,594,484,486,449,372]","trial_type":"two-door-navigation","trial_index":14,"time_elapsed":358003,"internal_node_id":"0.0-2.0-12.0"},{"group":"square cycles (cube, non-group)","room_assignment":["blue","pink","green","red","grey","yellow","brown","purple"],"door_color_assignment":["black","white"],"door_generator_assignment":[0,1],"goal":0,"start":7,"action_noise":0.1,"location_history":"[7,6,5,1,0]","action_history":"[0,0,1,0]","door_history":"[0,0,1,0]","location_rts":"[739,480,1194,953]","trial_type":"two-door-navigation","trial_index":15,"time_elapsed":368951,"internal_node_id":"0.0-2.0-13.0"},{"group":"square cycles (cube, non-group)","room_assignment":["blue","pink","green","red","grey","yellow","brown","purple"],"door_color_assignment":["black","white"],"door_generator_assignment":[0,1],"goal":2,"start":0,"action_noise":0.1,"location_history":"[0,1,2]","action_history":"[0,0]","door_history":"[0,0]","location_rts":"[7398,1045]","trial_type":"two-door-navigation","trial_index":16,"time_elapsed":382942,"internal_node_id":"0.0-2.0-14.0"},{"group":"square cycles (cube, non-group)","room_assignment":["blue","pink","green","red","grey","yellow","brown","purple"],"door_color_assignment":["black","white"],"door_generator_assignment":[0,1],"goal":1,"start":2,"action_noise":0.1,"location_history":"[2,3,2,6,5,4,7,6,5,4,7,6,5,4,5,1]","action_history":"[0,1,1,0,0,0,0,0,0,0,0,0,0,1,1]","door_history":"[0,1,1,0,0,0,0,0,0,0,0,0,0,1,1]","location_rts":"[1134,1293,785,1505,945,624,509,1615,731,514,415,626,576,1006,386]","trial_type":"two-door-navigation","trial_index":17,"time_elapsed":414419,"internal_node_id":"0.0-2.0-15.0"},{"group":"square cycles (cube, non-group)","room_assignment":["blue","pink","green","red","grey","yellow","brown","purple"],"door_color_assignment":["black","white"],"door_generator_assignment":[0,1],"goal":6,"start":1,"action_noise":0.1,"location_history":"[1,2,3,0,1,2,6]","action_history":"[0,0,0,0,0,0]","door_history":"[0,0,0,0,0,0]","location_rts":"[1047,857,461,436,586,423]","trial_type":"two-door-navigation","trial_index":18,"time_elapsed":427857,"internal_node_id":"0.0-2.0-16.0"},{"group":"square cycles (cube, non-group)","room_assignment":["blue","pink","green","red","grey","yellow","brown","purple"],"door_color_assignment":["black","white"],"door_generator_assignment":[0,1],"goal":3,"start":6,"action_noise":0.1,"location_history":"[6,5,4,7,6,5,4,7,6,5,4,7,6,5,4,5,4,7,6,7,3]","action_history":"[0,1,1,0,0,0,0,0,0,0,0,0,0,0,0,0,0,0,1,1]","door_history":"[0,1,1,0,0,0,0,0,0,0,0,0,0,0,0,0,0,0,1,1]","location_rts":"[4438,1219,2738,1274,687,552,578,540,881,462,554,91,710,450,484,586,379,472,998,764]","trial_type":"two-door-navigation","trial_index":19,"time_elapsed":470630,"internal_node_id":"0.0-2.0-17.0"},{"group":"square cycles (cube, non-group)","room_assignment":["blue","pink","green","red","grey","yellow","brown","purple"],"door_color_assignment":["black","white"],"door_generator_assignment":[0,1],"goal":4,"start":3,"action_noise":0.1,"location_history":"[3,0,4]","action_history":"[1,1]","door_history":"[1,1]","location_rts":"[1095,839]","trial_type":"two-door-navigation","trial_index":20,"time_elapsed":478112,"internal_node_id":"0.0-2.0-18.0"},{"group":"square cycles (cube, non-group)","room_assignment":["blue","pink","green","red","grey","yellow","brown","purple"],"door_color_assignment":["black","white"],"door_generator_assignment":[0,1],"goal":5,"start":4,"action_noise":0.1,"location_history":"[4,5]","action_history":"[1]","door_history":"[1]","location_rts":"[820]","trial_type":"two-door-navigation","trial_index":21,"time_elapsed":483456,"internal_node_id":"0.0-2.0-19.0"},{"group":"square cycles (cube, non-group)","room_assignment":["blue","pink","green","red","grey","yellow","brown","purple"],"door_color_assignment":["black","white"],"door_generator_assignment":[0,1],"goal":7,"start":5,"action_noise":0.1,"location_history":"[5,1,2,3,0,1,2,3,0,1,2,3,0,1,2,6,7]","action_history":"[1,0,0,0,0,0,0,0,0,0,0,0,0,0,0,1]","door_history":"[1,0,0,0,0,0,0,0,0,0,0,0,0,0,0,1]","location_rts":"[816,1511,441,308,390,334,422,151,549,107,581,468,166,930,2,1282]","trial_type":"two-door-navigation","trial_index":22,"time_elapsed":511731,"internal_node_id":"0.0-2.0-20.0"},{"group":"square cycles (cube, non-group)","room_assignment":["blue","pink","green","red","grey","yellow","brown","purple"],"door_color_assignment":["black","white"],"door_generator_assignment":[0,1],"goal":2,"start":7,"action_noise":0.1,"location_history":"[7,6,5,4,7,6,5,4,7,6,5,4,7,6,5,4,7,6,5,4,5,1,0,1,2]","action_history":"[0,0,0,0,0,0,0,0,0,0,0,0,0,0,0,0,0,0,1,1,1,0,0,0]","door_history":"[0,0,0,0,0,0,0,0,0,0,0,0,0,0,0,0,0,0,1,1,1,0,0,0]","location_rts":"[813,451,292,444,438,748,553,529,464,259,4836,620,244,1331,2417,384,1654,329,380,825,496,741,469,342]","trial_type":"two-door-navigation","trial_index":23,"time_elapsed":559783,"internal_node_id":"0.0-2.0-21.0"},{"group":"square cycles (cube, non-group)","room_assignment":["blue","pink","green","red","grey","yellow","brown","purple"],"door_color_assignment":["black","white"],"door_generator_assignment":[0,1],"goal":0,"start":2,"action_noise":0.1,"location_history":"[2,3,2,3,2,3,2,3,0]","action_history":"[0,0,0,0,0,0,0,0]","door_history":"[0,0,0,0,0,0,0,0]","location_rts":"[700,626,1343,74,953,299,83,671]","trial_type":"two-door-navigation","trial_index":24,"time_elapsed":576193,"internal_node_id":"0.0-2.0-22.0"},{"group":"square cycles (cube, non-group)","room_assignment":["blue","pink","green","red","grey","yellow","brown","purple"],"door_color_assignment":["black","white"],"door_generator_assignment":[0,1],"goal":7,"start":0,"action_noise":0.1,"location_history":"[0,1,0,4,5,1,2,3,0,1,2,3,0,1,2,3,0,1,2,3,0,1,2,3,0,4,7]","action_history":"[0,1,1,1,1,0,0,0,0,0,0,0,0,0,0,0,0,0,0,0,0,0,0,0,0,0]","door_history":"[0,1,1,1,1,0,0,0,0,0,0,0,0,0,0,0,0,0,0,0,0,0,0,0,0,0]","location_rts":"[934,380,711,892,1923,563,935,639,4221,366,360,350,367,298,58,544,655,931,936,1590,477,1069,1332,461,2342,750]","trial_type":"two-door-navigation","trial_index":25,"time_elapsed":630319,"internal_node_id":"0.0-2.0-23.0"},{"group":"square cycles (cube, non-group)","room_assignment":["blue","pink","green","red","grey","yellow","brown","purple"],"door_color_assignment":["black","white"],"door_generator_assignment":[0,1],"goal":5,"start":7,"action_noise":0.1,"location_history":"[7,6,5]","action_history":"[0,1]","door_history":"[0,1]","location_rts":"[879,886]","trial_type":"two-door-navigation","trial_index":26,"time_elapsed":637628,"internal_node_id":"0.0-2.0-24.0"},{"group":"square cycles (cube, non-group)","room_assignment":["blue","pink","green","red","grey","yellow","brown","purple"],"door_color_assignment":["black","white"],"door_generator_assignment":[0,1],"goal":0,"start":5,"action_noise":0.1,"location_history":"[5,4,7,6,7,6,5,4,7,6,5,4,7,3,2,6,7,3,2,3,0]","action_history":"[0,0,0,0,0,0,0,0,0,0,0,0,1,1,1,1,1,0,0,0]","door_history":"[0,0,0,0,0,0,0,0,0,0,0,0,1,1,1,1,1,0,0,0]","location_rts":"[836,511,1350,1520,507,3727,958,629,5308,265,213,221,369,425,486,559,2298,981,460,389]","trial_type":"two-door-navigation","trial_index":27,"time_elapsed":683568,"internal_node_id":"0.0-2.0-25.0"},{"group":"square cycles (cube, non-group)","room_assignment":["blue","pink","green","red","grey","yellow","brown","purple"],"door_color_assignment":["black","white"],"door_generator_assignment":[0,1],"goal":6,"start":0,"action_noise":0.1,"location_history":"[0,1,2,3,0,1,2,3,0,1,2,6]","action_history":"[0,0,0,0,0,0,0,0,0,0,1]","door_history":"[0,0,0,0,0,0,0,0,0,0,1]","location_rts":"[1088,636,529,100,616,526,455,353,429,698,471]","trial_type":"two-door-navigation","trial_index":28,"time_elapsed":704203,"internal_node_id":"0.0-2.0-26.0"},{"group":"square cycles (cube, non-group)","room_assignment":["blue","pink","green","red","grey","yellow","brown","purple"],"door_color_assignment":["black","white"],"door_generator_assignment":[0,1],"goal":4,"start":6,"action_noise":0.1,"location_history":"[6,7,6,7,3,2,6,7,3,2,6,7,3,2,6,7,6,7,6,5,4]","action_history":"[0,0,1,1,1,1,1,1,1,1,1,1,1,1,1,0,0,0,0,0]","door_history":"[0,0,1,1,1,1,1,1,1,1,1,1,1,1,1,0,0,0,0,0]","location_rts":"[4028,680,1406,570,1209,444,1114,786,273,147,969,1236,613,624,250,344,556,1946,927,365]","trial_type":"two-door-navigation","trial_index":29,"time_elapsed":746607,"internal_node_id":"0.0-2.0-27.0"},{"group":"square cycles (cube, non-group)","room_assignment":["blue","pink","green","red","grey","yellow","brown","purple"],"door_color_assignment":["black","white"],"door_generator_assignment":[0,1],"goal":2,"start":4,"action_noise":0.1,"location_history":"[4,7,6,5,1,2]","action_history":"[0,0,0,0,0]","door_history":"[0,0,0,0,0]","location_rts":"[783,433,388,906,125]","trial_type":"two-door-navigation","trial_index":30,"time_elapsed":757852,"internal_node_id":"0.0-2.0-28.0"},{"group":"square cycles (cube, non-group)","room_assignment":["blue","pink","green","red","grey","yellow","brown","purple"],"door_color_assignment":["black","white"],"door_generator_assignment":[0,1],"goal":3,"start":2,"action_noise":0.1,"location_history":"[2,3]","action_history":"[0]","door_history":"[0]","location_rts":"[687]","trial_type":"two-door-navigation","trial_index":31,"time_elapsed":763064,"internal_node_id":"0.0-2.0-29.0"},{"group":"square cycles (cube, non-group)","room_assignment":["blue","pink","green","red","grey","yellow","brown","purple"],"door_color_assignment":["black","white"],"door_generator_assignment":[0,1],"goal":1,"start":3,"action_noise":0.1,"location_history":"[3,0,4,5,1]","action_history":"[1,1,1,1]","door_history":"[1,1,1,1]","location_rts":"[1423,559,167,833]","trial_type":"two-door-navigation","trial_index":32,"time_elapsed":773622,"internal_node_id":"0.0-2.0-30.0"},{"group":"square cycles (cube, non-group)","room_assignment":["blue","pink","green","red","grey","yellow","brown","purple"],"door_color_assignment":["black","white"],"door_generator_assignment":[0,1],"goal":4,"start":1,"action_noise":0.1,"location_history":"[1,2,3,2,3,2,6,7,3,2,6,7,3,2,6,5,4]","action_history":"[1,0,0,0,1,1,1,1,1,1,1,1,1,1,0,0]","door_history":"[1,0,0,0,1,1,1,1,1,1,1,1,1,1,0,0]","location_rts":"[742,923,1140,461,476,396,537,390,388,409,400,428,462,459,240,468]","trial_type":"two-door-navigation","trial_index":33,"time_elapsed":801776,"internal_node_id":"0.0-2.0-31.0"},{"group":"square cycles (cube, non-group)","room_assignment":["blue","pink","green","red","grey","yellow","brown","purple"],"door_color_assignment":["black","white"],"door_generator_assignment":[0,1],"goal":3,"start":4,"action_noise":0.1,"location_history":"[4,7,6,5,4,7,6,5,4,7,6,5,4,7,6,5,4,7,6,5,4,7,6,5,4,7,6,5,4,7,6,7,3]","action_history":"[0,0,0,0,0,0,0,0,0,0,0,0,0,0,0,0,0,0,0,0,0,0,0,0,0,0,0,0,0,0,0,1]","door_history":"[0,0,0,0,0,0,0,0,0,0,0,0,0,0,0,0,0,0,0,0,0,0,0,0,0,0,0,0,0,0,0,1]","location_rts":"[998,1250,183,877,96,1125,2620,670,339,887,384,1498,363,7,3360,350,756,1,1116,754,0,513,572,703,376,511,280,382,651,344,326,274]","trial_type":"two-door-navigation","trial_index":34,"time_elapsed":860500,"internal_node_id":"0.0-2.0-32.0"},{"group":"square cycles (cube, non-group)","room_assignment":["blue","pink","green","red","grey","yellow","brown","purple"],"door_color_assignment":["black","white"],"door_generator_assignment":[0,1],"goal":6,"start":3,"action_noise":0.1,"location_history":"[3,2,3,0,1,2,6]","action_history":"[1,0,0,0,0,0]","door_history":"[1,0,0,0,0,0]","location_rts":"[356,464,493,39,336,1364]","trial_type":"two-door-navigation","trial_index":35,"time_elapsed":873179,"internal_node_id":"0.0-2.0-33.0"},{"group":"square cycles (cube, non-group)","room_assignment":["blue","pink","green","red","grey","yellow","brown","purple"],"door_color_assignment":["black","white"],"door_generator_assignment":[0,1],"goal":0,"start":6,"action_noise":0.1,"location_history":"[6,5,1,0]","action_history":"[0,1,1]","door_history":"[0,1,1]","location_rts":"[1116,3724,742]","trial_type":"two-door-navigation","trial_index":36,"time_elapsed":885331,"internal_node_id":"0.0-2.0-34.0"},{"group":"square cycles (cube, non-group)","room_assignment":["blue","pink","green","red","grey","yellow","brown","purple"],"door_color_assignment":["black","white"],"door_generator_assignment":[0,1],"goal":1,"start":0,"action_noise":0.1,"location_history":"[0,4,5,1]","action_history":"[1,1,1]","door_history":"[1,1,1]","location_rts":"[1225,538,322]","trial_type":"two-door-navigation","trial_index":37,"time_elapsed":893983,"internal_node_id":"0.0-2.0-35.0"},{"group":"square cycles (cube, non-group)","room_assignment":["blue","pink","green","red","grey","yellow","brown","purple"],"door_color_assignment":["black","white"],"door_generator_assignment":[0,1],"goal":5,"start":1,"action_noise":0.1,"location_history":"[1,2,6,7,3,0,4,5]","action_history":"[1,1,1,1,1,1,1]","door_history":"[1,1,1,1,1,1,1]","location_rts":"[720,482,470,405,403,314,391]","trial_type":"two-door-navigation","trial_index":38,"time_elapsed":907819,"internal_node_id":"0.0-2.0-36.0"},{"group":"square cycles (cube, non-group)","room_assignment":["blue","pink","green","red","grey","yellow","brown","purple"],"door_color_assignment":["black","white"],"door_generator_assignment":[0,1],"goal":7,"start":5,"action_noise":0.1,"location_history":"[5,1,0,4,5,1,2,3,0,1,2,3,0,1,2,3,0,1,2,3,0,1,2,3,0,1,2,3,2,6,7]","action_history":"[1,1,1,1,1,0,0,0,0,0,0,0,0,0,0,0,0,0,0,0,0,0,0,0,0,0,0,0,1,1]","door_history":"[1,1,1,1,1,0,0,0,0,0,0,0,0,0,0,0,0,0,0,0,0,0,0,0,0,0,0,0,1,1]","location_rts":"[854,295,102,155,768,408,454,282,835,361,297,701,6017,909,970,370,350,691,219,647,193,361,453,524,410,374,448,438,1230,1763]","trial_type":"two-door-navigation","trial_index":39,"time_elapsed":963825,"internal_node_id":"0.0-2.0-37.0"},{"group":"square cycles (cube, non-group)","room_assignment":["blue","pink","green","red","grey","yellow","brown","purple"],"door_color_assignment":["black","white"],"door_generator_assignment":[0,1],"goal":2,"start":7,"action_noise":0.1,"location_history":"[7,3,2]","action_history":"[1,1]","door_history":"[1,1]","location_rts":"[821,789]","trial_type":"two-door-navigation","trial_index":40,"time_elapsed":970972,"internal_node_id":"0.0-2.0-38.0"},{"group":"square cycles (cube, non-group)","room_assignment":["blue","pink","green","red","grey","yellow","brown","purple"],"door_color_assignment":["black","white"],"door_generator_assignment":[0,1],"goal":1,"start":2,"action_noise":0.1,"location_history":"[2,6,5,4,5,4,7,3,2,6,7,3,2,6,7,3,2,6,7,6,7,3,0,1]","action_history":"[0,0,0,0,0,0,1,1,1,1,1,1,1,1,1,1,1,1,1,1,1,0,0]","door_history":"[0,0,0,0,0,0,1,1,1,1,1,1,1,1,1,1,1,1,1,1,1,0,0]","location_rts":"[782,46,257,940,413,177,785,473,718,2316,616,744,443,2503,381,898,439,334,323,245,941,872,877]","trial_type":"two-door-navigation","trial_index":41,"time_elapsed":1014475,"internal_node_id":"0.0-2.0-39.0"},{"group":"square cycles (cube, non-group)","room_assignment":["blue","pink","green","red","grey","yellow","brown","purple"],"door_color_assignment":["black","white"],"door_generator_assignment":[0,1],"goal":3,"start":1,"action_noise":0.1,"location_history":"[1,2,3]","action_history":"[0,0]","door_history":"[0,0]","location_rts":"[1104,457]","trial_type":"two-door-navigation","trial_index":42,"time_elapsed":1021590,"internal_node_id":"0.0-2.0-40.0"},{"group":"square cycles (cube, non-group)","room_assignment":["blue","pink","green","red","grey","yellow","brown","purple"],"door_color_assignment":["black","white"],"door_generator_assignment":[0,1],"goal":4,"start":3,"action_noise":0.1,"location_history":"[3,0,4]","action_history":"[0,1]","door_history":"[0,1]","location_rts":"[938,1525]","trial_type":"two-door-navigation","trial_index":43,"time_elapsed":1029601,"internal_node_id":"0.0-2.0-41.0"},{"group":"square cycles (cube, non-group)","room_assignment":["blue","pink","green","red","grey","yellow","brown","purple"],"door_color_assignment":["black","white"],"door_generator_assignment":[0,1],"goal":2,"start":4,"action_noise":0.1,"location_history":"[4,5,1,0,4,5,1,0,4,7,3,2]","action_history":"[1,1,1,1,1,1,1,1,1,1,1]","door_history":"[1,1,1,1,1,1,1,1,1,1,1]","location_rts":"[768,517,1011,472,231,500,514,772,1490,763,572]","trial_type":"two-door-navigation","trial_index":44,"time_elapsed":1051945,"internal_node_id":"0.0-2.0-42.0"},{"group":"square cycles (cube, non-group)","room_assignment":["blue","pink","green","red","grey","yellow","brown","purple"],"door_color_assignment":["black","white"],"door_generator_assignment":[0,1],"goal":5,"start":2,"action_noise":0.1,"location_history":"[2,6,5]","action_history":"[1,1]","door_history":"[1,1]","location_rts":"[666,576]","trial_type":"two-door-navigation","trial_index":45,"time_elapsed":1058730,"internal_node_id":"0.0-2.0-43.0"},{"group":"square cycles (cube, non-group)","room_assignment":["blue","pink","green","red","grey","yellow","brown","purple"],"door_color_assignment":["black","white"],"door_generator_assignment":[0,1],"goal":0,"start":5,"action_noise":0.1,"location_history":"[5,1,0]","action_history":"[1,1]","door_history":"[1,1]","location_rts":"[798,973]","trial_type":"two-door-navigation","trial_index":46,"time_elapsed":1066047,"internal_node_id":"0.0-2.0-44.0"},{"group":"square cycles (cube, non-group)","room_assignment":["blue","pink","green","red","grey","yellow","brown","purple"],"door_color_assignment":["black","white"],"door_generator_assignment":[0,1],"goal":7,"start":0,"action_noise":0.1,"location_history":"[0,4,5,4,5,1,0,1,2,6,5,4,7]","action_history":"[1,1,1,1,1,1,0,0,0,0,0,0]","door_history":"[1,1,1,1,1,1,0,0,0,0,0,0]","location_rts":"[838,647,329,360,670,667,960,367,368,453,406,415]","trial_type":"two-door-navigation","trial_index":47,"time_elapsed":1088280,"internal_node_id":"0.0-2.0-45.0"},{"group":"square cycles (cube, non-group)","room_assignment":["blue","pink","green","red","grey","yellow","brown","purple"],"door_color_assignment":["black","white"],"door_generator_assignment":[0,1],"goal":6,"start":7,"action_noise":0.1,"location_history":"[7,6]","action_history":"[0]","door_history":"[0]","location_rts":"[457]","trial_type":"two-door-navigation","trial_index":48,"time_elapsed":1093259,"internal_node_id":"0.0-2.0-46.0"},{"group":"square cycles (cube, non-group)","room_assignment":["blue","pink","green","red","grey","yellow","brown","purple"],"door_color_assignment":["black","white"],"door_generator_assignment":[0,1],"goal":2,"start":6,"action_noise":0.1,"location_history":"[6,5,4,7,6,5,1,0,4,5,4,7,6,5,4,7,6,5,4,5,4,7,3,0,1,2]","action_history":"[0,0,0,0,0,1,1,1,1,1,0,0,0,0,0,0,0,0,0,0,0,0,0,0,0]","door_history":"[0,0,0,0,0,1,1,1,1,1,0,0,0,0,0,0,0,0,0,0,0,0,0,0,0]","location_rts":"[702,462,587,407,948,796,920,615,335,2087,8662,596,2876,288,222,304,819,866,538,597,1176,1000,1115,592,1234]","trial_type":"two-door-navigation","trial_index":49,"time_elapsed":1151036,"internal_node_id":"0.0-2.0-47.0"},{"group":"square cycles (cube, non-group)","room_assignment":["blue","pink","green","red","grey","yellow","brown","purple"],"door_color_assignment":["black","white"],"door_generator_assignment":[0,1],"goal":5,"start":2,"action_noise":0.1,"location_history":"[2,6,7,3,2,6,7,3,2,6,5]","action_history":"[1,1,1,1,1,1,1,1,1,0]","door_history":"[1,1,1,1,1,1,1,1,1,0]","location_rts":"[3223,610,523,826,384,699,536,1610,1045,392]","trial_type":"two-door-navigation","trial_index":50,"time_elapsed":1174588,"internal_node_id":"0.0-2.0-48.0"},{"group":"square cycles (cube, non-group)","room_assignment":["blue","pink","green","red","grey","yellow","brown","purple"],"door_color_assignment":["black","white"],"door_generator_assignment":[0,1],"goal":3,"start":5,"action_noise":0.1,"location_history":"[5,4,7,6,5,4,7,3]","action_history":"[0,0,0,0,0,0,0]","door_history":"[0,0,0,0,0,0,0]","location_rts":"[996,486,161,795,647,282,366]","trial_type":"two-door-navigation","trial_index":51,"time_elapsed":1188970,"internal_node_id":"0.0-2.0-49.0"},{"view_history":"[{\"page_index\":0,\"viewing_time\":1606}]","rt":1607,"trial_type":"instructions","trial_index":52,"time_elapsed":1191579,"internal_node_id":"0.0-3.0"},{"view_history":"[{\"page_index\":0,\"viewing_time\":6895},{\"page_index\":1,\"viewing_time\":1847}]","rt":8743,"trial_type":"instructions","trial_index":53,"time_elapsed":1201322,"internal_node_id":"0.0-4.0"},{"group":"tri cycles (cube, non-group)","fractal_assignment":["../images/blu_wht.png","../images/gry_blk.png","../images/org_blu.png","../images/pnk_blu.png","../images/grn_red.png","../images/ylw_pnk.png","../images/ylw_slt.png","../images/cyn_red.png"],"mutagen_generator_assignment":[1,0],"goal":5,"start":7,"action_noise":0.1,"location_history":"[7,6,5]","action_history":"[0,1]","mutagen_history":"[1,0]","location_rts":"[5786,922]","trial_type":"fractal-mutation","trial_index":54,"time_elapsed":1213615,"internal_node_id":"0.0-5.0-0.0"},{"group":"tri cycles (cube, non-group)","fractal_assignment":["../images/blu_wht.png","../images/gry_blk.png","../images/org_blu.png","../images/pnk_blu.png","../images/grn_red.png","../images/ylw_pnk.png","../images/ylw_slt.png","../images/cyn_red.png"],"mutagen_generator_assignment":[1,0],"goal":2,"start":5,"action_noise":0.1,"location_history":"[5,2]","action_history":"[1]","mutagen_history":"[0]","location_rts":"[1356]","trial_type":"fractal-mutation","trial_index":55,"time_elapsed":1219504,"internal_node_id":"0.0-5.0-1.0"},{"group":"tri cycles (cube, non-group)","fractal_assignment":["../images/blu_wht.png","../images/gry_blk.png","../images/org_blu.png","../images/pnk_blu.png","../images/grn_red.png","../images/ylw_pnk.png","../images/ylw_slt.png","../images/cyn_red.png"],"mutagen_generator_assignment":[1,0],"goal":0,"start":2,"action_noise":0.1,"location_history":"[2,1,0]","action_history":"[0,0]","mutagen_history":"[1,1]","location_rts":"[1109,698]","trial_type":"fractal-mutation","trial_index":56,"time_elapsed":1226906,"internal_node_id":"0.0-5.0-2.0"},{"group":"tri cycles (cube, non-group)","fractal_assignment":["../images/blu_wht.png","../images/gry_blk.png","../images/org_blu.png","../images/pnk_blu.png","../images/grn_red.png","../images/ylw_pnk.png","../images/ylw_slt.png","../images/cyn_red.png"],"mutagen_generator_assignment":[1,0],"goal":1,"start":0,"action_noise":0.1,"location_history":"[0,2,6,4,7,6,4,7,6,4,0,2,1]","action_history":"[0,0,0,0,0,0,0,0,0,1,0,0]","mutagen_history":"[1,1,1,1,1,1,1,1,1,0,1,1]","location_rts":"[859,495,566,660,627,586,642,647,567,553,652,513]","trial_type":"fractal-mutation","trial_index":57,"time_elapsed":1250247,"internal_node_id":"0.0-5.0-3.0"},{"group":"tri cycles (cube, non-group)","fractal_assignment":["../images/blu_wht.png","../images/gry_blk.png","../images/org_blu.png","../images/pnk_blu.png","../images/grn_red.png","../images/ylw_pnk.png","../images/ylw_slt.png","../images/cyn_red.png"],"mutagen_generator_assignment":[1,0],"goal":6,"start":1,"action_noise":0.1,"location_history":"[1,5,2,6]","action_history":"[1,1,1]","mutagen_history":"[0,0,0]","location_rts":"[973,586,589]","trial_type":"fractal-mutation","trial_index":58,"time_elapsed":1258987,"internal_node_id":"0.0-5.0-4.0"},{"group":"tri cycles (cube, non-group)","fractal_assignment":["../images/blu_wht.png","../images/gry_blk.png","../images/org_blu.png","../images/pnk_blu.png","../images/grn_red.png","../images/ylw_pnk.png","../images/ylw_slt.png","../images/cyn_red.png"],"mutagen_generator_assignment":[1,0],"goal":3,"start":6,"action_noise":0.1,"location_history":"[6,5,2,6,5,2,6,5,2,6,5,2,6,5,2,6,5,1,5,2,6,5,2,1,5,2,6,5,2,6,5,2,6,5,2,1,0,3]","action_history":"[1,1,1,1,1,1,1,1,1,1,1,1,1,1,1,1,1,1,1,1,1,1,0,1,1,1,1,1,1,1,1,1,1,1,1,0,1]","mutagen_history":"[0,0,0,0,0,0,0,0,0,0,0,0,0,0,0,0,0,0,0,0,0,0,1,0,0,0,0,0,0,0,0,0,0,0,0,1,0]","location_rts":"[808,515,469,685,479,424,726,2445,803,675,749,387,726,411,621,517,563,763,548,1278,654,718,873,419,324,316,453,7501,468,440,436,252,235,375,413,178,411]","trial_type":"fractal-mutation","trial_index":59,"time_elapsed":1329592,"internal_node_id":"0.0-5.0-5.0"},{"group":"tri cycles (cube, non-group)","fractal_assignment":["../images/blu_wht.png","../images/gry_blk.png","../images/org_blu.png","../images/pnk_blu.png","../images/grn_red.png","../images/ylw_pnk.png","../images/ylw_slt.png","../images/cyn_red.png"],"mutagen_generator_assignment":[1,0],"goal":4,"start":3,"action_noise":0.1,"location_history":"[3,4]","action_history":"[1]","mutagen_history":"[0]","location_rts":"[715]","trial_type":"fractal-mutation","trial_index":60,"time_elapsed":1334837,"internal_node_id":"0.0-5.0-6.0"},{"group":"tri cycles (cube, non-group)","fractal_assignment":["../images/blu_wht.png","../images/gry_blk.png","../images/org_blu.png","../images/pnk_blu.png","../images/grn_red.png","../images/ylw_pnk.png","../images/ylw_slt.png","../images/cyn_red.png"],"mutagen_generator_assignment":[1,0],"goal":1,"start":4,"action_noise":0.1,"location_history":"[4,7,3,7,6,4,7,6,4,7,3,7,6,4,7,6,4,7,6,4,7,6,5,1]","action_history":"[0,0,0,0,0,0,0,0,0,0,0,0,0,0,0,0,0,0,0,0,0,1,0]","mutagen_history":"[1,1,1,1,1,1,1,1,1,1,1,1,1,1,1,1,1,1,1,1,1,0,1]","location_rts":"[1055,483,382,392,281,428,194,490,336,339,787,514,698,921,924,774,564,743,794,3291,744,263,437]","trial_type":"fractal-mutation","trial_index":61,"time_elapsed":1378011,"internal_node_id":"0.0-5.0-7.0"},{"group":"tri cycles (cube, non-group)","fractal_assignment":["../images/blu_wht.png","../images/gry_blk.png","../images/org_blu.png","../images/pnk_blu.png","../images/grn_red.png","../images/ylw_pnk.png","../images/ylw_slt.png","../images/cyn_red.png"],"mutagen_generator_assignment":[1,0],"goal":4,"start":1,"action_noise":0.1,"location_history":"[1,0,2,6,5,2,1,0,2,1,5,2,1,0,2,6,4]","action_history":"[0,0,1,1,1,0,0,0,0,1,1,0,0,0,1,0]","mutagen_history":"[1,1,0,0,0,1,1,1,1,0,0,1,1,1,0,1]","location_rts":"[760,448,291,444,362,327,1598,301,308,472,565,2166,587,3666,384,571]","trial_type":"fractal-mutation","trial_index":62,"time_elapsed":1411313,"internal_node_id":"0.0-5.0-8.0"},{"group":"tri cycles (cube, non-group)","fractal_assignment":["../images/blu_wht.png","../images/gry_blk.png","../images/org_blu.png","../images/pnk_blu.png","../images/grn_red.png","../images/ylw_pnk.png","../images/ylw_slt.png","../images/cyn_red.png"],"mutagen_generator_assignment":[1,0],"goal":5,"start":4,"action_noise":0.1,"location_history":"[4,0,2,6,4,0,2,1,5]","action_history":"[1,0,1,0,0,0,0,0]","mutagen_history":"[0,1,0,1,1,1,1,1]","location_rts":"[970,692,1547,662,1011,736,426,621]","trial_type":"fractal-mutation","trial_index":63,"time_elapsed":1429757,"internal_node_id":"0.0-5.0-9.0"},{"group":"tri cycles (cube, non-group)","fractal_assignment":["../images/blu_wht.png","../images/gry_blk.png","../images/org_blu.png","../images/pnk_blu.png","../images/grn_red.png","../images/ylw_pnk.png","../images/ylw_slt.png","../images/cyn_red.png"],"mutagen_generator_assignment":[1,0],"goal":3,"start":5,"action_noise":0.1,"location_history":"[5,2,1,0,2,1,0,2,6,4,7,3]","action_history":"[1,0,0,0,0,0,0,1,0,0,0]","mutagen_history":"[0,1,1,1,1,1,1,0,1,1,1]","location_rts":"[813,478,840,586,479,1757,884,504,530,1117,388]","trial_type":"fractal-mutation","trial_index":64,"time_elapsed":1453031,"internal_node_id":"0.0-5.0-10.0"},{"group":"tri cycles (cube, non-group)","fractal_assignment":["../images/blu_wht.png","../images/gry_blk.png","../images/org_blu.png","../images/pnk_blu.png","../images/grn_red.png","../images/ylw_pnk.png","../images/ylw_slt.png","../images/cyn_red.png"],"mutagen_generator_assignment":[1,0],"goal":6,"start":3,"action_noise":0.1,"location_history":"[3,4,0,2,1,0,2,1,0,2,6]","action_history":"[1,0,0,0,0,0,0,0,0,0]","mutagen_history":"[0,1,1,1,1,1,1,1,1,1]","location_rts":"[883,455,697,50,131,470,114,828,315,50]","trial_type":"fractal-mutation","trial_index":65,"time_elapsed":1470885,"internal_node_id":"0.0-5.0-11.0"},{"group":"tri cycles (cube, non-group)","fractal_assignment":["../images/blu_wht.png","../images/gry_blk.png","../images/org_blu.png","../images/pnk_blu.png","../images/grn_red.png","../images/ylw_pnk.png","../images/ylw_slt.png","../images/cyn_red.png"],"mutagen_generator_assignment":[1,0],"goal":7,"start":6,"action_noise":0.1,"location_history":"[6,5,1,0,2,1,5,2,1,0,3,7]","action_history":"[1,0,0,0,0,1,1,0,0,1,0]","mutagen_history":"[0,1,1,1,1,0,0,1,1,0,1]","location_rts":"[974,557,511,555,587,355,372,653,637,493,675]","trial_type":"fractal-mutation","trial_index":66,"time_elapsed":1492124,"internal_node_id":"0.0-5.0-12.0"},{"group":"tri cycles (cube, non-group)","fractal_assignment":["../images/blu_wht.png","../images/gry_blk.png","../images/org_blu.png","../images/pnk_blu.png","../images/grn_red.png","../images/ylw_pnk.png","../images/ylw_slt.png","../images/cyn_red.png"],"mutagen_generator_assignment":[1,0],"goal":0,"start":7,"action_noise":0.1,"location_history":"[7,6,4,7,6,4,0]","action_history":"[0,0,0,0,0,0]","mutagen_history":"[1,1,1,1,1,1]","location_rts":"[807,433,452,487,331,396]","trial_type":"fractal-mutation","trial_index":67,"time_elapsed":1504761,"internal_node_id":"0.0-5.0-13.0"},{"group":"tri cycles (cube, non-group)","fractal_assignment":["../images/blu_wht.png","../images/gry_blk.png","../images/org_blu.png","../images/pnk_blu.png","../images/grn_red.png","../images/ylw_pnk.png","../images/ylw_slt.png","../images/cyn_red.png"],"mutagen_generator_assignment":[1,0],"goal":2,"start":0,"action_noise":0.1,"location_history":"[0,3,7,3,4,7,3,4,0,3,4,0,3,7,6,4,7,6,4,7,6,4,0,3,4,0,3,4,7,3,7,6,4,0,3,7,3,7,6,4,7,3,4,0,3,4,7,6,4,0,3,7,3,4,7,6,4,0,3,4,7,3,7,6,5,2]","action_history":"[1,0,1,0,0,1,1,1,1,1,1,1,0,0,0,0,0,0,0,0,0,1,1,1,0,1,1,0,1,0,0,0,1,1,0,1,0,0,0,0,1,1,0,1,1,0,0,0,1,1,1,1,1,0,0,0,1,1,1,0,0,0,0,0,1]","mutagen_history":"[0,1,0,1,1,0,0,0,0,0,0,0,1,1,1,1,1,1,1,1,1,0,0,0,1,0,0,1,0,1,1,1,0,0,1,0,1,1,1,1,0,0,1,0,0,1,1,1,0,0,0,0,0,1,1,1,0,0,0,1,1,1,1,1,0]","location_rts":"[649,772,286,707,1539,316,477,341,477,364,574,612,858,2113,865,738,929,1947,626,849,642,163,389,772,2652,562,13638,438,428,1134,574,1147,575,405,7908,336,911,415,105,836,804,621,372,845,444,413,368,327,635,364,751,421,453,502,588,316,470,401,446,451,604,501,429,238,1639]","trial_type":"fractal-mutation","trial_index":68,"time_elapsed":1638810,"internal_node_id":"0.0-5.0-14.0"},{"group":"tri cycles (cube, non-group)","fractal_assignment":["../images/blu_wht.png","../images/gry_blk.png","../images/org_blu.png","../images/pnk_blu.png","../images/grn_red.png","../images/ylw_pnk.png","../images/ylw_slt.png","../images/cyn_red.png"],"mutagen_generator_assignment":[1,0],"goal":1,"start":2,"action_noise":0.1,"location_history":"[2,1]","action_history":"[0]","mutagen_history":"[1]","location_rts":"[1080]","trial_type":"fractal-mutation","trial_index":69,"time_elapsed":1644429,"internal_node_id":"0.0-5.0-15.0"},{"group":"tri cycles (cube, non-group)","fractal_assignment":["../images/blu_wht.png","../images/gry_blk.png","../images/org_blu.png","../images/pnk_blu.png","../images/grn_red.png","../images/ylw_pnk.png","../images/ylw_slt.png","../images/cyn_red.png"],"mutagen_generator_assignment":[1,0],"goal":6,"start":1,"action_noise":0.1,"location_history":"[1,0,2,6]","action_history":"[0,0,1]","mutagen_history":"[1,1,0]","location_rts":"[901,491,811]","trial_type":"fractal-mutation","trial_index":70,"time_elapsed":1653239,"internal_node_id":"0.0-5.0-16.0"},{"group":"tri cycles (cube, non-group)","fractal_assignment":["../images/blu_wht.png","../images/gry_blk.png","../images/org_blu.png","../images/pnk_blu.png","../images/grn_red.png","../images/ylw_pnk.png","../images/ylw_slt.png","../images/cyn_red.png"],"mutagen_generator_assignment":[1,0],"goal":3,"start":6,"action_noise":0.1,"location_history":"[6,5,1,5,2,6,5,2,1,5,2,6,5,1,0,3]","action_history":"[1,0,1,1,1,1,1,1,1,1,1,1,1,0,1]","mutagen_history":"[0,1,0,0,0,0,0,0,0,0,0,0,0,1,0]","location_rts":"[962,982,1266,478,862,547,595,480,754,290,3525,625,618,1027,684]","trial_type":"fractal-mutation","trial_index":71,"time_elapsed":1685884,"internal_node_id":"0.0-5.0-17.0"},{"group":"tri cycles (cube, non-group)","fractal_assignment":["../images/blu_wht.png","../images/gry_blk.png","../images/org_blu.png","../images/pnk_blu.png","../images/grn_red.png","../images/ylw_pnk.png","../images/ylw_slt.png","../images/cyn_red.png"],"mutagen_generator_assignment":[1,0],"goal":4,"start":3,"action_noise":0.1,"location_history":"[3,7,6,4]","action_history":"[0,0,0]","mutagen_history":"[1,1,1]","location_rts":"[797,591,704]","trial_type":"fractal-mutation","trial_index":72,"time_elapsed":1694598,"internal_node_id":"0.0-5.0-18.0"},{"group":"tri cycles (cube, non-group)","fractal_assignment":["../images/blu_wht.png","../images/gry_blk.png","../images/org_blu.png","../images/pnk_blu.png","../images/grn_red.png","../images/ylw_pnk.png","../images/ylw_slt.png","../images/cyn_red.png"],"mutagen_generator_assignment":[1,0],"goal":5,"start":4,"action_noise":0.1,"location_history":"[4,0,2,6,4,7,6,4,7,3,7,6,4,7,6,4,7,6,4,7,6,4,7,6,5]","action_history":"[0,0,1,0,0,0,0,0,1,0,0,0,0,1,0,0,0,0,0,0,0,0,0,1]","mutagen_history":"[1,1,0,1,1,1,1,1,0,1,1,1,1,0,1,1,1,1,1,1,1,1,1,0]","location_rts":"[995,659,705,3628,545,657,582,563,721,575,444,476,447,697,504,810,593,837,522,483,613,663,572,1496]","trial_type":"fractal-mutation","trial_index":73,"time_elapsed":1741764,"internal_node_id":"0.0-5.0-19.0"},{"group":"tri cycles (cube, non-group)","fractal_assignment":["../images/blu_wht.png","../images/gry_blk.png","../images/org_blu.png","../images/pnk_blu.png","../images/grn_red.png","../images/ylw_pnk.png","../images/ylw_slt.png","../images/cyn_red.png"],"mutagen_generator_assignment":[1,0],"goal":7,"start":5,"action_noise":0.1,"location_history":"[5,1,5,1,0,2,1,0,2,6,5,1,0,2,1,0,2,1,0,2,1,5,1,0,2,1,0,2,1,5,1,0,2,1,0,3,7]","action_history":"[0,1,0,0,0,0,0,0,0,0,0,0,0,0,1,0,0,0,0,0,1,0,0,0,0,0,0,0,1,0,0,0,0,0,0,0]","mutagen_history":"[1,0,1,1,1,1,1,1,1,1,1,1,1,1,0,1,1,1,1,1,0,1,1,1,1,1,1,1,0,1,1,1,1,1,1,1]","location_rts":"[4188,564,724,620,533,467,461,468,555,528,477,512,458,491,489,605,577,773,605,1089,724,676,700,628,504,579,644,578,888,678,788,459,523,591,473,741]","trial_type":"fractal-mutation","trial_index":74,"time_elapsed":1807910,"internal_node_id":"0.0-5.0-20.0"},{"group":"tri cycles (cube, non-group)","fractal_assignment":["../images/blu_wht.png","../images/gry_blk.png","../images/org_blu.png","../images/pnk_blu.png","../images/grn_red.png","../images/ylw_pnk.png","../images/ylw_slt.png","../images/cyn_red.png"],"mutagen_generator_assignment":[1,0],"goal":2,"start":7,"action_noise":0.1,"location_history":"[7,6,4,7,6,5,2]","action_history":"[0,0,0,0,1,1]","mutagen_history":"[1,1,1,1,0,0]","location_rts":"[801,462,485,610,491,740]","trial_type":"fractal-mutation","trial_index":75,"time_elapsed":1821211,"internal_node_id":"0.0-5.0-21.0"},{"group":"tri cycles (cube, non-group)","fractal_assignment":["../images/blu_wht.png","../images/gry_blk.png","../images/org_blu.png","../images/pnk_blu.png","../images/grn_red.png","../images/ylw_pnk.png","../images/ylw_slt.png","../images/cyn_red.png"],"mutagen_generator_assignment":[1,0],"goal":0,"start":2,"action_noise":0.1,"location_history":"[2,1,0]","action_history":"[0,0]","mutagen_history":"[1,1]","location_rts":"[853,525]","trial_type":"fractal-mutation","trial_index":76,"time_elapsed":1828167,"internal_node_id":"0.0-5.0-22.0"},{"group":"tri cycles (cube, non-group)","fractal_assignment":["../images/blu_wht.png","../images/gry_blk.png","../images/org_blu.png","../images/pnk_blu.png","../images/grn_red.png","../images/ylw_pnk.png","../images/ylw_slt.png","../images/cyn_red.png"],"mutagen_generator_assignment":[1,0],"goal":7,"start":0,"action_noise":0.1,"location_history":"[0,2,1,0,3,7]","action_history":"[0,0,0,0,0]","mutagen_history":"[1,1,1,1,1]","location_rts":"[746,509,522,739,590]","trial_type":"fractal-mutation","trial_index":77,"time_elapsed":1839973,"internal_node_id":"0.0-5.0-23.0"},{"group":"tri cycles (cube, non-group)","fractal_assignment":["../images/blu_wht.png","../images/gry_blk.png","../images/org_blu.png","../images/pnk_blu.png","../images/grn_red.png","../images/ylw_pnk.png","../images/ylw_slt.png","../images/cyn_red.png"],"mutagen_generator_assignment":[1,0],"goal":5,"start":7,"action_noise":0.1,"location_history":"[7,3,7,6,4,7,6,4,0,3,7,6,4,7,6,4,7,6,4,0,2,1,0,2,1,0,2,1,0,3,4,7,3,4,0,2,1,5]","action_history":"[0,0,0,0,0,0,0,0,1,0,0,0,0,0,0,0,0,0,1,0,0,0,0,0,0,0,0,0,0,0,0,0,0,1,0,0,1]","mutagen_history":"[1,1,1,1,1,1,1,1,0,1,1,1,1,1,1,1,1,1,0,1,1,1,1,1,1,1,1,1,1,1,1,1,1,0,1,1,0]","location_rts":"[794,481,538,479,510,520,508,566,617,564,664,494,595,570,515,650,615,780,687,499,557,645,575,645,524,466,480,451,493,498,301,435,440,99,573,650,533]","trial_type":"fractal-mutation","trial_index":78,"time_elapsed":1901803,"internal_node_id":"0.0-5.0-24.0"},{"group":"tri cycles (cube, non-group)","fractal_assignment":["../images/blu_wht.png","../images/gry_blk.png","../images/org_blu.png","../images/pnk_blu.png","../images/grn_red.png","../images/ylw_pnk.png","../images/ylw_slt.png","../images/cyn_red.png"],"mutagen_generator_assignment":[1,0],"goal":0,"start":5,"action_noise":0.1,"location_history":"[5,1,0]","action_history":"[0,0]","mutagen_history":"[1,1]","location_rts":"[711,533]","trial_type":"fractal-mutation","trial_index":79,"time_elapsed":1908622,"internal_node_id":"0.0-5.0-25.0"},{"group":"tri cycles (cube, non-group)","fractal_assignment":["../images/blu_wht.png","../images/gry_blk.png","../images/org_blu.png","../images/pnk_blu.png","../images/grn_red.png","../images/ylw_pnk.png","../images/ylw_slt.png","../images/cyn_red.png"],"mutagen_generator_assignment":[1,0],"goal":6,"start":0,"action_noise":0.1,"location_history":"[0,2,1,0,2,1,0,2,6]","action_history":"[0,0,0,0,0,0,0,1]","mutagen_history":"[1,1,1,1,1,1,1,0]","location_rts":"[946,613,387,347,625,635,252,29]","trial_type":"fractal-mutation","trial_index":80,"time_elapsed":1924234,"internal_node_id":"0.0-5.0-26.0"},{"group":"tri cycles (cube, non-group)","fractal_assignment":["../images/blu_wht.png","../images/gry_blk.png","../images/org_blu.png","../images/pnk_blu.png","../images/grn_red.png","../images/ylw_pnk.png","../images/ylw_slt.png","../images/cyn_red.png"],"mutagen_generator_assignment":[1,0],"goal":4,"start":6,"action_noise":0.1,"location_history":"[6,4]","action_history":"[0]","mutagen_history":"[1]","location_rts":"[806]","trial_type":"fractal-mutation","trial_index":81,"time_elapsed":1929581,"internal_node_id":"0.0-5.0-27.0"},{"group":"tri cycles (cube, non-group)","fractal_assignment":["../images/blu_wht.png","../images/gry_blk.png","../images/org_blu.png","../images/pnk_blu.png","../images/grn_red.png","../images/ylw_pnk.png","../images/ylw_slt.png","../images/cyn_red.png"],"mutagen_generator_assignment":[1,0],"goal":2,"start":4,"action_noise":0.1,"location_history":"[4,7,3,4,0,2]","action_history":"[0,1,1,1,0]","mutagen_history":"[1,0,0,0,1]","location_rts":"[5227,433,701,573,557]","trial_type":"fractal-mutation","trial_index":82,"time_elapsed":1945735,"internal_node_id":"0.0-5.0-28.0"},{"group":"tri cycles (cube, non-group)","fractal_assignment":["../images/blu_wht.png","../images/gry_blk.png","../images/org_blu.png","../images/pnk_blu.png","../images/grn_red.png","../images/ylw_pnk.png","../images/ylw_slt.png","../images/cyn_red.png"],"mutagen_generator_assignment":[1,0],"goal":3,"start":2,"action_noise":0.1,"location_history":"[2,6,5,2,6,5,2,6,5,2,6,4,7,3]","action_history":"[1,1,1,1,1,1,1,1,1,1,0,1,1]","mutagen_history":"[0,0,0,0,0,0,0,0,0,0,1,0,0]","location_rts":"[793,522,478,640,621,402,308,426,566,555,489,499,556]","trial_type":"fractal-mutation","trial_index":83,"time_elapsed":1969471,"internal_node_id":"0.0-5.0-29.0"},{"group":"tri cycles (cube, non-group)","fractal_assignment":["../images/blu_wht.png","../images/gry_blk.png","../images/org_blu.png","../images/pnk_blu.png","../images/grn_red.png","../images/ylw_pnk.png","../images/ylw_slt.png","../images/cyn_red.png"],"mutagen_generator_assignment":[1,0],"goal":1,"start":3,"action_noise":0.1,"location_history":"[3,7,6,4,7,6,4,7,6,5,1]","action_history":"[0,0,0,0,0,0,0,0,1,0]","mutagen_history":"[1,1,1,1,1,1,1,1,0,1]","location_rts":"[742,418,442,392,518,451,433,489,399,420]","trial_type":"fractal-mutation","trial_index":84,"time_elapsed":1988055,"internal_node_id":"0.0-5.0-30.0"},{"group":"tri cycles (cube, non-group)","fractal_assignment":["../images/blu_wht.png","../images/gry_blk.png","../images/org_blu.png","../images/pnk_blu.png","../images/grn_red.png","../images/ylw_pnk.png","../images/ylw_slt.png","../images/cyn_red.png"],"mutagen_generator_assignment":[1,0],"goal":4,"start":1,"action_noise":0.1,"location_history":"[1,0,2,1,5,1,5,2,6,4]","action_history":"[0,0,0,1,0,1,1,1,0]","mutagen_history":"[1,1,1,0,1,0,0,0,1]","location_rts":"[744,2725,1844,451,755,680,308,234,923]","trial_type":"fractal-mutation","trial_index":85,"time_elapsed":2009520,"internal_node_id":"0.0-5.0-31.0"},{"group":"tri cycles (cube, non-group)","fractal_assignment":["../images/blu_wht.png","../images/gry_blk.png","../images/org_blu.png","../images/pnk_blu.png","../images/grn_red.png","../images/ylw_pnk.png","../images/ylw_slt.png","../images/cyn_red.png"],"mutagen_generator_assignment":[1,0],"goal":3,"start":4,"action_noise":0.1,"location_history":"[4,7,6,4,0,3]","action_history":"[1,0,1,1,1]","mutagen_history":"[0,1,0,0,0]","location_rts":"[871,659,338,399,347]","trial_type":"fractal-mutation","trial_index":86,"time_elapsed":2020783,"internal_node_id":"0.0-5.0-32.0"},{"group":"tri cycles (cube, non-group)","fractal_assignment":["../images/blu_wht.png","../images/gry_blk.png","../images/org_blu.png","../images/pnk_blu.png","../images/grn_red.png","../images/ylw_pnk.png","../images/ylw_slt.png","../images/cyn_red.png"],"mutagen_generator_assignment":[1,0],"goal":6,"start":3,"action_noise":0.1,"location_history":"[3,7,6]","action_history":"[0,0]","mutagen_history":"[1,1]","location_rts":"[848,475]","trial_type":"fractal-mutation","trial_index":87,"time_elapsed":2027682,"internal_node_id":"0.0-5.0-33.0"},{"group":"tri cycles (cube, non-group)","fractal_assignment":["../images/blu_wht.png","../images/gry_blk.png","../images/org_blu.png","../images/pnk_blu.png","../images/grn_red.png","../images/ylw_pnk.png","../images/ylw_slt.png","../images/cyn_red.png"],"mutagen_generator_assignment":[1,0],"goal":0,"start":6,"action_noise":0.1,"location_history":"[6,4,7,6,4,7,3,4,7,6,4,7,6,4,7,3,7,6,4,7,3,7,6,4,7,6,4,7,6,4,7,6,4,7,3,7,6,4,7,3,7,6,4,7,6,4,7,6,4,7,6,4,7,6,5,2,1,0]","action_history":"[0,0,0,0,0,0,0,0,0,0,0,0,0,0,1,0,0,0,0,1,0,0,0,0,0,0,0,0,0,0,0,0,0,1,0,0,0,0,0,0,0,0,0,0,0,0,0,0,0,0,0,0,0,1,0,0,0]","mutagen_history":"[1,1,1,1,1,1,1,1,1,1,1,1,1,1,0,1,1,1,1,0,1,1,1,1,1,1,1,1,1,1,1,1,1,0,1,1,1,1,1,1,1,1,1,1,1,1,1,1,1,1,1,1,1,0,1,1,1]","location_rts":"[1044,314,289,580,466,275,621,242,754,437,668,1920,1042,1385,369,645,426,407,459,477,542,256,102,546,2350,49,1538,397,627,2700,48,1996,499,542,404,166,793,1114,116,636,6203,1068,889,135,1060,950,1185,957,444,744,451,385,352,202,460,602,562]","trial_type":"fractal-mutation","trial_index":88,"time_elapsed":2135157,"internal_node_id":"0.0-5.0-34.0"},{"group":"tri cycles (cube, non-group)","fractal_assignment":["../images/blu_wht.png","../images/gry_blk.png","../images/org_blu.png","../images/pnk_blu.png","../images/grn_red.png","../images/ylw_pnk.png","../images/ylw_slt.png","../images/cyn_red.png"],"mutagen_generator_assignment":[1,0],"goal":1,"start":0,"action_noise":0.1,"location_history":"[0,2,1]","action_history":"[0,0]","mutagen_history":"[1,1]","location_rts":"[817,452]","trial_type":"fractal-mutation","trial_index":89,"time_elapsed":2142001,"internal_node_id":"0.0-5.0-35.0"},{"group":"tri cycles (cube, non-group)","fractal_assignment":["../images/blu_wht.png","../images/gry_blk.png","../images/org_blu.png","../images/pnk_blu.png","../images/grn_red.png","../images/ylw_pnk.png","../images/ylw_slt.png","../images/cyn_red.png"],"mutagen_generator_assignment":[1,0],"goal":5,"start":1,"action_noise":0.1,"location_history":"[1,0,3,7,6,5]","action_history":"[0,1,0,0,0]","mutagen_history":"[1,0,1,1,1]","location_rts":"[717,579,429,336,481]","trial_type":"fractal-mutation","trial_index":90,"time_elapsed":2153228,"internal_node_id":"0.0-5.0-36.0"},{"group":"tri cycles (cube, non-group)","fractal_assignment":["../images/blu_wht.png","../images/gry_blk.png","../images/org_blu.png","../images/pnk_blu.png","../images/grn_red.png","../images/ylw_pnk.png","../images/ylw_slt.png","../images/cyn_red.png"],"mutagen_generator_assignment":[1,0],"goal":7,"start":5,"action_noise":0.1,"location_history":"[5,2,1,0,2,1,5,1,0,2,1,0,3,7]","action_history":"[0,0,0,0,0,0,0,0,0,0,0,1,0]","mutagen_history":"[1,1,1,1,1,1,1,1,1,1,1,0,1]","location_rts":"[794,692,354,529,465,201,424,834,868,176,807,553,571]","trial_type":"fractal-mutation","trial_index":91,"time_elapsed":2177500,"internal_node_id":"0.0-5.0-37.0"},{"group":"tri cycles (cube, non-group)","fractal_assignment":["../images/blu_wht.png","../images/gry_blk.png","../images/org_blu.png","../images/pnk_blu.png","../images/grn_red.png","../images/ylw_pnk.png","../images/ylw_slt.png","../images/cyn_red.png"],"mutagen_generator_assignment":[1,0],"goal":2,"start":7,"action_noise":0.1,"location_history":"[7,6,4,7,6,4,7,3,4,7,6,4,7,3,7,6,4,7,6,4,7,6,4,0,3,7,6,4,7,6,4,0,3,7,3,7,3,7,3,7,6,4,7,6,4,7,6,5,1,5,1,0,2]","action_history":"[0,0,0,0,0,0,1,1,0,0,0,0,0,0,0,0,0,0,0,0,0,0,1,0,0,0,0,0,0,0,1,0,0,0,0,1,0,0,0,0,0,0,0,0,0,0,0,0,1,0,0,0]","mutagen_history":"[1,1,1,1,1,1,0,0,1,1,1,1,1,1,1,1,1,1,1,1,1,1,0,1,1,1,1,1,1,1,0,1,1,1,1,0,1,1,1,1,1,1,1,1,1,1,1,1,0,1,1,1]","location_rts":"[818,1029,570,261,256,135,632,559,562,1027,459,440,476,498,225,85,604,706,12,1050,418,2278,572,620,244,2755,699,426,460,29,234,2737,617,73,547,454,424,351,810,322,384,589,348,880,116,510,773,761,405,2213,252,404]","trial_type":"fractal-mutation","trial_index":92,"time_elapsed":2268035,"internal_node_id":"0.0-5.0-38.0"},{"group":"tri cycles (cube, non-group)","fractal_assignment":["../images/blu_wht.png","../images/gry_blk.png","../images/org_blu.png","../images/pnk_blu.png","../images/grn_red.png","../images/ylw_pnk.png","../images/ylw_slt.png","../images/cyn_red.png"],"mutagen_generator_assignment":[1,0],"goal":1,"start":2,"action_noise":0.1,"location_history":"[2,1]","action_history":"[0]","mutagen_history":"[1]","location_rts":"[681]","trial_type":"fractal-mutation","trial_index":93,"time_elapsed":2273257,"internal_node_id":"0.0-5.0-39.0"},{"group":"tri cycles (cube, non-group)","fractal_assignment":["../images/blu_wht.png","../images/gry_blk.png","../images/org_blu.png","../images/pnk_blu.png","../images/grn_red.png","../images/ylw_pnk.png","../images/ylw_slt.png","../images/cyn_red.png"],"mutagen_generator_assignment":[1,0],"goal":3,"start":1,"action_noise":0.1,"location_history":"[1,5,1,5,1,5,1,0,2,1,0,2,1,0,3]","action_history":"[1,0,1,0,1,0,0,0,0,0,1,0,0,0]","mutagen_history":"[0,1,0,1,0,1,1,1,1,1,0,1,1,1]","location_rts":"[931,633,418,997,615,1214,656,434,338,529,882,485,611,909]","trial_type":"fractal-mutation","trial_index":94,"time_elapsed":2300897,"internal_node_id":"0.0-5.0-40.0"},{"group":"tri cycles (cube, non-group)","fractal_assignment":["../images/blu_wht.png","../images/gry_blk.png","../images/org_blu.png","../images/pnk_blu.png","../images/grn_red.png","../images/ylw_pnk.png","../images/ylw_slt.png","../images/cyn_red.png"],"mutagen_generator_assignment":[1,0],"goal":4,"start":3,"action_noise":0.1,"location_history":"[3,4]","action_history":"[1]","mutagen_history":"[0]","location_rts":"[1124]","trial_type":"fractal-mutation","trial_index":95,"time_elapsed":2306551,"internal_node_id":"0.0-5.0-41.0"},{"group":"tri cycles (cube, non-group)","fractal_assignment":["../images/blu_wht.png","../images/gry_blk.png","../images/org_blu.png","../images/pnk_blu.png","../images/grn_red.png","../images/ylw_pnk.png","../images/ylw_slt.png","../images/cyn_red.png"],"mutagen_generator_assignment":[1,0],"goal":2,"start":4,"action_noise":0.1,"location_history":"[4,0,2]","action_history":"[0,0]","mutagen_history":"[1,1]","location_rts":"[207,659]","trial_type":"fractal-mutation","trial_index":96,"time_elapsed":2312993,"internal_node_id":"0.0-5.0-42.0"},{"group":"tri cycles (cube, non-group)","fractal_assignment":["../images/blu_wht.png","../images/gry_blk.png","../images/org_blu.png","../images/pnk_blu.png","../images/grn_red.png","../images/ylw_pnk.png","../images/ylw_slt.png","../images/cyn_red.png"],"mutagen_generator_assignment":[1,0],"goal":5,"start":2,"action_noise":0.1,"location_history":"[2,1,0,2,1,0,2,1,0,2,1,0,2,6,5]","action_history":"[0,0,0,0,0,0,0,0,0,0,0,0,1,1]","mutagen_history":"[1,1,1,1,1,1,1,1,1,1,1,1,0,0]","location_rts":"[868,463,517,566,488,457,230,514,344,2348,934,10,738,524]","trial_type":"fractal-mutation","trial_index":97,"time_elapsed":2339991,"internal_node_id":"0.0-5.0-43.0"},{"group":"tri cycles (cube, non-group)","fractal_assignment":["../images/blu_wht.png","../images/gry_blk.png","../images/org_blu.png","../images/pnk_blu.png","../images/grn_red.png","../images/ylw_pnk.png","../images/ylw_slt.png","../images/cyn_red.png"],"mutagen_generator_assignment":[1,0],"goal":0,"start":5,"action_noise":0.1,"location_history":"[5,1,0]","action_history":"[0,0]","mutagen_history":"[1,1]","location_rts":"[1222,581]","trial_type":"fractal-mutation","trial_index":98,"time_elapsed":2347366,"internal_node_id":"0.0-5.0-44.0"},{"group":"tri cycles (cube, non-group)","fractal_assignment":["../images/blu_wht.png","../images/gry_blk.png","../images/org_blu.png","../images/pnk_blu.png","../images/grn_red.png","../images/ylw_pnk.png","../images/ylw_slt.png","../images/cyn_red.png"],"mutagen_generator_assignment":[1,0],"goal":7,"start":0,"action_noise":0.1,"location_history":"[0,3,7]","action_history":"[1,0]","mutagen_history":"[0,1]","location_rts":"[766,638]","trial_type":"fractal-mutation","trial_index":99,"time_elapsed":2354336,"internal_node_id":"0.0-5.0-45.0"},{"group":"tri cycles (cube, non-group)","fractal_assignment":["../images/blu_wht.png","../images/gry_blk.png","../images/org_blu.png","../images/pnk_blu.png","../images/grn_red.png","../images/ylw_pnk.png","../images/ylw_slt.png","../images/cyn_red.png"],"mutagen_generator_assignment":[1,0],"goal":6,"start":7,"action_noise":0.1,"location_history":"[7,6]","action_history":"[0]","mutagen_history":"[1]","location_rts":"[971]","trial_type":"fractal-mutation","trial_index":100,"time_elapsed":2359851,"internal_node_id":"0.0-5.0-46.0"},{"group":"tri cycles (cube, non-group)","fractal_assignment":["../images/blu_wht.png","../images/gry_blk.png","../images/org_blu.png","../images/pnk_blu.png","../images/grn_red.png","../images/ylw_pnk.png","../images/ylw_slt.png","../images/cyn_red.png"],"mutagen_generator_assignment":[1,0],"goal":2,"start":6,"action_noise":0.1,"location_history":"[6,5,2]","action_history":"[1,1]","mutagen_history":"[0,0]","location_rts":"[1034,556]","trial_type":"fractal-mutation","trial_index":101,"time_elapsed":2366999,"internal_node_id":"0.0-5.0-47.0"},{"group":"tri cycles (cube, non-group)","fractal_assignment":["../images/blu_wht.png","../images/gry_blk.png","../images/org_blu.png","../images/pnk_blu.png","../images/grn_red.png","../images/ylw_pnk.png","../images/ylw_slt.png","../images/cyn_red.png"],"mutagen_generator_assignment":[1,0],"goal":5,"start":2,"action_noise":0.1,"location_history":"[2,6,4,7,6,4,0,2,6,4,7,6,4,7,6,5]","action_history":"[1,0,0,0,0,1,0,0,0,0,0,0,0,0,1]","mutagen_history":"[0,1,1,1,1,0,1,1,1,1,1,1,1,1,0]","location_rts":"[1061,565,545,2054,670,953,603,748,598,519,479,556,686,953,758]","trial_type":"fractal-mutation","trial_index":102,"time_elapsed":2397776,"internal_node_id":"0.0-5.0-48.0"},{"group":"tri cycles (cube, non-group)","fractal_assignment":["../images/blu_wht.png","../images/gry_blk.png","../images/org_blu.png","../images/pnk_blu.png","../images/grn_red.png","../images/ylw_pnk.png","../images/ylw_slt.png","../images/cyn_red.png"],"mutagen_generator_assignment":[1,0],"goal":3,"start":5,"action_noise":0.1,"location_history":"[5,2,6,5,2,6,5,2,1,0,2,1,0,2,1,0,2,1,0,3]","action_history":"[1,1,1,1,1,1,1,0,0,0,0,0,0,0,0,0,0,0,1]","mutagen_history":"[0,0,0,0,0,0,0,1,1,1,1,1,1,1,1,1,1,1,0]","location_rts":"[964,733,1291,661,514,548,534,1149,587,730,485,565,529,510,955,636,464,601,698]","trial_type":"fractal-mutation","trial_index":103,"time_elapsed":2434058,"internal_node_id":"0.0-5.0-49.0"},{"view_history":"[{\"page_index\":0,\"viewing_time\":4427}]","rt":4427,"trial_type":"instructions","trial_index":104,"time_elapsed":2439486,"internal_node_id":"0.0-6.0"},{"rt":28993,"responses":"{\"Q0\":\"Learning to connect the color path.\"}","trial_type":"survey-text","trial_index":105,"time_elapsed":2469485,"internal_node_id":"0.0-7.0-0.0"},{"rt":51655,"responses":"{\"Q0\":\"Learning to connect the patterns and what effect either choice would cause the appropriate pattern.\"}","trial_type":"survey-text","trial_index":106,"time_elapsed":2522143,"internal_node_id":"0.0-7.0-1.0"},{"rt":39189,"responses":"{\"Q0\":\"<img src='../images/diagrams/square_cycles.png'>\"}","trial_type":"survey-multi-choice","trial_index":107,"time_elapsed":2562341,"internal_node_id":"0.0-7.0-2.0"},{"rt":28001,"assignments":["../images/ylw_pnk.png","../images/org_blu.png","../images/grn_red.png","../images/pnk_blu.png","../images/ylw_slt.png","../images/gry_blk.png","../images/blu_wht.png","../images/cyn_red.png"],"trial_type":"drag-drop-on-image","trial_index":108,"time_elapsed":2591345,"internal_node_id":"0.0-7.0-3.0"},{"rt":6270,"responses":"{\"Q0\":\"2\"}","trial_type":"survey-likert","trial_index":109,"time_elapsed":2598620,"internal_node_id":"0.0-7.0-4.0"},{"rt":48377,"responses":"{\"Q0\":\"The pattern remained the same, a certain choice on a certain color or pattern usually resulted in the same outcome.\"}","trial_type":"survey-text","trial_index":110,"time_elapsed":2648001,"internal_node_id":"0.0-7.0-5.0"},{"rt":4326,"responses":"{\"Q0\":\"Yes\"}","trial_type":"survey-multi-choice","trial_index":111,"time_elapsed":2653333,"internal_node_id":"0.0-7.0-6.0"},{"rt":17791,"responses":"{\"Q0\":\"Between sessions 2 and 3\"}","trial_type":"survey-multi-choice","trial_index":112,"time_elapsed":2672131,"internal_node_id":"0.0-7.0-7.0"},{"rt":5608,"responses":"{\"Q0\":\"\"}","trial_type":"survey-text","trial_index":113,"time_elapsed":2678740,"internal_node_id":"0.0-7.0-8.0"},{"rt":7813,"responses":"{\"Q0\":\"3\"}","trial_type":"survey-likert","trial_index":114,"time_elapsed":2687557,"internal_node_id":"0.0-7.0-9.0"},{"rt":10525,"responses":"{\"Q0\":\"Same structure\"}","trial_type":"survey-multi-choice","trial_index":115,"time_elapsed":2699086,"internal_node_id":"0.0-7.0-10.0"},{"rt":46021,"responses":"{\"Q0\":\"left (black) door = ray, (white) door = acid\",\"Q1\":\"Not at all confident\"}","trial_type":"survey-multi-choice","trial_index":116,"time_elapsed":2746116,"internal_node_id":"0.0-7.0-11.0"},{"rt":8687,"responses":"{\"Q0\":\"25-35\",\"Q1\":\"High school degree or GED\",\"Q2\":\"Male\",\"Q3\":\"White\"}","trial_type":"survey-multi-choice","trial_index":117,"time_elapsed":2755820,"internal_node_id":"0.0-8.0"},{"rt":1862,"responses":"{\"Q0\":\"\"}","trial_type":"survey-text","trial_index":118,"time_elapsed":2758685,"internal_node_id":"0.0-9.0"}]