[{"view_history":"[{\"page_index\":0,\"viewing_time\":29373},{\"page_index\":1,\"viewing_time\":4708}]","rt":34084,"trial_type":"instructions","trial_index":0,"time_elapsed":34086,"internal_node_id":"0.0-0.0"},{"view_history":"[{\"page_index\":0,\"viewing_time\":3046},{\"page_index\":1,\"viewing_time\":122568}]","rt":125618,"trial_type":"instructions","trial_index":1,"time_elapsed":160707,"internal_node_id":"0.0-1.0"},{"group":"square cycles (cube, non-group)","room_assignment":["pink","brown","yellow","grey","purple","red","green","blue"],"door_color_assignment":["black","white"],"door_generator_assignment":[0,1],"goal":5,"start":7,"action_noise":0.1,"location_history":"[7,6,5]","action_history":"[0,0]","door_history":"[0,0]","location_rts":"[17993,511]","trial_type":"two-door-navigation","trial_index":2,"time_elapsed":185133,"internal_node_id":"0.0-2.0-0.0"},{"group":"square cycles (cube, non-group)","room_assignment":["pink","brown","yellow","grey","purple","red","green","blue"],"door_color_assignment":["black","white"],"door_generator_assignment":[0,1],"goal":2,"start":5,"action_noise":0.1,"location_history":"[5,4,7,6,5,4,5,1,2]","action_history":"[0,0,0,0,0,1,1,1]","door_history":"[0,0,0,0,0,1,1,1]","location_rts":"[249600,534,1321,535,521,1522,521,694]","trial_type":"two-door-navigation","trial_index":3,"time_elapsed":453126,"internal_node_id":"0.0-2.0-1.0"},{"group":"square cycles (cube, non-group)","room_assignment":["pink","brown","yellow","grey","purple","red","green","blue"],"door_color_assignment":["black","white"],"door_generator_assignment":[0,1],"goal":0,"start":2,"action_noise":0.1,"location_history":"[2,3,0]","action_history":"[0,0]","door_history":"[0,0]","location_rts":"[297570,1236]","trial_type":"two-door-navigation","trial_index":4,"time_elapsed":758521,"internal_node_id":"0.0-2.0-2.0"},{"group":"square cycles (cube, non-group)","room_assignment":["pink","brown","yellow","grey","purple","red","green","blue"],"door_color_assignment":["black","white"],"door_generator_assignment":[0,1],"goal":1,"start":0,"action_noise":0.1,"location_history":"[0,1]","action_history":"[0]","door_history":"[0]","location_rts":"[2031]","trial_type":"two-door-navigation","trial_index":5,"time_elapsed":765447,"internal_node_id":"0.0-2.0-3.0"},{"group":"square cycles (cube, non-group)","room_assignment":["pink","brown","yellow","grey","purple","red","green","blue"],"door_color_assignment":["black","white"],"door_generator_assignment":[0,1],"goal":6,"start":1,"action_noise":0.1,"location_history":"[1,2,3,0,4,7,6]","action_history":"[0,0,0,0,0,0]","door_history":"[0,0,0,0,0,0]","location_rts":"[6597,650,1088,629,675,835]","trial_type":"two-door-navigation","trial_index":6,"time_elapsed":786204,"internal_node_id":"0.0-2.0-4.0"},{"group":"square cycles (cube, non-group)","room_assignment":["pink","brown","yellow","grey","purple","red","green","blue"],"door_color_assignment":["black","white"],"door_generator_assignment":[0,1],"goal":3,"start":6,"action_noise":0.1,"location_history":"[6,5,1,2,3]","action_history":"[0,0,0,0]","door_history":"[0,0,0,0]","location_rts":"[2066,689,775,858]","trial_type":"two-door-navigation","trial_index":7,"time_elapsed":798165,"internal_node_id":"0.0-2.0-5.0"},{"group":"square cycles (cube, non-group)","room_assignment":["pink","brown","yellow","grey","purple","red","green","blue"],"door_color_assignment":["black","white"],"door_generator_assignment":[0,1],"goal":4,"start":3,"action_noise":0.1,"location_history":"[3,0,1,2,3,2,6,7,6,7,3,0,1,2,6,5,1,2,3,0,4]","action_history":"[0,0,0,0,0,1,1,0,1,1,1,0,0,0,0,0,0,0,0,1]","door_history":"[0,0,0,0,0,1,1,0,1,1,1,0,0,0,0,0,0,0,0,1]","location_rts":"[1618,1987,703,605,783,1937,641,1596,1596,1051,514,2038,582,594,685,1369,943,620,690,2130]","trial_type":"two-door-navigation","trial_index":8,"time_elapsed":844698,"internal_node_id":"0.0-2.0-6.0"},{"group":"square cycles (cube, non-group)","room_assignment":["pink","brown","yellow","grey","purple","red","green","blue"],"door_color_assignment":["black","white"],"door_generator_assignment":[0,1],"goal":1,"start":4,"action_noise":0.1,"location_history":"[4,5,1]","action_history":"[1,1]","door_history":"[1,1]","location_rts":"[1743,520]","trial_type":"two-door-navigation","trial_index":9,"time_elapsed":852495,"internal_node_id":"0.0-2.0-7.0"},{"group":"square cycles (cube, non-group)","room_assignment":["pink","brown","yellow","grey","purple","red","green","blue"],"door_color_assignment":["black","white"],"door_generator_assignment":[0,1],"goal":4,"start":1,"action_noise":0.1,"location_history":"[1,0,1,0,1,2,6,7,3,2,6,5,4]","action_history":"[1,1,1,1,1,1,1,1,1,1,1,1]","door_history":"[1,1,1,1,1,1,1,1,1,1,1,1]","location_rts":"[1626,757,704,653,664,868,1263,529,976,1039,1607,1994]","trial_type":"two-door-navigation","trial_index":10,"time_elapsed":880872,"internal_node_id":"0.0-2.0-8.0"},{"group":"square cycles (cube, non-group)","room_assignment":["pink","brown","yellow","grey","purple","red","green","blue"],"door_color_assignment":["black","white"],"door_generator_assignment":[0,1],"goal":5,"start":4,"action_noise":0.1,"location_history":"[4,7,6,5]","action_history":"[0,0,0]","door_history":"[0,0,0]","location_rts":"[12197,530,413]","trial_type":"two-door-navigation","trial_index":11,"time_elapsed":900559,"internal_node_id":"0.0-2.0-9.0"},{"group":"square cycles (cube, non-group)","room_assignment":["pink","brown","yellow","grey","purple","red","green","blue"],"door_color_assignment":["black","white"],"door_generator_assignment":[0,1],"goal":3,"start":5,"action_noise":0.1,"location_history":"[5,4,5,4,7,6,7,3]","action_history":"[0,1,0,0,1,1,1]","door_history":"[0,1,0,0,1,1,1]","location_rts":"[61807,1610,949,761,1520,535,650]","trial_type":"two-door-navigation","trial_index":12,"time_elapsed":979008,"internal_node_id":"0.0-2.0-10.0"},{"group":"square cycles (cube, non-group)","room_assignment":["pink","brown","yellow","grey","purple","red","green","blue"],"door_color_assignment":["black","white"],"door_generator_assignment":[0,1],"goal":6,"start":3,"action_noise":0.1,"location_history":"[3,0,1,2,3,2,3,2,6]","action_history":"[1,0,0,0,1,1,1,1]","door_history":"[1,0,0,0,1,1,1,1]","location_rts":"[8730,1678,799,728,1496,594,795,601]","trial_type":"two-door-navigation","trial_index":13,"time_elapsed":1006030,"internal_node_id":"0.0-2.0-11.0"},{"group":"square cycles (cube, non-group)","room_assignment":["pink","brown","yellow","grey","purple","red","green","blue"],"door_color_assignment":["black","white"],"door_generator_assignment":[0,1],"goal":7,"start":6,"action_noise":0.1,"location_history":"[6,7]","action_history":"[1]","door_history":"[1]","location_rts":"[94024]","trial_type":"two-door-navigation","trial_index":14,"time_elapsed":1104587,"internal_node_id":"0.0-2.0-12.0"},{"group":"square cycles (cube, non-group)","room_assignment":["pink","brown","yellow","grey","purple","red","green","blue"],"door_color_assignment":["black","white"],"door_generator_assignment":[0,1],"goal":0,"start":7,"action_noise":0.1,"location_history":"[7,6,5,1,0]","action_history":"[0,0,1,1]","door_history":"[0,0,1,1]","location_rts":"[2705,541,1790,488]","trial_type":"two-door-navigation","trial_index":15,"time_elapsed":1117675,"internal_node_id":"0.0-2.0-13.0"},{"group":"square cycles (cube, non-group)","room_assignment":["pink","brown","yellow","grey","purple","red","green","blue"],"door_color_assignment":["black","white"],"door_generator_assignment":[0,1],"goal":2,"start":0,"action_noise":0.1,"location_history":"[0,1,2]","action_history":"[0,0]","door_history":"[0,0]","location_rts":"[62342,913]","trial_type":"two-door-navigation","trial_index":16,"time_elapsed":1186466,"internal_node_id":"0.0-2.0-14.0"},{"group":"square cycles (cube, non-group)","room_assignment":["pink","brown","yellow","grey","purple","red","green","blue"],"door_color_assignment":["black","white"],"door_generator_assignment":[0,1],"goal":1,"start":2,"action_noise":0.1,"location_history":"[2,3,0,4,5,1]","action_history":"[0,0,1,1,1]","door_history":"[0,0,1,1,1]","location_rts":"[57901,848,1417,649,607]","trial_type":"two-door-navigation","trial_index":17,"time_elapsed":1256459,"internal_node_id":"0.0-2.0-15.0"},{"group":"square cycles (cube, non-group)","room_assignment":["pink","brown","yellow","grey","purple","red","green","blue"],"door_color_assignment":["black","white"],"door_generator_assignment":[0,1],"goal":6,"start":1,"action_noise":0.1,"location_history":"[1,2,3,2,3,0,1,2,6]","action_history":"[0,0,1,1,1,0,0,1]","door_history":"[0,0,1,1,1,0,0,1]","location_rts":"[23048,800,1829,650,645,1600,865,2215]","trial_type":"two-door-navigation","trial_index":18,"time_elapsed":1299730,"internal_node_id":"0.0-2.0-16.0"},{"group":"square cycles (cube, non-group)","room_assignment":["pink","brown","yellow","grey","purple","red","green","blue"],"door_color_assignment":["black","white"],"door_generator_assignment":[0,1],"goal":3,"start":6,"action_noise":0.1,"location_history":"[6,7,3]","action_history":"[1,1]","door_history":"[1,1]","location_rts":"[13096,1855]","trial_type":"two-door-navigation","trial_index":19,"time_elapsed":1320222,"internal_node_id":"0.0-2.0-17.0"},{"group":"square cycles (cube, non-group)","room_assignment":["pink","brown","yellow","grey","purple","red","green","blue"],"door_color_assignment":["black","white"],"door_generator_assignment":[0,1],"goal":4,"start":3,"action_noise":0.1,"location_history":"[3,0,4]","action_history":"[0,1]","door_history":"[0,1]","location_rts":"[12810,1504]","trial_type":"two-door-navigation","trial_index":20,"time_elapsed":1340064,"internal_node_id":"0.0-2.0-18.0"},{"group":"square cycles (cube, non-group)","room_assignment":["pink","brown","yellow","grey","purple","red","green","blue"],"door_color_assignment":["black","white"],"door_generator_assignment":[0,1],"goal":5,"start":4,"action_noise":0.1,"location_history":"[4,5]","action_history":"[1]","door_history":"[1]","location_rts":"[7825]","trial_type":"two-door-navigation","trial_index":21,"time_elapsed":1352409,"internal_node_id":"0.0-2.0-19.0"},{"group":"square cycles (cube, non-group)","room_assignment":["pink","brown","yellow","grey","purple","red","green","blue"],"door_color_assignment":["black","white"],"door_generator_assignment":[0,1],"goal":7,"start":5,"action_noise":0.1,"location_history":"[5,4,7]","action_history":"[0,0]","door_history":"[0,0]","location_rts":"[13254,731]","trial_type":"two-door-navigation","trial_index":22,"time_elapsed":1371924,"internal_node_id":"0.0-2.0-20.0"},{"group":"square cycles (cube, non-group)","room_assignment":["pink","brown","yellow","grey","purple","red","green","blue"],"door_color_assignment":["black","white"],"door_generator_assignment":[0,1],"goal":2,"start":7,"action_noise":0.1,"location_history":"[7,6,7,3,2]","action_history":"[0,1,1,1]","door_history":"[0,1,1,1]","location_rts":"[30976,1988,531,589]","trial_type":"two-door-navigation","trial_index":23,"time_elapsed":1413576,"internal_node_id":"0.0-2.0-21.0"},{"group":"square cycles (cube, non-group)","room_assignment":["pink","brown","yellow","grey","purple","red","green","blue"],"door_color_assignment":["black","white"],"door_generator_assignment":[0,1],"goal":0,"start":2,"action_noise":0.1,"location_history":"[2,6,5,1,0]","action_history":"[0,0,1,1]","door_history":"[0,0,1,1]","location_rts":"[20377,581,1695,529]","trial_type":"two-door-navigation","trial_index":24,"time_elapsed":1444319,"internal_node_id":"0.0-2.0-22.0"},{"group":"square cycles (cube, non-group)","room_assignment":["pink","brown","yellow","grey","purple","red","green","blue"],"door_color_assignment":["black","white"],"door_generator_assignment":[0,1],"goal":7,"start":0,"action_noise":0.1,"location_history":"[0,1,2,6,7]","action_history":"[0,0,1,1]","door_history":"[0,0,1,1]","location_rts":"[2527,656,1641,615]","trial_type":"two-door-navigation","trial_index":25,"time_elapsed":1457317,"internal_node_id":"0.0-2.0-23.0"},{"group":"square cycles (cube, non-group)","room_assignment":["pink","brown","yellow","grey","purple","red","green","blue"],"door_color_assignment":["black","white"],"door_generator_assignment":[0,1],"goal":5,"start":7,"action_noise":0.1,"location_history":"[7,6,5]","action_history":"[0,0]","door_history":"[0,0]","location_rts":"[1688,680]","trial_type":"two-door-navigation","trial_index":26,"time_elapsed":1465215,"internal_node_id":"0.0-2.0-24.0"},{"group":"square cycles (cube, non-group)","room_assignment":["pink","brown","yellow","grey","purple","red","green","blue"],"door_color_assignment":["black","white"],"door_generator_assignment":[0,1],"goal":0,"start":5,"action_noise":0.1,"location_history":"[5,1,2,3,0]","action_history":"[1,1,1,1]","door_history":"[1,1,1,1]","location_rts":"[2537,702,619,858]","trial_type":"two-door-navigation","trial_index":27,"time_elapsed":1477498,"internal_node_id":"0.0-2.0-25.0"},{"group":"square cycles (cube, non-group)","room_assignment":["pink","brown","yellow","grey","purple","red","green","blue"],"door_color_assignment":["black","white"],"door_generator_assignment":[0,1],"goal":6,"start":0,"action_noise":0.1,"location_history":"[0,1,2,6]","action_history":"[0,0,1]","door_history":"[0,0,1]","location_rts":"[11814,1101,1873]","trial_type":"two-door-navigation","trial_index":28,"time_elapsed":1498831,"internal_node_id":"0.0-2.0-26.0"},{"group":"square cycles (cube, non-group)","room_assignment":["pink","brown","yellow","grey","purple","red","green","blue"],"door_color_assignment":["black","white"],"door_generator_assignment":[0,1],"goal":4,"start":6,"action_noise":0.1,"location_history":"[6,7,3,0,4]","action_history":"[0,0,0,1]","door_history":"[0,0,0,1]","location_rts":"[5264,805,734,1552]","trial_type":"two-door-navigation","trial_index":29,"time_elapsed":1514765,"internal_node_id":"0.0-2.0-27.0"},{"group":"square cycles (cube, non-group)","room_assignment":["pink","brown","yellow","grey","purple","red","green","blue"],"door_color_assignment":["black","white"],"door_generator_assignment":[0,1],"goal":2,"start":4,"action_noise":0.1,"location_history":"[4,7,6,7,3,2]","action_history":"[0,0,1,1,1]","door_history":"[0,0,1,1,1]","location_rts":"[7334,602,857,554,561]","trial_type":"two-door-navigation","trial_index":30,"time_elapsed":1533262,"internal_node_id":"0.0-2.0-28.0"},{"group":"square cycles (cube, non-group)","room_assignment":["pink","brown","yellow","grey","purple","red","green","blue"],"door_color_assignment":["black","white"],"door_generator_assignment":[0,1],"goal":3,"start":2,"action_noise":0.1,"location_history":"[2,6,7,6,7,3]","action_history":"[1,1,1,1,1]","door_history":"[1,1,1,1,1]","location_rts":"[4049,520,530,666,598]","trial_type":"two-door-navigation","trial_index":31,"time_elapsed":1548211,"internal_node_id":"0.0-2.0-29.0"},{"group":"square cycles (cube, non-group)","room_assignment":["pink","brown","yellow","grey","purple","red","green","blue"],"door_color_assignment":["black","white"],"door_generator_assignment":[0,1],"goal":1,"start":3,"action_noise":0.1,"location_history":"[3,0,1]","action_history":"[0,0]","door_history":"[0,0]","location_rts":"[2003,601]","trial_type":"two-door-navigation","trial_index":32,"time_elapsed":1556346,"internal_node_id":"0.0-2.0-30.0"},{"group":"square cycles (cube, non-group)","room_assignment":["pink","brown","yellow","grey","purple","red","green","blue"],"door_color_assignment":["black","white"],"door_generator_assignment":[0,1],"goal":4,"start":1,"action_noise":0.1,"location_history":"[1,0,4]","action_history":"[1,1]","door_history":"[1,1]","location_rts":"[3904,628]","trial_type":"two-door-navigation","trial_index":33,"time_elapsed":1566417,"internal_node_id":"0.0-2.0-31.0"},{"group":"square cycles (cube, non-group)","room_assignment":["pink","brown","yellow","grey","purple","red","green","blue"],"door_color_assignment":["black","white"],"door_generator_assignment":[0,1],"goal":3,"start":4,"action_noise":0.1,"location_history":"[4,7,3]","action_history":"[0,1]","door_history":"[0,1]","location_rts":"[1997,3435]","trial_type":"two-door-navigation","trial_index":34,"time_elapsed":1577385,"internal_node_id":"0.0-2.0-32.0"},{"group":"square cycles (cube, non-group)","room_assignment":["pink","brown","yellow","grey","purple","red","green","blue"],"door_color_assignment":["black","white"],"door_generator_assignment":[0,1],"goal":6,"start":3,"action_noise":0.1,"location_history":"[3,2,3,2,6]","action_history":"[1,1,1,1]","door_history":"[1,1,1,1]","location_rts":"[1687,1318,32043,1060]","trial_type":"two-door-navigation","trial_index":35,"time_elapsed":1621054,"internal_node_id":"0.0-2.0-33.0"},{"group":"square cycles (cube, non-group)","room_assignment":["pink","brown","yellow","grey","purple","red","green","blue"],"door_color_assignment":["black","white"],"door_generator_assignment":[0,1],"goal":0,"start":6,"action_noise":0.1,"location_history":"[6,7,6,5,4,5,1,0]","action_history":"[0,0,0,1,1,1,1]","door_history":"[0,0,0,1,1,1,1]","location_rts":"[27770,891,804,1840,607,673,739]","trial_type":"two-door-navigation","trial_index":36,"time_elapsed":1665017,"internal_node_id":"0.0-2.0-34.0"},{"group":"square cycles (cube, non-group)","room_assignment":["pink","brown","yellow","grey","purple","red","green","blue"],"door_color_assignment":["black","white"],"door_generator_assignment":[0,1],"goal":1,"start":0,"action_noise":0.1,"location_history":"[0,4,5,1]","action_history":"[1,1,1]","door_history":"[1,1,1]","location_rts":"[2000,1528,558]","trial_type":"two-door-navigation","trial_index":37,"time_elapsed":1675656,"internal_node_id":"0.0-2.0-35.0"},{"group":"square cycles (cube, non-group)","room_assignment":["pink","brown","yellow","grey","purple","red","green","blue"],"door_color_assignment":["black","white"],"door_generator_assignment":[0,1],"goal":5,"start":1,"action_noise":0.1,"location_history":"[1,0,4,5]","action_history":"[1,1,1]","door_history":"[1,1,1]","location_rts":"[2132,1203,682]","trial_type":"two-door-navigation","trial_index":38,"time_elapsed":1686221,"internal_node_id":"0.0-2.0-36.0"},{"group":"square cycles (cube, non-group)","room_assignment":["pink","brown","yellow","grey","purple","red","green","blue"],"door_color_assignment":["black","white"],"door_generator_assignment":[0,1],"goal":7,"start":5,"action_noise":0.1,"location_history":"[5,4,7]","action_history":"[0,0]","door_history":"[0,0]","location_rts":"[2686,6301]","trial_type":"two-door-navigation","trial_index":39,"time_elapsed":1700737,"internal_node_id":"0.0-2.0-37.0"},{"group":"square cycles (cube, non-group)","room_assignment":["pink","brown","yellow","grey","purple","red","green","blue"],"door_color_assignment":["black","white"],"door_generator_assignment":[0,1],"goal":2,"start":7,"action_noise":0.1,"location_history":"[7,3,2]","action_history":"[1,1]","door_history":"[1,1]","location_rts":"[13673,525]","trial_type":"two-door-navigation","trial_index":40,"time_elapsed":1720475,"internal_node_id":"0.0-2.0-38.0"},{"group":"square cycles (cube, non-group)","room_assignment":["pink","brown","yellow","grey","purple","red","green","blue"],"door_color_assignment":["black","white"],"door_generator_assignment":[0,1],"goal":1,"start":2,"action_noise":0.1,"location_history":"[2,3,0,4,5,4,5,1]","action_history":"[0,0,1,1,1,1,1]","door_history":"[0,0,1,1,1,1,1]","location_rts":"[2521,835,1706,592,634,840,632]","trial_type":"two-door-navigation","trial_index":41,"time_elapsed":1738841,"internal_node_id":"0.0-2.0-39.0"},{"group":"square cycles (cube, non-group)","room_assignment":["pink","brown","yellow","grey","purple","red","green","blue"],"door_color_assignment":["black","white"],"door_generator_assignment":[0,1],"goal":3,"start":1,"action_noise":0.1,"location_history":"[1,2,3]","action_history":"[0,0]","door_history":"[0,0]","location_rts":"[2228,630]","trial_type":"two-door-navigation","trial_index":42,"time_elapsed":1747229,"internal_node_id":"0.0-2.0-40.0"},{"group":"square cycles (cube, non-group)","room_assignment":["pink","brown","yellow","grey","purple","red","green","blue"],"door_color_assignment":["black","white"],"door_generator_assignment":[0,1],"goal":4,"start":3,"action_noise":0.1,"location_history":"[3,0,4]","action_history":"[0,1]","door_history":"[0,1]","location_rts":"[2697,1636]","trial_type":"two-door-navigation","trial_index":43,"time_elapsed":1757092,"internal_node_id":"0.0-2.0-41.0"},{"group":"square cycles (cube, non-group)","room_assignment":["pink","brown","yellow","grey","purple","red","green","blue"],"door_color_assignment":["black","white"],"door_generator_assignment":[0,1],"goal":2,"start":4,"action_noise":0.1,"location_history":"[4,7,3,2]","action_history":"[0,1,1]","door_history":"[0,1,1]","location_rts":"[2704,1947,684]","trial_type":"two-door-navigation","trial_index":44,"time_elapsed":1768997,"internal_node_id":"0.0-2.0-42.0"},{"group":"square cycles (cube, non-group)","room_assignment":["pink","brown","yellow","grey","purple","red","green","blue"],"door_color_assignment":["black","white"],"door_generator_assignment":[0,1],"goal":5,"start":2,"action_noise":0.1,"location_history":"[2,3,0,4,5]","action_history":"[0,0,1,1]","door_history":"[0,0,1,1]","location_rts":"[3693,952,1975,683]","trial_type":"two-door-navigation","trial_index":45,"time_elapsed":1783855,"internal_node_id":"0.0-2.0-43.0"},{"group":"square cycles (cube, non-group)","room_assignment":["pink","brown","yellow","grey","purple","red","green","blue"],"door_color_assignment":["black","white"],"door_generator_assignment":[0,1],"goal":0,"start":5,"action_noise":0.1,"location_history":"[5,1,0]","action_history":"[1,1]","door_history":"[1,1]","location_rts":"[1550,622]","trial_type":"two-door-navigation","trial_index":46,"time_elapsed":1791558,"internal_node_id":"0.0-2.0-44.0"},{"group":"square cycles (cube, non-group)","room_assignment":["pink","brown","yellow","grey","purple","red","green","blue"],"door_color_assignment":["black","white"],"door_generator_assignment":[0,1],"goal":7,"start":0,"action_noise":0.1,"location_history":"[0,1,2,6,7]","action_history":"[0,0,1,1]","door_history":"[0,0,1,1]","location_rts":"[2181,1327,1870,687]","trial_type":"two-door-navigation","trial_index":47,"time_elapsed":1805430,"internal_node_id":"0.0-2.0-45.0"},{"group":"square cycles (cube, non-group)","room_assignment":["pink","brown","yellow","grey","purple","red","green","blue"],"door_color_assignment":["black","white"],"door_generator_assignment":[0,1],"goal":6,"start":7,"action_noise":0.1,"location_history":"[7,3,2,6]","action_history":"[1,1,1]","door_history":"[1,1,1]","location_rts":"[1459,994,936]","trial_type":"two-door-navigation","trial_index":48,"time_elapsed":1815374,"internal_node_id":"0.0-2.0-46.0"},{"group":"square cycles (cube, non-group)","room_assignment":["pink","brown","yellow","grey","purple","red","green","blue"],"door_color_assignment":["black","white"],"door_generator_assignment":[0,1],"goal":2,"start":6,"action_noise":0.1,"location_history":"[6,7,3,2]","action_history":"[1,1,1]","door_history":"[1,1,1]","location_rts":"[6729,697,930]","trial_type":"two-door-navigation","trial_index":49,"time_elapsed":1830292,"internal_node_id":"0.0-2.0-47.0"},{"group":"square cycles (cube, non-group)","room_assignment":["pink","brown","yellow","grey","purple","red","green","blue"],"door_color_assignment":["black","white"],"door_generator_assignment":[0,1],"goal":5,"start":2,"action_noise":0.1,"location_history":"[2,3,0,4,5]","action_history":"[0,0,1,1]","door_history":"[0,0,1,1]","location_rts":"[3688,1104,1563,719]","trial_type":"two-door-navigation","trial_index":50,"time_elapsed":1844944,"internal_node_id":"0.0-2.0-48.0"},{"group":"square cycles (cube, non-group)","room_assignment":["pink","brown","yellow","grey","purple","red","green","blue"],"door_color_assignment":["black","white"],"door_generator_assignment":[0,1],"goal":3,"start":5,"action_noise":0.1,"location_history":"[5,4,7,3]","action_history":"[0,0,1]","door_history":"[0,0,1]","location_rts":"[2383,1349,2625]","trial_type":"two-door-navigation","trial_index":51,"time_elapsed":1857846,"internal_node_id":"0.0-2.0-49.0"},{"view_history":"[{\"page_index\":0,\"viewing_time\":2387}]","rt":2388,"trial_type":"instructions","trial_index":52,"time_elapsed":1861235,"internal_node_id":"0.0-3.0"},{"view_history":"[{\"page_index\":0,\"viewing_time\":1601},{\"page_index\":1,\"viewing_time\":5233}]","rt":6835,"trial_type":"instructions","trial_index":53,"time_elapsed":1869071,"internal_node_id":"0.0-4.0"},{"group":"square cycles (cube, non-group)","fractal_assignment":["../images/cyn_red.png","../images/grn_red.png","../images/blu_wht.png","../images/ylw_pnk.png","../images/gry_blk.png","../images/org_blu.png","../images/ylw_slt.png","../images/pnk_blu.png"],"mutagen_generator_assignment":[1,0],"goal":5,"start":7,"action_noise":0.1,"location_history":"[7,3,2,3,2,6,7,3,2,6,7,3,2,3,2,3,0,4,5]","action_history":"[1,1,0,1,1,0,0,0,1,1,1,1,1,1,0,0,1,1]","mutagen_history":"[0,0,1,0,0,1,1,1,0,0,0,0,0,0,1,1,0,0]","location_rts":"[8028,1009,785,1030,982,1475,901,977,942,710,521,650,706,689,1041,517,2106,774]","trial_type":"fractal-mutation","trial_index":54,"time_elapsed":1915368,"internal_node_id":"0.0-5.0-0.0"},{"group":"square cycles (cube, non-group)","fractal_assignment":["../images/cyn_red.png","../images/grn_red.png","../images/blu_wht.png","../images/ylw_pnk.png","../images/gry_blk.png","../images/org_blu.png","../images/ylw_slt.png","../images/pnk_blu.png"],"mutagen_generator_assignment":[1,0],"goal":2,"start":5,"action_noise":0.1,"location_history":"[5,4,7,3,2]","action_history":"[0,0,1,1]","mutagen_history":"[1,1,0,0]","location_rts":"[1876,842,1047,788]","trial_type":"fractal-mutation","trial_index":55,"time_elapsed":1927706,"internal_node_id":"0.0-5.0-1.0"},{"group":"square cycles (cube, non-group)","fractal_assignment":["../images/cyn_red.png","../images/grn_red.png","../images/blu_wht.png","../images/ylw_pnk.png","../images/gry_blk.png","../images/org_blu.png","../images/ylw_slt.png","../images/pnk_blu.png"],"mutagen_generator_assignment":[1,0],"goal":0,"start":2,"action_noise":0.1,"location_history":"[2,3,0]","action_history":"[0,0]","mutagen_history":"[1,1]","location_rts":"[1725,1343]","trial_type":"fractal-mutation","trial_index":56,"time_elapsed":1936420,"internal_node_id":"0.0-5.0-2.0"},{"group":"square cycles (cube, non-group)","fractal_assignment":["../images/cyn_red.png","../images/grn_red.png","../images/blu_wht.png","../images/ylw_pnk.png","../images/gry_blk.png","../images/org_blu.png","../images/ylw_slt.png","../images/pnk_blu.png"],"mutagen_generator_assignment":[1,0],"goal":1,"start":0,"action_noise":0.1,"location_history":"[0,4,5,1]","action_history":"[1,1,1]","mutagen_history":"[0,0,0]","location_rts":"[2835,505,435]","trial_type":"fractal-mutation","trial_index":57,"time_elapsed":1946874,"internal_node_id":"0.0-5.0-3.0"},{"group":"square cycles (cube, non-group)","fractal_assignment":["../images/cyn_red.png","../images/grn_red.png","../images/blu_wht.png","../images/ylw_pnk.png","../images/gry_blk.png","../images/org_blu.png","../images/ylw_slt.png","../images/pnk_blu.png"],"mutagen_generator_assignment":[1,0],"goal":6,"start":1,"action_noise":0.1,"location_history":"[1,2,6]","action_history":"[0,1]","mutagen_history":"[1,0]","location_rts":"[1800,865]","trial_type":"fractal-mutation","trial_index":58,"time_elapsed":1955305,"internal_node_id":"0.0-5.0-4.0"},{"group":"square cycles (cube, non-group)","fractal_assignment":["../images/cyn_red.png","../images/grn_red.png","../images/blu_wht.png","../images/ylw_pnk.png","../images/gry_blk.png","../images/org_blu.png","../images/ylw_slt.png","../images/pnk_blu.png"],"mutagen_generator_assignment":[1,0],"goal":3,"start":6,"action_noise":0.1,"location_history":"[6,7,3]","action_history":"[1,1]","mutagen_history":"[0,0]","location_rts":"[1076,501]","trial_type":"fractal-mutation","trial_index":59,"time_elapsed":1962461,"internal_node_id":"0.0-5.0-5.0"},{"group":"square cycles (cube, non-group)","fractal_assignment":["../images/cyn_red.png","../images/grn_red.png","../images/blu_wht.png","../images/ylw_pnk.png","../images/gry_blk.png","../images/org_blu.png","../images/ylw_slt.png","../images/pnk_blu.png"],"mutagen_generator_assignment":[1,0],"goal":4,"start":3,"action_noise":0.1,"location_history":"[3,0,1,0,1,0,1,2,3,0,4]","action_history":"[0,0,1,1,1,0,1,0,0,1]","mutagen_history":"[1,1,0,0,0,1,0,1,1,0]","location_rts":"[2193,1019,1269,515,654,851,964,1019,865,613]","trial_type":"fractal-mutation","trial_index":60,"time_elapsed":1986495,"internal_node_id":"0.0-5.0-6.0"},{"group":"square cycles (cube, non-group)","fractal_assignment":["../images/cyn_red.png","../images/grn_red.png","../images/blu_wht.png","../images/ylw_pnk.png","../images/gry_blk.png","../images/org_blu.png","../images/ylw_slt.png","../images/pnk_blu.png"],"mutagen_generator_assignment":[1,0],"goal":1,"start":4,"action_noise":0.1,"location_history":"[4,5,1]","action_history":"[1,1]","mutagen_history":"[0,0]","location_rts":"[180014,563]","trial_type":"fractal-mutation","trial_index":61,"time_elapsed":2173293,"internal_node_id":"0.0-5.0-7.0"},{"group":"square cycles (cube, non-group)","fractal_assignment":["../images/cyn_red.png","../images/grn_red.png","../images/blu_wht.png","../images/ylw_pnk.png","../images/gry_blk.png","../images/org_blu.png","../images/ylw_slt.png","../images/pnk_blu.png"],"mutagen_generator_assignment":[1,0],"goal":4,"start":1,"action_noise":0.1,"location_history":"[1,0,4]","action_history":"[1,1]","mutagen_history":"[0,0]","location_rts":"[3461,519]","trial_type":"fractal-mutation","trial_index":62,"time_elapsed":2183267,"internal_node_id":"0.0-5.0-8.0"},{"group":"square cycles (cube, non-group)","fractal_assignment":["../images/cyn_red.png","../images/grn_red.png","../images/blu_wht.png","../images/ylw_pnk.png","../images/gry_blk.png","../images/org_blu.png","../images/ylw_slt.png","../images/pnk_blu.png"],"mutagen_generator_assignment":[1,0],"goal":5,"start":4,"action_noise":0.1,"location_history":"[4,5]","action_history":"[1]","mutagen_history":"[0]","location_rts":"[2792]","trial_type":"fractal-mutation","trial_index":63,"time_elapsed":2190609,"internal_node_id":"0.0-5.0-9.0"},{"group":"square cycles (cube, non-group)","fractal_assignment":["../images/cyn_red.png","../images/grn_red.png","../images/blu_wht.png","../images/ylw_pnk.png","../images/gry_blk.png","../images/org_blu.png","../images/ylw_slt.png","../images/pnk_blu.png"],"mutagen_generator_assignment":[1,0],"goal":3,"start":5,"action_noise":0.1,"location_history":"[5,4,7,3]","action_history":"[0,0,1]","mutagen_history":"[1,1,0]","location_rts":"[3534,575,713]","trial_type":"fractal-mutation","trial_index":64,"time_elapsed":2202118,"internal_node_id":"0.0-5.0-10.0"},{"group":"square cycles (cube, non-group)","fractal_assignment":["../images/cyn_red.png","../images/grn_red.png","../images/blu_wht.png","../images/ylw_pnk.png","../images/gry_blk.png","../images/org_blu.png","../images/ylw_slt.png","../images/pnk_blu.png"],"mutagen_generator_assignment":[1,0],"goal":6,"start":3,"action_noise":0.1,"location_history":"[3,2,6]","action_history":"[1,1]","mutagen_history":"[0,0]","location_rts":"[969,612]","trial_type":"fractal-mutation","trial_index":65,"time_elapsed":2209281,"internal_node_id":"0.0-5.0-11.0"},{"group":"square cycles (cube, non-group)","fractal_assignment":["../images/cyn_red.png","../images/grn_red.png","../images/blu_wht.png","../images/ylw_pnk.png","../images/gry_blk.png","../images/org_blu.png","../images/ylw_slt.png","../images/pnk_blu.png"],"mutagen_generator_assignment":[1,0],"goal":7,"start":6,"action_noise":0.1,"location_history":"[6,7]","action_history":"[1]","mutagen_history":"[0]","location_rts":"[984]","trial_type":"fractal-mutation","trial_index":66,"time_elapsed":2214824,"internal_node_id":"0.0-5.0-12.0"},{"group":"square cycles (cube, non-group)","fractal_assignment":["../images/cyn_red.png","../images/grn_red.png","../images/blu_wht.png","../images/ylw_pnk.png","../images/gry_blk.png","../images/org_blu.png","../images/ylw_slt.png","../images/pnk_blu.png"],"mutagen_generator_assignment":[1,0],"goal":0,"start":7,"action_noise":0.1,"location_history":"[7,6,5,1,2,6,5,1,0]","action_history":"[0,0,1,1,1,0,1,1]","mutagen_history":"[1,1,0,0,0,1,0,0]","location_rts":"[4857,902,748,420,518,376,979,625]","trial_type":"fractal-mutation","trial_index":67,"time_elapsed":2236140,"internal_node_id":"0.0-5.0-13.0"},{"group":"square cycles (cube, non-group)","fractal_assignment":["../images/cyn_red.png","../images/grn_red.png","../images/blu_wht.png","../images/ylw_pnk.png","../images/gry_blk.png","../images/org_blu.png","../images/ylw_slt.png","../images/pnk_blu.png"],"mutagen_generator_assignment":[1,0],"goal":2,"start":0,"action_noise":0.1,"location_history":"[0,1,2]","action_history":"[0,0]","mutagen_history":"[1,1]","location_rts":"[2174,2796]","trial_type":"fractal-mutation","trial_index":68,"time_elapsed":2246748,"internal_node_id":"0.0-5.0-14.0"},{"group":"square cycles (cube, non-group)","fractal_assignment":["../images/cyn_red.png","../images/grn_red.png","../images/blu_wht.png","../images/ylw_pnk.png","../images/gry_blk.png","../images/org_blu.png","../images/ylw_slt.png","../images/pnk_blu.png"],"mutagen_generator_assignment":[1,0],"goal":1,"start":2,"action_noise":0.1,"location_history":"[2,3,0,1]","action_history":"[0,0,1]","mutagen_history":"[1,1,0]","location_rts":"[3388,2934,2013]","trial_type":"fractal-mutation","trial_index":69,"time_elapsed":2262119,"internal_node_id":"0.0-5.0-15.0"},{"group":"square cycles (cube, non-group)","fractal_assignment":["../images/cyn_red.png","../images/grn_red.png","../images/blu_wht.png","../images/ylw_pnk.png","../images/gry_blk.png","../images/org_blu.png","../images/ylw_slt.png","../images/pnk_blu.png"],"mutagen_generator_assignment":[1,0],"goal":6,"start":1,"action_noise":0.1,"location_history":"[1,2,6]","action_history":"[0,1]","mutagen_history":"[1,0]","location_rts":"[7711,850]","trial_type":"fractal-mutation","trial_index":70,"time_elapsed":2276299,"internal_node_id":"0.0-5.0-16.0"},{"group":"square cycles (cube, non-group)","fractal_assignment":["../images/cyn_red.png","../images/grn_red.png","../images/blu_wht.png","../images/ylw_pnk.png","../images/gry_blk.png","../images/org_blu.png","../images/ylw_slt.png","../images/pnk_blu.png"],"mutagen_generator_assignment":[1,0],"goal":3,"start":6,"action_noise":0.1,"location_history":"[6,7,6,5,4,7,3]","action_history":"[1,1,1,0,0,1]","mutagen_history":"[0,0,0,1,1,0]","location_rts":"[3004,459,699,1500,680,2762]","trial_type":"fractal-mutation","trial_index":71,"time_elapsed":2295220,"internal_node_id":"0.0-5.0-17.0"},{"group":"square cycles (cube, non-group)","fractal_assignment":["../images/cyn_red.png","../images/grn_red.png","../images/blu_wht.png","../images/ylw_pnk.png","../images/gry_blk.png","../images/org_blu.png","../images/ylw_slt.png","../images/pnk_blu.png"],"mutagen_generator_assignment":[1,0],"goal":4,"start":3,"action_noise":0.1,"location_history":"[3,0,4]","action_history":"[0,1]","mutagen_history":"[1,0]","location_rts":"[4381,1027]","trial_type":"fractal-mutation","trial_index":72,"time_elapsed":2306220,"internal_node_id":"0.0-5.0-18.0"},{"group":"square cycles (cube, non-group)","fractal_assignment":["../images/cyn_red.png","../images/grn_red.png","../images/blu_wht.png","../images/ylw_pnk.png","../images/gry_blk.png","../images/org_blu.png","../images/ylw_slt.png","../images/pnk_blu.png"],"mutagen_generator_assignment":[1,0],"goal":5,"start":4,"action_noise":0.1,"location_history":"[4,5]","action_history":"[1]","mutagen_history":"[0]","location_rts":"[21245]","trial_type":"fractal-mutation","trial_index":73,"time_elapsed":2332011,"internal_node_id":"0.0-5.0-19.0"},{"group":"square cycles (cube, non-group)","fractal_assignment":["../images/cyn_red.png","../images/grn_red.png","../images/blu_wht.png","../images/ylw_pnk.png","../images/gry_blk.png","../images/org_blu.png","../images/ylw_slt.png","../images/pnk_blu.png"],"mutagen_generator_assignment":[1,0],"goal":7,"start":5,"action_noise":0.1,"location_history":"[5,1,2,6,7]","action_history":"[0,0,1,1]","mutagen_history":"[1,1,0,0]","location_rts":"[2240,1990,718,2438]","trial_type":"fractal-mutation","trial_index":74,"time_elapsed":2347114,"internal_node_id":"0.0-5.0-20.0"},{"group":"square cycles (cube, non-group)","fractal_assignment":["../images/cyn_red.png","../images/grn_red.png","../images/blu_wht.png","../images/ylw_pnk.png","../images/gry_blk.png","../images/org_blu.png","../images/ylw_slt.png","../images/pnk_blu.png"],"mutagen_generator_assignment":[1,0],"goal":2,"start":7,"action_noise":0.1,"location_history":"[7,3,2]","action_history":"[1,1]","mutagen_history":"[0,0]","location_rts":"[1508,887]","trial_type":"fractal-mutation","trial_index":75,"time_elapsed":2355087,"internal_node_id":"0.0-5.0-21.0"},{"group":"square cycles (cube, non-group)","fractal_assignment":["../images/cyn_red.png","../images/grn_red.png","../images/blu_wht.png","../images/ylw_pnk.png","../images/gry_blk.png","../images/org_blu.png","../images/ylw_slt.png","../images/pnk_blu.png"],"mutagen_generator_assignment":[1,0],"goal":0,"start":2,"action_noise":0.1,"location_history":"[2,3,0]","action_history":"[0,0]","mutagen_history":"[1,1]","location_rts":"[2949,918]","trial_type":"fractal-mutation","trial_index":76,"time_elapsed":2364585,"internal_node_id":"0.0-5.0-22.0"},{"group":"square cycles (cube, non-group)","fractal_assignment":["../images/cyn_red.png","../images/grn_red.png","../images/blu_wht.png","../images/ylw_pnk.png","../images/gry_blk.png","../images/org_blu.png","../images/ylw_slt.png","../images/pnk_blu.png"],"mutagen_generator_assignment":[1,0],"goal":7,"start":0,"action_noise":0.1,"location_history":"[0,1,2,6,7]","action_history":"[0,0,1,1]","mutagen_history":"[1,1,0,0]","location_rts":"[1657,960,784,607]","trial_type":"fractal-mutation","trial_index":77,"time_elapsed":2376306,"internal_node_id":"0.0-5.0-23.0"},{"group":"square cycles (cube, non-group)","fractal_assignment":["../images/cyn_red.png","../images/grn_red.png","../images/blu_wht.png","../images/ylw_pnk.png","../images/gry_blk.png","../images/org_blu.png","../images/ylw_slt.png","../images/pnk_blu.png"],"mutagen_generator_assignment":[1,0],"goal":5,"start":7,"action_noise":0.1,"location_history":"[7,6,7,6,5]","action_history":"[0,0,0,0]","mutagen_history":"[1,1,1,1]","location_rts":"[1452,1323,662,846]","trial_type":"fractal-mutation","trial_index":78,"time_elapsed":2388408,"internal_node_id":"0.0-5.0-24.0"},{"group":"square cycles (cube, non-group)","fractal_assignment":["../images/cyn_red.png","../images/grn_red.png","../images/blu_wht.png","../images/ylw_pnk.png","../images/gry_blk.png","../images/org_blu.png","../images/ylw_slt.png","../images/pnk_blu.png"],"mutagen_generator_assignment":[1,0],"goal":0,"start":5,"action_noise":0.1,"location_history":"[5,1,0]","action_history":"[1,1]","mutagen_history":"[0,0]","location_rts":"[1519,425]","trial_type":"fractal-mutation","trial_index":79,"time_elapsed":2396129,"internal_node_id":"0.0-5.0-25.0"},{"group":"square cycles (cube, non-group)","fractal_assignment":["../images/cyn_red.png","../images/grn_red.png","../images/blu_wht.png","../images/ylw_pnk.png","../images/gry_blk.png","../images/org_blu.png","../images/ylw_slt.png","../images/pnk_blu.png"],"mutagen_generator_assignment":[1,0],"goal":6,"start":0,"action_noise":0.1,"location_history":"[0,1,2,6]","action_history":"[0,0,1]","mutagen_history":"[1,1,0]","location_rts":"[1408,1314,654]","trial_type":"fractal-mutation","trial_index":80,"time_elapsed":2406206,"internal_node_id":"0.0-5.0-26.0"},{"group":"square cycles (cube, non-group)","fractal_assignment":["../images/cyn_red.png","../images/grn_red.png","../images/blu_wht.png","../images/ylw_pnk.png","../images/gry_blk.png","../images/org_blu.png","../images/ylw_slt.png","../images/pnk_blu.png"],"mutagen_generator_assignment":[1,0],"goal":4,"start":6,"action_noise":0.1,"location_history":"[6,5,4]","action_history":"[0,1]","mutagen_history":"[1,0]","location_rts":"[1426,1039]","trial_type":"fractal-mutation","trial_index":81,"time_elapsed":2414312,"internal_node_id":"0.0-5.0-27.0"},{"group":"square cycles (cube, non-group)","fractal_assignment":["../images/cyn_red.png","../images/grn_red.png","../images/blu_wht.png","../images/ylw_pnk.png","../images/gry_blk.png","../images/org_blu.png","../images/ylw_slt.png","../images/pnk_blu.png"],"mutagen_generator_assignment":[1,0],"goal":2,"start":4,"action_noise":0.1,"location_history":"[4,7,6,7,3,2]","action_history":"[0,1,1,1,1]","mutagen_history":"[1,0,0,0,0]","location_rts":"[1491,872,27524,753,698]","trial_type":"fractal-mutation","trial_index":82,"time_elapsed":2454394,"internal_node_id":"0.0-5.0-28.0"},{"group":"square cycles (cube, non-group)","fractal_assignment":["../images/cyn_red.png","../images/grn_red.png","../images/blu_wht.png","../images/ylw_pnk.png","../images/gry_blk.png","../images/org_blu.png","../images/ylw_slt.png","../images/pnk_blu.png"],"mutagen_generator_assignment":[1,0],"goal":3,"start":2,"action_noise":0.1,"location_history":"[2,6,7,3]","action_history":"[1,1,1]","mutagen_history":"[0,0,0]","location_rts":"[9471,373,422]","trial_type":"fractal-mutation","trial_index":83,"time_elapsed":2471300,"internal_node_id":"0.0-5.0-29.0"},{"group":"square cycles (cube, non-group)","fractal_assignment":["../images/cyn_red.png","../images/grn_red.png","../images/blu_wht.png","../images/ylw_pnk.png","../images/gry_blk.png","../images/org_blu.png","../images/ylw_slt.png","../images/pnk_blu.png"],"mutagen_generator_assignment":[1,0],"goal":1,"start":3,"action_noise":0.1,"location_history":"[3,0,4,7,6,7,6,5,1]","action_history":"[0,1,1,0,0,0,0,1]","mutagen_history":"[1,0,0,1,1,1,1,0]","location_rts":"[4778,645,475,837,719,616,573,813]","trial_type":"fractal-mutation","trial_index":84,"time_elapsed":2492770,"internal_node_id":"0.0-5.0-30.0"},{"group":"square cycles (cube, non-group)","fractal_assignment":["../images/cyn_red.png","../images/grn_red.png","../images/blu_wht.png","../images/ylw_pnk.png","../images/gry_blk.png","../images/org_blu.png","../images/ylw_slt.png","../images/pnk_blu.png"],"mutagen_generator_assignment":[1,0],"goal":4,"start":1,"action_noise":0.1,"location_history":"[1,0,4]","action_history":"[1,1]","mutagen_history":"[0,0]","location_rts":"[4028,18318]","trial_type":"fractal-mutation","trial_index":85,"time_elapsed":2520729,"internal_node_id":"0.0-5.0-31.0"},{"group":"square cycles (cube, non-group)","fractal_assignment":["../images/cyn_red.png","../images/grn_red.png","../images/blu_wht.png","../images/ylw_pnk.png","../images/gry_blk.png","../images/org_blu.png","../images/ylw_slt.png","../images/pnk_blu.png"],"mutagen_generator_assignment":[1,0],"goal":3,"start":4,"action_noise":0.1,"location_history":"[4,7,3]","action_history":"[0,1]","mutagen_history":"[1,0]","location_rts":"[2007,1508]","trial_type":"fractal-mutation","trial_index":86,"time_elapsed":2529929,"internal_node_id":"0.0-5.0-32.0"},{"group":"square cycles (cube, non-group)","fractal_assignment":["../images/cyn_red.png","../images/grn_red.png","../images/blu_wht.png","../images/ylw_pnk.png","../images/gry_blk.png","../images/org_blu.png","../images/ylw_slt.png","../images/pnk_blu.png"],"mutagen_generator_assignment":[1,0],"goal":6,"start":3,"action_noise":0.1,"location_history":"[3,2,6]","action_history":"[1,1]","mutagen_history":"[0,0]","location_rts":"[19009,1128]","trial_type":"fractal-mutation","trial_index":87,"time_elapsed":2555736,"internal_node_id":"0.0-5.0-33.0"},{"group":"square cycles (cube, non-group)","fractal_assignment":["../images/cyn_red.png","../images/grn_red.png","../images/blu_wht.png","../images/ylw_pnk.png","../images/gry_blk.png","../images/org_blu.png","../images/ylw_slt.png","../images/pnk_blu.png"],"mutagen_generator_assignment":[1,0],"goal":0,"start":6,"action_noise":0.1,"location_history":"[6,7,6,5,1,0]","action_history":"[0,0,0,1,1]","mutagen_history":"[1,1,1,0,0]","location_rts":"[1187,616,575,648,6691]","trial_type":"fractal-mutation","trial_index":88,"time_elapsed":2574271,"internal_node_id":"0.0-5.0-34.0"},{"group":"square cycles (cube, non-group)","fractal_assignment":["../images/cyn_red.png","../images/grn_red.png","../images/blu_wht.png","../images/ylw_pnk.png","../images/gry_blk.png","../images/org_blu.png","../images/ylw_slt.png","../images/pnk_blu.png"],"mutagen_generator_assignment":[1,0],"goal":1,"start":0,"action_noise":0.1,"location_history":"[0,4,5,1]","action_history":"[1,1,1]","mutagen_history":"[0,0,0]","location_rts":"[1675,756,780]","trial_type":"fractal-mutation","trial_index":89,"time_elapsed":2584128,"internal_node_id":"0.0-5.0-35.0"},{"group":"square cycles (cube, non-group)","fractal_assignment":["../images/cyn_red.png","../images/grn_red.png","../images/blu_wht.png","../images/ylw_pnk.png","../images/gry_blk.png","../images/org_blu.png","../images/ylw_slt.png","../images/pnk_blu.png"],"mutagen_generator_assignment":[1,0],"goal":5,"start":1,"action_noise":0.1,"location_history":"[1,2,3,0,4,5]","action_history":"[1,0,0,1,1]","mutagen_history":"[0,1,1,0,0]","location_rts":"[4363,1478,778,1001,887]","trial_type":"fractal-mutation","trial_index":90,"time_elapsed":2601433,"internal_node_id":"0.0-5.0-36.0"},{"group":"square cycles (cube, non-group)","fractal_assignment":["../images/cyn_red.png","../images/grn_red.png","../images/blu_wht.png","../images/ylw_pnk.png","../images/gry_blk.png","../images/org_blu.png","../images/ylw_slt.png","../images/pnk_blu.png"],"mutagen_generator_assignment":[1,0],"goal":7,"start":5,"action_noise":0.1,"location_history":"[5,4,7]","action_history":"[0,0]","mutagen_history":"[1,1]","location_rts":"[330158,552]","trial_type":"fractal-mutation","trial_index":91,"time_elapsed":2937781,"internal_node_id":"0.0-5.0-37.0"},{"group":"square cycles (cube, non-group)","fractal_assignment":["../images/cyn_red.png","../images/grn_red.png","../images/blu_wht.png","../images/ylw_pnk.png","../images/gry_blk.png","../images/org_blu.png","../images/ylw_slt.png","../images/pnk_blu.png"],"mutagen_generator_assignment":[1,0],"goal":2,"start":7,"action_noise":0.1,"location_history":"[7,3,2]","action_history":"[1,1]","mutagen_history":"[0,0]","location_rts":"[1202,827]","trial_type":"fractal-mutation","trial_index":92,"time_elapsed":2945419,"internal_node_id":"0.0-5.0-38.0"},{"group":"square cycles (cube, non-group)","fractal_assignment":["../images/cyn_red.png","../images/grn_red.png","../images/blu_wht.png","../images/ylw_pnk.png","../images/gry_blk.png","../images/org_blu.png","../images/ylw_slt.png","../images/pnk_blu.png"],"mutagen_generator_assignment":[1,0],"goal":1,"start":2,"action_noise":0.1,"location_history":"[2,3,2,3,0,4,5,1]","action_history":"[0,0,0,0,1,1,1]","mutagen_history":"[1,1,1,1,0,0,0]","location_rts":"[1217,764,793,602,617,364,434]","trial_type":"fractal-mutation","trial_index":93,"time_elapsed":2961226,"internal_node_id":"0.0-5.0-39.0"},{"group":"square cycles (cube, non-group)","fractal_assignment":["../images/cyn_red.png","../images/grn_red.png","../images/blu_wht.png","../images/ylw_pnk.png","../images/gry_blk.png","../images/org_blu.png","../images/ylw_slt.png","../images/pnk_blu.png"],"mutagen_generator_assignment":[1,0],"goal":3,"start":1,"action_noise":0.1,"location_history":"[1,0,1,2,6,7,3]","action_history":"[1,0,0,1,1,1]","mutagen_history":"[0,1,1,0,0,0]","location_rts":"[1604,767,718,540,298,368]","trial_type":"fractal-mutation","trial_index":94,"time_elapsed":2975296,"internal_node_id":"0.0-5.0-40.0"},{"group":"square cycles (cube, non-group)","fractal_assignment":["../images/cyn_red.png","../images/grn_red.png","../images/blu_wht.png","../images/ylw_pnk.png","../images/gry_blk.png","../images/org_blu.png","../images/ylw_slt.png","../images/pnk_blu.png"],"mutagen_generator_assignment":[1,0],"goal":4,"start":3,"action_noise":0.1,"location_history":"[3,0,4]","action_history":"[0,1]","mutagen_history":"[1,0]","location_rts":"[1160,718]","trial_type":"fractal-mutation","trial_index":95,"time_elapsed":2982770,"internal_node_id":"0.0-5.0-41.0"},{"group":"square cycles (cube, non-group)","fractal_assignment":["../images/cyn_red.png","../images/grn_red.png","../images/blu_wht.png","../images/ylw_pnk.png","../images/gry_blk.png","../images/org_blu.png","../images/ylw_slt.png","../images/pnk_blu.png"],"mutagen_generator_assignment":[1,0],"goal":2,"start":4,"action_noise":0.1,"location_history":"[4,7,3,2]","action_history":"[0,1,1]","mutagen_history":"[1,0,0]","location_rts":"[1761,759,322]","trial_type":"fractal-mutation","trial_index":96,"time_elapsed":2992307,"internal_node_id":"0.0-5.0-42.0"},{"group":"square cycles (cube, non-group)","fractal_assignment":["../images/cyn_red.png","../images/grn_red.png","../images/blu_wht.png","../images/ylw_pnk.png","../images/gry_blk.png","../images/org_blu.png","../images/ylw_slt.png","../images/pnk_blu.png"],"mutagen_generator_assignment":[1,0],"goal":5,"start":2,"action_noise":0.1,"location_history":"[2,3,0,4,5]","action_history":"[0,0,1,1]","mutagen_history":"[1,1,0,0]","location_rts":"[5921,789,1607,251]","trial_type":"fractal-mutation","trial_index":97,"time_elapsed":3008601,"internal_node_id":"0.0-5.0-43.0"},{"group":"square cycles (cube, non-group)","fractal_assignment":["../images/cyn_red.png","../images/grn_red.png","../images/blu_wht.png","../images/ylw_pnk.png","../images/gry_blk.png","../images/org_blu.png","../images/ylw_slt.png","../images/pnk_blu.png"],"mutagen_generator_assignment":[1,0],"goal":0,"start":5,"action_noise":0.1,"location_history":"[5,1,0]","action_history":"[1,1]","mutagen_history":"[0,0]","location_rts":"[2200,281]","trial_type":"fractal-mutation","trial_index":98,"time_elapsed":3016700,"internal_node_id":"0.0-5.0-44.0"},{"group":"square cycles (cube, non-group)","fractal_assignment":["../images/cyn_red.png","../images/grn_red.png","../images/blu_wht.png","../images/ylw_pnk.png","../images/gry_blk.png","../images/org_blu.png","../images/ylw_slt.png","../images/pnk_blu.png"],"mutagen_generator_assignment":[1,0],"goal":7,"start":0,"action_noise":0.1,"location_history":"[0,1,2,6,5,4,7]","action_history":"[0,0,1,1,0,0]","mutagen_history":"[1,1,0,0,1,1]","location_rts":"[8485,933,7726,437,1430,976]","trial_type":"fractal-mutation","trial_index":99,"time_elapsed":3046912,"internal_node_id":"0.0-5.0-45.0"},{"group":"square cycles (cube, non-group)","fractal_assignment":["../images/cyn_red.png","../images/grn_red.png","../images/blu_wht.png","../images/ylw_pnk.png","../images/gry_blk.png","../images/org_blu.png","../images/ylw_slt.png","../images/pnk_blu.png"],"mutagen_generator_assignment":[1,0],"goal":6,"start":7,"action_noise":0.1,"location_history":"[7,3,2,6]","action_history":"[1,1,1]","mutagen_history":"[0,0,0]","location_rts":"[1521,366,297]","trial_type":"fractal-mutation","trial_index":100,"time_elapsed":3055743,"internal_node_id":"0.0-5.0-46.0"},{"group":"square cycles (cube, non-group)","fractal_assignment":["../images/cyn_red.png","../images/grn_red.png","../images/blu_wht.png","../images/ylw_pnk.png","../images/gry_blk.png","../images/org_blu.png","../images/ylw_slt.png","../images/pnk_blu.png"],"mutagen_generator_assignment":[1,0],"goal":2,"start":6,"action_noise":0.1,"location_history":"[6,5,1,2]","action_history":"[1,1,0]","mutagen_history":"[0,0,1]","location_rts":"[2518,238,956]","trial_type":"fractal-mutation","trial_index":101,"time_elapsed":3066130,"internal_node_id":"0.0-5.0-47.0"},{"group":"square cycles (cube, non-group)","fractal_assignment":["../images/cyn_red.png","../images/grn_red.png","../images/blu_wht.png","../images/ylw_pnk.png","../images/gry_blk.png","../images/org_blu.png","../images/ylw_slt.png","../images/pnk_blu.png"],"mutagen_generator_assignment":[1,0],"goal":5,"start":2,"action_noise":0.1,"location_history":"[2,3,0,4,5]","action_history":"[0,0,1,1]","mutagen_history":"[1,1,0,0]","location_rts":"[3783,925,1185,701]","trial_type":"fractal-mutation","trial_index":102,"time_elapsed":3080417,"internal_node_id":"0.0-5.0-48.0"},{"group":"square cycles (cube, non-group)","fractal_assignment":["../images/cyn_red.png","../images/grn_red.png","../images/blu_wht.png","../images/ylw_pnk.png","../images/gry_blk.png","../images/org_blu.png","../images/ylw_slt.png","../images/pnk_blu.png"],"mutagen_generator_assignment":[1,0],"goal":3,"start":5,"action_noise":0.1,"location_history":"[5,1,2,6,7,6,7,3]","action_history":"[0,0,1,1,1,1,1]","mutagen_history":"[1,1,0,0,0,0,0]","location_rts":"[2902,509,1056,111,240,1194,446]","trial_type":"fractal-mutation","trial_index":103,"time_elapsed":3097756,"internal_node_id":"0.0-5.0-49.0"},{"view_history":"[{\"page_index\":0,\"viewing_time\":4160}]","rt":4161,"trial_type":"instructions","trial_index":104,"time_elapsed":3102918,"internal_node_id":"0.0-6.0"},{"rt":48114,"responses":"{\"Q0\":\"pattern recognition with random changing variables\"}","trial_type":"survey-text","trial_index":105,"time_elapsed":3152042,"internal_node_id":"0.0-7.0-0.0"},{"rt":17963,"responses":"{\"Q0\":\"same answer as before\"}","trial_type":"survey-text","trial_index":106,"time_elapsed":3171011,"internal_node_id":"0.0-7.0-1.0"},{"rt":70377,"responses":"{\"Q0\":\"<img src='../images/diagrams/square_cycles.png'>\"}","trial_type":"survey-multi-choice","trial_index":107,"time_elapsed":3242407,"internal_node_id":"0.0-7.0-2.0"},{"rt":64495,"assignments":["../images/ylw_slt.png","../images/pnk_blu.png","../images/grn_red.png","../images/org_blu.png","../images/blu_wht.png","../images/ylw_pnk.png","../images/cyn_red.png","../images/gry_blk.png"],"trial_type":"drag-drop-on-image","trial_index":108,"time_elapsed":3307906,"internal_node_id":"0.0-7.0-3.0"},{"rt":8126,"responses":"{\"Q0\":\"3\"}","trial_type":"survey-likert","trial_index":109,"time_elapsed":3317041,"internal_node_id":"0.0-7.0-4.0"},{"rt":108030,"responses":"{\"Q0\":\"one choice would toggle between the two sets of groups. the other choice would go through the group that is selected.\"}","trial_type":"survey-text","trial_index":110,"time_elapsed":3426080,"internal_node_id":"0.0-7.0-5.0"},{"rt":5770,"responses":"{\"Q0\":\"Yes\"}","trial_type":"survey-multi-choice","trial_index":111,"time_elapsed":3432859,"internal_node_id":"0.0-7.0-6.0"},{"rt":10278,"responses":"{\"Q0\":\"During session 2\"}","trial_type":"survey-multi-choice","trial_index":112,"time_elapsed":3444148,"internal_node_id":"0.0-7.0-7.0"},{"rt":32698,"responses":"{\"Q0\":\"I answered on the previous typing question\"}","trial_type":"survey-text","trial_index":113,"time_elapsed":3477849,"internal_node_id":"0.0-7.0-8.0"},{"rt":9217,"responses":"{\"Q0\":\"4\"}","trial_type":"survey-likert","trial_index":114,"time_elapsed":3488073,"internal_node_id":"0.0-7.0-9.0"},{"rt":10846,"responses":"{\"Q0\":\"Same structure\"}","trial_type":"survey-multi-choice","trial_index":115,"time_elapsed":3499925,"internal_node_id":"0.0-7.0-10.0"},{"rt":86139,"responses":"{\"Q0\":\"left (black) door = ray, (white) door = acid\",\"Q1\":\"Slightly confident\"}","trial_type":"survey-multi-choice","trial_index":116,"time_elapsed":3587081,"internal_node_id":"0.0-7.0-11.0"},{"rt":15374,"responses":"{\"Q0\":\"25-35\",\"Q1\":\"Some college\",\"Q2\":\"Female\",\"Q3\":\"White\"}","trial_type":"survey-multi-choice","trial_index":117,"time_elapsed":3603493,"internal_node_id":"0.0-8.0"},{"rt":17947,"responses":"{\"Q0\":\"it was fun\"}","trial_type":"survey-text","trial_index":118,"time_elapsed":3622446,"internal_node_id":"0.0-9.0"}]