[{"view_history":"[{\"page_index\":0,\"viewing_time\":1619},{\"page_index\":1,\"viewing_time\":2622}]","rt":4243,"trial_type":"instructions","trial_index":0,"time_elapsed":4244,"internal_node_id":"0.0-0.0"},{"view_history":"[{\"page_index\":0,\"viewing_time\":1412},{\"page_index\":1,\"viewing_time\":1337}]","rt":2750,"trial_type":"instructions","trial_index":1,"time_elapsed":7996,"internal_node_id":"0.0-1.0"},{"group":"square cycles (cube, non-group)","room_assignment":["yellow","grey","green","purple","blue","red","brown","pink"],"door_color_assignment":["black","white"],"door_generator_assignment":[0,1],"goal":5,"start":7,"action_noise":0.1,"location_history":"[7,3,0,1,2,6,7,6,5]","action_history":"[1,0,0,0,0,0,0,0]","door_history":"[1,0,0,0,0,0,0,0]","location_rts":"[2015,401,217,437,9113,33,371,45]","trial_type":"two-door-navigation","trial_index":2,"time_elapsed":32294,"internal_node_id":"0.0-2.0-0.0"},{"group":"square cycles (cube, non-group)","room_assignment":["yellow","grey","green","purple","blue","red","brown","pink"],"door_color_assignment":["black","white"],"door_generator_assignment":[0,1],"goal":2,"start":5,"action_noise":0.1,"location_history":"[5,1,0,1,2]","action_history":"[1,1,1,0]","door_history":"[1,1,1,0]","location_rts":"[307,41,387,84]","trial_type":"two-door-navigation","trial_index":3,"time_elapsed":40680,"internal_node_id":"0.0-2.0-1.0"},{"group":"square cycles (cube, non-group)","room_assignment":["yellow","grey","green","purple","blue","red","brown","pink"],"door_color_assignment":["black","white"],"door_generator_assignment":[0,1],"goal":0,"start":2,"action_noise":0.1,"location_history":"[2,3,0]","action_history":"[0,0]","door_history":"[0,0]","location_rts":"[441,209]","trial_type":"two-door-navigation","trial_index":4,"time_elapsed":46865,"internal_node_id":"0.0-2.0-2.0"},{"group":"square cycles (cube, non-group)","room_assignment":["yellow","grey","green","purple","blue","red","brown","pink"],"door_color_assignment":["black","white"],"door_generator_assignment":[0,1],"goal":1,"start":0,"action_noise":0.1,"location_history":"[0,4,5,1]","action_history":"[1,1,1]","door_history":"[1,1,1]","location_rts":"[15980,148,116]","trial_type":"two-door-navigation","trial_index":5,"time_elapsed":69662,"internal_node_id":"0.0-2.0-3.0"},{"group":"square cycles (cube, non-group)","room_assignment":["yellow","grey","green","purple","blue","red","brown","pink"],"door_color_assignment":["black","white"],"door_generator_assignment":[0,1],"goal":6,"start":1,"action_noise":0.1,"location_history":"[1,2,3,0,1,0,1,0,4,7,6]","action_history":"[0,0,0,0,0,0,1,1,0,0]","door_history":"[0,0,0,0,0,0,1,1,0,0]","location_rts":"[219,69,60,542,144,35,176,28,61,14]","trial_type":"two-door-navigation","trial_index":6,"time_elapsed":84692,"internal_node_id":"0.0-2.0-4.0"},{"group":"square cycles (cube, non-group)","room_assignment":["yellow","grey","green","purple","blue","red","brown","pink"],"door_color_assignment":["black","white"],"door_generator_assignment":[0,1],"goal":3,"start":6,"action_noise":0.1,"location_history":"[6,5,1,2,3]","action_history":"[1,1,0,0]","door_history":"[1,1,0,0]","location_rts":"[39629,75,5,84]","trial_type":"two-door-navigation","trial_index":7,"time_elapsed":132063,"internal_node_id":"0.0-2.0-5.0"},{"group":"square cycles (cube, non-group)","room_assignment":["yellow","grey","green","purple","blue","red","brown","pink"],"door_color_assignment":["black","white"],"door_generator_assignment":[0,1],"goal":4,"start":3,"action_noise":0.1,"location_history":"[3,2,6,5,4]","action_history":"[1,1,0,0]","door_history":"[1,1,0,0]","location_rts":"[7262,20,9,211]","trial_type":"two-door-navigation","trial_index":8,"time_elapsed":147134,"internal_node_id":"0.0-2.0-6.0"},{"group":"square cycles (cube, non-group)","room_assignment":["yellow","grey","green","purple","blue","red","brown","pink"],"door_color_assignment":["black","white"],"door_generator_assignment":[0,1],"goal":1,"start":4,"action_noise":0.1,"location_history":"[4,7,6,5,4,5,1]","action_history":"[0,0,0,0,1,1]","door_history":"[0,0,0,0,1,1]","location_rts":"[7934,83,45,69,455,82]","trial_type":"two-door-navigation","trial_index":9,"time_elapsed":165408,"internal_node_id":"0.0-2.0-7.0"},{"group":"square cycles (cube, non-group)","room_assignment":["yellow","grey","green","purple","blue","red","brown","pink"],"door_color_assignment":["black","white"],"door_generator_assignment":[0,1],"goal":4,"start":1,"action_noise":0.1,"location_history":"[1,2,3,0,1,2,3,0,1,2,3,0,1,2,3,0,4]","action_history":"[0,0,0,0,0,0,0,1,0,0,0,0,0,0,0,1]","door_history":"[0,0,0,0,0,0,0,1,0,0,0,0,0,0,0,1]","location_rts":"[19417,138,214,179,218,187,186,236,192,173,26,132,96,100,143,129]","trial_type":"two-door-navigation","trial_index":10,"time_elapsed":206953,"internal_node_id":"0.0-2.0-8.0"},{"group":"square cycles (cube, non-group)","room_assignment":["yellow","grey","green","purple","blue","red","brown","pink"],"door_color_assignment":["black","white"],"door_generator_assignment":[0,1],"goal":5,"start":4,"action_noise":0.1,"location_history":"[4,7,6,5]","action_history":"[0,0,0]","door_history":"[0,0,0]","location_rts":"[278,75,117]","trial_type":"two-door-navigation","trial_index":11,"time_elapsed":213977,"internal_node_id":"0.0-2.0-9.0"},{"group":"square cycles (cube, non-group)","room_assignment":["yellow","grey","green","purple","blue","red","brown","pink"],"door_color_assignment":["black","white"],"door_generator_assignment":[0,1],"goal":3,"start":5,"action_noise":0.1,"location_history":"[5,4,7,6,5,4,5,1,0,1,0,1,2,3]","action_history":"[0,0,0,0,0,1,0,0,0,0,0,0,1]","door_history":"[0,0,0,0,0,1,0,0,0,0,0,0,1]","location_rts":"[206,76,47,444,132,118,61,101,112,153,135,90,219]","trial_type":"two-door-navigation","trial_index":12,"time_elapsed":232595,"internal_node_id":"0.0-2.0-10.0"},{"group":"square cycles (cube, non-group)","room_assignment":["yellow","grey","green","purple","blue","red","brown","pink"],"door_color_assignment":["black","white"],"door_generator_assignment":[0,1],"goal":6,"start":3,"action_noise":0.1,"location_history":"[3,0,1,2,3,0,1,2,3,2,3,2,6]","action_history":"[0,0,0,0,0,0,0,0,1,0,0,0]","door_history":"[0,0,0,0,0,0,0,0,1,0,0,0]","location_rts":"[399,211,115,184,156,84,111,115,232,28,59,144]","trial_type":"two-door-navigation","trial_index":13,"time_elapsed":250145,"internal_node_id":"0.0-2.0-11.0"},{"group":"square cycles (cube, non-group)","room_assignment":["yellow","grey","green","purple","blue","red","brown","pink"],"door_color_assignment":["black","white"],"door_generator_assignment":[0,1],"goal":7,"start":6,"action_noise":0.1,"location_history":"[6,5,4,7]","action_history":"[0,0,0]","door_history":"[0,0,0]","location_rts":"[203,198,118]","trial_type":"two-door-navigation","trial_index":14,"time_elapsed":257216,"internal_node_id":"0.0-2.0-12.0"},{"group":"square cycles (cube, non-group)","room_assignment":["yellow","grey","green","purple","blue","red","brown","pink"],"door_color_assignment":["black","white"],"door_generator_assignment":[0,1],"goal":0,"start":7,"action_noise":0.1,"location_history":"[7,3,2,3,0]","action_history":"[0,0,0,0]","door_history":"[0,0,0,0]","location_rts":"[456,152,15,119]","trial_type":"two-door-navigation","trial_index":15,"time_elapsed":265530,"internal_node_id":"0.0-2.0-13.0"},{"group":"square cycles (cube, non-group)","room_assignment":["yellow","grey","green","purple","blue","red","brown","pink"],"door_color_assignment":["black","white"],"door_generator_assignment":[0,1],"goal":2,"start":0,"action_noise":0.1,"location_history":"[0,1,2]","action_history":"[0,0]","door_history":"[0,0]","location_rts":"[232,89]","trial_type":"two-door-navigation","trial_index":16,"time_elapsed":271399,"internal_node_id":"0.0-2.0-14.0"},{"group":"square cycles (cube, non-group)","room_assignment":["yellow","grey","green","purple","blue","red","brown","pink"],"door_color_assignment":["black","white"],"door_generator_assignment":[0,1],"goal":1,"start":2,"action_noise":0.1,"location_history":"[2,6,5,4,7,6,5,4,5,4,7,6,5,4,7,6,5,4,7,6,5,1]","action_history":"[0,0,0,0,0,0,0,1,0,0,0,0,0,0,0,0,0,0,1,0,1]","door_history":"[0,0,0,0,0,0,0,1,0,0,0,0,0,0,0,0,0,0,1,0,1]","location_rts":"[232,97,45,451,503,39,20,303,309,227,21,452,30,106,81,8,17,120,406,92,127]","trial_type":"two-door-navigation","trial_index":17,"time_elapsed":299940,"internal_node_id":"0.0-2.0-15.0"},{"group":"square cycles (cube, non-group)","room_assignment":["yellow","grey","green","purple","blue","red","brown","pink"],"door_color_assignment":["black","white"],"door_generator_assignment":[0,1],"goal":6,"start":1,"action_noise":0.1,"location_history":"[1,0,4,7,6]","action_history":"[1,0,0,0]","door_history":"[1,0,0,0]","location_rts":"[222,96,17,92]","trial_type":"two-door-navigation","trial_index":18,"time_elapsed":307944,"internal_node_id":"0.0-2.0-16.0"},{"group":"square cycles (cube, non-group)","room_assignment":["yellow","grey","green","purple","blue","red","brown","pink"],"door_color_assignment":["black","white"],"door_generator_assignment":[0,1],"goal":3,"start":6,"action_noise":0.1,"location_history":"[6,7,6,5,4,5,4,7,6,5,4,5,1,2,3]","action_history":"[0,0,0,0,1,0,0,0,0,0,0,1,0,0]","door_history":"[0,0,0,0,1,0,0,0,0,0,0,1,0,0]","location_rts":"[186,60,5,120,128,170,47,115,6,280,125,228,633,89]","trial_type":"two-door-navigation","trial_index":19,"time_elapsed":327887,"internal_node_id":"0.0-2.0-17.0"},{"group":"square cycles (cube, non-group)","room_assignment":["yellow","grey","green","purple","blue","red","brown","pink"],"door_color_assignment":["black","white"],"door_generator_assignment":[0,1],"goal":4,"start":3,"action_noise":0.1,"location_history":"[3,0,1,2,3,2,3,2,6,7,6,5,4]","action_history":"[0,0,0,0,0,0,0,1,1,0,0,0]","door_history":"[0,0,0,0,0,0,0,1,1,0,0,0]","location_rts":"[270,223,189,30,63,52,43,762,319,35,161,68]","trial_type":"two-door-navigation","trial_index":20,"time_elapsed":345797,"internal_node_id":"0.0-2.0-18.0"},{"group":"square cycles (cube, non-group)","room_assignment":["yellow","grey","green","purple","blue","red","brown","pink"],"door_color_assignment":["black","white"],"door_generator_assignment":[0,1],"goal":5,"start":4,"action_noise":0.1,"location_history":"[4,7,6,5]","action_history":"[0,0,0]","door_history":"[0,0,0]","location_rts":"[39,298,29]","trial_type":"two-door-navigation","trial_index":21,"time_elapsed":352719,"internal_node_id":"0.0-2.0-19.0"},{"group":"square cycles (cube, non-group)","room_assignment":["yellow","grey","green","purple","blue","red","brown","pink"],"door_color_assignment":["black","white"],"door_generator_assignment":[0,1],"goal":7,"start":5,"action_noise":0.1,"location_history":"[5,4,7]","action_history":"[0,0]","door_history":"[0,0]","location_rts":"[23,227]","trial_type":"two-door-navigation","trial_index":22,"time_elapsed":358507,"internal_node_id":"0.0-2.0-20.0"},{"group":"square cycles (cube, non-group)","room_assignment":["yellow","grey","green","purple","blue","red","brown","pink"],"door_color_assignment":["black","white"],"door_generator_assignment":[0,1],"goal":2,"start":7,"action_noise":0.1,"location_history":"[7,6,5,4,7,6,5,4,7,6,7,3,0,1,2]","action_history":"[0,0,0,0,0,0,0,0,0,1,1,0,0,0]","door_history":"[0,0,0,0,0,0,0,0,0,1,1,0,0,0]","location_rts":"[188,42,184,33,70,38,314,266,403,604,398,672,90,72]","trial_type":"two-door-navigation","trial_index":23,"time_elapsed":379613,"internal_node_id":"0.0-2.0-21.0"},{"group":"square cycles (cube, non-group)","room_assignment":["yellow","grey","green","purple","blue","red","brown","pink"],"door_color_assignment":["black","white"],"door_generator_assignment":[0,1],"goal":0,"start":2,"action_noise":0.1,"location_history":"[2,3,0]","action_history":"[0,0]","door_history":"[0,0]","location_rts":"[456,263]","trial_type":"two-door-navigation","trial_index":24,"time_elapsed":385865,"internal_node_id":"0.0-2.0-22.0"},{"group":"square cycles (cube, non-group)","room_assignment":["yellow","grey","green","purple","blue","red","brown","pink"],"door_color_assignment":["black","white"],"door_generator_assignment":[0,1],"goal":7,"start":0,"action_noise":0.1,"location_history":"[0,1,2,3,0,1,2,6,7]","action_history":"[0,0,1,0,0,0,1,1]","door_history":"[0,0,1,0,0,0,1,1]","location_rts":"[1149,137,253,24,145,51,276,78]","trial_type":"two-door-navigation","trial_index":25,"time_elapsed":399629,"internal_node_id":"0.0-2.0-23.0"},{"group":"square cycles (cube, non-group)","room_assignment":["yellow","grey","green","purple","blue","red","brown","pink"],"door_color_assignment":["black","white"],"door_generator_assignment":[0,1],"goal":5,"start":7,"action_noise":0.1,"location_history":"[7,6,5]","action_history":"[0,0]","door_history":"[0,0]","location_rts":"[211,206]","trial_type":"two-door-navigation","trial_index":26,"time_elapsed":405586,"internal_node_id":"0.0-2.0-24.0"},{"group":"square cycles (cube, non-group)","room_assignment":["yellow","grey","green","purple","blue","red","brown","pink"],"door_color_assignment":["black","white"],"door_generator_assignment":[0,1],"goal":0,"start":5,"action_noise":0.1,"location_history":"[5,4,7,3,2,6,5,4,7,3,0]","action_history":"[0,0,1,1,1,0,0,0,1,0]","door_history":"[0,0,1,1,1,0,0,0,1,0]","location_rts":"[214,279,187,227,107,51,214,183,214,214]","trial_type":"two-door-navigation","trial_index":27,"time_elapsed":421146,"internal_node_id":"0.0-2.0-25.0"},{"group":"square cycles (cube, non-group)","room_assignment":["yellow","grey","green","purple","blue","red","brown","pink"],"door_color_assignment":["black","white"],"door_generator_assignment":[0,1],"goal":6,"start":0,"action_noise":0.1,"location_history":"[0,1,0,1,0,1,0,1,0,4,5,1,2,3,0,1,2,6]","action_history":"[0,1,1,0,0,0,0,0,1,1,0,0,0,0,0,0,1]","door_history":"[0,1,1,0,0,0,0,0,1,1,0,0,0,0,0,0,1]","location_rts":"[274,722,133,108,34,123,344,271,27,26,50,84,110,125,107,134,62]","trial_type":"two-door-navigation","trial_index":28,"time_elapsed":444679,"internal_node_id":"0.0-2.0-26.0"},{"group":"square cycles (cube, non-group)","room_assignment":["yellow","grey","green","purple","blue","red","brown","pink"],"door_color_assignment":["black","white"],"door_generator_assignment":[0,1],"goal":4,"start":6,"action_noise":0.1,"location_history":"[6,7,6,7,6,7,6,5,4]","action_history":"[0,0,1,0,0,0,1,0]","door_history":"[0,0,1,0,0,0,1,0]","location_rts":"[9,102,106,86,50,204,75,948]","trial_type":"two-door-navigation","trial_index":29,"time_elapsed":457893,"internal_node_id":"0.0-2.0-27.0"},{"group":"square cycles (cube, non-group)","room_assignment":["yellow","grey","green","purple","blue","red","brown","pink"],"door_color_assignment":["black","white"],"door_generator_assignment":[0,1],"goal":2,"start":4,"action_noise":0.1,"location_history":"[4,5,4,7,6,7,3,0,4,7,6,7,6,5,4,7,6,5,4,7,6,7,3,0,4,7,3,0,4,5,4,7,6,7,3,2]","action_history":"[0,0,0,0,1,1,0,0,0,0,0,0,0,0,0,0,0,0,0,0,1,1,0,0,0,0,0,1,1,0,0,0,1,1,1]","door_history":"[0,0,0,0,1,1,0,0,0,0,0,0,0,0,0,0,0,0,0,0,1,1,0,0,0,0,0,1,1,0,0,0,1,1,1]","location_rts":"[667,83,351,915,769,305,241,353,274,184,627,346,264,93,550,46,186,51,510,78,315,329,167,366,263,239,176,84,119,58,70,351,1327,343,421]","trial_type":"two-door-navigation","trial_index":30,"time_elapsed":508492,"internal_node_id":"0.0-2.0-28.0"},{"group":"square cycles (cube, non-group)","room_assignment":["yellow","grey","green","purple","blue","red","brown","pink"],"door_color_assignment":["black","white"],"door_generator_assignment":[0,1],"goal":3,"start":2,"action_noise":0.1,"location_history":"[2,6,5,4,7,6,5,4,5,4,7,3]","action_history":"[0,0,0,0,0,0,0,0,0,0,0]","door_history":"[0,0,0,0,0,0,0,0,0,0,0]","location_rts":"[195,281,74,285,93,212,294,345,91,497,647]","trial_type":"two-door-navigation","trial_index":31,"time_elapsed":526203,"internal_node_id":"0.0-2.0-29.0"},{"group":"square cycles (cube, non-group)","room_assignment":["yellow","grey","green","purple","blue","red","brown","pink"],"door_color_assignment":["black","white"],"door_generator_assignment":[0,1],"goal":1,"start":3,"action_noise":0.1,"location_history":"[3,0,4,7,6,5,1]","action_history":"[0,1,0,0,0,1]","door_history":"[0,1,0,0,0,1]","location_rts":"[623,425,46,12,147,58]","trial_type":"two-door-navigation","trial_index":32,"time_elapsed":537121,"internal_node_id":"0.0-2.0-30.0"},{"group":"square cycles (cube, non-group)","room_assignment":["yellow","grey","green","purple","blue","red","brown","pink"],"door_color_assignment":["black","white"],"door_generator_assignment":[0,1],"goal":4,"start":1,"action_noise":0.1,"location_history":"[1,0,1,2,3,0,1,2,6,5,4]","action_history":"[1,0,0,0,0,0,0,1,0,0]","door_history":"[1,0,0,0,0,0,0,1,0,0]","location_rts":"[202,340,429,154,179,43,89,177,237,561]","trial_type":"two-door-navigation","trial_index":33,"time_elapsed":553194,"internal_node_id":"0.0-2.0-31.0"},{"group":"square cycles (cube, non-group)","room_assignment":["yellow","grey","green","purple","blue","red","brown","pink"],"door_color_assignment":["black","white"],"door_generator_assignment":[0,1],"goal":3,"start":4,"action_noise":0.1,"location_history":"[4,7,6,5,4,7,6,5,1,2,3]","action_history":"[0,0,0,0,0,0,0,1,0,0]","door_history":"[0,0,0,0,0,0,0,1,0,0]","location_rts":"[2937,415,183,278,477,213,118,124,78,15]","trial_type":"two-door-navigation","trial_index":34,"time_elapsed":572347,"internal_node_id":"0.0-2.0-32.0"},{"group":"square cycles (cube, non-group)","room_assignment":["yellow","grey","green","purple","blue","red","brown","pink"],"door_color_assignment":["black","white"],"door_generator_assignment":[0,1],"goal":6,"start":3,"action_noise":0.1,"location_history":"[3,0,4,7,3,0,1,2,6]","action_history":"[0,0,0,0,0,0,1,0]","door_history":"[0,0,0,0,0,0,1,0]","location_rts":"[3930,236,86,428,121,519,216,157]","trial_type":"two-door-navigation","trial_index":35,"time_elapsed":589855,"internal_node_id":"0.0-2.0-33.0"},{"group":"square cycles (cube, non-group)","room_assignment":["yellow","grey","green","purple","blue","red","brown","pink"],"door_color_assignment":["black","white"],"door_generator_assignment":[0,1],"goal":0,"start":6,"action_noise":0.1,"location_history":"[6,7,6,5,4,7,6,7,3,0]","action_history":"[1,0,0,0,0,0,1,1,0]","door_history":"[1,0,0,0,0,0,1,1,0]","location_rts":"[554,1682,67543,163,186,487,240,206,217]","trial_type":"two-door-navigation","trial_index":36,"time_elapsed":676984,"internal_node_id":"0.0-2.0-34.0"},{"group":"square cycles (cube, non-group)","room_assignment":["yellow","grey","green","purple","blue","red","brown","pink"],"door_color_assignment":["black","white"],"door_generator_assignment":[0,1],"goal":1,"start":0,"action_noise":0.1,"location_history":"[0,1]","action_history":"[0]","door_history":"[0]","location_rts":"[172]","trial_type":"two-door-navigation","trial_index":37,"time_elapsed":681684,"internal_node_id":"0.0-2.0-35.0"},{"group":"square cycles (cube, non-group)","room_assignment":["yellow","grey","green","purple","blue","red","brown","pink"],"door_color_assignment":["black","white"],"door_generator_assignment":[0,1],"goal":5,"start":1,"action_noise":0.1,"location_history":"[1,2,3,0,4,5]","action_history":"[0,0,0,1,1]","door_history":"[0,0,0,1,1]","location_rts":"[346,195,253,170,129]","trial_type":"two-door-navigation","trial_index":38,"time_elapsed":691863,"internal_node_id":"0.0-2.0-36.0"},{"group":"square cycles (cube, non-group)","room_assignment":["yellow","grey","green","purple","blue","red","brown","pink"],"door_color_assignment":["black","white"],"door_generator_assignment":[0,1],"goal":7,"start":5,"action_noise":0.1,"location_history":"[5,4,7]","action_history":"[0,0]","door_history":"[0,0]","location_rts":"[351,40]","trial_type":"two-door-navigation","trial_index":39,"time_elapsed":697802,"internal_node_id":"0.0-2.0-37.0"},{"group":"square cycles (cube, non-group)","room_assignment":["yellow","grey","green","purple","blue","red","brown","pink"],"door_color_assignment":["black","white"],"door_generator_assignment":[0,1],"goal":2,"start":7,"action_noise":0.1,"location_history":"[7,6,7,6,5,4,5,1,0,4,7,6,7,6,5,4,7,3,0,1,2]","action_history":"[0,1,0,0,0,1,1,0,0,0,0,1,0,0,0,0,1,0,1,0]","door_history":"[0,1,0,0,0,1,1,0,0,0,0,1,0,0,0,0,1,0,1,0]","location_rts":"[239,124,151,151,6,10,87,554,189,190,126,45,202,98,326,358,58,263,578,187]","trial_type":"two-door-navigation","trial_index":40,"time_elapsed":725751,"internal_node_id":"0.0-2.0-38.0"},{"group":"square cycles (cube, non-group)","room_assignment":["yellow","grey","green","purple","blue","red","brown","pink"],"door_color_assignment":["black","white"],"door_generator_assignment":[0,1],"goal":1,"start":2,"action_noise":0.1,"location_history":"[2,6,5,1]","action_history":"[0,0,1]","door_history":"[0,0,1]","location_rts":"[228,307,1072]","trial_type":"two-door-navigation","trial_index":41,"time_elapsed":733921,"internal_node_id":"0.0-2.0-39.0"},{"group":"square cycles (cube, non-group)","room_assignment":["yellow","grey","green","purple","blue","red","brown","pink"],"door_color_assignment":["black","white"],"door_generator_assignment":[0,1],"goal":3,"start":1,"action_noise":0.1,"location_history":"[1,2,3]","action_history":"[0,0]","door_history":"[0,0]","location_rts":"[1002,270]","trial_type":"two-door-navigation","trial_index":42,"time_elapsed":740732,"internal_node_id":"0.0-2.0-40.0"},{"group":"square cycles (cube, non-group)","room_assignment":["yellow","grey","green","purple","blue","red","brown","pink"],"door_color_assignment":["black","white"],"door_generator_assignment":[0,1],"goal":4,"start":3,"action_noise":0.1,"location_history":"[3,0,1,2,6,5,4]","action_history":"[0,0,0,1,0,0]","door_history":"[0,0,0,1,0,0]","location_rts":"[245,99,150,202,698,221]","trial_type":"two-door-navigation","trial_index":43,"time_elapsed":751964,"internal_node_id":"0.0-2.0-41.0"},{"group":"square cycles (cube, non-group)","room_assignment":["yellow","grey","green","purple","blue","red","brown","pink"],"door_color_assignment":["black","white"],"door_generator_assignment":[0,1],"goal":2,"start":4,"action_noise":0.1,"location_history":"[4,7,6,5,1,0,1,2]","action_history":"[0,0,0,1,1,0,0]","door_history":"[0,0,0,1,1,0,0]","location_rts":"[352,212,195,57,25,650,126]","trial_type":"two-door-navigation","trial_index":44,"time_elapsed":764230,"internal_node_id":"0.0-2.0-42.0"},{"group":"square cycles (cube, non-group)","room_assignment":["yellow","grey","green","purple","blue","red","brown","pink"],"door_color_assignment":["black","white"],"door_generator_assignment":[0,1],"goal":5,"start":2,"action_noise":0.1,"location_history":"[2,6,7,6,7,3,0,1,2,6,5]","action_history":"[0,0,0,1,1,0,0,0,0,0]","door_history":"[0,0,0,1,1,0,0,0,0,0]","location_rts":"[525,408,218,131,95,126,37,198,268,422]","trial_type":"two-door-navigation","trial_index":45,"time_elapsed":780359,"internal_node_id":"0.0-2.0-43.0"},{"group":"square cycles (cube, non-group)","room_assignment":["yellow","grey","green","purple","blue","red","brown","pink"],"door_color_assignment":["black","white"],"door_generator_assignment":[0,1],"goal":0,"start":5,"action_noise":0.1,"location_history":"[5,4,7,3,0]","action_history":"[0,0,1,0]","door_history":"[0,0,1,0]","location_rts":"[222,47,7,450]","trial_type":"two-door-navigation","trial_index":46,"time_elapsed":788658,"internal_node_id":"0.0-2.0-44.0"},{"group":"square cycles (cube, non-group)","room_assignment":["yellow","grey","green","purple","blue","red","brown","pink"],"door_color_assignment":["black","white"],"door_generator_assignment":[0,1],"goal":7,"start":0,"action_noise":0.1,"location_history":"[0,1,2,6,5,4,7]","action_history":"[0,0,0,1,0,0]","door_history":"[0,0,0,1,0,0]","location_rts":"[226,76,49,194,412,45]","trial_type":"two-door-navigation","trial_index":47,"time_elapsed":799274,"internal_node_id":"0.0-2.0-45.0"},{"group":"square cycles (cube, non-group)","room_assignment":["yellow","grey","green","purple","blue","red","brown","pink"],"door_color_assignment":["black","white"],"door_generator_assignment":[0,1],"goal":6,"start":7,"action_noise":0.1,"location_history":"[7,6]","action_history":"[0]","door_history":"[0]","location_rts":"[211]","trial_type":"two-door-navigation","trial_index":48,"time_elapsed":804005,"internal_node_id":"0.0-2.0-46.0"},{"group":"square cycles (cube, non-group)","room_assignment":["yellow","grey","green","purple","blue","red","brown","pink"],"door_color_assignment":["black","white"],"door_generator_assignment":[0,1],"goal":2,"start":6,"action_noise":0.1,"location_history":"[6,5,4,7,6,7,3,0,1,2]","action_history":"[0,0,0,0,1,1,0,0,0]","door_history":"[0,0,0,0,1,1,0,0,0]","location_rts":"[214,342,17,34,609,231,35,360,45]","trial_type":"two-door-navigation","trial_index":49,"time_elapsed":818566,"internal_node_id":"0.0-2.0-47.0"},{"group":"square cycles (cube, non-group)","room_assignment":["yellow","grey","green","purple","blue","red","brown","pink"],"door_color_assignment":["black","white"],"door_generator_assignment":[0,1],"goal":5,"start":2,"action_noise":0.1,"location_history":"[2,3,0,4,7,6,5]","action_history":"[0,0,1,0,0,0]","door_history":"[0,0,1,0,0,0]","location_rts":"[628,193,203,104,300,151]","trial_type":"two-door-navigation","trial_index":50,"time_elapsed":829760,"internal_node_id":"0.0-2.0-48.0"},{"group":"square cycles (cube, non-group)","room_assignment":["yellow","grey","green","purple","blue","red","brown","pink"],"door_color_assignment":["black","white"],"door_generator_assignment":[0,1],"goal":3,"start":5,"action_noise":0.1,"location_history":"[5,4,7,6,7,3]","action_history":"[0,0,0,1,0]","door_history":"[0,0,0,1,0]","location_rts":"[228,139,232,39,610]","trial_type":"two-door-navigation","trial_index":51,"time_elapsed":839600,"internal_node_id":"0.0-2.0-49.0"},{"view_history":"[{\"page_index\":0,\"viewing_time\":1381}]","rt":1381,"trial_type":"instructions","trial_index":52,"time_elapsed":841983,"internal_node_id":"0.0-3.0"},{"view_history":"[{\"page_index\":0,\"viewing_time\":636},{\"page_index\":1,\"viewing_time\":1832}]","rt":2469,"trial_type":"instructions","trial_index":53,"time_elapsed":845453,"internal_node_id":"0.0-4.0"},{"group":"tri cycles (cube, non-group)","fractal_assignment":["../images/ylw_slt.png","../images/pnk_blu.png","../images/blu_wht.png","../images/gry_blk.png","../images/ylw_pnk.png","../images/org_blu.png","../images/grn_red.png","../images/cyn_red.png"],"mutagen_generator_assignment":[1,0],"goal":5,"start":7,"action_noise":0.1,"location_history":"[7,6,5]","action_history":"[0,1]","mutagen_history":"[1,0]","location_rts":"[1668,247]","trial_type":"fractal-mutation","trial_index":54,"time_elapsed":853195,"internal_node_id":"0.0-5.0-0.0"},{"group":"tri cycles (cube, non-group)","fractal_assignment":["../images/ylw_slt.png","../images/pnk_blu.png","../images/blu_wht.png","../images/gry_blk.png","../images/ylw_pnk.png","../images/org_blu.png","../images/grn_red.png","../images/cyn_red.png"],"mutagen_generator_assignment":[1,0],"goal":2,"start":5,"action_noise":0.1,"location_history":"[5,2]","action_history":"[1]","mutagen_history":"[0]","location_rts":"[602]","trial_type":"fractal-mutation","trial_index":55,"time_elapsed":858412,"internal_node_id":"0.0-5.0-1.0"},{"group":"tri cycles (cube, non-group)","fractal_assignment":["../images/ylw_slt.png","../images/pnk_blu.png","../images/blu_wht.png","../images/gry_blk.png","../images/ylw_pnk.png","../images/org_blu.png","../images/grn_red.png","../images/cyn_red.png"],"mutagen_generator_assignment":[1,0],"goal":0,"start":2,"action_noise":0.1,"location_history":"[2,6,5,2,6,5,1,0]","action_history":"[1,1,1,1,1,0,0]","mutagen_history":"[0,0,0,0,0,1,1]","location_rts":"[481,252,213,402,418,493,400]","trial_type":"fractal-mutation","trial_index":56,"time_elapsed":872484,"internal_node_id":"0.0-5.0-2.0"},{"group":"tri cycles (cube, non-group)","fractal_assignment":["../images/ylw_slt.png","../images/pnk_blu.png","../images/blu_wht.png","../images/gry_blk.png","../images/ylw_pnk.png","../images/org_blu.png","../images/grn_red.png","../images/cyn_red.png"],"mutagen_generator_assignment":[1,0],"goal":1,"start":0,"action_noise":0.1,"location_history":"[0,2,1]","action_history":"[1,0]","mutagen_history":"[0,1]","location_rts":"[575,387]","trial_type":"fractal-mutation","trial_index":57,"time_elapsed":879245,"internal_node_id":"0.0-5.0-3.0"},{"group":"tri cycles (cube, non-group)","fractal_assignment":["../images/ylw_slt.png","../images/pnk_blu.png","../images/blu_wht.png","../images/gry_blk.png","../images/ylw_pnk.png","../images/org_blu.png","../images/grn_red.png","../images/cyn_red.png"],"mutagen_generator_assignment":[1,0],"goal":6,"start":1,"action_noise":0.1,"location_history":"[1,5,1,0,3,4,0,3,4,0,2,1,0,3,4,7,6]","action_history":"[1,1,0,0,1,1,1,1,1,0,0,0,1,1,0,0]","mutagen_history":"[0,0,1,1,0,0,0,0,0,1,1,1,0,0,1,1]","location_rts":"[238,165,380,174,86,246,324,449,426,100,399,142,600,590,276,519]","trial_type":"fractal-mutation","trial_index":58,"time_elapsed":906134,"internal_node_id":"0.0-5.0-4.0"},{"group":"tri cycles (cube, non-group)","fractal_assignment":["../images/ylw_slt.png","../images/pnk_blu.png","../images/blu_wht.png","../images/gry_blk.png","../images/ylw_pnk.png","../images/org_blu.png","../images/grn_red.png","../images/cyn_red.png"],"mutagen_generator_assignment":[1,0],"goal":3,"start":6,"action_noise":0.1,"location_history":"[6,5,2,6,5,1,5,2,1,5,2,6,5,1,0,3]","action_history":"[1,1,1,1,0,1,1,0,1,1,1,1,0,0,1]","mutagen_history":"[0,0,0,0,1,0,0,1,0,0,0,0,1,1,0]","location_rts":"[254,411,350,540,425,306,233,414,106,68,208,420,443,207,199]","trial_type":"fractal-mutation","trial_index":59,"time_elapsed":931147,"internal_node_id":"0.0-5.0-5.0"},{"group":"tri cycles (cube, non-group)","fractal_assignment":["../images/ylw_slt.png","../images/pnk_blu.png","../images/blu_wht.png","../images/gry_blk.png","../images/ylw_pnk.png","../images/org_blu.png","../images/grn_red.png","../images/cyn_red.png"],"mutagen_generator_assignment":[1,0],"goal":4,"start":3,"action_noise":0.1,"location_history":"[3,4]","action_history":"[1]","mutagen_history":"[0]","location_rts":"[928]","trial_type":"fractal-mutation","trial_index":60,"time_elapsed":936691,"internal_node_id":"0.0-5.0-6.0"},{"group":"tri cycles (cube, non-group)","fractal_assignment":["../images/ylw_slt.png","../images/pnk_blu.png","../images/blu_wht.png","../images/gry_blk.png","../images/ylw_pnk.png","../images/org_blu.png","../images/grn_red.png","../images/cyn_red.png"],"mutagen_generator_assignment":[1,0],"goal":1,"start":4,"action_noise":0.1,"location_history":"[4,0,3,4,0,2,6,5,2,1]","action_history":"[1,1,1,1,0,0,1,1,0]","mutagen_history":"[0,0,0,0,1,1,0,0,1]","location_rts":"[250,309,453,300,465,249,360,341,334]","trial_type":"fractal-mutation","trial_index":61,"time_elapsed":953452,"internal_node_id":"0.0-5.0-7.0"},{"group":"tri cycles (cube, non-group)","fractal_assignment":["../images/ylw_slt.png","../images/pnk_blu.png","../images/blu_wht.png","../images/gry_blk.png","../images/ylw_pnk.png","../images/org_blu.png","../images/grn_red.png","../images/cyn_red.png"],"mutagen_generator_assignment":[1,0],"goal":4,"start":1,"action_noise":0.1,"location_history":"[1,5,2,1,0,3,7,3,4]","action_history":"[1,1,1,0,1,0,1,1]","mutagen_history":"[0,0,0,1,0,1,0,0]","location_rts":"[494,213,444,246,154,573,256,462]","trial_type":"fractal-mutation","trial_index":62,"time_elapsed":968803,"internal_node_id":"0.0-5.0-8.0"},{"group":"tri cycles (cube, non-group)","fractal_assignment":["../images/ylw_slt.png","../images/pnk_blu.png","../images/blu_wht.png","../images/gry_blk.png","../images/ylw_pnk.png","../images/org_blu.png","../images/grn_red.png","../images/cyn_red.png"],"mutagen_generator_assignment":[1,0],"goal":5,"start":4,"action_noise":0.1,"location_history":"[4,0,3,4,7,3,4,7,6,5]","action_history":"[1,1,1,0,1,1,0,0,1]","mutagen_history":"[0,0,0,1,0,0,1,1,0]","location_rts":"[38,232,995,379,190,131,450,84,205]","trial_type":"fractal-mutation","trial_index":63,"time_elapsed":985169,"internal_node_id":"0.0-5.0-9.0"},{"group":"tri cycles (cube, non-group)","fractal_assignment":["../images/ylw_slt.png","../images/pnk_blu.png","../images/blu_wht.png","../images/gry_blk.png","../images/ylw_pnk.png","../images/org_blu.png","../images/grn_red.png","../images/cyn_red.png"],"mutagen_generator_assignment":[1,0],"goal":3,"start":5,"action_noise":0.1,"location_history":"[5,2,6,5,2,6,4,7,6,5,2,6,5,2,6,5,2,6,5,2,6,5,2,1,0,3]","action_history":"[1,1,1,1,1,0,0,0,1,1,1,0,1,1,1,1,1,1,1,0,1,1,0,0,1]","mutagen_history":"[0,0,0,0,0,1,1,1,0,0,0,1,0,0,0,0,0,0,0,1,0,0,1,1,0]","location_rts":"[263,140,99,250,203,476,229,489,381,82,122,460,345,110,233,153,352,428,239,515,296,37,324,262,43]","trial_type":"fractal-mutation","trial_index":64,"time_elapsed":1023351,"internal_node_id":"0.0-5.0-10.0"},{"group":"tri cycles (cube, non-group)","fractal_assignment":["../images/ylw_slt.png","../images/pnk_blu.png","../images/blu_wht.png","../images/gry_blk.png","../images/ylw_pnk.png","../images/org_blu.png","../images/grn_red.png","../images/cyn_red.png"],"mutagen_generator_assignment":[1,0],"goal":6,"start":3,"action_noise":0.1,"location_history":"[3,4,0,2,6]","action_history":"[1,1,1,1]","mutagen_history":"[0,0,0,0]","location_rts":"[530,227,63,390]","trial_type":"fractal-mutation","trial_index":65,"time_elapsed":1032490,"internal_node_id":"0.0-5.0-11.0"},{"group":"tri cycles (cube, non-group)","fractal_assignment":["../images/ylw_slt.png","../images/pnk_blu.png","../images/blu_wht.png","../images/gry_blk.png","../images/ylw_pnk.png","../images/org_blu.png","../images/grn_red.png","../images/cyn_red.png"],"mutagen_generator_assignment":[1,0],"goal":7,"start":6,"action_noise":0.1,"location_history":"[6,4,7]","action_history":"[0,0]","mutagen_history":"[1,1]","location_rts":"[245,305]","trial_type":"fractal-mutation","trial_index":66,"time_elapsed":1038913,"internal_node_id":"0.0-5.0-12.0"},{"group":"tri cycles (cube, non-group)","fractal_assignment":["../images/ylw_slt.png","../images/pnk_blu.png","../images/blu_wht.png","../images/gry_blk.png","../images/ylw_pnk.png","../images/org_blu.png","../images/grn_red.png","../images/cyn_red.png"],"mutagen_generator_assignment":[1,0],"goal":0,"start":7,"action_noise":0.1,"location_history":"[7,6,5,2,6,4,0]","action_history":"[1,1,1,1,0,1]","mutagen_history":"[0,0,0,0,1,0]","location_rts":"[367,270,148,291,375,240]","trial_type":"fractal-mutation","trial_index":67,"time_elapsed":1050816,"internal_node_id":"0.0-5.0-13.0"},{"group":"tri cycles (cube, non-group)","fractal_assignment":["../images/ylw_slt.png","../images/pnk_blu.png","../images/blu_wht.png","../images/gry_blk.png","../images/ylw_pnk.png","../images/org_blu.png","../images/grn_red.png","../images/cyn_red.png"],"mutagen_generator_assignment":[1,0],"goal":2,"start":0,"action_noise":0.1,"location_history":"[0,3,4,0,3,4,0,3,4,0,3,4,0,2]","action_history":"[1,1,1,1,1,1,1,1,1,1,1,1,0]","mutagen_history":"[0,0,0,0,0,0,0,0,0,0,0,0,1]","location_rts":"[616,352,360,323,404,121,118,199,368,351,313,261,314]","trial_type":"fractal-mutation","trial_index":68,"time_elapsed":1072854,"internal_node_id":"0.0-5.0-14.0"},{"group":"tri cycles (cube, non-group)","fractal_assignment":["../images/ylw_slt.png","../images/pnk_blu.png","../images/blu_wht.png","../images/gry_blk.png","../images/ylw_pnk.png","../images/org_blu.png","../images/grn_red.png","../images/cyn_red.png"],"mutagen_generator_assignment":[1,0],"goal":1,"start":2,"action_noise":0.1,"location_history":"[2,1]","action_history":"[0]","mutagen_history":"[1]","location_rts":"[785]","trial_type":"fractal-mutation","trial_index":69,"time_elapsed":1078330,"internal_node_id":"0.0-5.0-15.0"},{"group":"tri cycles (cube, non-group)","fractal_assignment":["../images/ylw_slt.png","../images/pnk_blu.png","../images/blu_wht.png","../images/gry_blk.png","../images/ylw_pnk.png","../images/org_blu.png","../images/grn_red.png","../images/cyn_red.png"],"mutagen_generator_assignment":[1,0],"goal":6,"start":1,"action_noise":0.1,"location_history":"[1,5,2,6]","action_history":"[1,1,1]","mutagen_history":"[0,0,0]","location_rts":"[516,869,300]","trial_type":"fractal-mutation","trial_index":70,"time_elapsed":1086847,"internal_node_id":"0.0-5.0-16.0"},{"group":"tri cycles (cube, non-group)","fractal_assignment":["../images/ylw_slt.png","../images/pnk_blu.png","../images/blu_wht.png","../images/gry_blk.png","../images/ylw_pnk.png","../images/org_blu.png","../images/grn_red.png","../images/cyn_red.png"],"mutagen_generator_assignment":[1,0],"goal":3,"start":6,"action_noise":0.1,"location_history":"[6,5,1,5,2,1,0,3]","action_history":"[1,0,1,1,0,0,1]","mutagen_history":"[0,1,0,0,1,1,0]","location_rts":"[262,561,174,41,355,141,103]","trial_type":"fractal-mutation","trial_index":71,"time_elapsed":1099937,"internal_node_id":"0.0-5.0-17.0"},{"group":"tri cycles (cube, non-group)","fractal_assignment":["../images/ylw_slt.png","../images/pnk_blu.png","../images/blu_wht.png","../images/gry_blk.png","../images/ylw_pnk.png","../images/org_blu.png","../images/grn_red.png","../images/cyn_red.png"],"mutagen_generator_assignment":[1,0],"goal":4,"start":3,"action_noise":0.1,"location_history":"[3,4]","action_history":"[1]","mutagen_history":"[0]","location_rts":"[699]","trial_type":"fractal-mutation","trial_index":72,"time_elapsed":1105252,"internal_node_id":"0.0-5.0-18.0"},{"group":"tri cycles (cube, non-group)","fractal_assignment":["../images/ylw_slt.png","../images/pnk_blu.png","../images/blu_wht.png","../images/gry_blk.png","../images/ylw_pnk.png","../images/org_blu.png","../images/grn_red.png","../images/cyn_red.png"],"mutagen_generator_assignment":[1,0],"goal":5,"start":4,"action_noise":0.1,"location_history":"[4,7,3,4,7,6,5]","action_history":"[0,1,1,1,0,1]","mutagen_history":"[1,0,0,0,1,0]","location_rts":"[241,212,282,845,632,173]","trial_type":"fractal-mutation","trial_index":73,"time_elapsed":1117937,"internal_node_id":"0.0-5.0-19.0"},{"group":"tri cycles (cube, non-group)","fractal_assignment":["../images/ylw_slt.png","../images/pnk_blu.png","../images/blu_wht.png","../images/gry_blk.png","../images/ylw_pnk.png","../images/org_blu.png","../images/grn_red.png","../images/cyn_red.png"],"mutagen_generator_assignment":[1,0],"goal":7,"start":5,"action_noise":0.1,"location_history":"[5,2,1,0,3,7]","action_history":"[1,0,0,1,0]","mutagen_history":"[0,1,1,0,1]","location_rts":"[836,3163,136,165,398]","trial_type":"fractal-mutation","trial_index":74,"time_elapsed":1131884,"internal_node_id":"0.0-5.0-20.0"},{"group":"tri cycles (cube, non-group)","fractal_assignment":["../images/ylw_slt.png","../images/pnk_blu.png","../images/blu_wht.png","../images/gry_blk.png","../images/ylw_pnk.png","../images/org_blu.png","../images/grn_red.png","../images/cyn_red.png"],"mutagen_generator_assignment":[1,0],"goal":2,"start":7,"action_noise":0.1,"location_history":"[7,6,5,2]","action_history":"[0,1,1]","mutagen_history":"[1,0,0]","location_rts":"[83,143,89]","trial_type":"fractal-mutation","trial_index":75,"time_elapsed":1139092,"internal_node_id":"0.0-5.0-21.0"},{"group":"tri cycles (cube, non-group)","fractal_assignment":["../images/ylw_slt.png","../images/pnk_blu.png","../images/blu_wht.png","../images/gry_blk.png","../images/ylw_pnk.png","../images/org_blu.png","../images/grn_red.png","../images/cyn_red.png"],"mutagen_generator_assignment":[1,0],"goal":0,"start":2,"action_noise":0.1,"location_history":"[2,1,5,2,6,5,2,1,5,2,6,5,1,0]","action_history":"[0,1,1,1,1,1,0,1,1,1,1,0,0]","mutagen_history":"[1,0,0,0,0,0,1,0,0,0,0,1,1]","location_rts":"[427,219,77,213,389,595,328,82,57,107,291,446,324]","trial_type":"fractal-mutation","trial_index":76,"time_elapsed":1160842,"internal_node_id":"0.0-5.0-22.0"},{"group":"tri cycles (cube, non-group)","fractal_assignment":["../images/ylw_slt.png","../images/pnk_blu.png","../images/blu_wht.png","../images/gry_blk.png","../images/ylw_pnk.png","../images/org_blu.png","../images/grn_red.png","../images/cyn_red.png"],"mutagen_generator_assignment":[1,0],"goal":7,"start":0,"action_noise":0.1,"location_history":"[0,3,4,0,3,7]","action_history":"[1,0,1,0,1]","mutagen_history":"[0,1,0,1,0]","location_rts":"[636,401,605,418,120]","trial_type":"fractal-mutation","trial_index":77,"time_elapsed":1172219,"internal_node_id":"0.0-5.0-23.0"},{"group":"tri cycles (cube, non-group)","fractal_assignment":["../images/ylw_slt.png","../images/pnk_blu.png","../images/blu_wht.png","../images/gry_blk.png","../images/ylw_pnk.png","../images/org_blu.png","../images/grn_red.png","../images/cyn_red.png"],"mutagen_generator_assignment":[1,0],"goal":5,"start":7,"action_noise":0.1,"location_history":"[7,3,4,0,3,7,3,4,7,3,4,0,2,6,5]","action_history":"[1,1,1,1,0,1,1,0,1,1,1,0,1,1]","mutagen_history":"[0,0,0,0,1,0,0,1,0,0,0,1,0,0]","location_rts":"[243,311,351,611,306,124,269,455,87,111,386,581,68,254]","trial_type":"fractal-mutation","trial_index":78,"time_elapsed":1195561,"internal_node_id":"0.0-5.0-24.0"},{"group":"tri cycles (cube, non-group)","fractal_assignment":["../images/ylw_slt.png","../images/pnk_blu.png","../images/blu_wht.png","../images/gry_blk.png","../images/ylw_pnk.png","../images/org_blu.png","../images/grn_red.png","../images/cyn_red.png"],"mutagen_generator_assignment":[1,0],"goal":0,"start":5,"action_noise":0.1,"location_history":"[5,1,5,1,5,2,1,0]","action_history":"[0,1,0,1,1,1,0]","mutagen_history":"[1,0,1,0,0,0,1]","location_rts":"[307,229,153,117,58,606,420]","trial_type":"fractal-mutation","trial_index":79,"time_elapsed":1208915,"internal_node_id":"0.0-5.0-25.0"},{"group":"tri cycles (cube, non-group)","fractal_assignment":["../images/ylw_slt.png","../images/pnk_blu.png","../images/blu_wht.png","../images/gry_blk.png","../images/ylw_pnk.png","../images/org_blu.png","../images/grn_red.png","../images/cyn_red.png"],"mutagen_generator_assignment":[1,0],"goal":6,"start":0,"action_noise":0.1,"location_history":"[0,3,7,3,7,3,4,0,3,4,7,6]","action_history":"[1,1,1,0,1,1,1,1,1,0,0]","mutagen_history":"[0,0,0,1,0,0,0,0,0,1,1]","location_rts":"[946,325,247,638,122,274,157,209,86,419,420]","trial_type":"fractal-mutation","trial_index":80,"time_elapsed":1228642,"internal_node_id":"0.0-5.0-26.0"},{"group":"tri cycles (cube, non-group)","fractal_assignment":["../images/ylw_slt.png","../images/pnk_blu.png","../images/blu_wht.png","../images/gry_blk.png","../images/ylw_pnk.png","../images/org_blu.png","../images/grn_red.png","../images/cyn_red.png"],"mutagen_generator_assignment":[1,0],"goal":4,"start":6,"action_noise":0.1,"location_history":"[6,4]","action_history":"[0]","mutagen_history":"[1]","location_rts":"[483]","trial_type":"fractal-mutation","trial_index":81,"time_elapsed":1233807,"internal_node_id":"0.0-5.0-27.0"},{"group":"tri cycles (cube, non-group)","fractal_assignment":["../images/ylw_slt.png","../images/pnk_blu.png","../images/blu_wht.png","../images/gry_blk.png","../images/ylw_pnk.png","../images/org_blu.png","../images/grn_red.png","../images/cyn_red.png"],"mutagen_generator_assignment":[1,0],"goal":2,"start":4,"action_noise":0.1,"location_history":"[4,7,3,4,0,2]","action_history":"[0,1,1,1,0]","mutagen_history":"[1,0,0,0,1]","location_rts":"[252,104,142,165,416]","trial_type":"fractal-mutation","trial_index":82,"time_elapsed":1244074,"internal_node_id":"0.0-5.0-28.0"},{"group":"tri cycles (cube, non-group)","fractal_assignment":["../images/ylw_slt.png","../images/pnk_blu.png","../images/blu_wht.png","../images/gry_blk.png","../images/ylw_pnk.png","../images/org_blu.png","../images/grn_red.png","../images/cyn_red.png"],"mutagen_generator_assignment":[1,0],"goal":3,"start":2,"action_noise":0.1,"location_history":"[2,6,5,2,6,5,2,1,0,2,1,5,1,5,1,0,3]","action_history":"[1,1,1,0,1,1,1,0,0,0,1,1,1,1,0,1]","mutagen_history":"[0,0,0,1,0,0,0,1,1,1,0,0,0,0,1,0]","location_rts":"[930,240,353,182,236,8,321,378,103,487,146,58,362,721,64,142]","trial_type":"fractal-mutation","trial_index":83,"time_elapsed":1270344,"internal_node_id":"0.0-5.0-29.0"},{"group":"tri cycles (cube, non-group)","fractal_assignment":["../images/ylw_slt.png","../images/pnk_blu.png","../images/blu_wht.png","../images/gry_blk.png","../images/ylw_pnk.png","../images/org_blu.png","../images/grn_red.png","../images/cyn_red.png"],"mutagen_generator_assignment":[1,0],"goal":1,"start":3,"action_noise":0.1,"location_history":"[3,4,0,2,1]","action_history":"[1,1,0,0]","mutagen_history":"[0,0,1,1]","location_rts":"[923,384,485,87]","trial_type":"fractal-mutation","trial_index":84,"time_elapsed":1280291,"internal_node_id":"0.0-5.0-30.0"},{"group":"tri cycles (cube, non-group)","fractal_assignment":["../images/ylw_slt.png","../images/pnk_blu.png","../images/blu_wht.png","../images/gry_blk.png","../images/ylw_pnk.png","../images/org_blu.png","../images/grn_red.png","../images/cyn_red.png"],"mutagen_generator_assignment":[1,0],"goal":4,"start":1,"action_noise":0.1,"location_history":"[1,0,3,4]","action_history":"[0,1,1]","mutagen_history":"[1,0,0]","location_rts":"[295,202,455]","trial_type":"fractal-mutation","trial_index":85,"time_elapsed":1288142,"internal_node_id":"0.0-5.0-31.0"},{"group":"tri cycles (cube, non-group)","fractal_assignment":["../images/ylw_slt.png","../images/pnk_blu.png","../images/blu_wht.png","../images/gry_blk.png","../images/ylw_pnk.png","../images/org_blu.png","../images/grn_red.png","../images/cyn_red.png"],"mutagen_generator_assignment":[1,0],"goal":3,"start":4,"action_noise":0.1,"location_history":"[4,7,3]","action_history":"[1,1]","mutagen_history":"[0,0]","location_rts":"[554,216]","trial_type":"fractal-mutation","trial_index":86,"time_elapsed":1294632,"internal_node_id":"0.0-5.0-32.0"},{"group":"tri cycles (cube, non-group)","fractal_assignment":["../images/ylw_slt.png","../images/pnk_blu.png","../images/blu_wht.png","../images/gry_blk.png","../images/ylw_pnk.png","../images/org_blu.png","../images/grn_red.png","../images/cyn_red.png"],"mutagen_generator_assignment":[1,0],"goal":6,"start":3,"action_noise":0.1,"location_history":"[3,4,0,3,4,7,6]","action_history":"[1,1,1,1,0,0]","mutagen_history":"[0,0,0,0,1,1]","location_rts":"[1082,195,800,467,448,353]","trial_type":"fractal-mutation","trial_index":87,"time_elapsed":1308267,"internal_node_id":"0.0-5.0-33.0"},{"group":"tri cycles (cube, non-group)","fractal_assignment":["../images/ylw_slt.png","../images/pnk_blu.png","../images/blu_wht.png","../images/gry_blk.png","../images/ylw_pnk.png","../images/org_blu.png","../images/grn_red.png","../images/cyn_red.png"],"mutagen_generator_assignment":[1,0],"goal":0,"start":6,"action_noise":0.1,"location_history":"[6,5,2,6,5,2,1,0]","action_history":"[1,1,1,1,1,0,0]","mutagen_history":"[0,0,0,0,0,1,1]","location_rts":"[240,159,91,270,468,59,547]","trial_type":"fractal-mutation","trial_index":88,"time_elapsed":1321486,"internal_node_id":"0.0-5.0-34.0"},{"group":"tri cycles (cube, non-group)","fractal_assignment":["../images/ylw_slt.png","../images/pnk_blu.png","../images/blu_wht.png","../images/gry_blk.png","../images/ylw_pnk.png","../images/org_blu.png","../images/grn_red.png","../images/cyn_red.png"],"mutagen_generator_assignment":[1,0],"goal":1,"start":0,"action_noise":0.1,"location_history":"[0,2,6,5,2,1]","action_history":"[0,1,1,1,0]","mutagen_history":"[1,0,0,0,1]","location_rts":"[436,164,395,73,410]","trial_type":"fractal-mutation","trial_index":89,"time_elapsed":1332131,"internal_node_id":"0.0-5.0-35.0"},{"group":"tri cycles (cube, non-group)","fractal_assignment":["../images/ylw_slt.png","../images/pnk_blu.png","../images/blu_wht.png","../images/gry_blk.png","../images/ylw_pnk.png","../images/org_blu.png","../images/grn_red.png","../images/cyn_red.png"],"mutagen_generator_assignment":[1,0],"goal":5,"start":1,"action_noise":0.1,"location_history":"[1,5]","action_history":"[1]","mutagen_history":"[0]","location_rts":"[631]","trial_type":"fractal-mutation","trial_index":90,"time_elapsed":1337375,"internal_node_id":"0.0-5.0-36.0"},{"group":"tri cycles (cube, non-group)","fractal_assignment":["../images/ylw_slt.png","../images/pnk_blu.png","../images/blu_wht.png","../images/gry_blk.png","../images/ylw_pnk.png","../images/org_blu.png","../images/grn_red.png","../images/cyn_red.png"],"mutagen_generator_assignment":[1,0],"goal":7,"start":5,"action_noise":0.1,"location_history":"[5,2,1,0,2,6,4,7]","action_history":"[1,1,0,0,1,0,1]","mutagen_history":"[0,0,1,1,0,1,0]","location_rts":"[451,851,478,453,333,524,325]","trial_type":"fractal-mutation","trial_index":91,"time_elapsed":1352260,"internal_node_id":"0.0-5.0-37.0"},{"group":"tri cycles (cube, non-group)","fractal_assignment":["../images/ylw_slt.png","../images/pnk_blu.png","../images/blu_wht.png","../images/gry_blk.png","../images/ylw_pnk.png","../images/org_blu.png","../images/grn_red.png","../images/cyn_red.png"],"mutagen_generator_assignment":[1,0],"goal":2,"start":7,"action_noise":0.1,"location_history":"[7,3,7,3,7,6,5,1,0,2]","action_history":"[1,1,1,0,1,1,1,0,1]","mutagen_history":"[0,0,0,1,0,0,0,1,0]","location_rts":"[302,199,830,543,195,0,531,416,233]","trial_type":"fractal-mutation","trial_index":92,"time_elapsed":1369117,"internal_node_id":"0.0-5.0-38.0"},{"group":"tri cycles (cube, non-group)","fractal_assignment":["../images/ylw_slt.png","../images/pnk_blu.png","../images/blu_wht.png","../images/gry_blk.png","../images/ylw_pnk.png","../images/org_blu.png","../images/grn_red.png","../images/cyn_red.png"],"mutagen_generator_assignment":[1,0],"goal":1,"start":2,"action_noise":0.1,"location_history":"[2,1]","action_history":"[0]","mutagen_history":"[1]","location_rts":"[493]","trial_type":"fractal-mutation","trial_index":93,"time_elapsed":1374293,"internal_node_id":"0.0-5.0-39.0"},{"group":"tri cycles (cube, non-group)","fractal_assignment":["../images/ylw_slt.png","../images/pnk_blu.png","../images/blu_wht.png","../images/gry_blk.png","../images/ylw_pnk.png","../images/org_blu.png","../images/grn_red.png","../images/cyn_red.png"],"mutagen_generator_assignment":[1,0],"goal":3,"start":1,"action_noise":0.1,"location_history":"[1,5,2,1,5,2,1,0,3]","action_history":"[1,1,0,1,1,0,0,1]","mutagen_history":"[0,0,1,0,0,1,1,0]","location_rts":"[402,425,537,159,218,180,407,176]","trial_type":"fractal-mutation","trial_index":94,"time_elapsed":1389351,"internal_node_id":"0.0-5.0-40.0"},{"group":"tri cycles (cube, non-group)","fractal_assignment":["../images/ylw_slt.png","../images/pnk_blu.png","../images/blu_wht.png","../images/gry_blk.png","../images/ylw_pnk.png","../images/org_blu.png","../images/grn_red.png","../images/cyn_red.png"],"mutagen_generator_assignment":[1,0],"goal":4,"start":3,"action_noise":0.1,"location_history":"[3,4]","action_history":"[1]","mutagen_history":"[0]","location_rts":"[1041]","trial_type":"fractal-mutation","trial_index":95,"time_elapsed":1395001,"internal_node_id":"0.0-5.0-41.0"},{"group":"tri cycles (cube, non-group)","fractal_assignment":["../images/ylw_slt.png","../images/pnk_blu.png","../images/blu_wht.png","../images/gry_blk.png","../images/ylw_pnk.png","../images/org_blu.png","../images/grn_red.png","../images/cyn_red.png"],"mutagen_generator_assignment":[1,0],"goal":2,"start":4,"action_noise":0.1,"location_history":"[4,0,3,4,0,2]","action_history":"[1,1,1,1,0]","mutagen_history":"[0,0,0,0,1]","location_rts":"[520,205,124,36,495]","trial_type":"fractal-mutation","trial_index":96,"time_elapsed":1405498,"internal_node_id":"0.0-5.0-42.0"},{"group":"tri cycles (cube, non-group)","fractal_assignment":["../images/ylw_slt.png","../images/pnk_blu.png","../images/blu_wht.png","../images/gry_blk.png","../images/ylw_pnk.png","../images/org_blu.png","../images/grn_red.png","../images/cyn_red.png"],"mutagen_generator_assignment":[1,0],"goal":5,"start":2,"action_noise":0.1,"location_history":"[2,6,5]","action_history":"[1,1]","mutagen_history":"[0,0]","location_rts":"[622,137]","trial_type":"fractal-mutation","trial_index":97,"time_elapsed":1411982,"internal_node_id":"0.0-5.0-43.0"},{"group":"tri cycles (cube, non-group)","fractal_assignment":["../images/ylw_slt.png","../images/pnk_blu.png","../images/blu_wht.png","../images/gry_blk.png","../images/ylw_pnk.png","../images/org_blu.png","../images/grn_red.png","../images/cyn_red.png"],"mutagen_generator_assignment":[1,0],"goal":0,"start":5,"action_noise":0.1,"location_history":"[5,2,6,4,7,3,7,3,4,7,3,4,7,6,5,1,5,2,6,5,2,1,0]","action_history":"[1,1,1,0,1,0,1,1,1,1,1,0,0,1,1,1,1,1,1,1,0,0]","mutagen_history":"[0,0,0,1,0,1,0,0,0,0,0,1,1,0,0,0,0,0,0,0,1,1]","location_rts":"[427,71,381,390,178,465,260,197,225,297,440,490,262,106,192,275,79,261,349,270,115,112]","trial_type":"fractal-mutation","trial_index":98,"time_elapsed":1446066,"internal_node_id":"0.0-5.0-44.0"},{"group":"tri cycles (cube, non-group)","fractal_assignment":["../images/ylw_slt.png","../images/pnk_blu.png","../images/blu_wht.png","../images/gry_blk.png","../images/ylw_pnk.png","../images/org_blu.png","../images/grn_red.png","../images/cyn_red.png"],"mutagen_generator_assignment":[1,0],"goal":7,"start":0,"action_noise":0.1,"location_history":"[0,3,4,0,2,1,0,3,4,7]","action_history":"[1,1,1,0,0,0,1,1,0]","mutagen_history":"[0,0,0,1,1,1,0,0,1]","location_rts":"[301,329,681,536,222,115,981,491,303]","trial_type":"fractal-mutation","trial_index":99,"time_elapsed":1463763,"internal_node_id":"0.0-5.0-45.0"},{"group":"tri cycles (cube, non-group)","fractal_assignment":["../images/ylw_slt.png","../images/pnk_blu.png","../images/blu_wht.png","../images/gry_blk.png","../images/ylw_pnk.png","../images/org_blu.png","../images/grn_red.png","../images/cyn_red.png"],"mutagen_generator_assignment":[1,0],"goal":6,"start":7,"action_noise":0.1,"location_history":"[7,3,4,0,3,7,3,7,6]","action_history":"[1,1,1,1,0,1,0,0]","mutagen_history":"[0,0,0,0,1,0,1,1]","location_rts":"[852,0,79,383,398,261,320,148]","trial_type":"fractal-mutation","trial_index":100,"time_elapsed":1478777,"internal_node_id":"0.0-5.0-46.0"},{"group":"tri cycles (cube, non-group)","fractal_assignment":["../images/ylw_slt.png","../images/pnk_blu.png","../images/blu_wht.png","../images/gry_blk.png","../images/ylw_pnk.png","../images/org_blu.png","../images/grn_red.png","../images/cyn_red.png"],"mutagen_generator_assignment":[1,0],"goal":2,"start":6,"action_noise":0.1,"location_history":"[6,5,2]","action_history":"[1,1]","mutagen_history":"[0,0]","location_rts":"[1638,385]","trial_type":"fractal-mutation","trial_index":101,"time_elapsed":1486515,"internal_node_id":"0.0-5.0-47.0"},{"group":"tri cycles (cube, non-group)","fractal_assignment":["../images/ylw_slt.png","../images/pnk_blu.png","../images/blu_wht.png","../images/gry_blk.png","../images/ylw_pnk.png","../images/org_blu.png","../images/grn_red.png","../images/cyn_red.png"],"mutagen_generator_assignment":[1,0],"goal":5,"start":2,"action_noise":0.1,"location_history":"[2,6,4,0,2,6,5]","action_history":"[1,1,1,0,1,1]","mutagen_history":"[0,0,0,1,0,0]","location_rts":"[426,116,328,323,207,272]","trial_type":"fractal-mutation","trial_index":102,"time_elapsed":1498391,"internal_node_id":"0.0-5.0-48.0"},{"group":"tri cycles (cube, non-group)","fractal_assignment":["../images/ylw_slt.png","../images/pnk_blu.png","../images/blu_wht.png","../images/gry_blk.png","../images/ylw_pnk.png","../images/org_blu.png","../images/grn_red.png","../images/cyn_red.png"],"mutagen_generator_assignment":[1,0],"goal":3,"start":5,"action_noise":0.1,"location_history":"[5,1,5,2,6,5,1,0,3]","action_history":"[1,1,1,1,1,0,0,1]","mutagen_history":"[0,0,0,0,0,1,1,0]","location_rts":"[240,66,80,325,347,329,361,58]","trial_type":"fractal-mutation","trial_index":103,"time_elapsed":1512691,"internal_node_id":"0.0-5.0-49.0"},{"view_history":"[{\"page_index\":0,\"viewing_time\":2587}]","rt":2587,"trial_type":"instructions","trial_index":104,"time_elapsed":1516279,"internal_node_id":"0.0-6.0"},{"rt":20798,"responses":"{\"Q0\":\"I believe the first experiment was investigating learning the patterns of the colored doors.\"}","trial_type":"survey-text","trial_index":105,"time_elapsed":1538084,"internal_node_id":"0.0-7.0-0.0"},{"rt":73194,"responses":"{\"Q0\":\"I believe the second experiment was investigating whether people would learn the combination required to create the desired pattern.\"}","trial_type":"survey-text","trial_index":106,"time_elapsed":1612281,"internal_node_id":"0.0-7.0-1.0"},{"rt":19243,"responses":"{\"Q0\":\"<img src='../images/diagrams/square_cycles.png'>\"}","trial_type":"survey-multi-choice","trial_index":107,"time_elapsed":1632535,"internal_node_id":"0.0-7.0-2.0"},{"rt":63691,"assignments":["../images/blu_wht.png","../images/pnk_blu.png","../images/org_blu.png","../images/grn_red.png","../images/ylw_slt.png","../images/gry_blk.png","../images/ylw_pnk.png","../images/cyn_red.png"],"trial_type":"drag-drop-on-image","trial_index":108,"time_elapsed":1697233,"internal_node_id":"0.0-7.0-3.0"},{"rt":5854,"responses":"{\"Q0\":\"1\"}","trial_type":"survey-likert","trial_index":109,"time_elapsed":1704093,"internal_node_id":"0.0-7.0-4.0"},{"rt":35491,"responses":"{\"Q0\":\"They both had patterns that lead to correct answers.\"}","trial_type":"survey-text","trial_index":110,"time_elapsed":1740596,"internal_node_id":"0.0-7.0-5.0"},{"rt":6276,"responses":"{\"Q0\":\"No\"}","trial_type":"survey-multi-choice","trial_index":111,"time_elapsed":1747879,"internal_node_id":"0.0-7.0-6.0"},{"rt":10148,"responses":"{\"Q0\":\"During this session\"}","trial_type":"survey-multi-choice","trial_index":112,"time_elapsed":1759037,"internal_node_id":"0.0-7.0-7.0"},{"rt":3876,"responses":"{\"Q0\":\"\"}","trial_type":"survey-text","trial_index":113,"time_elapsed":1763916,"internal_node_id":"0.0-7.0-8.0"},{"rt":4023,"responses":"{\"Q0\":\"3\"}","trial_type":"survey-likert","trial_index":114,"time_elapsed":1768942,"internal_node_id":"0.0-7.0-9.0"},{"rt":8335,"responses":"{\"Q0\":\"Same structure\"}","trial_type":"survey-multi-choice","trial_index":115,"time_elapsed":1778286,"internal_node_id":"0.0-7.0-10.0"},{"rt":27962,"responses":"{\"Q0\":\"left (black) door = acid, (white) door = ray\",\"Q1\":\"Pretty confident\"}","trial_type":"survey-multi-choice","trial_index":116,"time_elapsed":1807266,"internal_node_id":"0.0-7.0-11.0"},{"rt":9238,"responses":"{\"Q0\":\"<25\",\"Q1\":\"Some college\",\"Q2\":\"Male\",\"Q3\":\"White\"}","trial_type":"survey-multi-choice","trial_index":117,"time_elapsed":1817527,"internal_node_id":"0.0-8.0"},{"rt":3728,"responses":"{\"Q0\":\"\"}","trial_type":"survey-text","trial_index":118,"time_elapsed":1822258,"internal_node_id":"0.0-9.0"}]