[{"view_history":"[{\"page_index\":0,\"viewing_time\":3711},{\"page_index\":1,\"viewing_time\":21475}]","rt":25187,"trial_type":"instructions","trial_index":0,"time_elapsed":25189,"internal_node_id":"0.0-0.0"},{"view_history":"[{\"page_index\":0,\"viewing_time\":38077},{\"page_index\":1,\"viewing_time\":55631}]","rt":93709,"trial_type":"instructions","trial_index":1,"time_elapsed":119901,"internal_node_id":"0.0-1.0"},{"group":"tri cycles (cube, non-group)","room_assignment":["red","grey","yellow","pink","green","purple","brown","blue"],"door_color_assignment":["white","black"],"door_generator_assignment":[1,0],"goal":5,"start":7,"action_noise":0.1,"location_history":"[7,6,4,7,6,4,7,3,7,3,4,0,3,4,0,3,7,6,5]","action_history":"[0,0,0,0,0,0,0,0,1,1,1,1,1,1,0,0,0,0]","door_history":"[1,1,1,1,1,1,1,1,0,0,0,0,0,0,1,1,1,1]","location_rts":"[2884,2029,612,1134,968,1087,1110,754,1170,617,740,679,851,644,990,1428,1495,697]","trial_type":"two-door-navigation","trial_index":2,"time_elapsed":162570,"internal_node_id":"0.0-2.0-0.0"},{"group":"tri cycles (cube, non-group)","room_assignment":["red","grey","yellow","pink","green","purple","brown","blue"],"door_color_assignment":["white","black"],"door_generator_assignment":[1,0],"goal":2,"start":5,"action_noise":0.1,"location_history":"[5,1,0,2]","action_history":"[0,0,0]","door_history":"[1,1,1]","location_rts":"[1473,917,672]","trial_type":"two-door-navigation","trial_index":3,"time_elapsed":172355,"internal_node_id":"0.0-2.0-1.0"},{"group":"tri cycles (cube, non-group)","room_assignment":["red","grey","yellow","pink","green","purple","brown","blue"],"door_color_assignment":["white","black"],"door_generator_assignment":[1,0],"goal":0,"start":2,"action_noise":0.1,"location_history":"[2,1,0]","action_history":"[0,0]","door_history":"[1,1]","location_rts":"[1385,875]","trial_type":"two-door-navigation","trial_index":4,"time_elapsed":180260,"internal_node_id":"0.0-2.0-2.0"},{"group":"tri cycles (cube, non-group)","room_assignment":["red","grey","yellow","pink","green","purple","brown","blue"],"door_color_assignment":["white","black"],"door_generator_assignment":[1,0],"goal":1,"start":0,"action_noise":0.1,"location_history":"[0,2,1]","action_history":"[0,0]","door_history":"[1,1]","location_rts":"[2427,812]","trial_type":"two-door-navigation","trial_index":5,"time_elapsed":189143,"internal_node_id":"0.0-2.0-3.0"},{"group":"tri cycles (cube, non-group)","room_assignment":["red","grey","yellow","pink","green","purple","brown","blue"],"door_color_assignment":["white","black"],"door_generator_assignment":[1,0],"goal":6,"start":1,"action_noise":0.1,"location_history":"[1,0,2,1,0,2,1,0,2,6]","action_history":"[0,0,0,0,0,0,0,0,0]","door_history":"[1,1,1,1,1,1,1,1,1]","location_rts":"[1439,912,536,773,689,788,804,622,665]","trial_type":"two-door-navigation","trial_index":6,"time_elapsed":209520,"internal_node_id":"0.0-2.0-4.0"},{"group":"tri cycles (cube, non-group)","room_assignment":["red","grey","yellow","pink","green","purple","brown","blue"],"door_color_assignment":["white","black"],"door_generator_assignment":[1,0],"goal":3,"start":6,"action_noise":0.1,"location_history":"[6,4,7,6,4,7,6,5,1,0,2,1,5,1,5,1,0,2,1,0,3]","action_history":"[0,0,0,0,0,0,0,0,0,0,0,0,0,0,0,0,0,0,1,1]","door_history":"[1,1,1,1,1,1,1,1,1,1,1,1,1,1,1,1,1,1,0,0]","location_rts":"[975,858,733,1156,2336,787,1088,689,805,539,1043,635,745,689,459,683,791,811,1390,560]","trial_type":"two-door-navigation","trial_index":7,"time_elapsed":252169,"internal_node_id":"0.0-2.0-5.0"},{"group":"tri cycles (cube, non-group)","room_assignment":["red","grey","yellow","pink","green","purple","brown","blue"],"door_color_assignment":["white","black"],"door_generator_assignment":[1,0],"goal":4,"start":3,"action_noise":0.1,"location_history":"[3,4]","action_history":"[1]","door_history":"[0]","location_rts":"[559]","trial_type":"two-door-navigation","trial_index":8,"time_elapsed":257305,"internal_node_id":"0.0-2.0-6.0"},{"group":"tri cycles (cube, non-group)","room_assignment":["red","grey","yellow","pink","green","purple","brown","blue"],"door_color_assignment":["white","black"],"door_generator_assignment":[1,0],"goal":1,"start":4,"action_noise":0.1,"location_history":"[4,0,3,4,0,3,4,7,3,4,7,3,4,0,3,4,0,3,4,7,6,4,7,6,4,7,6,4,7,6,5,1]","action_history":"[1,1,1,1,1,1,1,1,1,1,1,1,1,1,1,1,1,1,0,0,0,0,0,0,0,0,0,0,0,0,0]","door_history":"[0,0,0,0,0,0,0,0,0,0,0,0,0,0,0,0,0,0,1,1,1,1,1,1,1,1,1,1,1,1,1]","location_rts":"[643,742,1023,781,739,866,869,1424,970,1284,967,1056,521,821,1065,976,600,945,1068,5044,772,822,1089,826,853,703,724,696,683,799,744]","trial_type":"two-door-navigation","trial_index":9,"time_elapsed":324974,"internal_node_id":"0.0-2.0-7.0"},{"group":"tri cycles (cube, non-group)","room_assignment":["red","grey","yellow","pink","green","purple","brown","blue"],"door_color_assignment":["white","black"],"door_generator_assignment":[1,0],"goal":4,"start":1,"action_noise":0.1,"location_history":"[1,0,2,1,0,2,1,0,2,1,0,2,1,0,2,1,0,2,6,5,1,5,2,6,5,2,6,5,1,5,2,6,5,2,1,0,2,1,5,1,0,2,1,0,2,1,0,2,1,0,2,1,0,2,1,0,2,1,0,2,1,0,2,1,0,2,1,0,3,4]","action_history":"[0,0,0,0,0,0,0,0,0,0,0,0,0,0,0,0,0,1,1,1,1,1,1,1,1,1,1,1,1,1,1,1,1,0,0,0,0,0,0,0,0,0,0,0,0,0,0,0,0,0,0,0,0,0,0,0,0,0,0,0,0,0,0,0,0,0,0,1,1]","door_history":"[1,1,1,1,1,1,1,1,1,1,1,1,1,1,1,1,1,0,0,0,0,0,0,0,0,0,0,0,0,0,0,0,0,1,1,1,1,1,1,1,1,1,1,1,1,1,1,1,1,1,1,1,1,1,1,1,1,1,1,1,1,1,1,1,1,1,1,0,0]","location_rts":"[981,600,683,625,785,689,1187,874,691,1142,810,948,901,826,761,829,693,2151,638,802,688,641,765,554,659,852,798,525,708,713,965,821,573,1229,707,678,890,772,963,1304,751,805,585,573,612,492,570,608,556,663,622,687,769,734,705,531,619,577,562,587,552,585,696,957,574,710,772,765,613]","trial_type":"two-door-navigation","trial_index":10,"time_elapsed":454516,"internal_node_id":"0.0-2.0-8.0"},{"group":"tri cycles (cube, non-group)","room_assignment":["red","grey","yellow","pink","green","purple","brown","blue"],"door_color_assignment":["white","black"],"door_generator_assignment":[1,0],"goal":5,"start":4,"action_noise":0.1,"location_history":"[4,0,3,4,0,2,6,5]","action_history":"[1,1,1,1,1,1,1]","door_history":"[0,0,0,0,0,0,0]","location_rts":"[1421,797,746,896,539,697,700]","trial_type":"two-door-navigation","trial_index":11,"time_elapsed":471325,"internal_node_id":"0.0-2.0-9.0"},{"group":"tri cycles (cube, non-group)","room_assignment":["red","grey","yellow","pink","green","purple","brown","blue"],"door_color_assignment":["white","black"],"door_generator_assignment":[1,0],"goal":3,"start":5,"action_noise":0.1,"location_history":"[5,1,5,2,6,5,2,6,5,2,6,5,2,6,5,2,6,5,2,6,5,2,6,5,1,0,2,1,0,3]","action_history":"[1,1,1,1,1,1,1,1,1,1,1,1,1,1,1,1,1,1,1,1,1,1,1,0,0,0,0,0,0]","door_history":"[0,0,0,0,0,0,0,0,0,0,0,0,0,0,0,0,0,0,0,0,0,0,0,1,1,1,1,1,1]","location_rts":"[700,588,806,755,543,626,912,714,1318,2055,804,864,682,791,829,2054,662,823,684,544,572,524,549,755,600,1089,723,600,500]","trial_type":"two-door-navigation","trial_index":12,"time_elapsed":529545,"internal_node_id":"0.0-2.0-10.0"},{"group":"tri cycles (cube, non-group)","room_assignment":["red","grey","yellow","pink","green","purple","brown","blue"],"door_color_assignment":["white","black"],"door_generator_assignment":[1,0],"goal":6,"start":3,"action_noise":0.1,"location_history":"[3,7,3,4,7,6]","action_history":"[0,0,0,0,0]","door_history":"[1,1,1,1,1]","location_rts":"[3701,782,622,814,1375]","trial_type":"two-door-navigation","trial_index":13,"time_elapsed":545720,"internal_node_id":"0.0-2.0-11.0"},{"group":"tri cycles (cube, non-group)","room_assignment":["red","grey","yellow","pink","green","purple","brown","blue"],"door_color_assignment":["white","black"],"door_generator_assignment":[1,0],"goal":7,"start":6,"action_noise":0.1,"location_history":"[6,4,7]","action_history":"[0,0]","door_history":"[1,1]","location_rts":"[958,980]","trial_type":"two-door-navigation","trial_index":14,"time_elapsed":553306,"internal_node_id":"0.0-2.0-12.0"},{"group":"tri cycles (cube, non-group)","room_assignment":["red","grey","yellow","pink","green","purple","brown","blue"],"door_color_assignment":["white","black"],"door_generator_assignment":[1,0],"goal":0,"start":7,"action_noise":0.1,"location_history":"[7,3,7,6,4,7,6,4,7,6,4,7,6,4,7,6,4,7,6,4,7,6,4,7,6,4,7,6,4,7,6,4,0]","action_history":"[0,0,0,0,0,0,0,0,0,0,0,0,0,0,0,0,0,0,0,0,0,0,0,0,0,0,0,0,0,0,0,1]","door_history":"[1,1,1,1,1,1,1,1,1,1,1,1,1,1,1,1,1,1,1,1,1,1,1,1,1,1,1,1,1,1,1,0]","location_rts":"[574,690,771,768,735,522,604,617,577,801,515,657,624,677,606,773,705,1077,921,767,1193,683,645,571,596,715,996,697,756,514,830,978]","trial_type":"two-door-navigation","trial_index":15,"time_elapsed":614162,"internal_node_id":"0.0-2.0-13.0"},{"group":"tri cycles (cube, non-group)","room_assignment":["red","grey","yellow","pink","green","purple","brown","blue"],"door_color_assignment":["white","black"],"door_generator_assignment":[1,0],"goal":2,"start":0,"action_noise":0.1,"location_history":"[0,3,7,3,7,6,4,7,6,4,7,6,4,7,6,4,7,6,4,7,6,4,7,6,4,0,2]","action_history":"[1,1,1,0,0,0,0,0,0,0,0,0,0,0,0,0,0,0,0,0,0,0,0,0,0,0]","door_history":"[0,0,0,1,1,1,1,1,1,1,1,1,1,1,1,1,1,1,1,1,1,1,1,1,1,1]","location_rts":"[848,777,754,1226,661,571,879,729,622,507,497,552,518,528,563,773,591,572,522,514,661,984,701,623,650,868]","trial_type":"two-door-navigation","trial_index":16,"time_elapsed":663090,"internal_node_id":"0.0-2.0-14.0"},{"group":"tri cycles (cube, non-group)","room_assignment":["red","grey","yellow","pink","green","purple","brown","blue"],"door_color_assignment":["white","black"],"door_generator_assignment":[1,0],"goal":1,"start":2,"action_noise":0.1,"location_history":"[2,1]","action_history":"[0]","door_history":"[1]","location_rts":"[1454]","trial_type":"two-door-navigation","trial_index":17,"time_elapsed":669122,"internal_node_id":"0.0-2.0-15.0"},{"group":"tri cycles (cube, non-group)","room_assignment":["red","grey","yellow","pink","green","purple","brown","blue"],"door_color_assignment":["white","black"],"door_generator_assignment":[1,0],"goal":6,"start":1,"action_noise":0.1,"location_history":"[1,0,2,1,0,2,1,0,2,6]","action_history":"[0,0,0,0,0,0,0,0,0]","door_history":"[1,1,1,1,1,1,1,1,1]","location_rts":"[619,752,669,981,494,424,615,535,574]","trial_type":"two-door-navigation","trial_index":18,"time_elapsed":687934,"internal_node_id":"0.0-2.0-16.0"},{"group":"tri cycles (cube, non-group)","room_assignment":["red","grey","yellow","pink","green","purple","brown","blue"],"door_color_assignment":["white","black"],"door_generator_assignment":[1,0],"goal":3,"start":6,"action_noise":0.1,"location_history":"[6,4,0,2,1,0,2,1,0,2,1,0,3]","action_history":"[0,0,0,0,0,0,0,0,0,0,0,0]","door_history":"[1,1,1,1,1,1,1,1,1,1,1,1]","location_rts":"[880,1039,1211,782,759,517,537,593,521,1104,516,708]","trial_type":"two-door-navigation","trial_index":19,"time_elapsed":713483,"internal_node_id":"0.0-2.0-17.0"},{"group":"tri cycles (cube, non-group)","room_assignment":["red","grey","yellow","pink","green","purple","brown","blue"],"door_color_assignment":["white","black"],"door_generator_assignment":[1,0],"goal":4,"start":3,"action_noise":0.1,"location_history":"[3,7,6,4]","action_history":"[0,0,0]","door_history":"[1,1,1]","location_rts":"[876,784,1053]","trial_type":"two-door-navigation","trial_index":20,"time_elapsed":722895,"internal_node_id":"0.0-2.0-18.0"},{"group":"tri cycles (cube, non-group)","room_assignment":["red","grey","yellow","pink","green","purple","brown","blue"],"door_color_assignment":["white","black"],"door_generator_assignment":[1,0],"goal":5,"start":4,"action_noise":0.1,"location_history":"[4,7,6,4,7,6,4,7,6,4,7,3,7,6,4,7,6,4,7,6,4,7,6,4,7,6,5]","action_history":"[0,0,0,0,0,0,0,0,0,0,0,0,0,0,0,0,0,0,0,0,0,0,0,0,0,0]","door_history":"[1,1,1,1,1,1,1,1,1,1,1,1,1,1,1,1,1,1,1,1,1,1,1,1,1,1]","location_rts":"[1037,673,567,556,726,712,529,736,467,758,606,694,596,893,630,510,647,502,568,663,519,652,1706,1381,920,599]","trial_type":"two-door-navigation","trial_index":21,"time_elapsed":773031,"internal_node_id":"0.0-2.0-19.0"},{"group":"tri cycles (cube, non-group)","room_assignment":["red","grey","yellow","pink","green","purple","brown","blue"],"door_color_assignment":["white","black"],"door_generator_assignment":[1,0],"goal":7,"start":5,"action_noise":0.1,"location_history":"[5,1,0,2,6,4,7]","action_history":"[0,0,0,0,0,0]","door_history":"[1,1,1,1,1,1]","location_rts":"[1131,1504,684,531,708,624]","trial_type":"two-door-navigation","trial_index":22,"time_elapsed":788124,"internal_node_id":"0.0-2.0-20.0"},{"group":"tri cycles (cube, non-group)","room_assignment":["red","grey","yellow","pink","green","purple","brown","blue"],"door_color_assignment":["white","black"],"door_generator_assignment":[1,0],"goal":2,"start":7,"action_noise":0.1,"location_history":"[7,6,4,7,6,5,2]","action_history":"[0,0,0,0,0,0]","door_history":"[1,1,1,1,1,1]","location_rts":"[3320,639,479,515,517,559]","trial_type":"two-door-navigation","trial_index":23,"time_elapsed":804072,"internal_node_id":"0.0-2.0-21.0"},{"group":"tri cycles (cube, non-group)","room_assignment":["red","grey","yellow","pink","green","purple","brown","blue"],"door_color_assignment":["white","black"],"door_generator_assignment":[1,0],"goal":0,"start":2,"action_noise":0.1,"location_history":"[2,1,5,1,0]","action_history":"[0,0,0,0]","door_history":"[1,1,1,1]","location_rts":"[659,737,665,524]","trial_type":"two-door-navigation","trial_index":24,"time_elapsed":814464,"internal_node_id":"0.0-2.0-22.0"},{"group":"tri cycles (cube, non-group)","room_assignment":["red","grey","yellow","pink","green","purple","brown","blue"],"door_color_assignment":["white","black"],"door_generator_assignment":[1,0],"goal":7,"start":0,"action_noise":0.1,"location_history":"[0,2,1,0,2,1,5,1,5,1,0,2,1,0,2,6,5,2,6,5,2,6,5,2,1,5,2,6,5,2,6,5,2,6,5,2,6,5,1,5,2,6,5,1,0,2,1,0,2,1,0,2,1,0,2,1,0,2,1,0,2,1,0,2,1,0,2,1,0,2,1,5,1,0,2,1,0,2,6,5,2,1,5,2,6,5,2,6,5,1,5,2,1,0,3,7]","action_history":"[0,0,0,0,0,0,0,0,0,0,0,0,0,0,1,1,1,1,1,1,1,1,1,1,1,1,1,1,1,1,1,1,1,1,1,1,1,1,1,1,1,1,0,0,0,0,0,0,0,0,0,0,0,0,0,0,0,0,0,0,0,0,0,0,0,0,0,0,0,0,0,0,0,0,0,0,0,1,1,1,1,1,1,1,1,1,1,1,0,0,0,0,0,0,0]","door_history":"[1,1,1,1,1,1,1,1,1,1,1,1,1,1,0,0,0,0,0,0,0,0,0,0,0,0,0,0,0,0,0,0,0,0,0,0,0,0,0,0,0,0,1,1,1,1,1,1,1,1,1,1,1,1,1,1,1,1,1,1,1,1,1,1,1,1,1,1,1,1,1,1,1,1,1,1,1,0,0,0,0,0,0,0,0,0,0,0,1,1,1,1,1,1,1]","location_rts":"[720,986,668,536,604,701,1125,588,769,583,783,720,685,2613,615,509,910,550,512,587,1408,798,874,723,1454,1497,838,706,661,1027,775,724,479,447,572,586,859,561,707,836,887,949,1050,579,866,771,482,544,478,491,662,463,516,575,638,567,1163,595,981,678,1446,579,730,548,706,785,963,557,449,493,501,532,646,446,478,683,579,1080,635,1021,580,645,729,576,629,716,1100,697,913,582,622,723,850,741,573]","trial_type":"two-door-navigation","trial_index":25,"time_elapsed":990291,"internal_node_id":"0.0-2.0-23.0"},{"group":"tri cycles (cube, non-group)","room_assignment":["red","grey","yellow","pink","green","purple","brown","blue"],"door_color_assignment":["white","black"],"door_generator_assignment":[1,0],"goal":5,"start":7,"action_noise":0.1,"location_history":"[7,6,4,7,6,4,7,6,4,7,6,4,0,2,1,0,2,1,0,2,6,4,7,6,4,7,6,4,7,6,4,7,6,4,7,3,7,6,4,7,6,4,0,2,1,0,2,1,0,2,6,4,7,6,4,7,6,4,7,6,4,7,3,7,6,4,7,6,4,7,6,4,7,6,4,0,3,4,0,3,4,0,3,4,0,3,4,0,2,1,0,2,1,0,2,1,0,2,1,0,2,1,0,3,7,6,4,7,3,7,6,4,7,6,4,0,3,7,6,4,7,6,5]","action_history":"[0,0,0,0,0,0,0,0,0,0,0,0,0,0,0,0,0,0,0,0,0,0,0,0,0,0,0,0,0,0,0,0,0,0,0,0,0,0,0,0,0,0,0,0,0,0,0,0,0,0,0,0,0,0,0,0,0,0,0,0,0,0,0,0,0,0,0,0,0,0,0,0,0,0,1,1,1,1,1,1,1,1,1,1,1,1,0,0,0,0,0,0,0,0,0,0,0,0,0,0,0,0,0,0,0,0,0,0,0,0,0,0,0,0,0,0,0,0,0,0,0,1]","door_history":"[1,1,1,1,1,1,1,1,1,1,1,1,1,1,1,1,1,1,1,1,1,1,1,1,1,1,1,1,1,1,1,1,1,1,1,1,1,1,1,1,1,1,1,1,1,1,1,1,1,1,1,1,1,1,1,1,1,1,1,1,1,1,1,1,1,1,1,1,1,1,1,1,1,1,0,0,0,0,0,0,0,0,0,0,0,0,1,1,1,1,1,1,1,1,1,1,1,1,1,1,1,1,1,1,1,1,1,1,1,1,1,1,1,1,1,1,1,1,1,1,1,0]","location_rts":"[1168,677,725,776,634,754,651,582,606,810,594,751,757,1233,559,523,742,576,914,688,903,679,699,587,509,708,681,1117,547,478,543,521,671,920,2376,1060,548,551,619,696,605,842,507,1145,1290,474,607,500,546,442,826,593,775,459,459,2272,593,773,1414,679,943,564,754,597,497,536,673,595,577,679,743,640,652,598,873,542,641,647,516,749,501,844,520,620,676,495,1591,710,3350,442,389,411,410,392,351,397,371,2066,561,457,522,499,440,462,572,471,592,507,557,537,511,462,450,458,495,550,447,468,516,423,354,433]","trial_type":"two-door-navigation","trial_index":26,"time_elapsed":1209384,"internal_node_id":"0.0-2.0-24.0"},{"group":"tri cycles (cube, non-group)","room_assignment":["red","grey","yellow","pink","green","purple","brown","blue"],"door_color_assignment":["white","black"],"door_generator_assignment":[1,0],"goal":0,"start":5,"action_noise":0.1,"location_history":"[5,2,1,5,1,5,2,1,0]","action_history":"[0,0,0,0,0,0,0,0]","door_history":"[1,1,1,1,1,1,1,1]","location_rts":"[8752,855,563,749,389,468,402,416]","trial_type":"two-door-navigation","trial_index":27,"time_elapsed":1234044,"internal_node_id":"0.0-2.0-25.0"},{"group":"tri cycles (cube, non-group)","room_assignment":["red","grey","yellow","pink","green","purple","brown","blue"],"door_color_assignment":["white","black"],"door_generator_assignment":[1,0],"goal":6,"start":0,"action_noise":0.1,"location_history":"[0,2,1,0,2,1,0,2,1,0,2,6]","action_history":"[0,0,0,0,0,0,0,0,0,0,0]","door_history":"[1,1,1,1,1,1,1,1,1,1,1]","location_rts":"[2058,2072,718,653,657,480,426,481,473,454,445]","trial_type":"two-door-navigation","trial_index":28,"time_elapsed":1258260,"internal_node_id":"0.0-2.0-26.0"},{"group":"tri cycles (cube, non-group)","room_assignment":["red","grey","yellow","pink","green","purple","brown","blue"],"door_color_assignment":["white","black"],"door_generator_assignment":[1,0],"goal":4,"start":6,"action_noise":0.1,"location_history":"[6,4]","action_history":"[0]","door_history":"[1]","location_rts":"[1063]","trial_type":"two-door-navigation","trial_index":29,"time_elapsed":1263908,"internal_node_id":"0.0-2.0-27.0"},{"group":"tri cycles (cube, non-group)","room_assignment":["red","grey","yellow","pink","green","purple","brown","blue"],"door_color_assignment":["white","black"],"door_generator_assignment":[1,0],"goal":2,"start":4,"action_noise":0.1,"location_history":"[4,7,6,4,7,6,4,7,6,4,7,6,4,7,3,7,6,4,7,6,4,7,6,4,7,6,4,7,6,4,7,6,4,7,6,4,7,6,4,7,6,4,7,3,7,3,7,6,4,7,6,4,7,6,4,7,6,4,0,2]","action_history":"[0,0,0,0,0,0,0,0,0,0,0,0,0,0,0,0,0,0,0,0,0,0,0,0,0,0,0,0,0,0,0,0,0,0,0,0,0,0,0,0,0,0,0,0,0,0,0,0,0,0,0,0,0,0,0,0,0,0,0]","door_history":"[1,1,1,1,1,1,1,1,1,1,1,1,1,1,1,1,1,1,1,1,1,1,1,1,1,1,1,1,1,1,1,1,1,1,1,1,1,1,1,1,1,1,1,1,1,1,1,1,1,1,1,1,1,1,1,1,1,1,1]","location_rts":"[1006,762,560,412,659,632,581,446,472,525,487,505,763,464,680,465,522,468,493,506,527,464,681,396,539,607,397,381,380,427,373,606,491,398,449,469,416,525,661,526,541,462,515,393,426,778,380,425,488,368,430,632,470,395,433,417,481,478,476]","trial_type":"two-door-navigation","trial_index":30,"time_elapsed":1360668,"internal_node_id":"0.0-2.0-28.0"},{"group":"tri cycles (cube, non-group)","room_assignment":["red","grey","yellow","pink","green","purple","brown","blue"],"door_color_assignment":["white","black"],"door_generator_assignment":[1,0],"goal":3,"start":2,"action_noise":0.1,"location_history":"[2,1,0,2,1,0,2,1,0,2,6,4,7,6,4,0,2,1,0,2,1,0,2,1,0,2,1,0,2,1,0,3]","action_history":"[0,0,0,0,0,0,0,0,0,0,0,0,0,0,0,0,0,0,0,0,0,0,0,0,0,0,0,0,0,0,0]","door_history":"[1,1,1,1,1,1,1,1,1,1,1,1,1,1,1,1,1,1,1,1,1,1,1,1,1,1,1,1,1,1,1]","location_rts":"[21809,711,493,476,751,497,1069,551,528,460,670,883,749,562,582,447,1487,548,675,592,470,492,526,706,551,730,609,574,837,414,553]","trial_type":"two-door-navigation","trial_index":31,"time_elapsed":1438272,"internal_node_id":"0.0-2.0-29.0"},{"group":"tri cycles (cube, non-group)","room_assignment":["red","grey","yellow","pink","green","purple","brown","blue"],"door_color_assignment":["white","black"],"door_generator_assignment":[1,0],"goal":1,"start":3,"action_noise":0.1,"location_history":"[3,7,6,5,1]","action_history":"[0,0,0,0]","door_history":"[1,1,1,1]","location_rts":"[1336,545,540,625]","trial_type":"two-door-navigation","trial_index":32,"time_elapsed":1449106,"internal_node_id":"0.0-2.0-30.0"},{"group":"tri cycles (cube, non-group)","room_assignment":["red","grey","yellow","pink","green","purple","brown","blue"],"door_color_assignment":["white","black"],"door_generator_assignment":[1,0],"goal":4,"start":1,"action_noise":0.1,"location_history":"[1,0,2,1,0,3,7,6,4]","action_history":"[0,0,0,0,0,0,0,0]","door_history":"[1,1,1,1,1,1,1,1]","location_rts":"[2447,1602,966,1196,415,410,471,475]","trial_type":"two-door-navigation","trial_index":33,"time_elapsed":1469165,"internal_node_id":"0.0-2.0-31.0"},{"group":"tri cycles (cube, non-group)","room_assignment":["red","grey","yellow","pink","green","purple","brown","blue"],"door_color_assignment":["white","black"],"door_generator_assignment":[1,0],"goal":3,"start":4,"action_noise":0.1,"location_history":"[4,7,6,4,7,6,4,7,6,4,7,6,4,7,6,4,7,6,4,7,3]","action_history":"[0,0,0,0,0,0,0,0,0,0,0,0,0,0,0,0,0,0,0,0]","door_history":"[1,1,1,1,1,1,1,1,1,1,1,1,1,1,1,1,1,1,1,1]","location_rts":"[2906,567,1805,1193,689,2474,514,561,494,587,535,468,656,612,652,579,557,517,565,476]","trial_type":"two-door-navigation","trial_index":34,"time_elapsed":1511466,"internal_node_id":"0.0-2.0-32.0"},{"group":"tri cycles (cube, non-group)","room_assignment":["red","grey","yellow","pink","green","purple","brown","blue"],"door_color_assignment":["white","black"],"door_generator_assignment":[1,0],"goal":6,"start":3,"action_noise":0.1,"location_history":"[3,7,6]","action_history":"[0,0]","door_history":"[1,1]","location_rts":"[735,950]","trial_type":"two-door-navigation","trial_index":35,"time_elapsed":1518796,"internal_node_id":"0.0-2.0-33.0"},{"group":"tri cycles (cube, non-group)","room_assignment":["red","grey","yellow","pink","green","purple","brown","blue"],"door_color_assignment":["white","black"],"door_generator_assignment":[1,0],"goal":0,"start":6,"action_noise":0.1,"location_history":"[6,4,7,6,4,7,6,4,7,6,4,7,6,4,7,6,4,7,6,4,7,6,4,7,6,4,7,6,4,0]","action_history":"[0,0,0,0,0,0,0,0,0,0,0,0,0,0,0,0,0,0,0,0,0,0,0,0,0,0,0,0,0]","door_history":"[1,1,1,1,1,1,1,1,1,1,1,1,1,1,1,1,1,1,1,1,1,1,1,1,1,1,1,1,1]","location_rts":"[912,599,580,519,467,531,756,526,511,628,470,463,497,451,478,492,472,455,465,474,601,495,453,466,498,599,562,518,483]","trial_type":"two-door-navigation","trial_index":36,"time_elapsed":1568752,"internal_node_id":"0.0-2.0-34.0"},{"group":"tri cycles (cube, non-group)","room_assignment":["red","grey","yellow","pink","green","purple","brown","blue"],"door_color_assignment":["white","black"],"door_generator_assignment":[1,0],"goal":1,"start":0,"action_noise":0.1,"location_history":"[0,2,1]","action_history":"[0,0]","door_history":"[1,1]","location_rts":"[2127,686]","trial_type":"two-door-navigation","trial_index":37,"time_elapsed":1577227,"internal_node_id":"0.0-2.0-35.0"},{"group":"tri cycles (cube, non-group)","room_assignment":["red","grey","yellow","pink","green","purple","brown","blue"],"door_color_assignment":["white","black"],"door_generator_assignment":[1,0],"goal":5,"start":1,"action_noise":0.1,"location_history":"[1,0,2,1,5]","action_history":"[0,0,0,0]","door_history":"[1,1,1,1]","location_rts":"[507,628,511,828]","trial_type":"two-door-navigation","trial_index":38,"time_elapsed":1587484,"internal_node_id":"0.0-2.0-36.0"},{"group":"tri cycles (cube, non-group)","room_assignment":["red","grey","yellow","pink","green","purple","brown","blue"],"door_color_assignment":["white","black"],"door_generator_assignment":[1,0],"goal":7,"start":5,"action_noise":0.1,"location_history":"[5,1,0,2,1,0,2,1,0,2,1,5,1,0,2,6,4,7]","action_history":"[0,0,0,0,0,0,0,0,0,0,0,0,0,0,0,0,0]","door_history":"[1,1,1,1,1,1,1,1,1,1,1,1,1,1,1,1,1]","location_rts":"[521,676,488,697,963,707,689,730,550,1254,495,745,514,541,549,480,600]","trial_type":"two-door-navigation","trial_index":39,"time_elapsed":1620368,"internal_node_id":"0.0-2.0-37.0"},{"group":"tri cycles (cube, non-group)","room_assignment":["red","grey","yellow","pink","green","purple","brown","blue"],"door_color_assignment":["white","black"],"door_generator_assignment":[1,0],"goal":2,"start":7,"action_noise":0.1,"location_history":"[7,6,4,7,6,5,1,0,2]","action_history":"[0,0,0,0,0,0,0,0]","door_history":"[1,1,1,1,1,1,1,1]","location_rts":"[1329,533,587,676,533,492,501,471]","trial_type":"two-door-navigation","trial_index":40,"time_elapsed":1637553,"internal_node_id":"0.0-2.0-38.0"},{"group":"tri cycles (cube, non-group)","room_assignment":["red","grey","yellow","pink","green","purple","brown","blue"],"door_color_assignment":["white","black"],"door_generator_assignment":[1,0],"goal":1,"start":2,"action_noise":0.1,"location_history":"[2,1]","action_history":"[0]","door_history":"[1]","location_rts":"[1155]","trial_type":"two-door-navigation","trial_index":41,"time_elapsed":1643283,"internal_node_id":"0.0-2.0-39.0"},{"group":"tri cycles (cube, non-group)","room_assignment":["red","grey","yellow","pink","green","purple","brown","blue"],"door_color_assignment":["white","black"],"door_generator_assignment":[1,0],"goal":3,"start":1,"action_noise":0.1,"location_history":"[1,0,2,1,0,2,6,4,7,6,4,7,3]","action_history":"[0,0,0,0,0,0,0,0,0,0,0,0]","door_history":"[1,1,1,1,1,1,1,1,1,1,1,1]","location_rts":"[881,584,612,499,546,564,593,479,588,610,479,533]","trial_type":"two-door-navigation","trial_index":42,"time_elapsed":1666592,"internal_node_id":"0.0-2.0-40.0"},{"group":"tri cycles (cube, non-group)","room_assignment":["red","grey","yellow","pink","green","purple","brown","blue"],"door_color_assignment":["white","black"],"door_generator_assignment":[1,0],"goal":4,"start":3,"action_noise":0.1,"location_history":"[3,7,6,4]","action_history":"[0,0,0]","door_history":"[1,1,1]","location_rts":"[1106,523,567]","trial_type":"two-door-navigation","trial_index":43,"time_elapsed":1675480,"internal_node_id":"0.0-2.0-41.0"},{"group":"tri cycles (cube, non-group)","room_assignment":["red","grey","yellow","pink","green","purple","brown","blue"],"door_color_assignment":["white","black"],"door_generator_assignment":[1,0],"goal":2,"start":4,"action_noise":0.1,"location_history":"[4,7,6,4,7,6,4,7,6,4,7,6,4,0,2]","action_history":"[0,0,0,0,0,0,0,0,0,0,0,0,0,0]","door_history":"[1,1,1,1,1,1,1,1,1,1,1,1,1,1]","location_rts":"[1052,565,592,592,503,555,533,564,502,673,547,507,420,683]","trial_type":"two-door-navigation","trial_index":44,"time_elapsed":1702177,"internal_node_id":"0.0-2.0-42.0"},{"group":"tri cycles (cube, non-group)","room_assignment":["red","grey","yellow","pink","green","purple","brown","blue"],"door_color_assignment":["white","black"],"door_generator_assignment":[1,0],"goal":5,"start":2,"action_noise":0.1,"location_history":"[2,1,0,2,1,0,2,1,0,2,1,0,2,1,0,2,1,0,3,7,6,4,7,6,4,7,6,4,7,6,4,7,6,4,7,6,4,7,6,5]","action_history":"[0,0,0,0,0,0,0,0,0,0,0,0,0,0,0,0,0,0,0,0,0,0,0,0,0,0,0,0,0,0,0,0,0,0,0,0,0,0,0]","door_history":"[1,1,1,1,1,1,1,1,1,1,1,1,1,1,1,1,1,1,1,1,1,1,1,1,1,1,1,1,1,1,1,1,1,1,1,1,1,1,1]","location_rts":"[993,1403,497,956,630,476,463,526,478,468,544,564,541,498,532,751,679,664,1064,623,460,459,535,475,475,560,634,604,618,533,525,771,603,573,759,706,543,598,524]","trial_type":"two-door-navigation","trial_index":45,"time_elapsed":1771688,"internal_node_id":"0.0-2.0-43.0"},{"group":"tri cycles (cube, non-group)","room_assignment":["red","grey","yellow","pink","green","purple","brown","blue"],"door_color_assignment":["white","black"],"door_generator_assignment":[1,0],"goal":0,"start":5,"action_noise":0.1,"location_history":"[5,2,1,0]","action_history":"[0,0,0]","door_history":"[1,1,1]","location_rts":"[1931,488,383]","trial_type":"two-door-navigation","trial_index":46,"time_elapsed":1781218,"internal_node_id":"0.0-2.0-44.0"},{"group":"tri cycles (cube, non-group)","room_assignment":["red","grey","yellow","pink","green","purple","brown","blue"],"door_color_assignment":["white","black"],"door_generator_assignment":[1,0],"goal":7,"start":0,"action_noise":0.1,"location_history":"[0,2,6,4,7]","action_history":"[0,0,0,0]","door_history":"[1,1,1,1]","location_rts":"[1107,529,1632,585]","trial_type":"two-door-navigation","trial_index":47,"time_elapsed":1792867,"internal_node_id":"0.0-2.0-45.0"},{"group":"tri cycles (cube, non-group)","room_assignment":["red","grey","yellow","pink","green","purple","brown","blue"],"door_color_assignment":["white","black"],"door_generator_assignment":[1,0],"goal":6,"start":7,"action_noise":0.1,"location_history":"[7,6]","action_history":"[0]","door_history":"[1]","location_rts":"[1102]","trial_type":"two-door-navigation","trial_index":48,"time_elapsed":1798560,"internal_node_id":"0.0-2.0-46.0"},{"group":"tri cycles (cube, non-group)","room_assignment":["red","grey","yellow","pink","green","purple","brown","blue"],"door_color_assignment":["white","black"],"door_generator_assignment":[1,0],"goal":2,"start":6,"action_noise":0.1,"location_history":"[6,4,7,6,4,0,2]","action_history":"[0,0,0,0,0,0]","door_history":"[1,1,1,1,1,1]","location_rts":"[887,596,530,558,541,806]","trial_type":"two-door-navigation","trial_index":49,"time_elapsed":1812414,"internal_node_id":"0.0-2.0-47.0"},{"group":"tri cycles (cube, non-group)","room_assignment":["red","grey","yellow","pink","green","purple","brown","blue"],"door_color_assignment":["white","black"],"door_generator_assignment":[1,0],"goal":5,"start":2,"action_noise":0.1,"location_history":"[2,1,0,2,6,4,0,2,1,0,2,1,0,2,1,0,2,1,5]","action_history":"[0,0,0,0,0,0,0,0,0,0,0,0,0,0,0,0,0,0]","door_history":"[1,1,1,1,1,1,1,1,1,1,1,1,1,1,1,1,1,1]","location_rts":"[1208,537,559,858,439,464,1285,501,470,616,1013,678,580,496,482,522,476,401]","trial_type":"two-door-navigation","trial_index":50,"time_elapsed":1846780,"internal_node_id":"0.0-2.0-48.0"},{"group":"tri cycles (cube, non-group)","room_assignment":["red","grey","yellow","pink","green","purple","brown","blue"],"door_color_assignment":["white","black"],"door_generator_assignment":[1,0],"goal":3,"start":5,"action_noise":0.1,"location_history":"[5,1,0,2,1,0,2,1,0,2,6,4,7,6,4,7,6,4,7,6,4,7,3]","action_history":"[0,0,0,0,0,0,0,0,0,0,0,0,0,0,0,0,0,0,0,0,0,0]","door_history":"[1,1,1,1,1,1,1,1,1,1,1,1,1,1,1,1,1,1,1,1,1,1]","location_rts":"[1155,552,513,610,569,547,519,522,507,575,474,553,594,485,604,537,587,817,636,592,535,497]","trial_type":"two-door-navigation","trial_index":51,"time_elapsed":1886865,"internal_node_id":"0.0-2.0-49.0"},{"view_history":"[{\"page_index\":0,\"viewing_time\":23612}]","rt":23613,"trial_type":"instructions","trial_index":52,"time_elapsed":1911480,"internal_node_id":"0.0-3.0"},{"view_history":"[{\"page_index\":0,\"viewing_time\":2888},{\"page_index\":1,\"viewing_time\":5941}]","rt":8829,"trial_type":"instructions","trial_index":53,"time_elapsed":1921312,"internal_node_id":"0.0-4.0"},{"group":"square cycles (cube, non-group)","fractal_assignment":["../images/grn_red.png","../images/org_blu.png","../images/gry_blk.png","../images/cyn_red.png","../images/blu_wht.png","../images/pnk_blu.png","../images/ylw_pnk.png","../images/ylw_slt.png"],"mutagen_generator_assignment":[1,0],"goal":5,"start":7,"action_noise":0.1,"location_history":"[7,3,0,4,7,6,5]","action_history":"[1,0,1,0,1,0]","mutagen_history":"[0,1,0,1,0,1]","location_rts":"[3972,590,604,541,557,681]","trial_type":"fractal-mutation","trial_index":54,"time_elapsed":1938231,"internal_node_id":"0.0-5.0-0.0"},{"group":"square cycles (cube, non-group)","fractal_assignment":["../images/grn_red.png","../images/org_blu.png","../images/gry_blk.png","../images/cyn_red.png","../images/blu_wht.png","../images/pnk_blu.png","../images/ylw_pnk.png","../images/ylw_slt.png"],"mutagen_generator_assignment":[1,0],"goal":2,"start":5,"action_noise":0.1,"location_history":"[5,1,2]","action_history":"[1,0]","mutagen_history":"[0,1]","location_rts":"[778,564]","trial_type":"fractal-mutation","trial_index":55,"time_elapsed":1945242,"internal_node_id":"0.0-5.0-1.0"},{"group":"square cycles (cube, non-group)","fractal_assignment":["../images/grn_red.png","../images/org_blu.png","../images/gry_blk.png","../images/cyn_red.png","../images/blu_wht.png","../images/pnk_blu.png","../images/ylw_pnk.png","../images/ylw_slt.png"],"mutagen_generator_assignment":[1,0],"goal":0,"start":2,"action_noise":0.1,"location_history":"[2,6,5,1,2,6,7,3,0]","action_history":"[1,0,1,0,1,0,1,0]","mutagen_history":"[0,1,0,1,0,1,0,1]","location_rts":"[596,470,616,579,668,604,610,814]","trial_type":"fractal-mutation","trial_index":56,"time_elapsed":1962326,"internal_node_id":"0.0-5.0-2.0"},{"group":"square cycles (cube, non-group)","fractal_assignment":["../images/grn_red.png","../images/org_blu.png","../images/gry_blk.png","../images/cyn_red.png","../images/blu_wht.png","../images/pnk_blu.png","../images/ylw_pnk.png","../images/ylw_slt.png"],"mutagen_generator_assignment":[1,0],"goal":1,"start":0,"action_noise":0.1,"location_history":"[0,1]","action_history":"[0]","mutagen_history":"[1]","location_rts":"[3146]","trial_type":"fractal-mutation","trial_index":57,"time_elapsed":1970063,"internal_node_id":"0.0-5.0-3.0"},{"group":"square cycles (cube, non-group)","fractal_assignment":["../images/grn_red.png","../images/org_blu.png","../images/gry_blk.png","../images/cyn_red.png","../images/blu_wht.png","../images/pnk_blu.png","../images/ylw_pnk.png","../images/ylw_slt.png"],"mutagen_generator_assignment":[1,0],"goal":6,"start":1,"action_noise":0.1,"location_history":"[1,2,3,2,3,2,3,2,3,2,3,2,3,2,6]","action_history":"[1,0,1,0,1,0,1,0,1,0,1,0,1,0]","mutagen_history":"[0,1,0,1,0,1,0,1,0,1,0,1,0,1]","location_rts":"[753,592,448,598,563,698,520,943,542,504,652,627,631,539]","trial_type":"fractal-mutation","trial_index":58,"time_elapsed":1997244,"internal_node_id":"0.0-5.0-4.0"},{"group":"square cycles (cube, non-group)","fractal_assignment":["../images/grn_red.png","../images/org_blu.png","../images/gry_blk.png","../images/cyn_red.png","../images/blu_wht.png","../images/pnk_blu.png","../images/ylw_pnk.png","../images/ylw_slt.png"],"mutagen_generator_assignment":[1,0],"goal":3,"start":6,"action_noise":0.1,"location_history":"[6,5,1,2,6,5,4,7,3]","action_history":"[0,1,0,1,0,1,0,1]","mutagen_history":"[1,0,1,0,1,0,1,0]","location_rts":"[607,537,626,575,721,925,1173,709]","trial_type":"fractal-mutation","trial_index":59,"time_elapsed":2015217,"internal_node_id":"0.0-5.0-5.0"},{"group":"square cycles (cube, non-group)","fractal_assignment":["../images/grn_red.png","../images/org_blu.png","../images/gry_blk.png","../images/cyn_red.png","../images/blu_wht.png","../images/pnk_blu.png","../images/ylw_pnk.png","../images/ylw_slt.png"],"mutagen_generator_assignment":[1,0],"goal":4,"start":3,"action_noise":0.1,"location_history":"[3,2,3,2,3,2,3,2,3,2,3,2,3,2,3,2,3,2,3,0,1,0,1,0,1,0,1,0,1,0,1,2,6,7,6,7,6,5,4]","action_history":"[1,0,1,0,1,0,1,0,1,0,1,0,1,0,1,0,1,0,1,0,1,0,1,0,1,0,1,0,1,0,0,1,1,0,1,0,1,0]","mutagen_history":"[0,1,0,1,0,1,0,1,0,1,0,1,0,1,0,1,0,1,0,1,0,1,0,1,0,1,0,1,0,1,1,0,0,1,0,1,0,1]","location_rts":"[687,558,660,485,743,575,715,570,779,558,744,564,559,552,763,687,835,675,655,747,648,915,578,611,682,1048,534,799,536,958,724,557,638,465,721,890,630,917]","trial_type":"fractal-mutation","trial_index":60,"time_elapsed":2085585,"internal_node_id":"0.0-5.0-6.0"},{"group":"square cycles (cube, non-group)","fractal_assignment":["../images/grn_red.png","../images/org_blu.png","../images/gry_blk.png","../images/cyn_red.png","../images/blu_wht.png","../images/pnk_blu.png","../images/ylw_pnk.png","../images/ylw_slt.png"],"mutagen_generator_assignment":[1,0],"goal":1,"start":4,"action_noise":0.1,"location_history":"[4,7,3,0,4,7,3,0,4,7,3,0,4,5,4,5,4,5,4,7,3,2,3,2,3,0,1]","action_history":"[0,1,0,1,0,1,0,1,0,1,0,1,1,0,1,0,1,0,0,1,1,0,0,0,0,0]","mutagen_history":"[1,0,1,0,1,0,1,0,1,0,1,0,0,1,0,1,0,1,1,0,0,1,1,1,1,1]","location_rts":"[777,506,501,374,599,621,790,467,560,796,925,459,612,477,685,573,663,443,430,574,1194,391,823,550,436,420]","trial_type":"fractal-mutation","trial_index":61,"time_elapsed":2132757,"internal_node_id":"0.0-5.0-7.0"},{"group":"square cycles (cube, non-group)","fractal_assignment":["../images/grn_red.png","../images/org_blu.png","../images/gry_blk.png","../images/cyn_red.png","../images/blu_wht.png","../images/pnk_blu.png","../images/ylw_pnk.png","../images/ylw_slt.png"],"mutagen_generator_assignment":[1,0],"goal":4,"start":1,"action_noise":0.1,"location_history":"[1,2,3,0,4]","action_history":"[1,1,1,1]","mutagen_history":"[0,0,0,0]","location_rts":"[1057,660,529,637]","trial_type":"fractal-mutation","trial_index":62,"time_elapsed":2143458,"internal_node_id":"0.0-5.0-8.0"},{"group":"square cycles (cube, non-group)","fractal_assignment":["../images/grn_red.png","../images/org_blu.png","../images/gry_blk.png","../images/cyn_red.png","../images/blu_wht.png","../images/pnk_blu.png","../images/ylw_pnk.png","../images/ylw_slt.png"],"mutagen_generator_assignment":[1,0],"goal":5,"start":4,"action_noise":0.1,"location_history":"[4,7,6,5]","action_history":"[0,0,0]","mutagen_history":"[1,1,1]","location_rts":"[629,557,636]","trial_type":"fractal-mutation","trial_index":63,"time_elapsed":2152025,"internal_node_id":"0.0-5.0-9.0"},{"group":"square cycles (cube, non-group)","fractal_assignment":["../images/grn_red.png","../images/org_blu.png","../images/gry_blk.png","../images/cyn_red.png","../images/blu_wht.png","../images/pnk_blu.png","../images/ylw_pnk.png","../images/ylw_slt.png"],"mutagen_generator_assignment":[1,0],"goal":3,"start":5,"action_noise":0.1,"location_history":"[5,1,0,4,5,1,0,4,5,4,5,1,0,4,7,6,5,1,2,3]","action_history":"[1,1,1,1,1,1,1,1,1,1,1,1,0,0,0,0,1,0,0]","mutagen_history":"[0,0,0,0,0,0,0,0,0,0,0,0,1,1,1,1,0,1,1]","location_rts":"[620,733,536,567,891,549,550,732,570,714,917,698,524,656,592,531,1113,487,635]","trial_type":"fractal-mutation","trial_index":64,"time_elapsed":2188597,"internal_node_id":"0.0-5.0-10.0"},{"group":"square cycles (cube, non-group)","fractal_assignment":["../images/grn_red.png","../images/org_blu.png","../images/gry_blk.png","../images/cyn_red.png","../images/blu_wht.png","../images/pnk_blu.png","../images/ylw_pnk.png","../images/ylw_slt.png"],"mutagen_generator_assignment":[1,0],"goal":6,"start":3,"action_noise":0.1,"location_history":"[3,2,3,0,4,5,4,7,3,2,3,0,4,5,1,0,1,0,4,7,3,0,4,7,3,2,6]","action_history":"[1,0,0,1,1,0,0,1,1,0,0,1,1,1,1,0,0,1,0,1,0,0,1,1,1,1]","mutagen_history":"[0,1,1,0,0,1,1,0,0,1,1,0,0,0,0,1,1,0,1,0,1,1,0,0,0,0]","location_rts":"[1422,511,509,443,501,567,567,641,574,490,578,59,576,708,835,640,594,704,448,569,553,582,723,643,627,509]","trial_type":"fractal-mutation","trial_index":65,"time_elapsed":2235684,"internal_node_id":"0.0-5.0-11.0"},{"group":"square cycles (cube, non-group)","fractal_assignment":["../images/grn_red.png","../images/org_blu.png","../images/gry_blk.png","../images/cyn_red.png","../images/blu_wht.png","../images/pnk_blu.png","../images/ylw_pnk.png","../images/ylw_slt.png"],"mutagen_generator_assignment":[1,0],"goal":7,"start":6,"action_noise":0.1,"location_history":"[6,5,4,7]","action_history":"[0,0,0]","mutagen_history":"[1,1,1]","location_rts":"[1450,634,514]","trial_type":"fractal-mutation","trial_index":66,"time_elapsed":2245047,"internal_node_id":"0.0-5.0-12.0"},{"group":"square cycles (cube, non-group)","fractal_assignment":["../images/grn_red.png","../images/org_blu.png","../images/gry_blk.png","../images/cyn_red.png","../images/blu_wht.png","../images/pnk_blu.png","../images/ylw_pnk.png","../images/ylw_slt.png"],"mutagen_generator_assignment":[1,0],"goal":0,"start":7,"action_noise":0.1,"location_history":"[7,3,2,6,7,3,2,6,7,6,7,3,0]","action_history":"[1,1,1,1,1,1,1,1,1,1,0,0]","mutagen_history":"[0,0,0,0,0,0,0,0,0,0,1,1]","location_rts":"[625,414,576,678,595,521,602,574,487,608,489,588]","trial_type":"fractal-mutation","trial_index":67,"time_elapsed":2268239,"internal_node_id":"0.0-5.0-13.0"},{"group":"square cycles (cube, non-group)","fractal_assignment":["../images/grn_red.png","../images/org_blu.png","../images/gry_blk.png","../images/cyn_red.png","../images/blu_wht.png","../images/pnk_blu.png","../images/ylw_pnk.png","../images/ylw_slt.png"],"mutagen_generator_assignment":[1,0],"goal":2,"start":0,"action_noise":0.1,"location_history":"[0,1,2]","action_history":"[0,0]","mutagen_history":"[1,1]","location_rts":"[789,596]","trial_type":"fractal-mutation","trial_index":68,"time_elapsed":2275286,"internal_node_id":"0.0-5.0-14.0"},{"group":"square cycles (cube, non-group)","fractal_assignment":["../images/grn_red.png","../images/org_blu.png","../images/gry_blk.png","../images/cyn_red.png","../images/blu_wht.png","../images/pnk_blu.png","../images/ylw_pnk.png","../images/ylw_slt.png"],"mutagen_generator_assignment":[1,0],"goal":1,"start":2,"action_noise":0.1,"location_history":"[2,6,7,3,0,1]","action_history":"[1,1,1,0,0]","mutagen_history":"[0,0,0,1,1]","location_rts":"[626,913,1008,516,591]","trial_type":"fractal-mutation","trial_index":69,"time_elapsed":2287839,"internal_node_id":"0.0-5.0-15.0"},{"group":"square cycles (cube, non-group)","fractal_assignment":["../images/grn_red.png","../images/org_blu.png","../images/gry_blk.png","../images/cyn_red.png","../images/blu_wht.png","../images/pnk_blu.png","../images/ylw_pnk.png","../images/ylw_slt.png"],"mutagen_generator_assignment":[1,0],"goal":6,"start":1,"action_noise":0.1,"location_history":"[1,0,4,5,1,2,3,0,1,2,6]","action_history":"[1,1,1,1,0,0,0,0,0,1]","mutagen_history":"[0,0,0,0,1,1,1,1,1,0]","location_rts":"[609,463,720,586,691,524,669,599,773,532]","trial_type":"fractal-mutation","trial_index":70,"time_elapsed":2308280,"internal_node_id":"0.0-5.0-16.0"},{"group":"square cycles (cube, non-group)","fractal_assignment":["../images/grn_red.png","../images/org_blu.png","../images/gry_blk.png","../images/cyn_red.png","../images/blu_wht.png","../images/pnk_blu.png","../images/ylw_pnk.png","../images/ylw_slt.png"],"mutagen_generator_assignment":[1,0],"goal":3,"start":6,"action_noise":0.1,"location_history":"[6,7,6,7,6,5,1,0,1,0,4,7,6,5,1,2,3]","action_history":"[1,0,1,0,1,1,1,1,1,1,0,0,0,0,0,0]","mutagen_history":"[0,1,0,1,0,0,0,0,0,0,1,1,1,1,1,1]","location_rts":"[1268,537,594,471,866,859,472,498,551,1061,428,539,740,579,553,579]","trial_type":"fractal-mutation","trial_index":71,"time_elapsed":2339625,"internal_node_id":"0.0-5.0-17.0"},{"group":"square cycles (cube, non-group)","fractal_assignment":["../images/grn_red.png","../images/org_blu.png","../images/gry_blk.png","../images/cyn_red.png","../images/blu_wht.png","../images/pnk_blu.png","../images/ylw_pnk.png","../images/ylw_slt.png"],"mutagen_generator_assignment":[1,0],"goal":4,"start":3,"action_noise":0.1,"location_history":"[3,2,3,2,6,7,6,7,6,7,6,7,6,5,1,0,4]","action_history":"[1,0,1,0,1,0,1,0,1,0,1,0,1,1,0,1]","mutagen_history":"[0,1,0,1,0,1,0,1,0,1,0,1,0,0,1,0]","location_rts":"[6738,623,602,546,440,729,659,470,991,617,779,440,662,855,586,622]","trial_type":"fractal-mutation","trial_index":72,"time_elapsed":2376719,"internal_node_id":"0.0-5.0-18.0"},{"group":"square cycles (cube, non-group)","fractal_assignment":["../images/grn_red.png","../images/org_blu.png","../images/gry_blk.png","../images/cyn_red.png","../images/blu_wht.png","../images/pnk_blu.png","../images/ylw_pnk.png","../images/ylw_slt.png"],"mutagen_generator_assignment":[1,0],"goal":5,"start":4,"action_noise":0.1,"location_history":"[4,7,3,0,1,2,6,7,3,2,3,0,4,5]","action_history":"[0,1,0,0,0,1,1,1,0,0,0,1,1]","mutagen_history":"[1,0,1,1,1,0,0,0,1,1,1,0,0]","location_rts":"[1209,701,551,419,493,504,507,478,726,524,587,507,664]","trial_type":"fractal-mutation","trial_index":73,"time_elapsed":2402119,"internal_node_id":"0.0-5.0-19.0"},{"group":"square cycles (cube, non-group)","fractal_assignment":["../images/grn_red.png","../images/org_blu.png","../images/gry_blk.png","../images/cyn_red.png","../images/blu_wht.png","../images/pnk_blu.png","../images/ylw_pnk.png","../images/ylw_slt.png"],"mutagen_generator_assignment":[1,0],"goal":7,"start":5,"action_noise":0.1,"location_history":"[5,1,0,1,0,1,2,3,0,4,5,1,0,1,2,6,5,1,2,3,2,6,5,4,7]","action_history":"[1,1,1,1,0,0,0,0,1,1,1,1,0,0,0,0,1,0,0,1,1,0,0,1]","mutagen_history":"[0,0,0,0,1,1,1,1,0,0,0,0,1,1,1,1,0,1,1,0,0,1,1,0]","location_rts":"[888,449,466,429,500,417,563,545,490,521,611,635,535,531,536,695,438,453,524,444,436,493,427,358]","trial_type":"fractal-mutation","trial_index":74,"time_elapsed":2443880,"internal_node_id":"0.0-5.0-20.0"},{"group":"square cycles (cube, non-group)","fractal_assignment":["../images/grn_red.png","../images/org_blu.png","../images/gry_blk.png","../images/cyn_red.png","../images/blu_wht.png","../images/pnk_blu.png","../images/ylw_pnk.png","../images/ylw_slt.png"],"mutagen_generator_assignment":[1,0],"goal":2,"start":7,"action_noise":0.1,"location_history":"[7,3,0,4,7,3,2]","action_history":"[1,0,1,0,1,1]","mutagen_history":"[0,1,0,1,0,0]","location_rts":"[4555,500,276,38,700,508]","trial_type":"fractal-mutation","trial_index":75,"time_elapsed":2460410,"internal_node_id":"0.0-5.0-21.0"},{"group":"square cycles (cube, non-group)","fractal_assignment":["../images/grn_red.png","../images/org_blu.png","../images/gry_blk.png","../images/cyn_red.png","../images/blu_wht.png","../images/pnk_blu.png","../images/ylw_pnk.png","../images/ylw_slt.png"],"mutagen_generator_assignment":[1,0],"goal":0,"start":2,"action_noise":0.1,"location_history":"[2,3,2,3,2,3,2,3,2,3,2,3,0]","action_history":"[0,1,0,1,0,1,0,1,0,1,0,0]","mutagen_history":"[1,0,1,0,1,0,1,0,1,0,1,1]","location_rts":"[727,153,1273,1968,481,361,534,644,513,599,458,442]","trial_type":"fractal-mutation","trial_index":76,"time_elapsed":2484966,"internal_node_id":"0.0-5.0-22.0"},{"group":"square cycles (cube, non-group)","fractal_assignment":["../images/grn_red.png","../images/org_blu.png","../images/gry_blk.png","../images/cyn_red.png","../images/blu_wht.png","../images/pnk_blu.png","../images/ylw_pnk.png","../images/ylw_slt.png"],"mutagen_generator_assignment":[1,0],"goal":7,"start":0,"action_noise":0.1,"location_history":"[0,4,5,1,2,6,5,1,0,4,7]","action_history":"[1,0,1,0,1,0,1,0,1,0]","mutagen_history":"[0,1,0,1,0,1,0,1,0,1]","location_rts":"[2259,501,120,416,381,133,5,369,221,298]","trial_type":"fractal-mutation","trial_index":77,"time_elapsed":2503934,"internal_node_id":"0.0-5.0-23.0"},{"group":"square cycles (cube, non-group)","fractal_assignment":["../images/grn_red.png","../images/org_blu.png","../images/gry_blk.png","../images/cyn_red.png","../images/blu_wht.png","../images/pnk_blu.png","../images/ylw_pnk.png","../images/ylw_slt.png"],"mutagen_generator_assignment":[1,0],"goal":5,"start":7,"action_noise":0.1,"location_history":"[7,3,0,4,7,3,0,4,7,3,0,4,7,3,2,6,5]","action_history":"[1,0,1,0,1,0,1,0,1,0,0,0,1,1,1,0]","mutagen_history":"[0,1,0,1,0,1,0,1,0,1,1,1,0,0,0,1]","location_rts":"[1604,639,480,360,448,219,383,207,431,318,350,428,209,479,818,452]","trial_type":"fractal-mutation","trial_index":78,"time_elapsed":2532491,"internal_node_id":"0.0-5.0-24.0"},{"group":"square cycles (cube, non-group)","fractal_assignment":["../images/grn_red.png","../images/org_blu.png","../images/gry_blk.png","../images/cyn_red.png","../images/blu_wht.png","../images/pnk_blu.png","../images/ylw_pnk.png","../images/ylw_slt.png"],"mutagen_generator_assignment":[1,0],"goal":0,"start":5,"action_noise":0.1,"location_history":"[5,4,7,3,0]","action_history":"[1,0,1,0]","mutagen_history":"[0,1,0,1]","location_rts":"[654,180,445,373]","trial_type":"fractal-mutation","trial_index":79,"time_elapsed":2541982,"internal_node_id":"0.0-5.0-25.0"},{"group":"square cycles (cube, non-group)","fractal_assignment":["../images/grn_red.png","../images/org_blu.png","../images/gry_blk.png","../images/cyn_red.png","../images/blu_wht.png","../images/pnk_blu.png","../images/ylw_pnk.png","../images/ylw_slt.png"],"mutagen_generator_assignment":[1,0],"goal":6,"start":0,"action_noise":0.1,"location_history":"[0,1,0,1,0,1,0,1,0,1,0,1,0,4,7,3,2,3,2,6]","action_history":"[0,1,0,1,0,1,0,1,0,1,0,1,1,0,1,0,0,1,1]","mutagen_history":"[1,0,1,0,1,0,1,0,1,0,1,0,0,1,0,1,1,0,0]","location_rts":"[1809,544,355,776,431,481,89,564,1230,990,639,602,426,388,510,624,676,67,528]","trial_type":"fractal-mutation","trial_index":80,"time_elapsed":2577710,"internal_node_id":"0.0-5.0-26.0"},{"group":"square cycles (cube, non-group)","fractal_assignment":["../images/grn_red.png","../images/org_blu.png","../images/gry_blk.png","../images/cyn_red.png","../images/blu_wht.png","../images/pnk_blu.png","../images/ylw_pnk.png","../images/ylw_slt.png"],"mutagen_generator_assignment":[1,0],"goal":4,"start":6,"action_noise":0.1,"location_history":"[6,7,6,7,6,7,3,2,6,7,6,7,6,7,6,5,4]","action_history":"[1,0,1,0,1,0,1,0,1,0,1,0,1,0,1,0]","mutagen_history":"[0,1,0,1,0,1,0,1,0,1,0,1,0,1,0,1]","location_rts":"[3057,703,561,439,558,473,767,499,891,436,485,309,685,617,820,658]","trial_type":"fractal-mutation","trial_index":81,"time_elapsed":2610407,"internal_node_id":"0.0-5.0-27.0"},{"group":"square cycles (cube, non-group)","fractal_assignment":["../images/grn_red.png","../images/org_blu.png","../images/gry_blk.png","../images/cyn_red.png","../images/blu_wht.png","../images/pnk_blu.png","../images/ylw_pnk.png","../images/ylw_slt.png"],"mutagen_generator_assignment":[1,0],"goal":2,"start":4,"action_noise":0.1,"location_history":"[4,5,4,7,3,2]","action_history":"[1,0,0,1,1]","mutagen_history":"[0,1,1,0,0]","location_rts":"[805,517,603,461,667]","trial_type":"fractal-mutation","trial_index":82,"time_elapsed":2622336,"internal_node_id":"0.0-5.0-28.0"},{"group":"square cycles (cube, non-group)","fractal_assignment":["../images/grn_red.png","../images/org_blu.png","../images/gry_blk.png","../images/cyn_red.png","../images/blu_wht.png","../images/pnk_blu.png","../images/ylw_pnk.png","../images/ylw_slt.png"],"mutagen_generator_assignment":[1,0],"goal":3,"start":2,"action_noise":0.1,"location_history":"[2,6,7,6,7,3]","action_history":"[0,1,0,1,0]","mutagen_history":"[1,0,1,0,1]","location_rts":"[857,502,482,429,502]","trial_type":"fractal-mutation","trial_index":83,"time_elapsed":2633994,"internal_node_id":"0.0-5.0-29.0"},{"group":"square cycles (cube, non-group)","fractal_assignment":["../images/grn_red.png","../images/org_blu.png","../images/gry_blk.png","../images/cyn_red.png","../images/blu_wht.png","../images/pnk_blu.png","../images/ylw_pnk.png","../images/ylw_slt.png"],"mutagen_generator_assignment":[1,0],"goal":1,"start":3,"action_noise":0.1,"location_history":"[3,2,3,2,3,0,4,5,4,5,4,5,4,5,4,7,6,7,3,0,1]","action_history":"[1,0,1,0,0,1,1,0,1,0,1,0,1,0,0,0,1,1,0,0]","mutagen_history":"[0,1,0,1,1,0,0,1,0,1,0,1,0,1,1,1,0,0,1,1]","location_rts":"[650,638,483,518,487,482,446,512,767,664,633,514,528,505,580,580,1028,482,447,470]","trial_type":"fractal-mutation","trial_index":84,"time_elapsed":2670472,"internal_node_id":"0.0-5.0-30.0"},{"group":"square cycles (cube, non-group)","fractal_assignment":["../images/grn_red.png","../images/org_blu.png","../images/gry_blk.png","../images/cyn_red.png","../images/blu_wht.png","../images/pnk_blu.png","../images/ylw_pnk.png","../images/ylw_slt.png"],"mutagen_generator_assignment":[1,0],"goal":4,"start":1,"action_noise":0.1,"location_history":"[1,0,1,0,1,2,3,2,3,2,3,2,3,0,1,0,1,0,1,2,3,2,6,5,4]","action_history":"[1,0,1,0,1,0,1,0,1,0,1,0,1,0,1,0,1,0,0,0,1,1,0,0]","mutagen_history":"[0,1,0,1,0,1,0,1,0,1,0,1,0,1,0,1,0,1,1,1,0,0,1,1]","location_rts":"[1308,459,834,577,464,603,632,605,699,656,882,510,602,672,764,808,689,837,476,470,618,685,2211,564]","trial_type":"fractal-mutation","trial_index":85,"time_elapsed":2717461,"internal_node_id":"0.0-5.0-31.0"},{"group":"square cycles (cube, non-group)","fractal_assignment":["../images/grn_red.png","../images/org_blu.png","../images/gry_blk.png","../images/cyn_red.png","../images/blu_wht.png","../images/pnk_blu.png","../images/ylw_pnk.png","../images/ylw_slt.png"],"mutagen_generator_assignment":[1,0],"goal":3,"start":4,"action_noise":0.1,"location_history":"[4,7,3]","action_history":"[0,1]","mutagen_history":"[1,0]","location_rts":"[1401,639]","trial_type":"fractal-mutation","trial_index":86,"time_elapsed":2725165,"internal_node_id":"0.0-5.0-32.0"},{"group":"square cycles (cube, non-group)","fractal_assignment":["../images/grn_red.png","../images/org_blu.png","../images/gry_blk.png","../images/cyn_red.png","../images/blu_wht.png","../images/pnk_blu.png","../images/ylw_pnk.png","../images/ylw_slt.png"],"mutagen_generator_assignment":[1,0],"goal":6,"start":3,"action_noise":0.1,"location_history":"[3,2,3,0,1,0,4,7,6]","action_history":"[1,0,0,0,1,1,0,0]","mutagen_history":"[0,1,1,1,0,0,1,1]","location_rts":"[4587,607,486,477,748,704,500,653]","trial_type":"fractal-mutation","trial_index":87,"time_elapsed":2746054,"internal_node_id":"0.0-5.0-33.0"},{"group":"square cycles (cube, non-group)","fractal_assignment":["../images/grn_red.png","../images/org_blu.png","../images/gry_blk.png","../images/cyn_red.png","../images/blu_wht.png","../images/pnk_blu.png","../images/ylw_pnk.png","../images/ylw_slt.png"],"mutagen_generator_assignment":[1,0],"goal":0,"start":6,"action_noise":0.1,"location_history":"[6,5,1,2,6,5,1,2,6,5,1,0]","action_history":"[1,1,0,1,0,1,0,1,0,0,1]","mutagen_history":"[0,0,1,0,1,0,1,0,1,1,0]","location_rts":"[674,16507,84,522,776,481,480,524,523,579,454]","trial_type":"fractal-mutation","trial_index":88,"time_elapsed":2783019,"internal_node_id":"0.0-5.0-34.0"},{"group":"square cycles (cube, non-group)","fractal_assignment":["../images/grn_red.png","../images/org_blu.png","../images/gry_blk.png","../images/cyn_red.png","../images/blu_wht.png","../images/pnk_blu.png","../images/ylw_pnk.png","../images/ylw_slt.png"],"mutagen_generator_assignment":[1,0],"goal":1,"start":0,"action_noise":0.1,"location_history":"[0,1]","action_history":"[0]","mutagen_history":"[1]","location_rts":"[1004]","trial_type":"fractal-mutation","trial_index":89,"time_elapsed":2788614,"internal_node_id":"0.0-5.0-35.0"},{"group":"square cycles (cube, non-group)","fractal_assignment":["../images/grn_red.png","../images/org_blu.png","../images/gry_blk.png","../images/cyn_red.png","../images/blu_wht.png","../images/pnk_blu.png","../images/ylw_pnk.png","../images/ylw_slt.png"],"mutagen_generator_assignment":[1,0],"goal":5,"start":1,"action_noise":0.1,"location_history":"[1,0,1,0,1,0,1,0,1,0,1,0,1,2,3,2,3,2,3,2,3,2,3,2,3,2,6,5]","action_history":"[1,0,1,0,1,0,1,0,1,0,1,0,1,0,1,0,1,0,1,0,1,0,1,0,1,1,0]","mutagen_history":"[0,1,0,1,0,1,0,1,0,1,0,1,0,1,0,1,0,1,0,1,0,1,0,1,0,0,1]","location_rts":"[740,679,518,668,543,640,462,551,472,542,684,605,645,529,829,652,574,684,651,1013,1010,806,628,813,671,780,953]","trial_type":"fractal-mutation","trial_index":90,"time_elapsed":2839570,"internal_node_id":"0.0-5.0-36.0"},{"group":"square cycles (cube, non-group)","fractal_assignment":["../images/grn_red.png","../images/org_blu.png","../images/gry_blk.png","../images/cyn_red.png","../images/blu_wht.png","../images/pnk_blu.png","../images/ylw_pnk.png","../images/ylw_slt.png"],"mutagen_generator_assignment":[1,0],"goal":7,"start":5,"action_noise":0.1,"location_history":"[5,1,2,6,5,1,2,6,5,1,2,6,7]","action_history":"[1,0,1,0,1,0,1,0,1,0,1,0]","mutagen_history":"[0,1,0,1,0,1,0,1,0,1,0,1]","location_rts":"[2381,693,659,641,521,603,568,571,560,587,694,528]","trial_type":"fractal-mutation","trial_index":91,"time_elapsed":2864992,"internal_node_id":"0.0-5.0-37.0"},{"group":"square cycles (cube, non-group)","fractal_assignment":["../images/grn_red.png","../images/org_blu.png","../images/gry_blk.png","../images/cyn_red.png","../images/blu_wht.png","../images/pnk_blu.png","../images/ylw_pnk.png","../images/ylw_slt.png"],"mutagen_generator_assignment":[1,0],"goal":2,"start":7,"action_noise":0.1,"location_history":"[7,6,7,6,7,6,7,6,5,4,5,4,5,4,5,4,5,1,0,4,5,4,7,6,7,6,5,4,7,6,5,4,7,6,7,6,5,4,7,6,5,4,5,4,5,4,5,4,5,4,5,4,5,4,5,4,5,1,2]","action_history":"[0,1,0,1,0,1,0,0,1,1,0,1,0,1,0,1,1,1,1,1,1,0,0,1,0,0,1,0,0,0,0,0,0,1,1,0,0,0,0,0,0,1,0,1,0,1,0,1,0,1,0,1,0,1,0,1,1,0]","mutagen_history":"[1,0,1,0,1,0,1,1,0,0,1,0,1,0,1,0,0,0,0,0,0,1,1,0,1,1,0,1,1,1,1,1,1,0,0,1,1,1,1,1,1,0,1,0,1,0,1,0,1,0,1,0,1,0,1,0,0,1]","location_rts":"[1248,538,535,569,524,553,651,548,820,1259,730,617,454,470,502,614,589,549,518,603,589,449,443,668,585,851,1019,654,517,629,606,639,573,507,609,482,671,538,543,362,478,432,537,941,536,582,420,763,195,764,471,525,532,546,468,470,619,494]","trial_type":"fractal-mutation","trial_index":92,"time_elapsed":2965582,"internal_node_id":"0.0-5.0-38.0"},{"group":"square cycles (cube, non-group)","fractal_assignment":["../images/grn_red.png","../images/org_blu.png","../images/gry_blk.png","../images/cyn_red.png","../images/blu_wht.png","../images/pnk_blu.png","../images/ylw_pnk.png","../images/ylw_slt.png"],"mutagen_generator_assignment":[1,0],"goal":1,"start":2,"action_noise":0.1,"location_history":"[2,3,0,1]","action_history":"[0,0,0]","mutagen_history":"[1,1,1]","location_rts":"[995,2292,478]","trial_type":"fractal-mutation","trial_index":93,"time_elapsed":2976105,"internal_node_id":"0.0-5.0-39.0"},{"group":"square cycles (cube, non-group)","fractal_assignment":["../images/grn_red.png","../images/org_blu.png","../images/gry_blk.png","../images/cyn_red.png","../images/blu_wht.png","../images/pnk_blu.png","../images/ylw_pnk.png","../images/ylw_slt.png"],"mutagen_generator_assignment":[1,0],"goal":3,"start":1,"action_noise":0.1,"location_history":"[1,2,6,7,6,5,1,0,1,0,4,5,1,2,3]","action_history":"[1,0,1,0,0,1,1,0,1,1,0,1,0,0]","mutagen_history":"[0,1,0,1,1,0,0,1,0,0,1,0,1,1]","location_rts":"[935,889,480,748,821,448,609,791,566,649,596,618,533,594]","trial_type":"fractal-mutation","trial_index":94,"time_elapsed":3003972,"internal_node_id":"0.0-5.0-40.0"},{"group":"square cycles (cube, non-group)","fractal_assignment":["../images/grn_red.png","../images/org_blu.png","../images/gry_blk.png","../images/cyn_red.png","../images/blu_wht.png","../images/pnk_blu.png","../images/ylw_pnk.png","../images/ylw_slt.png"],"mutagen_generator_assignment":[1,0],"goal":4,"start":3,"action_noise":0.1,"location_history":"[3,0,4]","action_history":"[1,1]","mutagen_history":"[0,0]","location_rts":"[822,657]","trial_type":"fractal-mutation","trial_index":95,"time_elapsed":3011114,"internal_node_id":"0.0-5.0-41.0"},{"group":"square cycles (cube, non-group)","fractal_assignment":["../images/grn_red.png","../images/org_blu.png","../images/gry_blk.png","../images/cyn_red.png","../images/blu_wht.png","../images/pnk_blu.png","../images/ylw_pnk.png","../images/ylw_slt.png"],"mutagen_generator_assignment":[1,0],"goal":2,"start":4,"action_noise":0.1,"location_history":"[4,7,6,5,1,2]","action_history":"[0,0,0,1,0]","mutagen_history":"[1,1,1,0,1]","location_rts":"[812,764,1721,631,1327]","trial_type":"fractal-mutation","trial_index":96,"time_elapsed":3025264,"internal_node_id":"0.0-5.0-42.0"},{"group":"square cycles (cube, non-group)","fractal_assignment":["../images/grn_red.png","../images/org_blu.png","../images/gry_blk.png","../images/cyn_red.png","../images/blu_wht.png","../images/pnk_blu.png","../images/ylw_pnk.png","../images/ylw_slt.png"],"mutagen_generator_assignment":[1,0],"goal":5,"start":2,"action_noise":0.1,"location_history":"[2,6,5]","action_history":"[1,0]","mutagen_history":"[0,1]","location_rts":"[613,535]","trial_type":"fractal-mutation","trial_index":97,"time_elapsed":3032079,"internal_node_id":"0.0-5.0-43.0"},{"group":"square cycles (cube, non-group)","fractal_assignment":["../images/grn_red.png","../images/org_blu.png","../images/gry_blk.png","../images/cyn_red.png","../images/blu_wht.png","../images/pnk_blu.png","../images/ylw_pnk.png","../images/ylw_slt.png"],"mutagen_generator_assignment":[1,0],"goal":0,"start":5,"action_noise":0.1,"location_history":"[5,4,5,1,2,6,7,6,5,1,2,6,5,1,2,6,7,3,0]","action_history":"[0,1,1,0,0,1,0,0,1,0,1,0,1,0,1,0,1,0]","mutagen_history":"[1,0,0,1,1,0,1,1,0,1,0,1,0,1,0,1,0,1]","location_rts":"[1208,601,576,428,517,969,558,585,913,563,782,718,669,693,1275,706,904,535]","trial_type":"fractal-mutation","trial_index":98,"time_elapsed":3068210,"internal_node_id":"0.0-5.0-44.0"},{"group":"square cycles (cube, non-group)","fractal_assignment":["../images/grn_red.png","../images/org_blu.png","../images/gry_blk.png","../images/cyn_red.png","../images/blu_wht.png","../images/pnk_blu.png","../images/ylw_pnk.png","../images/ylw_slt.png"],"mutagen_generator_assignment":[1,0],"goal":7,"start":0,"action_noise":0.1,"location_history":"[0,1,0,4,7]","action_history":"[0,1,1,0]","mutagen_history":"[1,0,0,1]","location_rts":"[1530,914,476,451]","trial_type":"fractal-mutation","trial_index":99,"time_elapsed":3079385,"internal_node_id":"0.0-5.0-45.0"},{"group":"square cycles (cube, non-group)","fractal_assignment":["../images/grn_red.png","../images/org_blu.png","../images/gry_blk.png","../images/cyn_red.png","../images/blu_wht.png","../images/pnk_blu.png","../images/ylw_pnk.png","../images/ylw_slt.png"],"mutagen_generator_assignment":[1,0],"goal":6,"start":7,"action_noise":0.1,"location_history":"[7,6]","action_history":"[0]","mutagen_history":"[1]","location_rts":"[1018]","trial_type":"fractal-mutation","trial_index":100,"time_elapsed":3085002,"internal_node_id":"0.0-5.0-46.0"},{"group":"square cycles (cube, non-group)","fractal_assignment":["../images/grn_red.png","../images/org_blu.png","../images/gry_blk.png","../images/cyn_red.png","../images/blu_wht.png","../images/pnk_blu.png","../images/ylw_pnk.png","../images/ylw_slt.png"],"mutagen_generator_assignment":[1,0],"goal":2,"start":6,"action_noise":0.1,"location_history":"[6,7,6,5,4,7,6,5,4,5,1,0,4,7,6,7,6,5,4,7,6,5,1,2]","action_history":"[1,0,0,0,0,0,0,0,1,1,1,1,0,0,1,0,0,0,0,0,0,1,1]","mutagen_history":"[0,1,1,1,1,1,1,1,0,0,0,0,1,1,0,1,1,1,1,1,1,0,0]","location_rts":"[521,604,464,483,557,291,519,414,394,552,700,472,563,460,555,482,518,447,507,453,668,539,758]","trial_type":"fractal-mutation","trial_index":101,"time_elapsed":3125202,"internal_node_id":"0.0-5.0-47.0"},{"group":"square cycles (cube, non-group)","fractal_assignment":["../images/grn_red.png","../images/org_blu.png","../images/gry_blk.png","../images/cyn_red.png","../images/blu_wht.png","../images/pnk_blu.png","../images/ylw_pnk.png","../images/ylw_slt.png"],"mutagen_generator_assignment":[1,0],"goal":5,"start":2,"action_noise":0.1,"location_history":"[2,3,0,1,2,3,2,3,2,6,5]","action_history":"[1,0,1,0,0,1,0,1,1,0]","mutagen_history":"[0,1,0,1,1,0,1,0,0,1]","location_rts":"[3917,585,547,376,495,458,521,677,650,433]","trial_type":"fractal-mutation","trial_index":102,"time_elapsed":3148133,"internal_node_id":"0.0-5.0-48.0"},{"group":"square cycles (cube, non-group)","fractal_assignment":["../images/grn_red.png","../images/org_blu.png","../images/gry_blk.png","../images/cyn_red.png","../images/blu_wht.png","../images/pnk_blu.png","../images/ylw_pnk.png","../images/ylw_slt.png"],"mutagen_generator_assignment":[1,0],"goal":3,"start":5,"action_noise":0.1,"location_history":"[5,4,5,4,5,4,5,4,7,6,7,3]","action_history":"[0,1,0,1,0,1,0,0,0,1,1]","mutagen_history":"[1,0,1,0,1,0,1,1,1,0,0]","location_rts":"[3539,607,994,587,773,536,683,785,489,450,514]","trial_type":"fractal-mutation","trial_index":103,"time_elapsed":3173450,"internal_node_id":"0.0-5.0-49.0"},{"view_history":"[{\"page_index\":0,\"viewing_time\":3613}]","rt":3613,"trial_type":"instructions","trial_index":104,"time_elapsed":3178066,"internal_node_id":"0.0-6.0"},{"rt":26736,"responses":"{\"Q0\":\"If I hit the door too soon.\"}","trial_type":"survey-text","trial_index":105,"time_elapsed":3205811,"internal_node_id":"0.0-7.0-0.0"},{"rt":19470,"responses":"{\"Q0\":\"If I hit the a or g key too soon.\"}","trial_type":"survey-text","trial_index":106,"time_elapsed":3226283,"internal_node_id":"0.0-7.0-1.0"},{"rt":46781,"responses":"{\"Q0\":\"<img src='../images/diagrams/tri_cycles.png'>\"}","trial_type":"survey-multi-choice","trial_index":107,"time_elapsed":3274075,"internal_node_id":"0.0-7.0-2.0"},{"rt":60048,"assignments":["../images/ylw_slt.png","../images/ylw_pnk.png","../images/pnk_blu.png","../images/gry_blk.png","../images/org_blu.png","../images/blu_wht.png","../images/grn_red.png","../images/cyn_red.png"],"trial_type":"drag-drop-on-image","trial_index":108,"time_elapsed":3335127,"internal_node_id":"0.0-7.0-3.0"},{"rt":7424,"responses":"{\"Q0\":\"2\"}","trial_type":"survey-likert","trial_index":109,"time_elapsed":3343555,"internal_node_id":"0.0-7.0-4.0"},{"rt":21866,"responses":"{\"Q0\":\"It seemed to have been random.\"}","trial_type":"survey-text","trial_index":110,"time_elapsed":3366425,"internal_node_id":"0.0-7.0-5.0"},{"rt":9658,"responses":"{\"Q0\":\"Yes\"}","trial_type":"survey-multi-choice","trial_index":111,"time_elapsed":3377090,"internal_node_id":"0.0-7.0-6.0"},{"rt":12318,"responses":"{\"Q0\":\"Between sessions 2 and 3\"}","trial_type":"survey-multi-choice","trial_index":112,"time_elapsed":3390413,"internal_node_id":"0.0-7.0-7.0"},{"rt":6001,"responses":"{\"Q0\":\"\"}","trial_type":"survey-text","trial_index":113,"time_elapsed":3397419,"internal_node_id":"0.0-7.0-8.0"},{"rt":9863,"responses":"{\"Q0\":\"2\"}","trial_type":"survey-likert","trial_index":114,"time_elapsed":3408287,"internal_node_id":"0.0-7.0-9.0"},{"rt":9236,"responses":"{\"Q0\":\"Same structure\"}","trial_type":"survey-multi-choice","trial_index":115,"time_elapsed":3418525,"internal_node_id":"0.0-7.0-10.0"},{"rt":57641,"responses":"{\"Q0\":\"left (white) door = ray, (black) door = acid\",\"Q1\":\"Slightly confident\"}","trial_type":"survey-multi-choice","trial_index":116,"time_elapsed":3477173,"internal_node_id":"0.0-7.0-11.0"},{"rt":10641,"responses":"{\"Q0\":\"55-65\",\"Q1\":\"Bachelor's degree\",\"Q2\":\"Male\",\"Q3\":\"White\"}","trial_type":"survey-multi-choice","trial_index":117,"time_elapsed":3488826,"internal_node_id":"0.0-8.0"},{"rt":15635,"responses":"{\"Q0\":\"None.  Thank you.\"}","trial_type":"survey-text","trial_index":118,"time_elapsed":3505464,"internal_node_id":"0.0-9.0"}]