[{"view_history":"[{\"page_index\":0,\"viewing_time\":18386},{\"page_index\":1,\"viewing_time\":4807}]","rt":23194,"trial_type":"instructions","trial_index":0,"time_elapsed":23194,"internal_node_id":"0.0-0.0"},{"view_history":"[{\"page_index\":0,\"viewing_time\":5098},{\"page_index\":1,\"viewing_time\":4551}]","rt":9650,"trial_type":"instructions","trial_index":1,"time_elapsed":33845,"internal_node_id":"0.0-1.0"},{"group":"tri cycles (cube, non-group)","room_assignment":["blue","green","brown","grey","purple","red","pink","yellow"],"door_color_assignment":["black","white"],"door_generator_assignment":[0,1],"goal":5,"start":7,"action_noise":0.1,"location_history":"[7,3,4,7,3,4,7,6,5]","action_history":"[1,1,0,1,1,1,0,1]","door_history":"[1,1,0,1,1,1,0,1]","location_rts":"[4335,805,963,220,27,291,30,42]","trial_type":"two-door-navigation","trial_index":2,"time_elapsed":52241,"internal_node_id":"0.0-2.0-0.0"},{"group":"tri cycles (cube, non-group)","room_assignment":["blue","green","brown","grey","purple","red","pink","yellow"],"door_color_assignment":["black","white"],"door_generator_assignment":[0,1],"goal":2,"start":5,"action_noise":0.1,"location_history":"[5,2]","action_history":"[1]","door_history":"[1]","location_rts":"[3098]","trial_type":"two-door-navigation","trial_index":3,"time_elapsed":59865,"internal_node_id":"0.0-2.0-1.0"},{"group":"tri cycles (cube, non-group)","room_assignment":["blue","green","brown","grey","purple","red","pink","yellow"],"door_color_assignment":["black","white"],"door_generator_assignment":[0,1],"goal":0,"start":2,"action_noise":0.1,"location_history":"[2,6,4,0]","action_history":"[1,0,1]","door_history":"[1,0,1]","location_rts":"[3123,51,313]","trial_type":"two-door-navigation","trial_index":4,"time_elapsed":69921,"internal_node_id":"0.0-2.0-2.0"},{"group":"tri cycles (cube, non-group)","room_assignment":["blue","green","brown","grey","purple","red","pink","yellow"],"door_color_assignment":["black","white"],"door_generator_assignment":[0,1],"goal":1,"start":0,"action_noise":0.1,"location_history":"[0,3,7,6,4,0,3,7,6,4,0,3,7,6,4,7,6,5,2,1]","action_history":"[1,0,0,0,1,0,0,0,0,0,1,0,0,0,0,0,0,1,0]","door_history":"[1,0,0,0,1,0,0,0,0,0,1,0,0,0,0,0,0,1,0]","location_rts":"[1253,80,14,489,692,953,319,416,1462,734,356,711,364,1313,342,621,43544,856,614]","trial_type":"two-door-navigation","trial_index":5,"time_elapsed":147924,"internal_node_id":"0.0-2.0-3.0"},{"group":"tri cycles (cube, non-group)","room_assignment":["blue","green","brown","grey","purple","red","pink","yellow"],"door_color_assignment":["black","white"],"door_generator_assignment":[0,1],"goal":6,"start":1,"action_noise":0.1,"location_history":"[1,5,1,5,2,1,0,3,7,6]","action_history":"[1,0,1,1,0,0,1,0,0]","door_history":"[1,0,1,1,0,0,1,0,0]","location_rts":"[1095,184,1057,440,749,386,1156,161,248]","trial_type":"two-door-navigation","trial_index":6,"time_elapsed":166097,"internal_node_id":"0.0-2.0-4.0"},{"group":"tri cycles (cube, non-group)","room_assignment":["blue","green","brown","grey","purple","red","pink","yellow"],"door_color_assignment":["black","white"],"door_generator_assignment":[0,1],"goal":3,"start":6,"action_noise":0.1,"location_history":"[6,4,0,3]","action_history":"[1,0,1]","door_history":"[1,0,1]","location_rts":"[19760,241,847]","trial_type":"two-door-navigation","trial_index":7,"time_elapsed":193508,"internal_node_id":"0.0-2.0-5.0"},{"group":"tri cycles (cube, non-group)","room_assignment":["blue","green","brown","grey","purple","red","pink","yellow"],"door_color_assignment":["black","white"],"door_generator_assignment":[0,1],"goal":4,"start":3,"action_noise":0.1,"location_history":"[3,4]","action_history":"[1]","door_history":"[1]","location_rts":"[1116]","trial_type":"two-door-navigation","trial_index":8,"time_elapsed":199150,"internal_node_id":"0.0-2.0-6.0"},{"group":"tri cycles (cube, non-group)","room_assignment":["blue","green","brown","grey","purple","red","pink","yellow"],"door_color_assignment":["black","white"],"door_generator_assignment":[0,1],"goal":1,"start":4,"action_noise":0.1,"location_history":"[4,0,2,1]","action_history":"[1,0,0]","door_history":"[1,0,0]","location_rts":"[922,661,762]","trial_type":"two-door-navigation","trial_index":9,"time_elapsed":208059,"internal_node_id":"0.0-2.0-7.0"},{"group":"tri cycles (cube, non-group)","room_assignment":["blue","green","brown","grey","purple","red","pink","yellow"],"door_color_assignment":["black","white"],"door_generator_assignment":[0,1],"goal":4,"start":1,"action_noise":0.1,"location_history":"[1,0,3,7,3,4]","action_history":"[1,0,0,0,1]","door_history":"[1,0,0,0,1]","location_rts":"[1585,77,132,396,864]","trial_type":"two-door-navigation","trial_index":10,"time_elapsed":219714,"internal_node_id":"0.0-2.0-8.0"},{"group":"tri cycles (cube, non-group)","room_assignment":["blue","green","brown","grey","purple","red","pink","yellow"],"door_color_assignment":["black","white"],"door_generator_assignment":[0,1],"goal":5,"start":4,"action_noise":0.1,"location_history":"[4,7,6,5]","action_history":"[0,0,1]","door_history":"[0,0,1]","location_rts":"[3459,2148,808]","trial_type":"two-door-navigation","trial_index":11,"time_elapsed":232697,"internal_node_id":"0.0-2.0-9.0"},{"group":"tri cycles (cube, non-group)","room_assignment":["blue","green","brown","grey","purple","red","pink","yellow"],"door_color_assignment":["black","white"],"door_generator_assignment":[0,1],"goal":3,"start":5,"action_noise":0.1,"location_history":"[5,2,1,5,1,5,2,6,4,7,6,4,7,3]","action_history":"[0,0,1,0,1,1,1,0,0,0,0,0,1]","door_history":"[0,0,1,0,1,1,1,0,0,0,0,0,1]","location_rts":"[3503,825,2381,468,1623,1649,837,563,724,312,6552,2979,317]","trial_type":"two-door-navigation","trial_index":12,"time_elapsed":272170,"internal_node_id":"0.0-2.0-10.0"},{"group":"tri cycles (cube, non-group)","room_assignment":["blue","green","brown","grey","purple","red","pink","yellow"],"door_color_assignment":["black","white"],"door_generator_assignment":[0,1],"goal":6,"start":3,"action_noise":0.1,"location_history":"[3,4,7,6]","action_history":"[1,0,0]","door_history":"[1,0,0]","location_rts":"[8415,976,404]","trial_type":"two-door-navigation","trial_index":13,"time_elapsed":288529,"internal_node_id":"0.0-2.0-11.0"},{"group":"tri cycles (cube, non-group)","room_assignment":["blue","green","brown","grey","purple","red","pink","yellow"],"door_color_assignment":["black","white"],"door_generator_assignment":[0,1],"goal":7,"start":6,"action_noise":0.1,"location_history":"[6,4,7]","action_history":"[0,0]","door_history":"[0,0]","location_rts":"[4224,381]","trial_type":"two-door-navigation","trial_index":14,"time_elapsed":298675,"internal_node_id":"0.0-2.0-12.0"},{"group":"tri cycles (cube, non-group)","room_assignment":["blue","green","brown","grey","purple","red","pink","yellow"],"door_color_assignment":["black","white"],"door_generator_assignment":[0,1],"goal":0,"start":7,"action_noise":0.1,"location_history":"[7,3,7,3,7,6,5,2,1,0]","action_history":"[1,0,1,0,0,1,0,0,0]","door_history":"[1,0,1,0,0,1,0,0,0]","location_rts":"[2109,40797,2315,1026,338,2834,85,152,169]","trial_type":"two-door-navigation","trial_index":15,"time_elapsed":361187,"internal_node_id":"0.0-2.0-13.0"},{"group":"tri cycles (cube, non-group)","room_assignment":["blue","green","brown","grey","purple","red","pink","yellow"],"door_color_assignment":["black","white"],"door_generator_assignment":[0,1],"goal":2,"start":0,"action_noise":0.1,"location_history":"[0,2]","action_history":"[0]","door_history":"[0]","location_rts":"[1513]","trial_type":"two-door-navigation","trial_index":16,"time_elapsed":367229,"internal_node_id":"0.0-2.0-14.0"},{"group":"tri cycles (cube, non-group)","room_assignment":["blue","green","brown","grey","purple","red","pink","yellow"],"door_color_assignment":["black","white"],"door_generator_assignment":[0,1],"goal":1,"start":2,"action_noise":0.1,"location_history":"[2,1]","action_history":"[0]","door_history":"[0]","location_rts":"[2164]","trial_type":"two-door-navigation","trial_index":17,"time_elapsed":373919,"internal_node_id":"0.0-2.0-15.0"},{"group":"tri cycles (cube, non-group)","room_assignment":["blue","green","brown","grey","purple","red","pink","yellow"],"door_color_assignment":["black","white"],"door_generator_assignment":[0,1],"goal":6,"start":1,"action_noise":0.1,"location_history":"[1,5,1,5,2,6]","action_history":"[1,0,1,1,1]","door_history":"[1,0,1,1,1]","location_rts":"[1426,411,898,196,8527]","trial_type":"two-door-navigation","trial_index":18,"time_elapsed":393988,"internal_node_id":"0.0-2.0-16.0"},{"group":"tri cycles (cube, non-group)","room_assignment":["blue","green","brown","grey","purple","red","pink","yellow"],"door_color_assignment":["black","white"],"door_generator_assignment":[0,1],"goal":3,"start":6,"action_noise":0.1,"location_history":"[6,5,1,0,2,6,4,7,6,4,7,3]","action_history":"[1,0,0,0,1,0,0,0,0,0,1]","door_history":"[1,0,0,0,1,0,0,0,0,0,1]","location_rts":"[3491,455,73,372,740,463,572,313,395,989,1084]","trial_type":"two-door-navigation","trial_index":19,"time_elapsed":417665,"internal_node_id":"0.0-2.0-17.0"},{"group":"tri cycles (cube, non-group)","room_assignment":["blue","green","brown","grey","purple","red","pink","yellow"],"door_color_assignment":["black","white"],"door_generator_assignment":[0,1],"goal":4,"start":3,"action_noise":0.1,"location_history":"[3,7,6,4]","action_history":"[0,0,0]","door_history":"[0,0,0]","location_rts":"[1429,825,925]","trial_type":"two-door-navigation","trial_index":20,"time_elapsed":427406,"internal_node_id":"0.0-2.0-18.0"},{"group":"tri cycles (cube, non-group)","room_assignment":["blue","green","brown","grey","purple","red","pink","yellow"],"door_color_assignment":["black","white"],"door_generator_assignment":[0,1],"goal":5,"start":4,"action_noise":0.1,"location_history":"[4,0,2,1,0,2,1,5]","action_history":"[1,0,0,0,0,0,1]","door_history":"[1,0,0,0,0,0,1]","location_rts":"[2860,1821,491,364,428,1073,415]","trial_type":"two-door-navigation","trial_index":21,"time_elapsed":445501,"internal_node_id":"0.0-2.0-19.0"},{"group":"tri cycles (cube, non-group)","room_assignment":["blue","green","brown","grey","purple","red","pink","yellow"],"door_color_assignment":["black","white"],"door_generator_assignment":[0,1],"goal":7,"start":5,"action_noise":0.1,"location_history":"[5,1,5,2,1,5,2,6,4,7]","action_history":"[0,1,1,0,1,1,1,0,0]","door_history":"[0,1,1,0,1,1,1,0,0]","location_rts":"[6470,267,828,294,613,77,28,472,288]","trial_type":"two-door-navigation","trial_index":22,"time_elapsed":467526,"internal_node_id":"0.0-2.0-20.0"},{"group":"tri cycles (cube, non-group)","room_assignment":["blue","green","brown","grey","purple","red","pink","yellow"],"door_color_assignment":["black","white"],"door_generator_assignment":[0,1],"goal":2,"start":7,"action_noise":0.1,"location_history":"[7,3,7,6,4,0,3,7,3,4,7,6,4,7,6,5,1,5,1,5,1,0,2]","action_history":"[1,0,0,0,1,0,0,0,1,0,0,0,0,0,1,0,0,0,1,0,0,0]","door_history":"[1,0,0,0,1,0,0,0,1,0,0,0,0,0,1,0,0,0,1,0,0,0]","location_rts":"[97290,631,332,448,947,547,649,465,1612,166,49,310,391,186,655,257,296,370,928,304,501,896]","trial_type":"two-door-navigation","trial_index":23,"time_elapsed":601648,"internal_node_id":"0.0-2.0-21.0"},{"group":"tri cycles (cube, non-group)","room_assignment":["blue","green","brown","grey","purple","red","pink","yellow"],"door_color_assignment":["black","white"],"door_generator_assignment":[0,1],"goal":0,"start":2,"action_noise":0.1,"location_history":"[2,1,0]","action_history":"[0,0]","door_history":"[0,0]","location_rts":"[1493,615]","trial_type":"two-door-navigation","trial_index":24,"time_elapsed":609294,"internal_node_id":"0.0-2.0-22.0"},{"group":"tri cycles (cube, non-group)","room_assignment":["blue","green","brown","grey","purple","red","pink","yellow"],"door_color_assignment":["black","white"],"door_generator_assignment":[0,1],"goal":7,"start":0,"action_noise":0.1,"location_history":"[0,3,7]","action_history":"[1,0]","door_history":"[1,0]","location_rts":"[1419,167]","trial_type":"two-door-navigation","trial_index":25,"time_elapsed":616415,"internal_node_id":"0.0-2.0-23.0"},{"group":"tri cycles (cube, non-group)","room_assignment":["blue","green","brown","grey","purple","red","pink","yellow"],"door_color_assignment":["black","white"],"door_generator_assignment":[0,1],"goal":5,"start":7,"action_noise":0.1,"location_history":"[7,6,5]","action_history":"[0,1]","door_history":"[0,1]","location_rts":"[2850,710]","trial_type":"two-door-navigation","trial_index":26,"time_elapsed":625512,"internal_node_id":"0.0-2.0-24.0"},{"group":"tri cycles (cube, non-group)","room_assignment":["blue","green","brown","grey","purple","red","pink","yellow"],"door_color_assignment":["black","white"],"door_generator_assignment":[0,1],"goal":0,"start":5,"action_noise":0.1,"location_history":"[5,1,0]","action_history":"[0,0]","door_history":"[0,0]","location_rts":"[6472,349]","trial_type":"two-door-navigation","trial_index":27,"time_elapsed":637870,"internal_node_id":"0.0-2.0-25.0"},{"group":"tri cycles (cube, non-group)","room_assignment":["blue","green","brown","grey","purple","red","pink","yellow"],"door_color_assignment":["black","white"],"door_generator_assignment":[0,1],"goal":6,"start":0,"action_noise":0.1,"location_history":"[0,3,4,7,6]","action_history":"[1,1,0,0]","door_history":"[1,1,0,0]","location_rts":"[1440,615,961,349]","trial_type":"two-door-navigation","trial_index":28,"time_elapsed":648810,"internal_node_id":"0.0-2.0-26.0"},{"group":"tri cycles (cube, non-group)","room_assignment":["blue","green","brown","grey","purple","red","pink","yellow"],"door_color_assignment":["black","white"],"door_generator_assignment":[0,1],"goal":4,"start":6,"action_noise":0.1,"location_history":"[6,4]","action_history":"[0]","door_history":"[0]","location_rts":"[1956]","trial_type":"two-door-navigation","trial_index":29,"time_elapsed":655287,"internal_node_id":"0.0-2.0-27.0"},{"group":"tri cycles (cube, non-group)","room_assignment":["blue","green","brown","grey","purple","red","pink","yellow"],"door_color_assignment":["black","white"],"door_generator_assignment":[0,1],"goal":2,"start":4,"action_noise":0.1,"location_history":"[4,0,3,7,3,4,0,2]","action_history":"[1,1,0,1,1,1,0]","door_history":"[1,1,0,1,1,1,0]","location_rts":"[1191,1082,1676,2306,959,371,141]","trial_type":"two-door-navigation","trial_index":30,"time_elapsed":673640,"internal_node_id":"0.0-2.0-28.0"},{"group":"tri cycles (cube, non-group)","room_assignment":["blue","green","brown","grey","purple","red","pink","yellow"],"door_color_assignment":["black","white"],"door_generator_assignment":[0,1],"goal":3,"start":2,"action_noise":0.1,"location_history":"[2,6,4,0,2,6,4,0,2,1,5,2,1,0,2,1,5,2,1,0,2,1,0,3]","action_history":"[1,0,0,0,1,0,0,0,0,1,0,0,1,0,0,1,1,0,0,0,0,0,1]","door_history":"[1,0,0,0,1,0,0,0,0,1,0,0,1,0,0,1,1,0,0,0,0,0,1]","location_rts":"[7926,553,248,272,1112,93,152,162,90,235,113,149,282,144,200,253,17,19,109,125,6,51,171]","trial_type":"two-door-navigation","trial_index":31,"time_elapsed":713054,"internal_node_id":"0.0-2.0-29.0"},{"group":"tri cycles (cube, non-group)","room_assignment":["blue","green","brown","grey","purple","red","pink","yellow"],"door_color_assignment":["black","white"],"door_generator_assignment":[0,1],"goal":1,"start":3,"action_noise":0.1,"location_history":"[3,7,3,4,7,3,7,6,5,1]","action_history":"[0,0,1,0,1,0,0,1,0]","door_history":"[0,0,1,0,1,0,0,1,0]","location_rts":"[1464,110,1030,135,810,694,304,42,160]","trial_type":"two-door-navigation","trial_index":32,"time_elapsed":730463,"internal_node_id":"0.0-2.0-30.0"},{"group":"tri cycles (cube, non-group)","room_assignment":["blue","green","brown","grey","purple","red","pink","yellow"],"door_color_assignment":["black","white"],"door_generator_assignment":[0,1],"goal":4,"start":1,"action_noise":0.1,"location_history":"[1,5,2,6,4]","action_history":"[1,1,1,0]","door_history":"[1,1,1,0]","location_rts":"[1924,1319,660,14]","trial_type":"two-door-navigation","trial_index":33,"time_elapsed":741951,"internal_node_id":"0.0-2.0-31.0"},{"group":"tri cycles (cube, non-group)","room_assignment":["blue","green","brown","grey","purple","red","pink","yellow"],"door_color_assignment":["black","white"],"door_generator_assignment":[0,1],"goal":3,"start":4,"action_noise":0.1,"location_history":"[4,0,3]","action_history":"[1,1]","door_history":"[1,1]","location_rts":"[1448,19785]","trial_type":"two-door-navigation","trial_index":34,"time_elapsed":768716,"internal_node_id":"0.0-2.0-32.0"},{"group":"tri cycles (cube, non-group)","room_assignment":["blue","green","brown","grey","purple","red","pink","yellow"],"door_color_assignment":["black","white"],"door_generator_assignment":[0,1],"goal":6,"start":3,"action_noise":0.1,"location_history":"[3,7,6]","action_history":"[1,0]","door_history":"[1,0]","location_rts":"[7135,83]","trial_type":"two-door-navigation","trial_index":35,"time_elapsed":781895,"internal_node_id":"0.0-2.0-33.0"},{"group":"tri cycles (cube, non-group)","room_assignment":["blue","green","brown","grey","purple","red","pink","yellow"],"door_color_assignment":["black","white"],"door_generator_assignment":[0,1],"goal":0,"start":6,"action_noise":0.1,"location_history":"[6,5,1,0]","action_history":"[1,0,0]","door_history":"[1,0,0]","location_rts":"[7382,342,380]","trial_type":"two-door-navigation","trial_index":36,"time_elapsed":796552,"internal_node_id":"0.0-2.0-34.0"},{"group":"tri cycles (cube, non-group)","room_assignment":["blue","green","brown","grey","purple","red","pink","yellow"],"door_color_assignment":["black","white"],"door_generator_assignment":[0,1],"goal":1,"start":0,"action_noise":0.1,"location_history":"[0,3,7,6,4,7,3,7,6,5,2,1]","action_history":"[1,0,0,0,0,1,0,0,1,0,0]","door_history":"[1,0,0,0,0,1,0,0,1,0,0]","location_rts":"[1322,135,90,179,1257,554,161,62,993,17,97]","trial_type":"two-door-navigation","trial_index":37,"time_elapsed":816104,"internal_node_id":"0.0-2.0-35.0"},{"group":"tri cycles (cube, non-group)","room_assignment":["blue","green","brown","grey","purple","red","pink","yellow"],"door_color_assignment":["black","white"],"door_generator_assignment":[0,1],"goal":5,"start":1,"action_noise":0.1,"location_history":"[1,0,2,1,0,2,6,4,7,6,5]","action_history":"[0,0,0,0,0,1,0,0,0,1]","door_history":"[0,0,0,0,0,1,0,0,0,1]","location_rts":"[8354,351,460,400,858,719,62,1132,142,638]","trial_type":"two-door-navigation","trial_index":38,"time_elapsed":842892,"internal_node_id":"0.0-2.0-36.0"},{"group":"tri cycles (cube, non-group)","room_assignment":["blue","green","brown","grey","purple","red","pink","yellow"],"door_color_assignment":["black","white"],"door_generator_assignment":[0,1],"goal":7,"start":5,"action_noise":0.1,"location_history":"[5,2,6,5,1,0,2,1,0,2,6,5,2,1,0,2,1,0,3,7]","action_history":"[1,1,0,0,0,0,0,0,0,0,1,1,0,1,0,0,0,1,0]","door_history":"[1,1,0,0,0,0,0,0,0,0,1,1,0,1,0,0,0,1,0]","location_rts":"[1867,1327,1284,626,246,334,351,426,532,1263,633,505,69,744,134,17,375,595,170]","trial_type":"two-door-navigation","trial_index":39,"time_elapsed":877220,"internal_node_id":"0.0-2.0-37.0"},{"group":"tri cycles (cube, non-group)","room_assignment":["blue","green","brown","grey","purple","red","pink","yellow"],"door_color_assignment":["black","white"],"door_generator_assignment":[0,1],"goal":2,"start":7,"action_noise":0.1,"location_history":"[7,3,7,3,4,7,6,5,1,0,3,7,6,4,7,6,4,0,2]","action_history":"[1,0,1,1,0,0,0,0,0,1,0,1,0,0,0,0,1,0]","door_history":"[1,0,1,1,0,0,0,0,0,1,0,1,0,0,0,0,1,0]","location_rts":"[3445,454,586,606,181,81,105,47,110,349,51,149,188,161,77,221,629,618]","trial_type":"two-door-navigation","trial_index":40,"time_elapsed":907099,"internal_node_id":"0.0-2.0-38.0"},{"group":"tri cycles (cube, non-group)","room_assignment":["blue","green","brown","grey","purple","red","pink","yellow"],"door_color_assignment":["black","white"],"door_generator_assignment":[0,1],"goal":1,"start":2,"action_noise":0.1,"location_history":"[2,6,5,1]","action_history":"[1,0,0]","door_history":"[1,0,0]","location_rts":"[2276,93,51]","trial_type":"two-door-navigation","trial_index":41,"time_elapsed":916073,"internal_node_id":"0.0-2.0-39.0"},{"group":"tri cycles (cube, non-group)","room_assignment":["blue","green","brown","grey","purple","red","pink","yellow"],"door_color_assignment":["black","white"],"door_generator_assignment":[0,1],"goal":3,"start":1,"action_noise":0.1,"location_history":"[1,5,1,0,2,1,5,2,6,5,1,5,2,1,5,2,1,5,1,0,2,1,0,3]","action_history":"[1,0,0,0,0,1,0,1,1,0,1,1,0,1,1,0,1,0,0,1,0,0,1]","door_history":"[1,0,0,0,0,1,0,1,1,0,1,1,0,1,1,0,1,0,0,1,0,0,1]","location_rts":"[929,288,60,34,11,86,111,428,125,121,11,140,139,27,119,61,469,150,346,48,173,118,330]","trial_type":"two-door-navigation","trial_index":42,"time_elapsed":947300,"internal_node_id":"0.0-2.0-40.0"},{"group":"tri cycles (cube, non-group)","room_assignment":["blue","green","brown","grey","purple","red","pink","yellow"],"door_color_assignment":["black","white"],"door_generator_assignment":[0,1],"goal":4,"start":3,"action_noise":0.1,"location_history":"[3,7,6,4]","action_history":"[0,0,0]","door_history":"[0,0,0]","location_rts":"[5270,134,91]","trial_type":"two-door-navigation","trial_index":43,"time_elapsed":959348,"internal_node_id":"0.0-2.0-41.0"},{"group":"tri cycles (cube, non-group)","room_assignment":["blue","green","brown","grey","purple","red","pink","yellow"],"door_color_assignment":["black","white"],"door_generator_assignment":[0,1],"goal":2,"start":4,"action_noise":0.1,"location_history":"[4,0,2]","action_history":"[1,0]","door_history":"[1,0]","location_rts":"[23366,245]","trial_type":"two-door-navigation","trial_index":44,"time_elapsed":988497,"internal_node_id":"0.0-2.0-42.0"},{"group":"tri cycles (cube, non-group)","room_assignment":["blue","green","brown","grey","purple","red","pink","yellow"],"door_color_assignment":["black","white"],"door_generator_assignment":[0,1],"goal":5,"start":2,"action_noise":0.1,"location_history":"[2,1,0,2,1,0,2,1,5]","action_history":"[0,0,0,0,1,0,0,1]","door_history":"[0,0,0,0,1,0,0,1]","location_rts":"[1330,338,72,177,383,25,132,41]","trial_type":"two-door-navigation","trial_index":45,"time_elapsed":1002636,"internal_node_id":"0.0-2.0-43.0"},{"group":"tri cycles (cube, non-group)","room_assignment":["blue","green","brown","grey","purple","red","pink","yellow"],"door_color_assignment":["black","white"],"door_generator_assignment":[0,1],"goal":0,"start":5,"action_noise":0.1,"location_history":"[5,2,1,0]","action_history":"[1,0,0]","door_history":"[1,0,0]","location_rts":"[10339,172,154]","trial_type":"two-door-navigation","trial_index":46,"time_elapsed":1019855,"internal_node_id":"0.0-2.0-44.0"},{"group":"tri cycles (cube, non-group)","room_assignment":["blue","green","brown","grey","purple","red","pink","yellow"],"door_color_assignment":["black","white"],"door_generator_assignment":[0,1],"goal":7,"start":0,"action_noise":0.1,"location_history":"[0,2,1,0,2,6,4,7]","action_history":"[1,0,0,0,1,0,0]","door_history":"[1,0,0,0,1,0,0]","location_rts":"[1346,148,529,834,197,52,110]","trial_type":"two-door-navigation","trial_index":47,"time_elapsed":1033691,"internal_node_id":"0.0-2.0-45.0"},{"group":"tri cycles (cube, non-group)","room_assignment":["blue","green","brown","grey","purple","red","pink","yellow"],"door_color_assignment":["black","white"],"door_generator_assignment":[0,1],"goal":6,"start":7,"action_noise":0.1,"location_history":"[7,6]","action_history":"[0]","door_history":"[0]","location_rts":"[1319]","trial_type":"two-door-navigation","trial_index":48,"time_elapsed":1039530,"internal_node_id":"0.0-2.0-46.0"},{"group":"tri cycles (cube, non-group)","room_assignment":["blue","green","brown","grey","purple","red","pink","yellow"],"door_color_assignment":["black","white"],"door_generator_assignment":[0,1],"goal":2,"start":6,"action_noise":0.1,"location_history":"[6,5,1,0,2]","action_history":"[1,0,0,0]","door_history":"[1,0,0,0]","location_rts":"[1215,35,4,17]","trial_type":"two-door-navigation","trial_index":49,"time_elapsed":1048368,"internal_node_id":"0.0-2.0-47.0"},{"group":"tri cycles (cube, non-group)","room_assignment":["blue","green","brown","grey","purple","red","pink","yellow"],"door_color_assignment":["black","white"],"door_generator_assignment":[0,1],"goal":5,"start":2,"action_noise":0.1,"location_history":"[2,6,4,0,3,7,6,5]","action_history":"[1,0,1,0,0,0,1]","door_history":"[1,0,1,0,0,0,1]","location_rts":"[1892,298,508,1000,40,144,618]","trial_type":"two-door-navigation","trial_index":50,"time_elapsed":1063487,"internal_node_id":"0.0-2.0-48.0"},{"group":"tri cycles (cube, non-group)","room_assignment":["blue","green","brown","grey","purple","red","pink","yellow"],"door_color_assignment":["black","white"],"door_generator_assignment":[0,1],"goal":3,"start":5,"action_noise":0.1,"location_history":"[5,2,1,0,3]","action_history":"[1,0,0,0]","door_history":"[1,0,0,0]","location_rts":"[1533,1028,11,89]","trial_type":"two-door-navigation","trial_index":51,"time_elapsed":1073720,"internal_node_id":"0.0-2.0-49.0"},{"view_history":"[{\"page_index\":0,\"viewing_time\":2933}]","rt":2934,"trial_type":"instructions","trial_index":52,"time_elapsed":1077654,"internal_node_id":"0.0-3.0"},{"view_history":"[{\"page_index\":0,\"viewing_time\":1356},{\"page_index\":1,\"viewing_time\":5680}]","rt":7036,"trial_type":"instructions","trial_index":53,"time_elapsed":1085691,"internal_node_id":"0.0-4.0"},{"group":"tri cycles (cube, non-group)","fractal_assignment":["../images/grn_red.png","../images/ylw_slt.png","../images/pnk_blu.png","../images/blu_wht.png","../images/cyn_red.png","../images/ylw_pnk.png","../images/org_blu.png","../images/gry_blk.png"],"mutagen_generator_assignment":[0,1],"goal":5,"start":7,"action_noise":0.1,"location_history":"[7,6,4,7,3,7,3,7,6,5]","action_history":"[0,0,1,1,0,1,0,0,1]","mutagen_history":"[0,0,1,1,0,1,0,0,1]","location_rts":"[4787,151,97,50,197,156,10,96,65]","trial_type":"fractal-mutation","trial_index":54,"time_elapsed":1104111,"internal_node_id":"0.0-5.0-0.0"},{"group":"tri cycles (cube, non-group)","fractal_assignment":["../images/grn_red.png","../images/ylw_slt.png","../images/pnk_blu.png","../images/blu_wht.png","../images/cyn_red.png","../images/ylw_pnk.png","../images/org_blu.png","../images/gry_blk.png"],"mutagen_generator_assignment":[0,1],"goal":2,"start":5,"action_noise":0.1,"location_history":"[5,1,0,3,7,6,5,1,0,3,7,3,7,6,5,1,0,3,4,7,3,4,7,3,4,7,3,4,7,3,4,0,2]","action_history":"[0,0,1,0,0,1,0,0,0,0,1,0,0,1,0,0,1,1,0,1,1,0,1,1,0,1,1,0,1,1,1,0]","mutagen_history":"[0,0,1,0,0,1,0,0,0,0,1,0,0,1,0,0,1,1,0,1,1,0,1,1,0,1,1,0,1,1,1,0]","location_rts":"[149,173,44,213,143,114,92,124,65,62,36,162,96,124,282,191,141,65,18,11,188,16,118,39,5,126,92,34,53,67,101,202]","trial_type":"fractal-mutation","trial_index":55,"time_elapsed":1143982,"internal_node_id":"0.0-5.0-1.0"},{"group":"tri cycles (cube, non-group)","fractal_assignment":["../images/grn_red.png","../images/ylw_slt.png","../images/pnk_blu.png","../images/blu_wht.png","../images/cyn_red.png","../images/ylw_pnk.png","../images/org_blu.png","../images/gry_blk.png"],"mutagen_generator_assignment":[0,1],"goal":0,"start":2,"action_noise":0.1,"location_history":"[2,6,5,1,0]","action_history":"[1,1,0,1]","mutagen_history":"[1,1,0,1]","location_rts":"[151,61,156,149]","trial_type":"fractal-mutation","trial_index":56,"time_elapsed":1152139,"internal_node_id":"0.0-5.0-2.0"},{"group":"tri cycles (cube, non-group)","fractal_assignment":["../images/grn_red.png","../images/ylw_slt.png","../images/pnk_blu.png","../images/blu_wht.png","../images/cyn_red.png","../images/ylw_pnk.png","../images/org_blu.png","../images/gry_blk.png"],"mutagen_generator_assignment":[0,1],"goal":1,"start":0,"action_noise":0.1,"location_history":"[0,3,4,7,3,4,0,3,4,7,3,4,0,3,4,0,2,6,5,1]","action_history":"[1,1,0,1,1,0,1,1,0,1,1,1,0,1,1,0,1,1,0]","mutagen_history":"[1,1,0,1,1,0,1,1,0,1,1,1,0,1,1,0,1,1,0]","location_rts":"[209,74,129,224,126,108,103,153,53,124,188,90,80,9,177,682,207,126,206]","trial_type":"fractal-mutation","trial_index":57,"time_elapsed":1178302,"internal_node_id":"0.0-5.0-3.0"},{"group":"tri cycles (cube, non-group)","fractal_assignment":["../images/grn_red.png","../images/ylw_slt.png","../images/pnk_blu.png","../images/blu_wht.png","../images/cyn_red.png","../images/ylw_pnk.png","../images/org_blu.png","../images/gry_blk.png"],"mutagen_generator_assignment":[0,1],"goal":6,"start":1,"action_noise":0.1,"location_history":"[1,5,2,1,5,2,1,5,2,1,5,2,1,5,2,1,5,2,1,0,3,4,0,3,4,0,2,1,5,1,5,2,1,5,1,5,1,5,1,5,1,5,2,1,5,2,1,5,2,1,0,3,7,3,7,6]","action_history":"[1,1,0,1,1,0,1,1,0,1,1,0,1,1,0,1,1,0,0,1,1,0,1,1,1,0,1,1,0,1,1,0,1,1,1,0,1,1,1,0,1,1,0,1,1,0,1,1,0,0,1,0,1,0,0]","mutagen_history":"[1,1,0,1,1,0,1,1,0,1,1,0,1,1,0,1,1,0,0,1,1,0,1,1,1,0,1,1,0,1,1,0,1,1,1,0,1,1,1,0,1,1,0,1,1,0,1,1,0,0,1,0,1,0,0]","location_rts":"[582,94,212,212,142,76,233,135,5,173,88,225,30,115,167,101,5,196,119,148,104,51,196,96,552,57,175,110,212,203,65,193,177,173,150,169,145,148,85,79,121,132,182,72,33,92,96,26,119,222,59,67,76,28,19]","trial_type":"fractal-mutation","trial_index":58,"time_elapsed":1246138,"internal_node_id":"0.0-5.0-4.0"},{"group":"tri cycles (cube, non-group)","fractal_assignment":["../images/grn_red.png","../images/ylw_slt.png","../images/pnk_blu.png","../images/blu_wht.png","../images/cyn_red.png","../images/ylw_pnk.png","../images/org_blu.png","../images/gry_blk.png"],"mutagen_generator_assignment":[0,1],"goal":3,"start":6,"action_noise":0.1,"location_history":"[6,5,2,6,5,2,6,4,0,2,1,5,2,6,5,1,5,2,1,5,2,1,5,1,5,2,1,5,2,1,5,2,1,0,2,6,4,7,6,5,1,0,2,6,4,7,3]","action_history":"[1,1,1,0,1,1,0,1,0,0,1,1,1,1,0,1,1,0,1,1,0,1,0,1,1,0,1,1,0,1,1,0,0,0,1,1,0,1,0,0,0,0,1,0,0,1]","mutagen_history":"[1,1,1,0,1,1,0,1,0,0,1,1,1,1,0,1,1,0,1,1,0,1,0,1,1,0,1,1,0,1,1,0,0,0,1,1,0,1,0,0,0,0,1,0,0,1]","location_rts":"[1345,466,560,607,146,26,195,166,796,170,41,212,19,561,87,18,107,56,19,130,7,481,456,488,52,39,55,74,140,135,196,104,5901,49,188,209,0,24,125,0,55,163,99,155,86,12]","trial_type":"fractal-mutation","trial_index":59,"time_elapsed":1320248,"internal_node_id":"0.0-5.0-5.0"},{"group":"tri cycles (cube, non-group)","fractal_assignment":["../images/grn_red.png","../images/ylw_slt.png","../images/pnk_blu.png","../images/blu_wht.png","../images/cyn_red.png","../images/ylw_pnk.png","../images/org_blu.png","../images/gry_blk.png"],"mutagen_generator_assignment":[0,1],"goal":4,"start":3,"action_noise":0.1,"location_history":"[3,4]","action_history":"[1]","mutagen_history":"[1]","location_rts":"[235]","trial_type":"fractal-mutation","trial_index":60,"time_elapsed":1325022,"internal_node_id":"0.0-5.0-6.0"},{"group":"tri cycles (cube, non-group)","fractal_assignment":["../images/grn_red.png","../images/ylw_slt.png","../images/pnk_blu.png","../images/blu_wht.png","../images/cyn_red.png","../images/ylw_pnk.png","../images/org_blu.png","../images/gry_blk.png"],"mutagen_generator_assignment":[0,1],"goal":1,"start":4,"action_noise":0.1,"location_history":"[4,0,2,6,5,2,6,4,0,2,6,4,7,3,7,3,4,7,3,7,6,5,2,1]","action_history":"[1,0,1,1,0,1,0,1,0,1,0,0,1,0,1,1,0,1,0,0,1,1,0]","mutagen_history":"[1,0,1,1,0,1,0,1,0,1,0,0,1,0,1,1,0,1,0,0,1,1,0]","location_rts":"[45,33,94,103,98,186,102,9,111,51,11,95,13,154,50,74,162,58,65,31,10,82,215]","trial_type":"fractal-mutation","trial_index":61,"time_elapsed":1354075,"internal_node_id":"0.0-5.0-7.0"},{"group":"tri cycles (cube, non-group)","fractal_assignment":["../images/grn_red.png","../images/ylw_slt.png","../images/pnk_blu.png","../images/blu_wht.png","../images/cyn_red.png","../images/ylw_pnk.png","../images/org_blu.png","../images/gry_blk.png"],"mutagen_generator_assignment":[0,1],"goal":4,"start":1,"action_noise":0.1,"location_history":"[1,5,1,5,2,1,5,2,1,5,2,1,0,3,4]","action_history":"[1,0,1,1,0,1,1,0,1,1,0,0,1,1]","mutagen_history":"[1,0,1,1,0,1,1,0,1,1,0,0,1,1]","location_rts":"[33,69,69,191,18,67,74,201,150,154,149,288,188,88]","trial_type":"fractal-mutation","trial_index":62,"time_elapsed":1373764,"internal_node_id":"0.0-5.0-8.0"},{"group":"tri cycles (cube, non-group)","fractal_assignment":["../images/grn_red.png","../images/ylw_slt.png","../images/pnk_blu.png","../images/blu_wht.png","../images/cyn_red.png","../images/ylw_pnk.png","../images/org_blu.png","../images/gry_blk.png"],"mutagen_generator_assignment":[0,1],"goal":5,"start":4,"action_noise":0.1,"location_history":"[4,7,6,5]","action_history":"[1,0,1]","mutagen_history":"[1,0,1]","location_rts":"[561,331,881]","trial_type":"fractal-mutation","trial_index":63,"time_elapsed":1382142,"internal_node_id":"0.0-5.0-9.0"},{"group":"tri cycles (cube, non-group)","fractal_assignment":["../images/grn_red.png","../images/ylw_slt.png","../images/pnk_blu.png","../images/blu_wht.png","../images/cyn_red.png","../images/ylw_pnk.png","../images/org_blu.png","../images/gry_blk.png"],"mutagen_generator_assignment":[0,1],"goal":3,"start":5,"action_noise":0.1,"location_history":"[5,2,6,5,2,1,0,2,6,5,1,0,3]","action_history":"[1,1,1,1,1,1,0,1,1,0,0,1]","mutagen_history":"[1,1,1,1,1,1,0,1,1,0,0,1]","location_rts":"[483,116,72,120,185,163,168,37,146,715,476,119]","trial_type":"fractal-mutation","trial_index":64,"time_elapsed":1400833,"internal_node_id":"0.0-5.0-10.0"},{"group":"tri cycles (cube, non-group)","fractal_assignment":["../images/grn_red.png","../images/ylw_slt.png","../images/pnk_blu.png","../images/blu_wht.png","../images/cyn_red.png","../images/ylw_pnk.png","../images/org_blu.png","../images/gry_blk.png"],"mutagen_generator_assignment":[0,1],"goal":6,"start":3,"action_noise":0.1,"location_history":"[3,4,0,2,6]","action_history":"[1,1,0,1]","mutagen_history":"[1,1,0,1]","location_rts":"[11,136,175,210]","trial_type":"fractal-mutation","trial_index":65,"time_elapsed":1408999,"internal_node_id":"0.0-5.0-11.0"},{"group":"tri cycles (cube, non-group)","fractal_assignment":["../images/grn_red.png","../images/ylw_slt.png","../images/pnk_blu.png","../images/blu_wht.png","../images/cyn_red.png","../images/ylw_pnk.png","../images/org_blu.png","../images/gry_blk.png"],"mutagen_generator_assignment":[0,1],"goal":7,"start":6,"action_noise":0.1,"location_history":"[6,5,1,0,2,1,0,2,6,5,2,6,4,0,3,4,7]","action_history":"[1,1,0,0,0,0,1,1,1,1,1,0,0,1,1,0]","mutagen_history":"[1,1,0,0,0,0,1,1,1,1,1,0,0,1,1,0]","location_rts":"[75,111,85,182,193,142,1859,95,143,149,243,181,127,199,73,96]","trial_type":"fractal-mutation","trial_index":66,"time_elapsed":1432962,"internal_node_id":"0.0-5.0-12.0"},{"group":"tri cycles (cube, non-group)","fractal_assignment":["../images/grn_red.png","../images/ylw_slt.png","../images/pnk_blu.png","../images/blu_wht.png","../images/cyn_red.png","../images/ylw_pnk.png","../images/org_blu.png","../images/gry_blk.png"],"mutagen_generator_assignment":[0,1],"goal":0,"start":7,"action_noise":0.1,"location_history":"[7,6,4,0]","action_history":"[1,0,1]","mutagen_history":"[1,0,1]","location_rts":"[490,259,40]","trial_type":"fractal-mutation","trial_index":67,"time_elapsed":1440347,"internal_node_id":"0.0-5.0-13.0"},{"group":"tri cycles (cube, non-group)","fractal_assignment":["../images/grn_red.png","../images/ylw_slt.png","../images/pnk_blu.png","../images/blu_wht.png","../images/cyn_red.png","../images/ylw_pnk.png","../images/org_blu.png","../images/gry_blk.png"],"mutagen_generator_assignment":[0,1],"goal":2,"start":0,"action_noise":0.1,"location_history":"[0,3,4,0,3,4,7,3,4,0,3,4,7,6,5,1,0,2]","action_history":"[1,1,0,1,1,0,1,1,1,1,1,0,0,0,0,0,0]","mutagen_history":"[1,1,0,1,1,0,1,1,1,1,1,0,0,0,0,0,0]","location_rts":"[175,63,161,135,152,184,41,197,158,133,37,212,154,168,187,232,158]","trial_type":"fractal-mutation","trial_index":68,"time_elapsed":1463885,"internal_node_id":"0.0-5.0-14.0"},{"group":"tri cycles (cube, non-group)","fractal_assignment":["../images/grn_red.png","../images/ylw_slt.png","../images/pnk_blu.png","../images/blu_wht.png","../images/cyn_red.png","../images/ylw_pnk.png","../images/org_blu.png","../images/gry_blk.png"],"mutagen_generator_assignment":[0,1],"goal":1,"start":2,"action_noise":0.1,"location_history":"[2,6,5,1]","action_history":"[1,1,0]","mutagen_history":"[1,1,0]","location_rts":"[254,18,173]","trial_type":"fractal-mutation","trial_index":69,"time_elapsed":1470927,"internal_node_id":"0.0-5.0-15.0"},{"group":"tri cycles (cube, non-group)","fractal_assignment":["../images/grn_red.png","../images/ylw_slt.png","../images/pnk_blu.png","../images/blu_wht.png","../images/cyn_red.png","../images/ylw_pnk.png","../images/org_blu.png","../images/gry_blk.png"],"mutagen_generator_assignment":[0,1],"goal":6,"start":1,"action_noise":0.1,"location_history":"[1,5,2,1,5,2,6]","action_history":"[1,1,0,1,1,1]","mutagen_history":"[1,1,0,1,1,1]","location_rts":"[155,17,11,120,87,11]","trial_type":"fractal-mutation","trial_index":70,"time_elapsed":1481031,"internal_node_id":"0.0-5.0-16.0"},{"group":"tri cycles (cube, non-group)","fractal_assignment":["../images/grn_red.png","../images/ylw_slt.png","../images/pnk_blu.png","../images/blu_wht.png","../images/cyn_red.png","../images/ylw_pnk.png","../images/org_blu.png","../images/gry_blk.png"],"mutagen_generator_assignment":[0,1],"goal":3,"start":6,"action_noise":0.1,"location_history":"[6,5,2,6,4,7,6,5,2,1,5,2,6,4,7,6,5,2,1,5,2,6,4,7,6,5,1,0,3]","action_history":"[1,1,1,0,1,0,1,1,0,1,1,1,0,1,0,1,1,0,1,1,1,0,0,1,1,0,0,1]","mutagen_history":"[1,1,1,0,1,0,1,1,0,1,1,1,0,1,0,1,1,0,1,1,1,0,0,1,1,0,0,1]","location_rts":"[11,128,51,164,99,41,119,90,73,105,88,105,112,70,120,7,37,24,96,168,62,49,197,49,20,139,175,187]","trial_type":"fractal-mutation","trial_index":71,"time_elapsed":1516017,"internal_node_id":"0.0-5.0-17.0"},{"group":"tri cycles (cube, non-group)","fractal_assignment":["../images/grn_red.png","../images/ylw_slt.png","../images/pnk_blu.png","../images/blu_wht.png","../images/cyn_red.png","../images/ylw_pnk.png","../images/org_blu.png","../images/gry_blk.png"],"mutagen_generator_assignment":[0,1],"goal":4,"start":3,"action_noise":0.1,"location_history":"[3,4]","action_history":"[1]","mutagen_history":"[1]","location_rts":"[42]","trial_type":"fractal-mutation","trial_index":72,"time_elapsed":1520598,"internal_node_id":"0.0-5.0-18.0"},{"group":"tri cycles (cube, non-group)","fractal_assignment":["../images/grn_red.png","../images/ylw_slt.png","../images/pnk_blu.png","../images/blu_wht.png","../images/cyn_red.png","../images/ylw_pnk.png","../images/org_blu.png","../images/gry_blk.png"],"mutagen_generator_assignment":[0,1],"goal":5,"start":4,"action_noise":0.1,"location_history":"[4,0,2,6,5]","action_history":"[1,0,1,1]","mutagen_history":"[1,0,1,1]","location_rts":"[229,15,162,53]","trial_type":"fractal-mutation","trial_index":73,"time_elapsed":1528727,"internal_node_id":"0.0-5.0-19.0"},{"group":"tri cycles (cube, non-group)","fractal_assignment":["../images/grn_red.png","../images/ylw_slt.png","../images/pnk_blu.png","../images/blu_wht.png","../images/cyn_red.png","../images/ylw_pnk.png","../images/org_blu.png","../images/gry_blk.png"],"mutagen_generator_assignment":[0,1],"goal":7,"start":5,"action_noise":0.1,"location_history":"[5,2,1,5,1,5,1,0,3,7]","action_history":"[1,0,1,0,1,0,1,1,0]","mutagen_history":"[1,0,1,0,1,0,1,1,0]","location_rts":"[2020,152,108,91,133,5,44,67,128]","trial_type":"fractal-mutation","trial_index":74,"time_elapsed":1544259,"internal_node_id":"0.0-5.0-20.0"},{"group":"tri cycles (cube, non-group)","fractal_assignment":["../images/grn_red.png","../images/ylw_slt.png","../images/pnk_blu.png","../images/blu_wht.png","../images/cyn_red.png","../images/ylw_pnk.png","../images/org_blu.png","../images/gry_blk.png"],"mutagen_generator_assignment":[0,1],"goal":2,"start":7,"action_noise":0.1,"location_history":"[7,3,4,7,6,5,1,5,2]","action_history":"[1,1,0,1,1,0,1,1]","mutagen_history":"[1,1,0,1,1,0,1,1]","location_rts":"[47,6,164,86,94,54,206,140]","trial_type":"fractal-mutation","trial_index":75,"time_elapsed":1556815,"internal_node_id":"0.0-5.0-21.0"},{"group":"tri cycles (cube, non-group)","fractal_assignment":["../images/grn_red.png","../images/ylw_slt.png","../images/pnk_blu.png","../images/blu_wht.png","../images/cyn_red.png","../images/ylw_pnk.png","../images/org_blu.png","../images/gry_blk.png"],"mutagen_generator_assignment":[0,1],"goal":0,"start":2,"action_noise":0.1,"location_history":"[2,6,4,7,3,4,0]","action_history":"[1,1,0,1,1,0]","mutagen_history":"[1,1,0,1,1,0]","location_rts":"[202,107,55,154,92,113]","trial_type":"fractal-mutation","trial_index":76,"time_elapsed":1567230,"internal_node_id":"0.0-5.0-22.0"},{"group":"tri cycles (cube, non-group)","fractal_assignment":["../images/grn_red.png","../images/ylw_slt.png","../images/pnk_blu.png","../images/blu_wht.png","../images/cyn_red.png","../images/ylw_pnk.png","../images/org_blu.png","../images/gry_blk.png"],"mutagen_generator_assignment":[0,1],"goal":7,"start":0,"action_noise":0.1,"location_history":"[0,3,4,7]","action_history":"[1,1,0]","mutagen_history":"[1,1,0]","location_rts":"[67,75,83]","trial_type":"fractal-mutation","trial_index":77,"time_elapsed":1574062,"internal_node_id":"0.0-5.0-23.0"},{"group":"tri cycles (cube, non-group)","fractal_assignment":["../images/grn_red.png","../images/ylw_slt.png","../images/pnk_blu.png","../images/blu_wht.png","../images/cyn_red.png","../images/ylw_pnk.png","../images/org_blu.png","../images/gry_blk.png"],"mutagen_generator_assignment":[0,1],"goal":5,"start":7,"action_noise":0.1,"location_history":"[7,3,4,7,3,4,7,3,7,6,5]","action_history":"[1,1,0,1,1,0,1,1,0,1]","mutagen_history":"[1,1,0,1,1,0,1,1,0,1]","location_rts":"[24,4,104,143,81,31,113,86,88,15]","trial_type":"fractal-mutation","trial_index":78,"time_elapsed":1588583,"internal_node_id":"0.0-5.0-24.0"},{"group":"tri cycles (cube, non-group)","fractal_assignment":["../images/grn_red.png","../images/ylw_slt.png","../images/pnk_blu.png","../images/blu_wht.png","../images/cyn_red.png","../images/ylw_pnk.png","../images/org_blu.png","../images/gry_blk.png"],"mutagen_generator_assignment":[0,1],"goal":0,"start":5,"action_noise":0.1,"location_history":"[5,2,1,0]","action_history":"[1,1,0]","mutagen_history":"[1,1,0]","location_rts":"[4411,106,112]","trial_type":"fractal-mutation","trial_index":79,"time_elapsed":1599808,"internal_node_id":"0.0-5.0-25.0"},{"group":"tri cycles (cube, non-group)","fractal_assignment":["../images/grn_red.png","../images/ylw_slt.png","../images/pnk_blu.png","../images/blu_wht.png","../images/cyn_red.png","../images/ylw_pnk.png","../images/org_blu.png","../images/gry_blk.png"],"mutagen_generator_assignment":[0,1],"goal":6,"start":0,"action_noise":0.1,"location_history":"[0,3,4,7,3,4,7,3,4,7,3,4,7,3,4,7,3,4,7,3,4,7,3,4,0,3,4,7,3,4,7,3,4,0,2,6]","action_history":"[1,1,0,1,1,0,1,1,0,1,1,0,1,1,0,1,1,0,1,1,0,1,1,0,1,1,0,1,1,0,1,1,1,0,1]","mutagen_history":"[1,1,0,1,1,0,1,1,0,1,1,0,1,1,0,1,1,0,1,1,0,1,1,0,1,1,0,1,1,0,1,1,1,0,1]","location_rts":"[41,182,43,88,98,51,60,84,38,189,68,104,77,134,46,190,169,116,174,139,6,138,153,177,87,55,82,75,17,310,179,42,5,192,62]","trial_type":"fractal-mutation","trial_index":80,"time_elapsed":1643147,"internal_node_id":"0.0-5.0-26.0"},{"group":"tri cycles (cube, non-group)","fractal_assignment":["../images/grn_red.png","../images/ylw_slt.png","../images/pnk_blu.png","../images/blu_wht.png","../images/cyn_red.png","../images/ylw_pnk.png","../images/org_blu.png","../images/gry_blk.png"],"mutagen_generator_assignment":[0,1],"goal":4,"start":6,"action_noise":0.1,"location_history":"[6,5,1,5,2,1,5,1,0,3,4]","action_history":"[1,0,1,1,0,1,1,0,1,1]","mutagen_history":"[1,0,1,1,0,1,1,0,1,1]","location_rts":"[7,221,62,193,126,47,134,237,22,101]","trial_type":"fractal-mutation","trial_index":81,"time_elapsed":1658111,"internal_node_id":"0.0-5.0-27.0"},{"group":"tri cycles (cube, non-group)","fractal_assignment":["../images/grn_red.png","../images/ylw_slt.png","../images/pnk_blu.png","../images/blu_wht.png","../images/cyn_red.png","../images/ylw_pnk.png","../images/org_blu.png","../images/gry_blk.png"],"mutagen_generator_assignment":[0,1],"goal":2,"start":4,"action_noise":0.1,"location_history":"[4,7,3,4,7,3,4,7,3,4,7,3,4,7,3,4,0,2]","action_history":"[1,1,1,0,1,1,0,1,1,0,1,1,0,1,1,1,0]","mutagen_history":"[1,1,1,0,1,1,0,1,1,0,1,1,0,1,1,1,0]","location_rts":"[258,73,72,88,73,146,156,207,137,22,130,135,197,208,83,120,96]","trial_type":"fractal-mutation","trial_index":82,"time_elapsed":1681363,"internal_node_id":"0.0-5.0-28.0"},{"group":"tri cycles (cube, non-group)","fractal_assignment":["../images/grn_red.png","../images/ylw_slt.png","../images/pnk_blu.png","../images/blu_wht.png","../images/cyn_red.png","../images/ylw_pnk.png","../images/org_blu.png","../images/gry_blk.png"],"mutagen_generator_assignment":[0,1],"goal":3,"start":2,"action_noise":0.1,"location_history":"[2,6,4,7,3]","action_history":"[1,0,0,1]","mutagen_history":"[1,0,0,1]","location_rts":"[71,424,129,14]","trial_type":"fractal-mutation","trial_index":83,"time_elapsed":1689635,"internal_node_id":"0.0-5.0-29.0"},{"group":"tri cycles (cube, non-group)","fractal_assignment":["../images/grn_red.png","../images/ylw_slt.png","../images/pnk_blu.png","../images/blu_wht.png","../images/cyn_red.png","../images/ylw_pnk.png","../images/org_blu.png","../images/gry_blk.png"],"mutagen_generator_assignment":[0,1],"goal":1,"start":3,"action_noise":0.1,"location_history":"[3,4,7,6,4,0,2,1]","action_history":"[1,0,0,0,1,0,1]","mutagen_history":"[1,0,0,0,1,0,1]","location_rts":"[143,4,137,76,142,42,195]","trial_type":"fractal-mutation","trial_index":84,"time_elapsed":1701097,"internal_node_id":"0.0-5.0-30.0"},{"group":"tri cycles (cube, non-group)","fractal_assignment":["../images/grn_red.png","../images/ylw_slt.png","../images/pnk_blu.png","../images/blu_wht.png","../images/cyn_red.png","../images/ylw_pnk.png","../images/org_blu.png","../images/gry_blk.png"],"mutagen_generator_assignment":[0,1],"goal":4,"start":1,"action_noise":0.1,"location_history":"[1,5,2,1,5,1,0,3,4]","action_history":"[1,1,0,1,1,0,1,1]","mutagen_history":"[1,1,0,1,1,0,1,1]","location_rts":"[128,275,8,155,52,109,179,208]","trial_type":"fractal-mutation","trial_index":85,"time_elapsed":1713979,"internal_node_id":"0.0-5.0-31.0"},{"group":"tri cycles (cube, non-group)","fractal_assignment":["../images/grn_red.png","../images/ylw_slt.png","../images/pnk_blu.png","../images/blu_wht.png","../images/cyn_red.png","../images/ylw_pnk.png","../images/org_blu.png","../images/gry_blk.png"],"mutagen_generator_assignment":[0,1],"goal":3,"start":4,"action_noise":0.1,"location_history":"[4,0,2,1,0,3]","action_history":"[1,0,0,0,1]","mutagen_history":"[1,0,0,0,1]","location_rts":"[166,220,181,352,172]","trial_type":"fractal-mutation","trial_index":86,"time_elapsed":1723726,"internal_node_id":"0.0-5.0-32.0"},{"group":"tri cycles (cube, non-group)","fractal_assignment":["../images/grn_red.png","../images/ylw_slt.png","../images/pnk_blu.png","../images/blu_wht.png","../images/cyn_red.png","../images/ylw_pnk.png","../images/org_blu.png","../images/gry_blk.png"],"mutagen_generator_assignment":[0,1],"goal":6,"start":3,"action_noise":0.1,"location_history":"[3,4,0,3,4,0,2,1,5,1,0,3,4,7,3,4,0,2,1,0,3,7,6]","action_history":"[1,1,1,1,1,1,0,1,1,0,1,1,0,1,1,1,0,1,1,1,0,1]","mutagen_history":"[1,1,1,1,1,1,0,1,1,0,1,1,0,1,1,1,0,1,1,1,0,1]","location_rts":"[113,110,66,143,67,174,56,102,137,173,202,302,68,173,147,162,131,148,134,220,84,212]","trial_type":"fractal-mutation","trial_index":87,"time_elapsed":1753080,"internal_node_id":"0.0-5.0-33.0"},{"group":"tri cycles (cube, non-group)","fractal_assignment":["../images/grn_red.png","../images/ylw_slt.png","../images/pnk_blu.png","../images/blu_wht.png","../images/cyn_red.png","../images/ylw_pnk.png","../images/org_blu.png","../images/gry_blk.png"],"mutagen_generator_assignment":[0,1],"goal":0,"start":6,"action_noise":0.1,"location_history":"[6,5,2,1,0]","action_history":"[1,1,0,1]","mutagen_history":"[1,1,0,1]","location_rts":"[56,56,57,42]","trial_type":"fractal-mutation","trial_index":88,"time_elapsed":1760923,"internal_node_id":"0.0-5.0-34.0"},{"group":"tri cycles (cube, non-group)","fractal_assignment":["../images/grn_red.png","../images/ylw_slt.png","../images/pnk_blu.png","../images/blu_wht.png","../images/cyn_red.png","../images/ylw_pnk.png","../images/org_blu.png","../images/gry_blk.png"],"mutagen_generator_assignment":[0,1],"goal":1,"start":0,"action_noise":0.1,"location_history":"[0,3,4,0,3,4,0,3,4,0,3,4,0,3,7,3,4,0,3,7,3,7,6,5,2,6,4,7,3,4,7,6,5,2,6,4,7,3,4,0,3,7,6,4,7,6,5,2,1]","action_history":"[1,1,1,1,1,1,1,1,1,1,1,1,1,0,1,1,1,0,0,1,0,0,1,1,1,0,0,1,1,0,0,1,1,1,0,0,1,1,0,1,0,1,0,0,0,1,1,0]","mutagen_history":"[1,1,1,1,1,1,1,1,1,1,1,1,1,0,1,1,1,0,0,1,0,0,1,1,1,0,0,1,1,0,0,1,1,1,0,0,1,1,0,1,0,1,0,0,0,1,1,0]","location_rts":"[60,236,122,94,123,93,100,218,115,152,410,92,176,104,95,208,190,44,479,95,374,39,95,93,87,202,104,198,80,195,354,36,122,210,648,645,249,414,18,59,1084,145,70,652,148,290,87,559]","trial_type":"fractal-mutation","trial_index":89,"time_elapsed":1824393,"internal_node_id":"0.0-5.0-35.0"},{"group":"tri cycles (cube, non-group)","fractal_assignment":["../images/grn_red.png","../images/ylw_slt.png","../images/pnk_blu.png","../images/blu_wht.png","../images/cyn_red.png","../images/ylw_pnk.png","../images/org_blu.png","../images/gry_blk.png"],"mutagen_generator_assignment":[0,1],"goal":5,"start":1,"action_noise":0.1,"location_history":"[1,5]","action_history":"[1]","mutagen_history":"[1]","location_rts":"[190]","trial_type":"fractal-mutation","trial_index":90,"time_elapsed":1829125,"internal_node_id":"0.0-5.0-36.0"},{"group":"tri cycles (cube, non-group)","fractal_assignment":["../images/grn_red.png","../images/ylw_slt.png","../images/pnk_blu.png","../images/blu_wht.png","../images/cyn_red.png","../images/ylw_pnk.png","../images/org_blu.png","../images/gry_blk.png"],"mutagen_generator_assignment":[0,1],"goal":7,"start":5,"action_noise":0.1,"location_history":"[5,2,1,5,1,0,3,4,0,3,7]","action_history":"[1,0,0,0,0,1,1,1,1,0]","mutagen_history":"[1,0,0,0,0,1,1,1,1,0]","location_rts":"[11,62,686,444,447,42,427,810,369,470]","trial_type":"fractal-mutation","trial_index":91,"time_elapsed":1846712,"internal_node_id":"0.0-5.0-37.0"},{"group":"tri cycles (cube, non-group)","fractal_assignment":["../images/grn_red.png","../images/ylw_slt.png","../images/pnk_blu.png","../images/blu_wht.png","../images/cyn_red.png","../images/ylw_pnk.png","../images/org_blu.png","../images/gry_blk.png"],"mutagen_generator_assignment":[0,1],"goal":2,"start":7,"action_noise":0.1,"location_history":"[7,3,4,0,2]","action_history":"[1,1,1,0]","mutagen_history":"[1,1,1,0]","location_rts":"[94,571,696,10]","trial_type":"fractal-mutation","trial_index":92,"time_elapsed":1855724,"internal_node_id":"0.0-5.0-38.0"},{"group":"tri cycles (cube, non-group)","fractal_assignment":["../images/grn_red.png","../images/ylw_slt.png","../images/pnk_blu.png","../images/blu_wht.png","../images/cyn_red.png","../images/ylw_pnk.png","../images/org_blu.png","../images/gry_blk.png"],"mutagen_generator_assignment":[0,1],"goal":1,"start":2,"action_noise":0.1,"location_history":"[2,6,5,2,6,5,2,1]","action_history":"[1,1,1,1,1,1,0]","mutagen_history":"[1,1,1,1,1,1,0]","location_rts":"[13,1580,235,336,38,148,371]","trial_type":"fractal-mutation","trial_index":93,"time_elapsed":1869188,"internal_node_id":"0.0-5.0-39.0"},{"group":"tri cycles (cube, non-group)","fractal_assignment":["../images/grn_red.png","../images/ylw_slt.png","../images/pnk_blu.png","../images/blu_wht.png","../images/cyn_red.png","../images/ylw_pnk.png","../images/org_blu.png","../images/gry_blk.png"],"mutagen_generator_assignment":[0,1],"goal":3,"start":1,"action_noise":0.1,"location_history":"[1,5,1,5,2,1,5,1,5,2,1,5,2,6,5,2,6,5,2,6,4,0,3]","action_history":"[1,0,1,1,0,0,0,1,0,0,1,1,1,1,1,1,1,1,1,0,1,1]","mutagen_history":"[1,0,1,1,0,0,0,1,0,0,1,1,1,1,1,1,1,1,1,0,1,1]","location_rts":"[1307,1116,554,565,89,1038,675,389,443,154,160,220,20,211,500,109,71,74,339,405,450,363]","trial_type":"fractal-mutation","trial_index":94,"time_elapsed":1905134,"internal_node_id":"0.0-5.0-40.0"},{"group":"tri cycles (cube, non-group)","fractal_assignment":["../images/grn_red.png","../images/ylw_slt.png","../images/pnk_blu.png","../images/blu_wht.png","../images/cyn_red.png","../images/ylw_pnk.png","../images/org_blu.png","../images/gry_blk.png"],"mutagen_generator_assignment":[0,1],"goal":4,"start":3,"action_noise":0.1,"location_history":"[3,4]","action_history":"[1]","mutagen_history":"[1]","location_rts":"[794]","trial_type":"fractal-mutation","trial_index":95,"time_elapsed":1910468,"internal_node_id":"0.0-5.0-41.0"},{"group":"tri cycles (cube, non-group)","fractal_assignment":["../images/grn_red.png","../images/ylw_slt.png","../images/pnk_blu.png","../images/blu_wht.png","../images/cyn_red.png","../images/ylw_pnk.png","../images/org_blu.png","../images/gry_blk.png"],"mutagen_generator_assignment":[0,1],"goal":2,"start":4,"action_noise":0.1,"location_history":"[4,0,2]","action_history":"[1,0]","mutagen_history":"[1,0]","location_rts":"[771,709]","trial_type":"fractal-mutation","trial_index":96,"time_elapsed":1917509,"internal_node_id":"0.0-5.0-42.0"},{"group":"tri cycles (cube, non-group)","fractal_assignment":["../images/grn_red.png","../images/ylw_slt.png","../images/pnk_blu.png","../images/blu_wht.png","../images/cyn_red.png","../images/ylw_pnk.png","../images/org_blu.png","../images/gry_blk.png"],"mutagen_generator_assignment":[0,1],"goal":5,"start":2,"action_noise":0.1,"location_history":"[2,6,5]","action_history":"[1,1]","mutagen_history":"[1,1]","location_rts":"[58,924]","trial_type":"fractal-mutation","trial_index":97,"time_elapsed":1924070,"internal_node_id":"0.0-5.0-43.0"},{"group":"tri cycles (cube, non-group)","fractal_assignment":["../images/grn_red.png","../images/ylw_slt.png","../images/pnk_blu.png","../images/blu_wht.png","../images/cyn_red.png","../images/ylw_pnk.png","../images/org_blu.png","../images/gry_blk.png"],"mutagen_generator_assignment":[0,1],"goal":0,"start":5,"action_noise":0.1,"location_history":"[5,2,6,4,0]","action_history":"[1,1,0,1]","mutagen_history":"[1,1,0,1]","location_rts":"[1146,870,470,254]","trial_type":"fractal-mutation","trial_index":98,"time_elapsed":1934435,"internal_node_id":"0.0-5.0-44.0"},{"group":"tri cycles (cube, non-group)","fractal_assignment":["../images/grn_red.png","../images/ylw_slt.png","../images/pnk_blu.png","../images/blu_wht.png","../images/cyn_red.png","../images/ylw_pnk.png","../images/org_blu.png","../images/gry_blk.png"],"mutagen_generator_assignment":[0,1],"goal":7,"start":0,"action_noise":0.1,"location_history":"[0,3,7]","action_history":"[1,0]","mutagen_history":"[1,0]","location_rts":"[669,515]","trial_type":"fractal-mutation","trial_index":99,"time_elapsed":1941186,"internal_node_id":"0.0-5.0-45.0"},{"group":"tri cycles (cube, non-group)","fractal_assignment":["../images/grn_red.png","../images/ylw_slt.png","../images/pnk_blu.png","../images/blu_wht.png","../images/cyn_red.png","../images/ylw_pnk.png","../images/org_blu.png","../images/gry_blk.png"],"mutagen_generator_assignment":[0,1],"goal":6,"start":7,"action_noise":0.1,"location_history":"[7,6]","action_history":"[1]","mutagen_history":"[1]","location_rts":"[30]","trial_type":"fractal-mutation","trial_index":100,"time_elapsed":1945750,"internal_node_id":"0.0-5.0-46.0"},{"group":"tri cycles (cube, non-group)","fractal_assignment":["../images/grn_red.png","../images/ylw_slt.png","../images/pnk_blu.png","../images/blu_wht.png","../images/cyn_red.png","../images/ylw_pnk.png","../images/org_blu.png","../images/gry_blk.png"],"mutagen_generator_assignment":[0,1],"goal":2,"start":6,"action_noise":0.1,"location_history":"[6,5,1,5,2]","action_history":"[1,0,1,1]","mutagen_history":"[1,0,1,1]","location_rts":"[1682,572,438,675]","trial_type":"fractal-mutation","trial_index":101,"time_elapsed":1956756,"internal_node_id":"0.0-5.0-47.0"},{"group":"tri cycles (cube, non-group)","fractal_assignment":["../images/grn_red.png","../images/ylw_slt.png","../images/pnk_blu.png","../images/blu_wht.png","../images/cyn_red.png","../images/ylw_pnk.png","../images/org_blu.png","../images/gry_blk.png"],"mutagen_generator_assignment":[0,1],"goal":5,"start":2,"action_noise":0.1,"location_history":"[2,6,4,7,3,4,0,2,6,5]","action_history":"[1,0,1,1,1,1,0,1,1]","mutagen_history":"[1,0,1,1,1,1,0,1,1]","location_rts":"[2668,986,215,405,402,569,937,335,422]","trial_type":"fractal-mutation","trial_index":102,"time_elapsed":1976497,"internal_node_id":"0.0-5.0-48.0"},{"group":"tri cycles (cube, non-group)","fractal_assignment":["../images/grn_red.png","../images/ylw_slt.png","../images/pnk_blu.png","../images/blu_wht.png","../images/cyn_red.png","../images/ylw_pnk.png","../images/org_blu.png","../images/gry_blk.png"],"mutagen_generator_assignment":[0,1],"goal":3,"start":5,"action_noise":0.1,"location_history":"[5,2,6,4,0,3]","action_history":"[1,1,0,1,1]","mutagen_history":"[1,1,0,1,1]","location_rts":"[1134,711,926,45,397]","trial_type":"fractal-mutation","trial_index":103,"time_elapsed":1988385,"internal_node_id":"0.0-5.0-49.0"},{"view_history":"[{\"page_index\":0,\"viewing_time\":2029}]","rt":2030,"trial_type":"instructions","trial_index":104,"time_elapsed":1991416,"internal_node_id":"0.0-6.0"},{"rt":15191,"responses":"{\"Q0\":\"Pattern recognition.\"}","trial_type":"survey-text","trial_index":105,"time_elapsed":2007610,"internal_node_id":"0.0-7.0-0.0"},{"rt":11588,"responses":"{\"Q0\":\"I'm not sure.\"}","trial_type":"survey-text","trial_index":106,"time_elapsed":2020199,"internal_node_id":"0.0-7.0-1.0"},{"rt":37014,"responses":"{\"Q0\":\"<img src='../images/diagrams/square_cycles.png'>\"}","trial_type":"survey-multi-choice","trial_index":107,"time_elapsed":2058221,"internal_node_id":"0.0-7.0-2.0"},{"rt":55868,"assignments":["../images/ylw_slt.png","../images/org_blu.png","../images/ylw_pnk.png","../images/gry_blk.png","../images/pnk_blu.png","../images/cyn_red.png","../images/grn_red.png","../images/blu_wht.png"],"trial_type":"drag-drop-on-image","trial_index":108,"time_elapsed":2115091,"internal_node_id":"0.0-7.0-3.0"},{"rt":5750,"responses":"{\"Q0\":\"3\"}","trial_type":"survey-likert","trial_index":109,"time_elapsed":2121844,"internal_node_id":"0.0-7.0-4.0"},{"rt":19635,"responses":"{\"Q0\":\"One image/door had a connection to others that could only be accessed through that one point.\"}","trial_type":"survey-text","trial_index":110,"time_elapsed":2142481,"internal_node_id":"0.0-7.0-5.0"},{"rt":4434,"responses":"{\"Q0\":\"Yes\"}","trial_type":"survey-multi-choice","trial_index":111,"time_elapsed":2147919,"internal_node_id":"0.0-7.0-6.0"},{"rt":6291,"responses":"{\"Q0\":\"During this session\"}","trial_type":"survey-multi-choice","trial_index":112,"time_elapsed":2155217,"internal_node_id":"0.0-7.0-7.0"},{"rt":7197,"responses":"{\"Q0\":\"Not sure how to.\"}","trial_type":"survey-text","trial_index":113,"time_elapsed":2163416,"internal_node_id":"0.0-7.0-8.0"},{"rt":5003,"responses":"{\"Q0\":\"1\"}","trial_type":"survey-likert","trial_index":114,"time_elapsed":2169422,"internal_node_id":"0.0-7.0-9.0"},{"rt":7429,"responses":"{\"Q0\":\"Same structure\"}","trial_type":"survey-multi-choice","trial_index":115,"time_elapsed":2177856,"internal_node_id":"0.0-7.0-10.0"},{"rt":32391,"responses":"{\"Q0\":\"left (black) door = acid, (white) door = ray\",\"Q1\":\"Not at all confident\"}","trial_type":"survey-multi-choice","trial_index":116,"time_elapsed":2211257,"internal_node_id":"0.0-7.0-11.0"},{"rt":6616,"responses":"{\"Q0\":\"25-35\",\"Q1\":\"Some college\",\"Q2\":\"Male\",\"Q3\":\"White\"}","trial_type":"survey-multi-choice","trial_index":117,"time_elapsed":2218895,"internal_node_id":"0.0-8.0"},{"rt":1275,"responses":"{\"Q0\":\"\"}","trial_type":"survey-text","trial_index":118,"time_elapsed":2221174,"internal_node_id":"0.0-9.0"}]