[{"view_history":"[{\"page_index\":0,\"viewing_time\":1622},{\"page_index\":1,\"viewing_time\":6063}]","rt":7685,"trial_type":"instructions","trial_index":0,"time_elapsed":7686,"internal_node_id":"0.0-0.0"},{"view_history":"[{\"page_index\":0,\"viewing_time\":4194},{\"page_index\":1,\"viewing_time\":63726}]","rt":67921,"trial_type":"instructions","trial_index":1,"time_elapsed":76608,"internal_node_id":"0.0-1.0"},{"group":"tri cycles (cube, non-group)","room_assignment":["green","blue","brown","yellow","grey","purple","pink","red"],"door_color_assignment":["white","black"],"door_generator_assignment":[1,0],"goal":5,"start":7,"action_noise":0.1,"location_history":"[7,6,5]","action_history":"[0,1]","door_history":"[1,0]","location_rts":"[1170,569]","trial_type":"two-door-navigation","trial_index":2,"time_elapsed":83889,"internal_node_id":"0.0-2.0-0.0"},{"group":"tri cycles (cube, non-group)","room_assignment":["green","blue","brown","yellow","grey","purple","pink","red"],"door_color_assignment":["white","black"],"door_generator_assignment":[1,0],"goal":2,"start":5,"action_noise":0.1,"location_history":"[5,1,0,2]","action_history":"[0,0,0]","door_history":"[1,1,1]","location_rts":"[1128,292,428]","trial_type":"two-door-navigation","trial_index":3,"time_elapsed":92293,"internal_node_id":"0.0-2.0-1.0"},{"group":"tri cycles (cube, non-group)","room_assignment":["green","blue","brown","yellow","grey","purple","pink","red"],"door_color_assignment":["white","black"],"door_generator_assignment":[1,0],"goal":0,"start":2,"action_noise":0.1,"location_history":"[2,6,4,7,6,4,7,6,4,7,6,4,7,6,5,1,0]","action_history":"[1,0,0,0,0,0,0,0,0,0,0,0,0,0,0,0]","door_history":"[0,1,1,1,1,1,1,1,1,1,1,1,1,1,1,1]","location_rts":"[2163,1000,515,233,438,7264,352,477,428,2158,5289,304,237,216,196,192]","trial_type":"two-door-navigation","trial_index":4,"time_elapsed":133564,"internal_node_id":"0.0-2.0-2.0"},{"group":"tri cycles (cube, non-group)","room_assignment":["green","blue","brown","yellow","grey","purple","pink","red"],"door_color_assignment":["white","black"],"door_generator_assignment":[1,0],"goal":1,"start":0,"action_noise":0.1,"location_history":"[0,2,1]","action_history":"[0,0]","door_history":"[1,1]","location_rts":"[1638,64]","trial_type":"two-door-navigation","trial_index":5,"time_elapsed":140803,"internal_node_id":"0.0-2.0-3.0"},{"group":"tri cycles (cube, non-group)","room_assignment":["green","blue","brown","yellow","grey","purple","pink","red"],"door_color_assignment":["white","black"],"door_generator_assignment":[1,0],"goal":6,"start":1,"action_noise":0.1,"location_history":"[1,5,1,0,2,1,5,2,6]","action_history":"[0,0,0,0,0,1,1,1]","door_history":"[1,1,1,1,1,0,0,0]","location_rts":"[4049,6186,776,9838,415,290,86,755]","trial_type":"two-door-navigation","trial_index":6,"time_elapsed":174844,"internal_node_id":"0.0-2.0-4.0"},{"group":"tri cycles (cube, non-group)","room_assignment":["green","blue","brown","yellow","grey","purple","pink","red"],"door_color_assignment":["white","black"],"door_generator_assignment":[1,0],"goal":3,"start":6,"action_noise":0.1,"location_history":"[6,4,7,6,4,7,6,5,2,1,5,2,6,5,1,5,2,6,5,2,1,5,1,5,1,5,1,0,2,6,5,2,1,0,2,1,0,2,1,0,3]","action_history":"[0,0,0,0,0,0,1,1,1,1,1,1,1,0,1,1,1,1,1,0,1,0,1,0,1,0,0,1,1,1,1,0,0,0,0,0,0,0,0,0]","door_history":"[1,1,1,1,1,1,0,0,0,0,0,0,0,1,0,0,0,0,0,1,0,1,0,1,0,1,1,0,0,0,0,1,1,1,1,1,1,1,1,1]","location_rts":"[1067,579,775,3208,742,633,298,236,421,146,181,250,283,446,138,169,210,103,187,151,473,913,344,445,1008,466,309,98,314,313,195,420,250,117,756,343,288,242,325,524]","trial_type":"two-door-navigation","trial_index":7,"time_elapsed":237453,"internal_node_id":"0.0-2.0-5.0"},{"group":"tri cycles (cube, non-group)","room_assignment":["green","blue","brown","yellow","grey","purple","pink","red"],"door_color_assignment":["white","black"],"door_generator_assignment":[1,0],"goal":4,"start":3,"action_noise":0.1,"location_history":"[3,7,6,5,1,0,2,1,0,2,1,0,3,7,6,4]","action_history":"[0,0,0,0,0,0,0,0,0,0,0,1,0,0,0]","door_history":"[1,1,1,1,1,1,1,1,1,1,1,0,1,1,1]","location_rts":"[3710,329,110,309,303,394,731,1348,1852,973,1891,212,1118,414,470]","trial_type":"two-door-navigation","trial_index":8,"time_elapsed":270394,"internal_node_id":"0.0-2.0-6.0"},{"group":"tri cycles (cube, non-group)","room_assignment":["green","blue","brown","yellow","grey","purple","pink","red"],"door_color_assignment":["white","black"],"door_generator_assignment":[1,0],"goal":1,"start":4,"action_noise":0.1,"location_history":"[4,0,2,1]","action_history":"[0,0,0]","door_history":"[1,1,1]","location_rts":"[20451,206,28]","trial_type":"two-door-navigation","trial_index":9,"time_elapsed":297640,"internal_node_id":"0.0-2.0-7.0"},{"group":"tri cycles (cube, non-group)","room_assignment":["green","blue","brown","yellow","grey","purple","pink","red"],"door_color_assignment":["white","black"],"door_generator_assignment":[1,0],"goal":4,"start":1,"action_noise":0.1,"location_history":"[1,0,2,1,5,2,1,0,3,7,6,4]","action_history":"[0,0,0,0,0,0,0,1,0,0,0]","door_history":"[1,1,1,1,1,1,1,0,1,1,1]","location_rts":"[1365,361,219,91,253,209,318,335,95,202,452]","trial_type":"two-door-navigation","trial_index":10,"time_elapsed":316243,"internal_node_id":"0.0-2.0-8.0"},{"group":"tri cycles (cube, non-group)","room_assignment":["green","blue","brown","yellow","grey","purple","pink","red"],"door_color_assignment":["white","black"],"door_generator_assignment":[1,0],"goal":5,"start":4,"action_noise":0.1,"location_history":"[4,7,6,4,7,6,4,7,6,4,0,3,7,6,4,0,3,7,6,5]","action_history":"[0,0,0,0,0,0,0,0,0,1,1,0,0,0,1,0,0,0,1]","door_history":"[1,1,1,1,1,1,1,1,1,0,0,1,1,1,0,1,1,1,0]","location_rts":"[3696,471,893,1844,1181,414,764,264,275,262,328,298,311,288,265,320,321,448,723]","trial_type":"two-door-navigation","trial_index":11,"time_elapsed":352451,"internal_node_id":"0.0-2.0-9.0"},{"group":"tri cycles (cube, non-group)","room_assignment":["green","blue","brown","yellow","grey","purple","pink","red"],"door_color_assignment":["white","black"],"door_generator_assignment":[1,0],"goal":3,"start":5,"action_noise":0.1,"location_history":"[5,2,1,0,2,1,0,2,1,0,2,1,0,2,1,5,1,0,3]","action_history":"[0,0,0,0,0,0,0,0,0,0,0,0,0,0,0,0,0,1]","door_history":"[1,1,1,1,1,1,1,1,1,1,1,1,1,1,1,1,1,0]","location_rts":"[2098,330,173,184,248,310,503,373,963,560,180,548,3379,590,2879,709,202,274]","trial_type":"two-door-navigation","trial_index":12,"time_elapsed":388790,"internal_node_id":"0.0-2.0-10.0"},{"group":"tri cycles (cube, non-group)","room_assignment":["green","blue","brown","yellow","grey","purple","pink","red"],"door_color_assignment":["white","black"],"door_generator_assignment":[1,0],"goal":6,"start":3,"action_noise":0.1,"location_history":"[3,7,6]","action_history":"[0,0]","door_history":"[1,1]","location_rts":"[1588,361]","trial_type":"two-door-navigation","trial_index":13,"time_elapsed":396276,"internal_node_id":"0.0-2.0-11.0"},{"group":"tri cycles (cube, non-group)","room_assignment":["green","blue","brown","yellow","grey","purple","pink","red"],"door_color_assignment":["white","black"],"door_generator_assignment":[1,0],"goal":7,"start":6,"action_noise":0.1,"location_history":"[6,4,7]","action_history":"[0,0]","door_history":"[1,1]","location_rts":"[1753,751]","trial_type":"two-door-navigation","trial_index":14,"time_elapsed":404320,"internal_node_id":"0.0-2.0-12.0"},{"group":"tri cycles (cube, non-group)","room_assignment":["green","blue","brown","yellow","grey","purple","pink","red"],"door_color_assignment":["white","black"],"door_generator_assignment":[1,0],"goal":0,"start":7,"action_noise":0.1,"location_history":"[7,6,4,7,6,4,7,6,4,7,6,4,0]","action_history":"[0,0,0,0,0,0,0,0,0,0,0,0]","door_history":"[1,1,1,1,1,1,1,1,1,1,1,1]","location_rts":"[1096,29,455,1743,609,986,931,901,1328,1926,696,194]","trial_type":"two-door-navigation","trial_index":15,"time_elapsed":430940,"internal_node_id":"0.0-2.0-13.0"},{"group":"tri cycles (cube, non-group)","room_assignment":["green","blue","brown","yellow","grey","purple","pink","red"],"door_color_assignment":["white","black"],"door_generator_assignment":[1,0],"goal":2,"start":0,"action_noise":0.1,"location_history":"[0,2]","action_history":"[0]","door_history":"[1]","location_rts":"[1463]","trial_type":"two-door-navigation","trial_index":16,"time_elapsed":436923,"internal_node_id":"0.0-2.0-14.0"},{"group":"tri cycles (cube, non-group)","room_assignment":["green","blue","brown","yellow","grey","purple","pink","red"],"door_color_assignment":["white","black"],"door_generator_assignment":[1,0],"goal":1,"start":2,"action_noise":0.1,"location_history":"[2,1]","action_history":"[0]","door_history":"[1]","location_rts":"[1217]","trial_type":"two-door-navigation","trial_index":17,"time_elapsed":442661,"internal_node_id":"0.0-2.0-15.0"},{"group":"tri cycles (cube, non-group)","room_assignment":["green","blue","brown","yellow","grey","purple","pink","red"],"door_color_assignment":["white","black"],"door_generator_assignment":[1,0],"goal":6,"start":1,"action_noise":0.1,"location_history":"[1,0,3,7,6]","action_history":"[0,0,0,0]","door_history":"[1,1,1,1]","location_rts":"[978,463,328,278]","trial_type":"two-door-navigation","trial_index":18,"time_elapsed":452282,"internal_node_id":"0.0-2.0-16.0"},{"group":"tri cycles (cube, non-group)","room_assignment":["green","blue","brown","yellow","grey","purple","pink","red"],"door_color_assignment":["white","black"],"door_generator_assignment":[1,0],"goal":3,"start":6,"action_noise":0.1,"location_history":"[6,4,7,6,4,0,3]","action_history":"[0,0,0,0,1,1]","door_history":"[1,1,1,1,0,0]","location_rts":"[705,2,142,92,147,137]","trial_type":"two-door-navigation","trial_index":19,"time_elapsed":463116,"internal_node_id":"0.0-2.0-17.0"},{"group":"tri cycles (cube, non-group)","room_assignment":["green","blue","brown","yellow","grey","purple","pink","red"],"door_color_assignment":["white","black"],"door_generator_assignment":[1,0],"goal":4,"start":3,"action_noise":0.1,"location_history":"[3,7,6,4]","action_history":"[0,0,0]","door_history":"[1,1,1]","location_rts":"[975,1791,664]","trial_type":"two-door-navigation","trial_index":20,"time_elapsed":473101,"internal_node_id":"0.0-2.0-18.0"},{"group":"tri cycles (cube, non-group)","room_assignment":["green","blue","brown","yellow","grey","purple","pink","red"],"door_color_assignment":["white","black"],"door_generator_assignment":[1,0],"goal":5,"start":4,"action_noise":0.1,"location_history":"[4,7,3,7,6,5]","action_history":"[0,0,0,0,1]","door_history":"[1,1,1,1,0]","location_rts":"[926,311,264,244,1357]","trial_type":"two-door-navigation","trial_index":21,"time_elapsed":484797,"internal_node_id":"0.0-2.0-19.0"},{"group":"tri cycles (cube, non-group)","room_assignment":["green","blue","brown","yellow","grey","purple","pink","red"],"door_color_assignment":["white","black"],"door_generator_assignment":[1,0],"goal":7,"start":5,"action_noise":0.1,"location_history":"[5,1,5,1,0,2,1,5,1,0,2,1,0,3,7]","action_history":"[0,0,0,0,0,0,0,0,0,0,0,0,1,0]","door_history":"[1,1,1,1,1,1,1,1,1,1,1,1,0,1]","location_rts":"[4807,739,673,188,140,141,78,77,84,182,111,173,474,101]","trial_type":"two-door-navigation","trial_index":22,"time_elapsed":510512,"internal_node_id":"0.0-2.0-20.0"},{"group":"tri cycles (cube, non-group)","room_assignment":["green","blue","brown","yellow","grey","purple","pink","red"],"door_color_assignment":["white","black"],"door_generator_assignment":[1,0],"goal":2,"start":7,"action_noise":0.1,"location_history":"[7,3,7,6,4,7,6,4,0,2]","action_history":"[0,0,0,0,0,0,0,1,0]","door_history":"[1,1,1,1,1,1,1,0,1]","location_rts":"[621,125,149,109,76,67,1181,72,172]","trial_type":"two-door-navigation","trial_index":23,"time_elapsed":525747,"internal_node_id":"0.0-2.0-21.0"},{"group":"tri cycles (cube, non-group)","room_assignment":["green","blue","brown","yellow","grey","purple","pink","red"],"door_color_assignment":["white","black"],"door_generator_assignment":[1,0],"goal":0,"start":2,"action_noise":0.1,"location_history":"[2,6,4,7,6,4,7,6,4,7,3,7,6,4,0]","action_history":"[1,0,0,0,0,0,0,0,0,1,0,0,0,1]","door_history":"[0,1,1,1,1,1,1,1,1,0,1,1,1,0]","location_rts":"[2412,671,297,273,193,203,158,193,991,606,136,242,79,217]","trial_type":"two-door-navigation","trial_index":24,"time_elapsed":550163,"internal_node_id":"0.0-2.0-22.0"},{"group":"tri cycles (cube, non-group)","room_assignment":["green","blue","brown","yellow","grey","purple","pink","red"],"door_color_assignment":["white","black"],"door_generator_assignment":[1,0],"goal":7,"start":0,"action_noise":0.1,"location_history":"[0,2,1,0,3,7]","action_history":"[0,0,0,0,0]","door_history":"[1,1,1,1,1]","location_rts":"[4282,3416,289,376,227]","trial_type":"two-door-navigation","trial_index":25,"time_elapsed":567339,"internal_node_id":"0.0-2.0-23.0"},{"group":"tri cycles (cube, non-group)","room_assignment":["green","blue","brown","yellow","grey","purple","pink","red"],"door_color_assignment":["white","black"],"door_generator_assignment":[1,0],"goal":5,"start":7,"action_noise":0.1,"location_history":"[7,6,4,7,6,4,0,3,7,6,4,0,2,1,0,2,1,0,2,1,5]","action_history":"[0,0,0,0,0,0,0,0,0,0,0,0,0,0,0,0,0,0,0,1]","door_history":"[1,1,1,1,1,1,1,1,1,1,1,1,1,1,1,1,1,1,1,0]","location_rts":"[1203,1072,627,534,571,289,341,447,406,2022,523,404,93,145,174,187,30,129,31,124]","trial_type":"two-door-navigation","trial_index":26,"time_elapsed":600549,"internal_node_id":"0.0-2.0-24.0"},{"group":"tri cycles (cube, non-group)","room_assignment":["green","blue","brown","yellow","grey","purple","pink","red"],"door_color_assignment":["white","black"],"door_generator_assignment":[1,0],"goal":0,"start":5,"action_noise":0.1,"location_history":"[5,2,1,0]","action_history":"[0,0,0]","door_history":"[1,1,1]","location_rts":"[907,216,330]","trial_type":"two-door-navigation","trial_index":27,"time_elapsed":608564,"internal_node_id":"0.0-2.0-25.0"},{"group":"tri cycles (cube, non-group)","room_assignment":["green","blue","brown","yellow","grey","purple","pink","red"],"door_color_assignment":["white","black"],"door_generator_assignment":[1,0],"goal":6,"start":0,"action_noise":0.1,"location_history":"[0,2,1,0,3,7,6]","action_history":"[0,0,0,0,0,0]","door_history":"[1,1,1,1,1,1]","location_rts":"[1031,791,566,922,2446,1749]","trial_type":"two-door-navigation","trial_index":28,"time_elapsed":625679,"internal_node_id":"0.0-2.0-26.0"},{"group":"tri cycles (cube, non-group)","room_assignment":["green","blue","brown","yellow","grey","purple","pink","red"],"door_color_assignment":["white","black"],"door_generator_assignment":[1,0],"goal":4,"start":6,"action_noise":0.1,"location_history":"[6,4]","action_history":"[0]","door_history":"[1]","location_rts":"[5934]","trial_type":"two-door-navigation","trial_index":29,"time_elapsed":636134,"internal_node_id":"0.0-2.0-27.0"},{"group":"tri cycles (cube, non-group)","room_assignment":["green","blue","brown","yellow","grey","purple","pink","red"],"door_color_assignment":["white","black"],"door_generator_assignment":[1,0],"goal":2,"start":4,"action_noise":0.1,"location_history":"[4,7,6,4,0,2]","action_history":"[0,0,0,0,0]","door_history":"[1,1,1,1,1]","location_rts":"[1340,511,972,157,195]","trial_type":"two-door-navigation","trial_index":30,"time_elapsed":647903,"internal_node_id":"0.0-2.0-28.0"},{"group":"tri cycles (cube, non-group)","room_assignment":["green","blue","brown","yellow","grey","purple","pink","red"],"door_color_assignment":["white","black"],"door_generator_assignment":[1,0],"goal":3,"start":2,"action_noise":0.1,"location_history":"[2,1,0,2,6,4,7,6,4,0,2,1,0,2,1,0,2,1,5,1,5,1,0,2,6,4,7,6,4,7,3]","action_history":"[0,0,0,0,0,0,0,0,0,0,0,0,0,0,0,0,0,1,0,1,0,0,0,1,0,0,0,0,0,1]","door_history":"[1,1,1,1,1,1,1,1,1,1,1,1,1,1,1,1,1,0,1,0,1,1,1,0,1,1,1,1,1,0]","location_rts":"[2391,287,297,734,901,726,2331,245,605,273,280,244,221,266,509,889,375,341,292,272,296,68,16,290,220,209,194,379,405,343]","trial_type":"two-door-navigation","trial_index":31,"time_elapsed":696852,"internal_node_id":"0.0-2.0-29.0"},{"group":"tri cycles (cube, non-group)","room_assignment":["green","blue","brown","yellow","grey","purple","pink","red"],"door_color_assignment":["white","black"],"door_generator_assignment":[1,0],"goal":1,"start":3,"action_noise":0.1,"location_history":"[3,4,7,6,4,7,3,4,7,6,4,7,6,4,7,3,7,6,4,7,3,7,6,5,1]","action_history":"[0,0,0,0,0,0,0,0,0,0,0,0,0,0,0,0,0,0,0,0,1,0,1,0]","door_history":"[1,1,1,1,1,1,1,1,1,1,1,1,1,1,1,1,1,1,1,1,0,1,0,1]","location_rts":"[4005,203,180,494,532,414,101,208,44,337,397,141,235,70,105,127,94,108,99,286,225,223,1123,183]","trial_type":"two-door-navigation","trial_index":32,"time_elapsed":734711,"internal_node_id":"0.0-2.0-30.0"},{"group":"tri cycles (cube, non-group)","room_assignment":["green","blue","brown","yellow","grey","purple","pink","red"],"door_color_assignment":["white","black"],"door_generator_assignment":[1,0],"goal":4,"start":1,"action_noise":0.1,"location_history":"[1,5,1,5,1,0,2,1,0,2,1,0,2,1,0,2,1,0,2,6,4]","action_history":"[0,0,0,0,0,0,0,0,0,0,0,0,0,0,0,0,0,0,1,0]","door_history":"[1,1,1,1,1,1,1,1,1,1,1,1,1,1,1,1,1,1,0,1]","location_rts":"[1904,184,872,722,208,8,76,333,278,765,3318,360,434,382,536,358,643,117,1254,221]","trial_type":"two-door-navigation","trial_index":33,"time_elapsed":771549,"internal_node_id":"0.0-2.0-31.0"},{"group":"tri cycles (cube, non-group)","room_assignment":["green","blue","brown","yellow","grey","purple","pink","red"],"door_color_assignment":["white","black"],"door_generator_assignment":[1,0],"goal":3,"start":4,"action_noise":0.1,"location_history":"[4,7,6,4,7,6,4,0,2,6,5,2,6,5,1,5,2,1,5,2,6,5,2,6,5,2,1,0,2,1,5,2,1,0,2,6,4,0,2,6,4,7,6,4,7,6,4,7,6,4,7,6,4,0,2,1,5,1,0,2,1,0,2,1,5,2,1,0,2,1,0,2,1,5,1,5,1,0,3]","action_history":"[0,0,0,0,0,0,0,0,1,1,1,1,1,0,1,1,1,1,1,1,1,1,1,1,1,0,1,0,0,1,1,0,0,0,0,0,1,1,1,1,0,1,0,0,0,0,0,0,0,0,0,0,1,0,0,0,0,0,0,0,0,0,0,1,1,0,0,0,1,0,0,0,1,0,0,0,0,1]","door_history":"[1,1,1,1,1,1,1,1,0,0,0,0,0,1,0,0,0,0,0,0,0,0,0,0,0,1,0,1,1,0,0,1,1,1,1,1,0,0,0,0,1,0,1,1,1,1,1,1,1,1,1,1,0,1,1,1,1,1,1,1,1,1,1,0,0,1,1,1,0,1,1,1,0,1,1,1,1,0]","location_rts":"[6422,1990,2159,2746,657,290,551,287,209,174,171,164,84,217,48,148,187,30,1,88,52,110,45,168,14,45,84,275,86,601,125,447,711,227,126,14,267,160,149,211,237,114,265,121,50,49,115,287,15,236,108,220,150,7,185,112,127,84,298,1791,619,428,530,439,213,554,157,245,111,79,116,110,187,61,515,194,227,505]","trial_type":"two-door-navigation","trial_index":34,"time_elapsed":884828,"internal_node_id":"0.0-2.0-32.0"},{"group":"tri cycles (cube, non-group)","room_assignment":["green","blue","brown","yellow","grey","purple","pink","red"],"door_color_assignment":["white","black"],"door_generator_assignment":[1,0],"goal":6,"start":3,"action_noise":0.1,"location_history":"[3,7,6]","action_history":"[0,0]","door_history":"[1,1]","location_rts":"[1487,63]","trial_type":"two-door-navigation","trial_index":35,"time_elapsed":891917,"internal_node_id":"0.0-2.0-33.0"},{"group":"tri cycles (cube, non-group)","room_assignment":["green","blue","brown","yellow","grey","purple","pink","red"],"door_color_assignment":["white","black"],"door_generator_assignment":[1,0],"goal":0,"start":6,"action_noise":0.1,"location_history":"[6,4,7,6,5,1,0]","action_history":"[0,0,0,0,0,0]","door_history":"[1,1,1,1,1,1]","location_rts":"[2580,210,258,209,4396,201]","trial_type":"two-door-navigation","trial_index":36,"time_elapsed":909377,"internal_node_id":"0.0-2.0-34.0"},{"group":"tri cycles (cube, non-group)","room_assignment":["green","blue","brown","yellow","grey","purple","pink","red"],"door_color_assignment":["white","black"],"door_generator_assignment":[1,0],"goal":1,"start":0,"action_noise":0.1,"location_history":"[0,2,1]","action_history":"[0,0]","door_history":"[1,1]","location_rts":"[699,296]","trial_type":"two-door-navigation","trial_index":37,"time_elapsed":915912,"internal_node_id":"0.0-2.0-35.0"},{"group":"tri cycles (cube, non-group)","room_assignment":["green","blue","brown","yellow","grey","purple","pink","red"],"door_color_assignment":["white","black"],"door_generator_assignment":[1,0],"goal":5,"start":1,"action_noise":0.1,"location_history":"[1,0,2,1,5]","action_history":"[0,0,0,0]","door_history":"[1,1,1,1]","location_rts":"[1339,295,124,2028]","trial_type":"two-door-navigation","trial_index":38,"time_elapsed":927270,"internal_node_id":"0.0-2.0-36.0"},{"group":"tri cycles (cube, non-group)","room_assignment":["green","blue","brown","yellow","grey","purple","pink","red"],"door_color_assignment":["white","black"],"door_generator_assignment":[1,0],"goal":7,"start":5,"action_noise":0.1,"location_history":"[5,2,1,0,2,1,0,3,4,7]","action_history":"[0,0,0,0,0,0,0,0,0]","door_history":"[1,1,1,1,1,1,1,1,1]","location_rts":"[2173,93,335,565,152,217,226,371,180]","trial_type":"two-door-navigation","trial_index":39,"time_elapsed":944245,"internal_node_id":"0.0-2.0-37.0"},{"group":"tri cycles (cube, non-group)","room_assignment":["green","blue","brown","yellow","grey","purple","pink","red"],"door_color_assignment":["white","black"],"door_generator_assignment":[1,0],"goal":2,"start":7,"action_noise":0.1,"location_history":"[7,6,4,7,6,4,7,6,4,7,6,4,7,6,4,7,6,4,7,6,5,2]","action_history":"[0,0,0,0,0,0,0,0,0,0,0,0,0,0,1,0,0,0,0,1,1]","door_history":"[1,1,1,1,1,1,1,1,1,1,1,1,1,1,0,1,1,1,1,0,0]","location_rts":"[800,396,342,2077,397,227,101,199,375,53,352,310,546,212,132,188,47,53,162,330,62]","trial_type":"two-door-navigation","trial_index":40,"time_elapsed":976481,"internal_node_id":"0.0-2.0-38.0"},{"group":"tri cycles (cube, non-group)","room_assignment":["green","blue","brown","yellow","grey","purple","pink","red"],"door_color_assignment":["white","black"],"door_generator_assignment":[1,0],"goal":1,"start":2,"action_noise":0.1,"location_history":"[2,1]","action_history":"[0]","door_history":"[1]","location_rts":"[3849]","trial_type":"two-door-navigation","trial_index":41,"time_elapsed":984849,"internal_node_id":"0.0-2.0-39.0"},{"group":"tri cycles (cube, non-group)","room_assignment":["green","blue","brown","yellow","grey","purple","pink","red"],"door_color_assignment":["white","black"],"door_generator_assignment":[1,0],"goal":3,"start":1,"action_noise":0.1,"location_history":"[1,5,1,0,2,1,5,1,0,2,1,0,2,1,0,2,1,0,2,1,5,1,5,2,1,0,2,6,4,7,6,4,7,6,5,1,0,2,6,5,1,5,2,1,5,1,5,1,0,2,6,5,1,0,2,6,4,7,3]","action_history":"[0,0,0,0,0,0,0,0,0,0,0,0,0,0,0,0,0,0,0,1,0,1,1,1,0,0,1,0,0,0,0,0,0,1,0,0,0,1,1,0,1,1,0,1,0,1,0,0,0,1,1,0,0,0,1,0,0,1]","door_history":"[1,1,1,1,1,1,1,1,1,1,1,1,1,1,1,1,1,1,1,0,1,0,0,0,1,1,0,1,1,1,1,1,1,0,1,1,1,0,0,1,0,0,1,0,1,0,1,1,1,0,0,1,1,1,0,1,1,0]","location_rts":"[1297,623,3365,240,388,336,584,332,172,76,20602,689,6,90,85,40,380,223,198,374,400,189,101,226,221,220,309,337,205,357,9562,296,139,16,345,75,103,15,151,339,383,146,124,16,24,474,197,137,341,286,182,475,152,540,1518,3722,694,296]","trial_type":"two-door-navigation","trial_index":42,"time_elapsed":1100782,"internal_node_id":"0.0-2.0-40.0"},{"group":"tri cycles (cube, non-group)","room_assignment":["green","blue","brown","yellow","grey","purple","pink","red"],"door_color_assignment":["white","black"],"door_generator_assignment":[1,0],"goal":4,"start":3,"action_noise":0.1,"location_history":"[3,7,6,5,2,6,4]","action_history":"[0,0,0,1,1,0]","door_history":"[1,1,1,0,0,1]","location_rts":"[901,195,313,365,436,243]","trial_type":"two-door-navigation","trial_index":43,"time_elapsed":1112843,"internal_node_id":"0.0-2.0-41.0"},{"group":"tri cycles (cube, non-group)","room_assignment":["green","blue","brown","yellow","grey","purple","pink","red"],"door_color_assignment":["white","black"],"door_generator_assignment":[1,0],"goal":2,"start":4,"action_noise":0.1,"location_history":"[4,7,6,4,7,6,4,7,6,4,0,2]","action_history":"[0,0,0,0,0,0,0,0,0,1,0]","door_history":"[1,1,1,1,1,1,1,1,1,0,1]","location_rts":"[4905,669,5890,218,88,228,209,5221,128,43,98]","trial_type":"two-door-navigation","trial_index":44,"time_elapsed":1145474,"internal_node_id":"0.0-2.0-42.0"},{"group":"tri cycles (cube, non-group)","room_assignment":["green","blue","brown","yellow","grey","purple","pink","red"],"door_color_assignment":["white","black"],"door_generator_assignment":[1,0],"goal":5,"start":2,"action_noise":0.1,"location_history":"[2,1,5]","action_history":"[0,0]","door_history":"[1,1]","location_rts":"[808,686]","trial_type":"two-door-navigation","trial_index":45,"time_elapsed":1152505,"internal_node_id":"0.0-2.0-43.0"},{"group":"tri cycles (cube, non-group)","room_assignment":["green","blue","brown","yellow","grey","purple","pink","red"],"door_color_assignment":["white","black"],"door_generator_assignment":[1,0],"goal":0,"start":5,"action_noise":0.1,"location_history":"[5,1,0]","action_history":"[0,0]","door_history":"[1,1]","location_rts":"[471,4822]","trial_type":"two-door-navigation","trial_index":46,"time_elapsed":1163343,"internal_node_id":"0.0-2.0-44.0"},{"group":"tri cycles (cube, non-group)","room_assignment":["green","blue","brown","yellow","grey","purple","pink","red"],"door_color_assignment":["white","black"],"door_generator_assignment":[1,0],"goal":7,"start":0,"action_noise":0.1,"location_history":"[0,2,1,0,2,1,0,2,1,5,1,0,2,1,5,1,5,2,1,0,2,1,0,2,1,0,3,4,7]","action_history":"[0,0,0,0,0,0,0,0,1,0,0,0,0,1,0,1,1,0,0,0,0,0,0,0,0,1,1,0]","door_history":"[1,1,1,1,1,1,1,1,0,1,1,1,1,0,1,0,0,1,1,1,1,1,1,1,1,0,0,1]","location_rts":"[421,248,212,2916,184,517,249,229,350,226,313,8506,10,9,415,164,383,54,142,94,156,334,227,333,258,230,555,374]","trial_type":"two-door-navigation","trial_index":47,"time_elapsed":1213446,"internal_node_id":"0.0-2.0-45.0"},{"group":"tri cycles (cube, non-group)","room_assignment":["green","blue","brown","yellow","grey","purple","pink","red"],"door_color_assignment":["white","black"],"door_generator_assignment":[1,0],"goal":6,"start":7,"action_noise":0.1,"location_history":"[7,6]","action_history":"[0]","door_history":"[1]","location_rts":"[1069]","trial_type":"two-door-navigation","trial_index":48,"time_elapsed":1219034,"internal_node_id":"0.0-2.0-46.0"},{"group":"tri cycles (cube, non-group)","room_assignment":["green","blue","brown","yellow","grey","purple","pink","red"],"door_color_assignment":["white","black"],"door_generator_assignment":[1,0],"goal":2,"start":6,"action_noise":0.1,"location_history":"[6,4,7,6,4,7,6,4,7,3,7,6,5,2]","action_history":"[0,0,0,0,0,0,0,0,0,0,0,1,0]","door_history":"[1,1,1,1,1,1,1,1,1,1,1,0,1]","location_rts":"[760,16309,373,291,2075,1526,31,383,247,206,235,98,45]","trial_type":"two-door-navigation","trial_index":49,"time_elapsed":1258347,"internal_node_id":"0.0-2.0-47.0"},{"group":"tri cycles (cube, non-group)","room_assignment":["green","blue","brown","yellow","grey","purple","pink","red"],"door_color_assignment":["white","black"],"door_generator_assignment":[1,0],"goal":5,"start":2,"action_noise":0.1,"location_history":"[2,1,0,2,1,0,2,1,0,2,1,5]","action_history":"[0,0,0,0,0,0,0,0,1,0,0]","door_history":"[1,1,1,1,1,1,1,1,0,1,1]","location_rts":"[37551,262,278,1129,49,104,70,169,89,81,44]","trial_type":"two-door-navigation","trial_index":50,"time_elapsed":1312862,"internal_node_id":"0.0-2.0-48.0"},{"group":"tri cycles (cube, non-group)","room_assignment":["green","blue","brown","yellow","grey","purple","pink","red"],"door_color_assignment":["white","black"],"door_generator_assignment":[1,0],"goal":3,"start":5,"action_noise":0.1,"location_history":"[5,1,5,1,0,2,6,4,0,2,1,0,3]","action_history":"[0,0,0,0,0,1,0,0,0,0,0,1]","door_history":"[1,1,1,1,1,0,1,1,1,1,1,0]","location_rts":"[799,323,453,302,155,124,156,193,169,101,735,311]","trial_type":"two-door-navigation","trial_index":51,"time_elapsed":1332400,"internal_node_id":"0.0-2.0-49.0"},{"view_history":"[{\"page_index\":0,\"viewing_time\":1763}]","rt":1763,"trial_type":"instructions","trial_index":52,"time_elapsed":1335163,"internal_node_id":"0.0-3.0"},{"view_history":"[{\"page_index\":0,\"viewing_time\":11378},{\"page_index\":1,\"viewing_time\":3034}]","rt":14412,"trial_type":"instructions","trial_index":53,"time_elapsed":1350576,"internal_node_id":"0.0-4.0"},{"group":"tri cycles (cube, non-group)","fractal_assignment":["../images/ylw_slt.png","../images/pnk_blu.png","../images/org_blu.png","../images/ylw_pnk.png","../images/grn_red.png","../images/cyn_red.png","../images/gry_blk.png","../images/blu_wht.png"],"mutagen_generator_assignment":[0,1],"goal":5,"start":7,"action_noise":0.1,"location_history":"[7,3,4,7,6,4,0,3,4,0,3,7,3,4,0,3,4,7,3,4,0,3,7,3,4,0,2,6,4,0,3,4,0,3,4,0,2,1,0,2,6,4,7,6,5]","action_history":"[1,0,0,1,1,1,1,1,1,1,0,1,1,1,1,1,0,1,1,1,1,0,1,1,1,0,1,0,1,1,1,1,1,1,1,0,0,0,1,1,0,0,1,1]","mutagen_history":"[1,0,0,1,1,1,1,1,1,1,0,1,1,1,1,1,0,1,1,1,1,0,1,1,1,0,1,0,1,1,1,1,1,1,1,0,0,0,1,1,0,0,1,1]","location_rts":"[66737,141,172,327,196,199,167,225,271,52,1063,252,226,149,205,99,90,529,123,125,309,823,372,223,198,467,1881,1061,539,132,155,615,570,548,28,263,786,349,490,153,164,192,1107,116]","trial_type":"fractal-mutation","trial_index":54,"time_elapsed":1482090,"internal_node_id":"0.0-5.0-0.0"},{"group":"tri cycles (cube, non-group)","fractal_assignment":["../images/ylw_slt.png","../images/pnk_blu.png","../images/org_blu.png","../images/ylw_pnk.png","../images/grn_red.png","../images/cyn_red.png","../images/gry_blk.png","../images/blu_wht.png"],"mutagen_generator_assignment":[0,1],"goal":2,"start":5,"action_noise":0.1,"location_history":"[5,2]","action_history":"[1]","mutagen_history":"[1]","location_rts":"[1137]","trial_type":"fractal-mutation","trial_index":55,"time_elapsed":1487760,"internal_node_id":"0.0-5.0-1.0"},{"group":"tri cycles (cube, non-group)","fractal_assignment":["../images/ylw_slt.png","../images/pnk_blu.png","../images/org_blu.png","../images/ylw_pnk.png","../images/grn_red.png","../images/cyn_red.png","../images/gry_blk.png","../images/blu_wht.png"],"mutagen_generator_assignment":[0,1],"goal":0,"start":2,"action_noise":0.1,"location_history":"[2,1,5,2,1,5,2,1,5,2,1,5,2,6,4,0]","action_history":"[1,1,1,1,1,1,0,1,1,0,1,1,1,0,1]","mutagen_history":"[1,1,1,1,1,1,0,1,1,0,1,1,1,0,1]","location_rts":"[1236,191,288,394,345,347,267,168,140,208,220,171,240,430,260]","trial_type":"fractal-mutation","trial_index":56,"time_elapsed":1511564,"internal_node_id":"0.0-5.0-2.0"},{"group":"tri cycles (cube, non-group)","fractal_assignment":["../images/ylw_slt.png","../images/pnk_blu.png","../images/org_blu.png","../images/ylw_pnk.png","../images/grn_red.png","../images/cyn_red.png","../images/gry_blk.png","../images/blu_wht.png"],"mutagen_generator_assignment":[0,1],"goal":1,"start":0,"action_noise":0.1,"location_history":"[0,3,4,0,3,4,0,3,4,0,3,7,3,4,7,3,4,0,3,7,6,5,2,1]","action_history":"[1,1,1,1,1,1,1,0,1,1,1,1,1,0,1,1,1,1,1,1,1,1,0]","mutagen_history":"[1,1,1,1,1,1,1,0,1,1,1,1,1,0,1,1,1,1,1,1,1,1,0]","location_rts":"[702,313,157,241,71,69,68,62,246,177,216,70,100,91,89,36,142,773,248,507,462,1067,600]","trial_type":"fractal-mutation","trial_index":57,"time_elapsed":1545412,"internal_node_id":"0.0-5.0-3.0"},{"group":"tri cycles (cube, non-group)","fractal_assignment":["../images/ylw_slt.png","../images/pnk_blu.png","../images/org_blu.png","../images/ylw_pnk.png","../images/grn_red.png","../images/cyn_red.png","../images/gry_blk.png","../images/blu_wht.png"],"mutagen_generator_assignment":[0,1],"goal":6,"start":1,"action_noise":0.1,"location_history":"[1,5,2,6]","action_history":"[1,1,1]","mutagen_history":"[1,1,1]","location_rts":"[10191,294,137]","trial_type":"fractal-mutation","trial_index":58,"time_elapsed":1563618,"internal_node_id":"0.0-5.0-4.0"},{"group":"tri cycles (cube, non-group)","fractal_assignment":["../images/ylw_slt.png","../images/pnk_blu.png","../images/org_blu.png","../images/ylw_pnk.png","../images/grn_red.png","../images/cyn_red.png","../images/gry_blk.png","../images/blu_wht.png"],"mutagen_generator_assignment":[0,1],"goal":3,"start":6,"action_noise":0.1,"location_history":"[6,5,2,1,5,1,5,2,6,5,2,6,5,2,6,5,2,6,4,0,2,6,5,2,6,4,0,3]","action_history":"[1,1,1,1,1,1,1,1,1,1,1,1,1,0,1,1,1,1,1,0,1,1,1,1,1,1,1]","mutagen_history":"[1,1,1,1,1,1,1,1,1,1,1,1,1,0,1,1,1,1,1,0,1,1,1,1,1,1,1]","location_rts":"[1323,216,3267,351,304,163,208,179,88,148,196,290,491,235,317,307,1000,216,69,117,333,146,79,141,247,140,736]","trial_type":"fractal-mutation","trial_index":59,"time_elapsed":1606116,"internal_node_id":"0.0-5.0-5.0"},{"group":"tri cycles (cube, non-group)","fractal_assignment":["../images/ylw_slt.png","../images/pnk_blu.png","../images/org_blu.png","../images/ylw_pnk.png","../images/grn_red.png","../images/cyn_red.png","../images/gry_blk.png","../images/blu_wht.png"],"mutagen_generator_assignment":[0,1],"goal":4,"start":3,"action_noise":0.1,"location_history":"[3,4]","action_history":"[1]","mutagen_history":"[1]","location_rts":"[552]","trial_type":"fractal-mutation","trial_index":60,"time_elapsed":1611201,"internal_node_id":"0.0-5.0-6.0"},{"group":"tri cycles (cube, non-group)","fractal_assignment":["../images/ylw_slt.png","../images/pnk_blu.png","../images/org_blu.png","../images/ylw_pnk.png","../images/grn_red.png","../images/cyn_red.png","../images/gry_blk.png","../images/blu_wht.png"],"mutagen_generator_assignment":[0,1],"goal":1,"start":4,"action_noise":0.1,"location_history":"[4,7,3,4,0,3,4,0,2,6,4,0,3,7,3,4,7,3,4,0,3,4,0,3,4,0,2,6,5,2,6,5,2,1]","action_history":"[1,1,1,1,1,1,1,0,1,0,1,1,1,1,1,0,1,1,1,1,1,1,1,1,1,0,1,1,1,1,1,1,0]","mutagen_history":"[1,1,1,1,1,1,1,0,1,0,1,1,1,1,1,0,1,1,1,1,1,1,1,1,1,0,1,1,1,1,1,1,0]","location_rts":"[568,265,170,267,325,243,141,875,112,446,857,47946,194,221,238,185,217,312,865,366,421,356,954,601,265,173,255,19412,298,298,243,422,297]","trial_type":"fractal-mutation","trial_index":61,"time_elapsed":1727333,"internal_node_id":"0.0-5.0-7.0"},{"group":"tri cycles (cube, non-group)","fractal_assignment":["../images/ylw_slt.png","../images/pnk_blu.png","../images/org_blu.png","../images/ylw_pnk.png","../images/grn_red.png","../images/cyn_red.png","../images/gry_blk.png","../images/blu_wht.png"],"mutagen_generator_assignment":[0,1],"goal":4,"start":1,"action_noise":0.1,"location_history":"[1,5,1,5,2,6,5,2,6,5,1,5,2,6,5,1,5,2,6,5,2,6,5,2,6,5,2,6,5,1,5,2,6,5,2,6,4]","action_history":"[1,1,1,1,1,1,1,1,1,0,1,1,1,0,1,1,1,1,1,1,1,1,1,1,1,1,1,1,0,1,1,1,1,1,1,0]","mutagen_history":"[1,1,1,1,1,1,1,1,1,0,1,1,1,0,1,1,1,1,1,1,1,1,1,1,1,1,1,1,0,1,1,1,1,1,1,0]","location_rts":"[14703,294,570,115,226,295,218,447,423,428,252,248,281,809,710,293,92,154,103,4906,316,123,421,123,144,124,773,1165,390,26,107,368,234,29,250,131]","trial_type":"fractal-mutation","trial_index":62,"time_elapsed":1798043,"internal_node_id":"0.0-5.0-8.0"},{"group":"tri cycles (cube, non-group)","fractal_assignment":["../images/ylw_slt.png","../images/pnk_blu.png","../images/org_blu.png","../images/ylw_pnk.png","../images/grn_red.png","../images/cyn_red.png","../images/gry_blk.png","../images/blu_wht.png"],"mutagen_generator_assignment":[0,1],"goal":5,"start":4,"action_noise":0.1,"location_history":"[4,0,3,4,7,3,4,0,3,7,3,7,3,4,0,3,4,0,3,4,0,3,4,0,3,4,7,6,5]","action_history":"[1,1,1,1,1,1,1,1,0,1,1,1,1,1,1,1,1,1,1,1,1,1,1,1,1,0,0,1]","mutagen_history":"[1,1,1,1,1,1,1,1,0,1,1,1,1,1,1,1,1,1,1,1,1,1,1,1,1,0,0,1]","location_rts":"[852,3333,3711,1756,31968,1619,3063,314,1382,264,217,48,178,360,1013,58,1315,1249,983,203,524,709,275,571,58,55,139,312]","trial_type":"fractal-mutation","trial_index":63,"time_elapsed":1886778,"internal_node_id":"0.0-5.0-9.0"},{"group":"tri cycles (cube, non-group)","fractal_assignment":["../images/ylw_slt.png","../images/pnk_blu.png","../images/org_blu.png","../images/ylw_pnk.png","../images/grn_red.png","../images/cyn_red.png","../images/gry_blk.png","../images/blu_wht.png"],"mutagen_generator_assignment":[0,1],"goal":3,"start":5,"action_noise":0.1,"location_history":"[5,2,6,5,1,5,2,6,5,2,6,4,0,2,6,5,1,0,3]","action_history":"[1,1,1,1,1,1,1,1,1,1,1,1,1,1,1,0,1,1]","mutagen_history":"[1,1,1,1,1,1,1,1,1,1,1,1,1,1,1,0,1,1]","location_rts":"[445,211,343,16191,202,178,2043,1202,601,62,230,258,228,325,3571,2195,270,440]","trial_type":"fractal-mutation","trial_index":64,"time_elapsed":1937744,"internal_node_id":"0.0-5.0-10.0"},{"group":"tri cycles (cube, non-group)","fractal_assignment":["../images/ylw_slt.png","../images/pnk_blu.png","../images/org_blu.png","../images/ylw_pnk.png","../images/grn_red.png","../images/cyn_red.png","../images/gry_blk.png","../images/blu_wht.png"],"mutagen_generator_assignment":[0,1],"goal":6,"start":3,"action_noise":0.1,"location_history":"[3,4,0,3,4,7,3,4,0,3,4,0,2,6]","action_history":"[1,1,1,1,0,1,1,1,1,1,1,0,1]","mutagen_history":"[1,1,1,1,0,1,1,1,1,1,1,0,1]","location_rts":"[1672,398,616,467,836,196,496,400,1235,642,1038,334,277]","trial_type":"fractal-mutation","trial_index":65,"time_elapsed":1963184,"internal_node_id":"0.0-5.0-11.0"},{"group":"tri cycles (cube, non-group)","fractal_assignment":["../images/ylw_slt.png","../images/pnk_blu.png","../images/org_blu.png","../images/ylw_pnk.png","../images/grn_red.png","../images/cyn_red.png","../images/gry_blk.png","../images/blu_wht.png"],"mutagen_generator_assignment":[0,1],"goal":7,"start":6,"action_noise":0.1,"location_history":"[6,5,2,6,5,2,6,5,2,1,0,2,1,5,2,6,5,2,6,5,1,5,2,6,5,2,6,5,2,6,5,2,1,0,3,4,0,3,4,0,3,4,0,3,4,0,3,4,0,3,4,0,3,4,0,2,1,0,3,7]","action_history":"[1,1,1,1,1,1,0,1,1,0,0,0,1,1,1,1,1,1,1,1,1,1,1,1,1,1,1,1,1,1,1,1,1,1,1,1,1,1,1,1,1,1,1,1,1,1,1,1,1,1,1,1,1,1,0,0,0,1,1]","mutagen_history":"[1,1,1,1,1,1,0,1,1,0,0,0,1,1,1,1,1,1,1,1,1,1,1,1,1,1,1,1,1,1,1,1,1,1,1,1,1,1,1,1,1,1,1,1,1,1,1,1,1,1,1,1,1,1,0,0,0,1,1]","location_rts":"[842,5124,481,434,6192,1111,337,449,1156,2142,708,835,810,227,2032,469,398,775,1131,893,249,508,375,383,962,1736,442,6876,4896,2510,2857,3599,2191,1297,1905,6617,4056,1581,163,419,3502,2047,950,259,501,935,1524,11387,952,1990,2029,2134,617,1868,169,804,518,255,191]","trial_type":"fractal-mutation","trial_index":66,"time_elapsed":2129956,"internal_node_id":"0.0-5.0-12.0"},{"group":"tri cycles (cube, non-group)","fractal_assignment":["../images/ylw_slt.png","../images/pnk_blu.png","../images/org_blu.png","../images/ylw_pnk.png","../images/grn_red.png","../images/cyn_red.png","../images/gry_blk.png","../images/blu_wht.png"],"mutagen_generator_assignment":[0,1],"goal":0,"start":7,"action_noise":0.1,"location_history":"[7,3,4,7,6,4,7,3,4,0]","action_history":"[1,1,0,1,1,0,1,1,1]","mutagen_history":"[1,1,0,1,1,0,1,1,1]","location_rts":"[8084,338,241,176,100,452,528,163,488]","trial_type":"fractal-mutation","trial_index":67,"time_elapsed":2153250,"internal_node_id":"0.0-5.0-13.0"},{"group":"tri cycles (cube, non-group)","fractal_assignment":["../images/ylw_slt.png","../images/pnk_blu.png","../images/org_blu.png","../images/ylw_pnk.png","../images/grn_red.png","../images/cyn_red.png","../images/gry_blk.png","../images/blu_wht.png"],"mutagen_generator_assignment":[0,1],"goal":2,"start":0,"action_noise":0.1,"location_history":"[0,3,4,0,3,7,3,4,0,3,4,7,3,4,7,3,4,7,3,4,0,3,7,3,4,7,3,7,3,7,3,4,0,2]","action_history":"[1,1,1,1,1,1,1,1,1,1,1,1,1,1,1,1,0,1,1,1,1,1,1,1,1,1,0,1,1,1,1,0,0]","mutagen_history":"[1,1,1,1,1,1,1,1,1,1,1,1,1,1,1,1,0,1,1,1,1,1,1,1,1,1,0,1,1,1,1,0,0]","location_rts":"[4654,924,272,1664,2884,2117,3147,2587,1788,508,1639,760,41173,288,552,791,286,264,301,1016,621,548,320,29,1694,617,171,958,153,269,459,234,308]","trial_type":"fractal-mutation","trial_index":68,"time_elapsed":2264585,"internal_node_id":"0.0-5.0-14.0"},{"group":"tri cycles (cube, non-group)","fractal_assignment":["../images/ylw_slt.png","../images/pnk_blu.png","../images/org_blu.png","../images/ylw_pnk.png","../images/grn_red.png","../images/cyn_red.png","../images/gry_blk.png","../images/blu_wht.png"],"mutagen_generator_assignment":[0,1],"goal":1,"start":2,"action_noise":0.1,"location_history":"[2,6,5,2,6,5,2,1]","action_history":"[1,1,1,1,1,1,0]","mutagen_history":"[1,1,1,1,1,1,0]","location_rts":"[2649,490,509,569,661,4603,662]","trial_type":"fractal-mutation","trial_index":69,"time_elapsed":2286234,"internal_node_id":"0.0-5.0-15.0"},{"group":"tri cycles (cube, non-group)","fractal_assignment":["../images/ylw_slt.png","../images/pnk_blu.png","../images/org_blu.png","../images/ylw_pnk.png","../images/grn_red.png","../images/cyn_red.png","../images/gry_blk.png","../images/blu_wht.png"],"mutagen_generator_assignment":[0,1],"goal":6,"start":1,"action_noise":0.1,"location_history":"[1,5,2,6]","action_history":"[1,1,1]","mutagen_history":"[1,1,1]","location_rts":"[827,2878,26928]","trial_type":"fractal-mutation","trial_index":70,"time_elapsed":2323450,"internal_node_id":"0.0-5.0-16.0"},{"group":"tri cycles (cube, non-group)","fractal_assignment":["../images/ylw_slt.png","../images/pnk_blu.png","../images/org_blu.png","../images/ylw_pnk.png","../images/grn_red.png","../images/cyn_red.png","../images/gry_blk.png","../images/blu_wht.png"],"mutagen_generator_assignment":[0,1],"goal":3,"start":6,"action_noise":0.1,"location_history":"[6,5,1,0,3]","action_history":"[1,1,0,1]","mutagen_history":"[1,1,0,1]","location_rts":"[857,230,310,192]","trial_type":"fractal-mutation","trial_index":71,"time_elapsed":2332638,"internal_node_id":"0.0-5.0-17.0"},{"group":"tri cycles (cube, non-group)","fractal_assignment":["../images/ylw_slt.png","../images/pnk_blu.png","../images/org_blu.png","../images/ylw_pnk.png","../images/grn_red.png","../images/cyn_red.png","../images/gry_blk.png","../images/blu_wht.png"],"mutagen_generator_assignment":[0,1],"goal":4,"start":3,"action_noise":0.1,"location_history":"[3,4]","action_history":"[1]","mutagen_history":"[1]","location_rts":"[349]","trial_type":"fractal-mutation","trial_index":72,"time_elapsed":2337519,"internal_node_id":"0.0-5.0-18.0"},{"group":"tri cycles (cube, non-group)","fractal_assignment":["../images/ylw_slt.png","../images/pnk_blu.png","../images/org_blu.png","../images/ylw_pnk.png","../images/grn_red.png","../images/cyn_red.png","../images/gry_blk.png","../images/blu_wht.png"],"mutagen_generator_assignment":[0,1],"goal":5,"start":4,"action_noise":0.1,"location_history":"[4,0,3,4,0,3,4,0,3,4,0,2,1,0,3,4,0,3,4,0,3,4,0,3,7,3,4,0,3,4,7,6,5]","action_history":"[1,1,1,1,1,1,1,1,1,1,1,0,1,1,1,1,1,1,1,1,1,1,1,1,1,1,1,1,1,1,0,1]","mutagen_history":"[1,1,1,1,1,1,1,1,1,1,1,0,1,1,1,1,1,1,1,1,1,1,1,1,1,1,1,1,1,1,0,1]","location_rts":"[1018,2837,978,2317,521,2631,842,3403,1945,1491,1169,366,80,218,303,5408,568,2048,1594,1053,225,319,3808,911,770,82,1587,7412,708,655,2725,796]","trial_type":"fractal-mutation","trial_index":73,"time_elapsed":2424655,"internal_node_id":"0.0-5.0-19.0"},{"group":"tri cycles (cube, non-group)","fractal_assignment":["../images/ylw_slt.png","../images/pnk_blu.png","../images/org_blu.png","../images/ylw_pnk.png","../images/grn_red.png","../images/cyn_red.png","../images/gry_blk.png","../images/blu_wht.png"],"mutagen_generator_assignment":[0,1],"goal":7,"start":5,"action_noise":0.1,"location_history":"[5,2,6,5,2,6,4,0,3,4,7]","action_history":"[1,1,1,0,1,1,1,1,1,1]","mutagen_history":"[1,1,1,0,1,1,1,1,1,1]","location_rts":"[890,3416,408,383,1246,303,142,639,2862,444]","trial_type":"fractal-mutation","trial_index":74,"time_elapsed":2449148,"internal_node_id":"0.0-5.0-20.0"},{"group":"tri cycles (cube, non-group)","fractal_assignment":["../images/ylw_slt.png","../images/pnk_blu.png","../images/org_blu.png","../images/ylw_pnk.png","../images/grn_red.png","../images/cyn_red.png","../images/gry_blk.png","../images/blu_wht.png"],"mutagen_generator_assignment":[0,1],"goal":2,"start":7,"action_noise":0.1,"location_history":"[7,3,4,0,3,7,3,7,6,5,2]","action_history":"[1,1,1,1,0,1,1,1,1,1]","mutagen_history":"[1,1,1,1,0,1,1,1,1,1]","location_rts":"[1045,274,38,164,539,216,116,1093,55,237]","trial_type":"fractal-mutation","trial_index":75,"time_elapsed":2466674,"internal_node_id":"0.0-5.0-21.0"},{"group":"tri cycles (cube, non-group)","fractal_assignment":["../images/ylw_slt.png","../images/pnk_blu.png","../images/org_blu.png","../images/ylw_pnk.png","../images/grn_red.png","../images/cyn_red.png","../images/gry_blk.png","../images/blu_wht.png"],"mutagen_generator_assignment":[0,1],"goal":0,"start":2,"action_noise":0.1,"location_history":"[2,6,4,0]","action_history":"[1,1,1]","mutagen_history":"[1,1,1]","location_rts":"[1211,1336,1281]","trial_type":"fractal-mutation","trial_index":76,"time_elapsed":2477081,"internal_node_id":"0.0-5.0-22.0"},{"group":"tri cycles (cube, non-group)","fractal_assignment":["../images/ylw_slt.png","../images/pnk_blu.png","../images/org_blu.png","../images/ylw_pnk.png","../images/grn_red.png","../images/cyn_red.png","../images/gry_blk.png","../images/blu_wht.png"],"mutagen_generator_assignment":[0,1],"goal":7,"start":0,"action_noise":0.1,"location_history":"[0,2,6,5,1,5,1,0,3,7]","action_history":"[1,1,1,1,1,0,1,1,1]","mutagen_history":"[1,1,1,1,1,0,1,1,1]","location_rts":"[650,383,390,1573,273,344,247,69,84]","trial_type":"fractal-mutation","trial_index":77,"time_elapsed":2493822,"internal_node_id":"0.0-5.0-23.0"},{"group":"tri cycles (cube, non-group)","fractal_assignment":["../images/ylw_slt.png","../images/pnk_blu.png","../images/org_blu.png","../images/ylw_pnk.png","../images/grn_red.png","../images/cyn_red.png","../images/gry_blk.png","../images/blu_wht.png"],"mutagen_generator_assignment":[0,1],"goal":5,"start":7,"action_noise":0.1,"location_history":"[7,3,4,0,3,7,3,4,0,3,4,0,3,4,0,3,4,0,3,4,0,3,4,0,2,6,4,7,3,4,0,2,6,5]","action_history":"[1,1,1,1,0,1,1,1,1,1,0,1,1,1,1,1,1,1,1,1,1,1,1,1,1,1,0,1,1,1,1,1,1]","mutagen_history":"[1,1,1,1,0,1,1,1,1,1,0,1,1,1,1,1,1,1,1,1,1,1,1,1,1,1,0,1,1,1,1,1,1]","location_rts":"[782,212,170,180,289,175,180,305,305,306,514,225,560,1820,586,391,435,242,107,84,187,743,296,279,187,169,194,370,540,565,710,281,169]","trial_type":"fractal-mutation","trial_index":78,"time_elapsed":2543713,"internal_node_id":"0.0-5.0-24.0"},{"group":"tri cycles (cube, non-group)","fractal_assignment":["../images/ylw_slt.png","../images/pnk_blu.png","../images/org_blu.png","../images/ylw_pnk.png","../images/grn_red.png","../images/cyn_red.png","../images/gry_blk.png","../images/blu_wht.png"],"mutagen_generator_assignment":[0,1],"goal":0,"start":5,"action_noise":0.1,"location_history":"[5,2,6,5,2,6,5,2,6,5,1,0]","action_history":"[1,1,1,1,1,1,1,1,1,1,1]","mutagen_history":"[1,1,1,1,1,1,1,1,1,1,1]","location_rts":"[550,1039,2366,568,451,403,750,1488,475,102,93]","trial_type":"fractal-mutation","trial_index":79,"time_elapsed":2566789,"internal_node_id":"0.0-5.0-25.0"},{"group":"tri cycles (cube, non-group)","fractal_assignment":["../images/ylw_slt.png","../images/pnk_blu.png","../images/org_blu.png","../images/ylw_pnk.png","../images/grn_red.png","../images/cyn_red.png","../images/gry_blk.png","../images/blu_wht.png"],"mutagen_generator_assignment":[0,1],"goal":6,"start":0,"action_noise":0.1,"location_history":"[0,3,4,7,6]","action_history":"[1,1,1,0]","mutagen_history":"[1,1,1,0]","location_rts":"[764,171,413,193]","trial_type":"fractal-mutation","trial_index":80,"time_elapsed":2575934,"internal_node_id":"0.0-5.0-26.0"},{"group":"tri cycles (cube, non-group)","fractal_assignment":["../images/ylw_slt.png","../images/pnk_blu.png","../images/org_blu.png","../images/ylw_pnk.png","../images/grn_red.png","../images/cyn_red.png","../images/gry_blk.png","../images/blu_wht.png"],"mutagen_generator_assignment":[0,1],"goal":4,"start":6,"action_noise":0.1,"location_history":"[6,5,2,6,5,1,5,2,6,5,2,6,5,2,1,5,2,6,5,1,5,2,6,5,1,5,2,6,5,1,5,2,6,5,2,6,5,2,6,4]","action_history":"[1,1,1,1,0,1,1,1,1,1,1,1,1,0,1,1,1,1,1,1,1,1,1,1,1,1,1,1,1,1,1,1,0,1,1,1,1,1,0]","mutagen_history":"[1,1,1,1,0,1,1,1,1,1,1,1,1,0,1,1,1,1,1,1,1,1,1,1,1,1,1,1,1,1,1,1,0,1,1,1,1,1,0]","location_rts":"[834,498,352,710,386,961,3460,359,312,594,336,1494,905,548,230,288,135,144,85,646,441,2635,2531,562,924,591,163,297,201,108,186,517,328,130,154,178,108,319,20]","trial_type":"fractal-mutation","trial_index":81,"time_elapsed":2643094,"internal_node_id":"0.0-5.0-27.0"},{"group":"tri cycles (cube, non-group)","fractal_assignment":["../images/ylw_slt.png","../images/pnk_blu.png","../images/org_blu.png","../images/ylw_pnk.png","../images/grn_red.png","../images/cyn_red.png","../images/gry_blk.png","../images/blu_wht.png"],"mutagen_generator_assignment":[0,1],"goal":2,"start":4,"action_noise":0.1,"location_history":"[4,7,6,5,2]","action_history":"[0,0,0,1]","mutagen_history":"[0,0,0,1]","location_rts":"[1114,464,413,178]","trial_type":"fractal-mutation","trial_index":82,"time_elapsed":2652851,"internal_node_id":"0.0-5.0-28.0"},{"group":"tri cycles (cube, non-group)","fractal_assignment":["../images/ylw_slt.png","../images/pnk_blu.png","../images/org_blu.png","../images/ylw_pnk.png","../images/grn_red.png","../images/cyn_red.png","../images/gry_blk.png","../images/blu_wht.png"],"mutagen_generator_assignment":[0,1],"goal":3,"start":2,"action_noise":0.1,"location_history":"[2,6,5,2,1,5,2,1,5,2,6,5,2,6,5,2,6,4,0,3]","action_history":"[1,1,1,0,1,1,1,1,1,1,1,1,1,1,1,1,1,0,1]","mutagen_history":"[1,1,1,0,1,1,1,1,1,1,1,1,1,1,1,1,1,0,1]","location_rts":"[619,85,194,123,129,146,121,133,77,288,756,249,211,103,297,148,194,174,183]","trial_type":"fractal-mutation","trial_index":83,"time_elapsed":2680059,"internal_node_id":"0.0-5.0-29.0"},{"group":"tri cycles (cube, non-group)","fractal_assignment":["../images/ylw_slt.png","../images/pnk_blu.png","../images/org_blu.png","../images/ylw_pnk.png","../images/grn_red.png","../images/cyn_red.png","../images/gry_blk.png","../images/blu_wht.png"],"mutagen_generator_assignment":[0,1],"goal":1,"start":3,"action_noise":0.1,"location_history":"[3,4,0,3,4,0,2,6,4,7,6,5,1]","action_history":"[1,1,1,1,1,0,1,0,0,0,0,0]","mutagen_history":"[1,1,1,1,1,0,1,0,0,0,0,0]","location_rts":"[1044,73,180,329,193,656,303,721,178,105,380,263]","trial_type":"fractal-mutation","trial_index":84,"time_elapsed":2700266,"internal_node_id":"0.0-5.0-30.0"},{"group":"tri cycles (cube, non-group)","fractal_assignment":["../images/ylw_slt.png","../images/pnk_blu.png","../images/org_blu.png","../images/ylw_pnk.png","../images/grn_red.png","../images/cyn_red.png","../images/gry_blk.png","../images/blu_wht.png"],"mutagen_generator_assignment":[0,1],"goal":4,"start":1,"action_noise":0.1,"location_history":"[1,5,1,5,2,6,5,2,6,5,2,1,5,2,6,5,2,6,5,2,6,5,2,6,5,2,6,5,2,1,5,2,6,4]","action_history":"[1,0,1,1,1,1,1,1,1,1,0,1,1,1,1,1,1,1,1,1,1,1,1,1,1,1,1,1,0,1,1,1,1]","mutagen_history":"[1,0,1,1,1,1,1,1,1,1,0,1,1,1,1,1,1,1,1,1,1,1,1,1,1,1,1,1,0,1,1,1,1]","location_rts":"[1367,84,741,233,163,360,210,144,93,164,257,202,140,177,682,492,172,803,686,351,625,1445,716,1619,852,1614,1053,238,166,233,105,93,147]","trial_type":"fractal-mutation","trial_index":85,"time_elapsed":2754045,"internal_node_id":"0.0-5.0-31.0"},{"group":"tri cycles (cube, non-group)","fractal_assignment":["../images/ylw_slt.png","../images/pnk_blu.png","../images/org_blu.png","../images/ylw_pnk.png","../images/grn_red.png","../images/cyn_red.png","../images/gry_blk.png","../images/blu_wht.png"],"mutagen_generator_assignment":[0,1],"goal":3,"start":4,"action_noise":0.1,"location_history":"[4,0,3]","action_history":"[1,1]","mutagen_history":"[1,1]","location_rts":"[671,84]","trial_type":"fractal-mutation","trial_index":86,"time_elapsed":2760357,"internal_node_id":"0.0-5.0-32.0"},{"group":"tri cycles (cube, non-group)","fractal_assignment":["../images/ylw_slt.png","../images/pnk_blu.png","../images/org_blu.png","../images/ylw_pnk.png","../images/grn_red.png","../images/cyn_red.png","../images/gry_blk.png","../images/blu_wht.png"],"mutagen_generator_assignment":[0,1],"goal":6,"start":3,"action_noise":0.1,"location_history":"[3,4,0,3,4,0,3,4,0,3,4,7,6]","action_history":"[1,1,1,1,1,1,1,1,1,1,1,0]","mutagen_history":"[1,1,1,1,1,1,1,1,1,1,1,0]","location_rts":"[545,1336,333,218,116,568,193,115,11,179,501,107]","trial_type":"fractal-mutation","trial_index":87,"time_elapsed":2780391,"internal_node_id":"0.0-5.0-33.0"},{"group":"tri cycles (cube, non-group)","fractal_assignment":["../images/ylw_slt.png","../images/pnk_blu.png","../images/org_blu.png","../images/ylw_pnk.png","../images/grn_red.png","../images/cyn_red.png","../images/gry_blk.png","../images/blu_wht.png"],"mutagen_generator_assignment":[0,1],"goal":0,"start":6,"action_noise":0.1,"location_history":"[6,5,2,6,5,2,1,0]","action_history":"[1,1,1,1,1,1,0]","mutagen_history":"[1,1,1,1,1,1,0]","location_rts":"[5818,380,279,177,206,118,169]","trial_type":"fractal-mutation","trial_index":88,"time_elapsed":2798231,"internal_node_id":"0.0-5.0-34.0"},{"group":"tri cycles (cube, non-group)","fractal_assignment":["../images/ylw_slt.png","../images/pnk_blu.png","../images/org_blu.png","../images/ylw_pnk.png","../images/grn_red.png","../images/cyn_red.png","../images/gry_blk.png","../images/blu_wht.png"],"mutagen_generator_assignment":[0,1],"goal":1,"start":0,"action_noise":0.1,"location_history":"[0,2,6,5,2,1]","action_history":"[1,1,1,1,0]","mutagen_history":"[1,1,1,1,0]","location_rts":"[713,641,304,271,216]","trial_type":"fractal-mutation","trial_index":89,"time_elapsed":2809005,"internal_node_id":"0.0-5.0-35.0"},{"group":"tri cycles (cube, non-group)","fractal_assignment":["../images/ylw_slt.png","../images/pnk_blu.png","../images/org_blu.png","../images/ylw_pnk.png","../images/grn_red.png","../images/cyn_red.png","../images/gry_blk.png","../images/blu_wht.png"],"mutagen_generator_assignment":[0,1],"goal":5,"start":1,"action_noise":0.1,"location_history":"[1,5]","action_history":"[1]","mutagen_history":"[1]","location_rts":"[2222]","trial_type":"fractal-mutation","trial_index":90,"time_elapsed":2815755,"internal_node_id":"0.0-5.0-36.0"},{"group":"tri cycles (cube, non-group)","fractal_assignment":["../images/ylw_slt.png","../images/pnk_blu.png","../images/org_blu.png","../images/ylw_pnk.png","../images/grn_red.png","../images/cyn_red.png","../images/gry_blk.png","../images/blu_wht.png"],"mutagen_generator_assignment":[0,1],"goal":7,"start":5,"action_noise":0.1,"location_history":"[5,1,5,2,6,5,2,6,5,2,6,5,2,6,5,2,6,5,2,1,5,1,5,2,6,4,0,3,7]","action_history":"[0,1,1,1,1,1,1,1,1,1,1,1,1,1,1,1,1,1,1,1,0,1,1,1,1,1,1,1]","mutagen_history":"[0,1,1,1,1,1,1,1,1,1,1,1,1,1,1,1,1,1,1,1,0,1,1,1,1,1,1,1]","location_rts":"[877,590,48,577,89,163,373,99,812,547,838,684,861,223,194,421,201,268,329,428,140,191,108,233,154,621,163,353]","trial_type":"fractal-mutation","trial_index":91,"time_elapsed":2858559,"internal_node_id":"0.0-5.0-37.0"},{"group":"tri cycles (cube, non-group)","fractal_assignment":["../images/ylw_slt.png","../images/pnk_blu.png","../images/org_blu.png","../images/ylw_pnk.png","../images/grn_red.png","../images/cyn_red.png","../images/gry_blk.png","../images/blu_wht.png"],"mutagen_generator_assignment":[0,1],"goal":2,"start":7,"action_noise":0.1,"location_history":"[7,3,4,0,2]","action_history":"[1,1,1,0]","mutagen_history":"[1,1,1,0]","location_rts":"[17995,93,31,88]","trial_type":"fractal-mutation","trial_index":92,"time_elapsed":2885217,"internal_node_id":"0.0-5.0-38.0"},{"group":"tri cycles (cube, non-group)","fractal_assignment":["../images/ylw_slt.png","../images/pnk_blu.png","../images/org_blu.png","../images/ylw_pnk.png","../images/grn_red.png","../images/cyn_red.png","../images/gry_blk.png","../images/blu_wht.png"],"mutagen_generator_assignment":[0,1],"goal":1,"start":2,"action_noise":0.1,"location_history":"[2,1]","action_history":"[0]","mutagen_history":"[0]","location_rts":"[1034]","trial_type":"fractal-mutation","trial_index":93,"time_elapsed":2890775,"internal_node_id":"0.0-5.0-39.0"},{"group":"tri cycles (cube, non-group)","fractal_assignment":["../images/ylw_slt.png","../images/pnk_blu.png","../images/org_blu.png","../images/ylw_pnk.png","../images/grn_red.png","../images/cyn_red.png","../images/gry_blk.png","../images/blu_wht.png"],"mutagen_generator_assignment":[0,1],"goal":3,"start":1,"action_noise":0.1,"location_history":"[1,0,3]","action_history":"[1,1]","mutagen_history":"[1,1]","location_rts":"[1018,154]","trial_type":"fractal-mutation","trial_index":94,"time_elapsed":2897500,"internal_node_id":"0.0-5.0-40.0"},{"group":"tri cycles (cube, non-group)","fractal_assignment":["../images/ylw_slt.png","../images/pnk_blu.png","../images/org_blu.png","../images/ylw_pnk.png","../images/grn_red.png","../images/cyn_red.png","../images/gry_blk.png","../images/blu_wht.png"],"mutagen_generator_assignment":[0,1],"goal":4,"start":3,"action_noise":0.1,"location_history":"[3,4]","action_history":"[1]","mutagen_history":"[1]","location_rts":"[6471]","trial_type":"fractal-mutation","trial_index":95,"time_elapsed":2908501,"internal_node_id":"0.0-5.0-41.0"},{"group":"tri cycles (cube, non-group)","fractal_assignment":["../images/ylw_slt.png","../images/pnk_blu.png","../images/org_blu.png","../images/ylw_pnk.png","../images/grn_red.png","../images/cyn_red.png","../images/gry_blk.png","../images/blu_wht.png"],"mutagen_generator_assignment":[0,1],"goal":2,"start":4,"action_noise":0.1,"location_history":"[4,0,3,4,0,3,4,0,3,7,3,4,0,3,4,0,2]","action_history":"[1,1,1,1,1,1,1,1,0,1,1,1,1,1,1,0]","mutagen_history":"[1,1,1,1,1,1,1,1,0,1,1,1,1,1,1,0]","location_rts":"[1688,166,184,85,106,124,334,139,199,228,37,500,139,177,183,98]","trial_type":"fractal-mutation","trial_index":96,"time_elapsed":2932816,"internal_node_id":"0.0-5.0-42.0"},{"group":"tri cycles (cube, non-group)","fractal_assignment":["../images/ylw_slt.png","../images/pnk_blu.png","../images/org_blu.png","../images/ylw_pnk.png","../images/grn_red.png","../images/cyn_red.png","../images/gry_blk.png","../images/blu_wht.png"],"mutagen_generator_assignment":[0,1],"goal":5,"start":2,"action_noise":0.1,"location_history":"[2,6,5]","action_history":"[1,1]","mutagen_history":"[1,1]","location_rts":"[818,412]","trial_type":"fractal-mutation","trial_index":97,"time_elapsed":2939607,"internal_node_id":"0.0-5.0-43.0"},{"group":"tri cycles (cube, non-group)","fractal_assignment":["../images/ylw_slt.png","../images/pnk_blu.png","../images/org_blu.png","../images/ylw_pnk.png","../images/grn_red.png","../images/cyn_red.png","../images/gry_blk.png","../images/blu_wht.png"],"mutagen_generator_assignment":[0,1],"goal":0,"start":5,"action_noise":0.1,"location_history":"[5,2,6,5,2,6,5,2,6,4,0]","action_history":"[1,1,1,1,1,1,1,1,0,1]","mutagen_history":"[1,1,1,1,1,1,1,1,0,1]","location_rts":"[631,196,185,194,128,215,179,192,214,355]","trial_type":"fractal-mutation","trial_index":98,"time_elapsed":2955860,"internal_node_id":"0.0-5.0-44.0"},{"group":"tri cycles (cube, non-group)","fractal_assignment":["../images/ylw_slt.png","../images/pnk_blu.png","../images/org_blu.png","../images/ylw_pnk.png","../images/grn_red.png","../images/cyn_red.png","../images/gry_blk.png","../images/blu_wht.png"],"mutagen_generator_assignment":[0,1],"goal":7,"start":0,"action_noise":0.1,"location_history":"[0,3,4,0,3,4,0,2,6,5,2,6,5,1,5,1,0,3,4,0,3,4,0,3,7]","action_history":"[1,1,1,1,1,1,1,1,1,1,1,1,0,1,1,1,1,1,1,1,1,1,1,1]","mutagen_history":"[1,1,1,1,1,1,1,1,1,1,1,1,0,1,1,1,1,1,1,1,1,1,1,1]","location_rts":"[804,109,445,2803,553,607,608,703,891,194,107,883,117,177,28,485,329,363,228,375,1955,279,232,618]","trial_type":"fractal-mutation","trial_index":99,"time_elapsed":2997868,"internal_node_id":"0.0-5.0-45.0"},{"group":"tri cycles (cube, non-group)","fractal_assignment":["../images/ylw_slt.png","../images/pnk_blu.png","../images/org_blu.png","../images/ylw_pnk.png","../images/grn_red.png","../images/cyn_red.png","../images/gry_blk.png","../images/blu_wht.png"],"mutagen_generator_assignment":[0,1],"goal":6,"start":7,"action_noise":0.1,"location_history":"[7,3,7,3,7,3,4,0,3,4,7,3,4,7,3,7,3,4,0,2,6]","action_history":"[1,1,1,1,1,1,1,1,1,0,1,1,1,1,1,1,1,1,1,1]","mutagen_history":"[1,1,1,1,1,1,1,1,1,0,1,1,1,1,1,1,1,1,1,1]","location_rts":"[572,484,264,679,124,180,541,359,365,193,1089,485,24,588,906,295,132,626,207,168]","trial_type":"fractal-mutation","trial_index":100,"time_elapsed":3030169,"internal_node_id":"0.0-5.0-46.0"},{"group":"tri cycles (cube, non-group)","fractal_assignment":["../images/ylw_slt.png","../images/pnk_blu.png","../images/org_blu.png","../images/ylw_pnk.png","../images/grn_red.png","../images/cyn_red.png","../images/gry_blk.png","../images/blu_wht.png"],"mutagen_generator_assignment":[0,1],"goal":2,"start":6,"action_noise":0.1,"location_history":"[6,5,2]","action_history":"[1,1]","mutagen_history":"[1,1]","location_rts":"[2895,226]","trial_type":"fractal-mutation","trial_index":101,"time_elapsed":3038847,"internal_node_id":"0.0-5.0-47.0"},{"group":"tri cycles (cube, non-group)","fractal_assignment":["../images/ylw_slt.png","../images/pnk_blu.png","../images/org_blu.png","../images/ylw_pnk.png","../images/grn_red.png","../images/cyn_red.png","../images/gry_blk.png","../images/blu_wht.png"],"mutagen_generator_assignment":[0,1],"goal":5,"start":2,"action_noise":0.1,"location_history":"[2,6,5]","action_history":"[1,1]","mutagen_history":"[1,1]","location_rts":"[810,349]","trial_type":"fractal-mutation","trial_index":102,"time_elapsed":3045563,"internal_node_id":"0.0-5.0-48.0"},{"group":"tri cycles (cube, non-group)","fractal_assignment":["../images/ylw_slt.png","../images/pnk_blu.png","../images/org_blu.png","../images/ylw_pnk.png","../images/grn_red.png","../images/cyn_red.png","../images/gry_blk.png","../images/blu_wht.png"],"mutagen_generator_assignment":[0,1],"goal":3,"start":5,"action_noise":0.1,"location_history":"[5,2,6,5,2,6,5,2,1,5,2,6,5,2,6,5,2,6,5,2,6,5,2,6,5,1,5,2,6,5,2,1,5,2,6,4,0,3]","action_history":"[1,1,1,1,1,1,1,1,1,1,1,1,1,1,1,1,1,1,1,1,1,1,1,1,1,1,1,1,1,1,1,1,1,1,1,1,1]","mutagen_history":"[1,1,1,1,1,1,1,1,1,1,1,1,1,1,1,1,1,1,1,1,1,1,1,1,1,1,1,1,1,1,1,1,1,1,1,1,1]","location_rts":"[636,164,147,128,132,84,147,160,250,228,2135,804,584,678,170,5012,3516,452,251,79,498,328,1017,275,406,398,1047,216,820,302,140,2816,649,1828,531,1587,2117]","trial_type":"fractal-mutation","trial_index":103,"time_elapsed":3117766,"internal_node_id":"0.0-5.0-49.0"},{"view_history":"[{\"page_index\":0,\"viewing_time\":1229}]","rt":1230,"trial_type":"instructions","trial_index":104,"time_elapsed":3119997,"internal_node_id":"0.0-6.0"},{"rt":15578,"responses":"{\"Q0\":\"How quickly someone can learn to navigate that group of rooms over 3 days.\"}","trial_type":"survey-text","trial_index":105,"time_elapsed":3136579,"internal_node_id":"0.0-7.0-0.0"},{"rt":70188,"responses":"{\"Q0\":\"How quickly someone could figure out how to create the items requested over 3 days.\"}","trial_type":"survey-text","trial_index":106,"time_elapsed":3207770,"internal_node_id":"0.0-7.0-1.0"},{"rt":18727,"responses":"{\"Q0\":\"<img src='../images/diagrams/tri_cycles.png'>\"}","trial_type":"survey-multi-choice","trial_index":107,"time_elapsed":3227502,"internal_node_id":"0.0-7.0-2.0"},{"rt":55647,"assignments":["../images/cyn_red.png","../images/org_blu.png","../images/ylw_pnk.png","../images/gry_blk.png","../images/pnk_blu.png","../images/grn_red.png","../images/ylw_slt.png","../images/blu_wht.png"],"trial_type":"drag-drop-on-image","trial_index":108,"time_elapsed":3284151,"internal_node_id":"0.0-7.0-3.0"},{"rt":4550,"responses":"{\"Q0\":\"3\"}","trial_type":"survey-likert","trial_index":109,"time_elapsed":3289704,"internal_node_id":"0.0-7.0-4.0"},{"rt":16745,"responses":"{\"Q0\":\"It's the same basic navigation task from what I see. \"}","trial_type":"survey-text","trial_index":110,"time_elapsed":3307451,"internal_node_id":"0.0-7.0-5.0"},{"rt":4033,"responses":"{\"Q0\":\"Yes\"}","trial_type":"survey-multi-choice","trial_index":111,"time_elapsed":3312487,"internal_node_id":"0.0-7.0-6.0"},{"rt":13957,"responses":"{\"Q0\":\"Between sessions 1 and 2\"}","trial_type":"survey-multi-choice","trial_index":112,"time_elapsed":3327450,"internal_node_id":"0.0-7.0-7.0"},{"rt":7612,"responses":"{\"Q0\":\"\"}","trial_type":"survey-text","trial_index":113,"time_elapsed":3336064,"internal_node_id":"0.0-7.0-8.0"},{"rt":7677,"responses":"{\"Q0\":\"0\"}","trial_type":"survey-likert","trial_index":114,"time_elapsed":3344743,"internal_node_id":"0.0-7.0-9.0"},{"rt":17358,"responses":"{\"Q0\":\"Same structure\"}","trial_type":"survey-multi-choice","trial_index":115,"time_elapsed":3363105,"internal_node_id":"0.0-7.0-10.0"},{"rt":9674,"responses":"{\"Q0\":\"left (white) door = ray, (black) door = acid\",\"Q1\":\"Not at all confident\"}","trial_type":"survey-multi-choice","trial_index":116,"time_elapsed":3373784,"internal_node_id":"0.0-7.0-11.0"},{"rt":8239,"responses":"{\"Q0\":\"25-35\",\"Q1\":\"Some college\",\"Q2\":\"Female\",\"Q3\":\"White\"}","trial_type":"survey-multi-choice","trial_index":117,"time_elapsed":3383035,"internal_node_id":"0.0-8.0"},{"rt":2182,"responses":"{\"Q0\":\"\"}","trial_type":"survey-text","trial_index":118,"time_elapsed":3386219,"internal_node_id":"0.0-9.0"}]