[{"view_history":"[{\"page_index\":0,\"viewing_time\":3127},{\"page_index\":1,\"viewing_time\":8796}]","rt":11924,"trial_type":"instructions","trial_index":0,"time_elapsed":11925,"internal_node_id":"0.0-0.0"},{"view_history":"[{\"page_index\":0,\"viewing_time\":1416},{\"page_index\":1,\"viewing_time\":5971}]","rt":7387,"trial_type":"instructions","trial_index":1,"time_elapsed":20316,"internal_node_id":"0.0-1.0"},{"group":"square cycles (cube, non-group)","room_assignment":["yellow","brown","grey","red","pink","blue","purple","green"],"door_color_assignment":["white","black"],"door_generator_assignment":[1,0],"goal":5,"start":7,"action_noise":0.1,"location_history":"[7,3,2,3,0,4,7,3,2,6,7,6,5]","action_history":"[1,1,0,0,0,0,1,1,1,1,0,0]","door_history":"[0,0,1,1,1,1,0,0,0,0,1,1]","location_rts":"[1465,365,638,463,641,1178,1029,230,1884,891,1181,658]","trial_type":"two-door-navigation","trial_index":2,"time_elapsed":46742,"internal_node_id":"0.0-2.0-0.0"},{"group":"square cycles (cube, non-group)","room_assignment":["yellow","brown","grey","red","pink","blue","purple","green"],"door_color_assignment":["white","black"],"door_generator_assignment":[1,0],"goal":2,"start":5,"action_noise":0.1,"location_history":"[5,1,2]","action_history":"[1,0]","door_history":"[0,1]","location_rts":"[791,451]","trial_type":"two-door-navigation","trial_index":3,"time_elapsed":53528,"internal_node_id":"0.0-2.0-1.0"},{"group":"square cycles (cube, non-group)","room_assignment":["yellow","brown","grey","red","pink","blue","purple","green"],"door_color_assignment":["white","black"],"door_generator_assignment":[1,0],"goal":0,"start":2,"action_noise":0.1,"location_history":"[2,6,7,3,2,3,0]","action_history":"[0,1,1,1,0,0]","door_history":"[1,0,0,0,1,1]","location_rts":"[664,65,330,659,393,451]","trial_type":"two-door-navigation","trial_index":4,"time_elapsed":65728,"internal_node_id":"0.0-2.0-2.0"},{"group":"square cycles (cube, non-group)","room_assignment":["yellow","brown","grey","red","pink","blue","purple","green"],"door_color_assignment":["white","black"],"door_generator_assignment":[1,0],"goal":1,"start":0,"action_noise":0.1,"location_history":"[0,1]","action_history":"[0]","door_history":"[1]","location_rts":"[713]","trial_type":"two-door-navigation","trial_index":5,"time_elapsed":70981,"internal_node_id":"0.0-2.0-3.0"},{"group":"square cycles (cube, non-group)","room_assignment":["yellow","brown","grey","red","pink","blue","purple","green"],"door_color_assignment":["white","black"],"door_generator_assignment":[1,0],"goal":6,"start":1,"action_noise":0.1,"location_history":"[1,0,4,7,6]","action_history":"[1,1,0,0]","door_history":"[0,0,1,1]","location_rts":"[471,118,425,1174]","trial_type":"two-door-navigation","trial_index":6,"time_elapsed":80768,"internal_node_id":"0.0-2.0-4.0"},{"group":"square cycles (cube, non-group)","room_assignment":["yellow","brown","grey","red","pink","blue","purple","green"],"door_color_assignment":["white","black"],"door_generator_assignment":[1,0],"goal":3,"start":6,"action_noise":0.1,"location_history":"[6,7,3]","action_history":"[1,1]","door_history":"[0,0]","location_rts":"[1260,400]","trial_type":"two-door-navigation","trial_index":7,"time_elapsed":87978,"internal_node_id":"0.0-2.0-5.0"},{"group":"square cycles (cube, non-group)","room_assignment":["yellow","brown","grey","red","pink","blue","purple","green"],"door_color_assignment":["white","black"],"door_generator_assignment":[1,0],"goal":4,"start":3,"action_noise":0.1,"location_history":"[3,0,4]","action_history":"[0,1]","door_history":"[1,0]","location_rts":"[2612,414]","trial_type":"two-door-navigation","trial_index":8,"time_elapsed":96555,"internal_node_id":"0.0-2.0-6.0"},{"group":"square cycles (cube, non-group)","room_assignment":["yellow","brown","grey","red","pink","blue","purple","green"],"door_color_assignment":["white","black"],"door_generator_assignment":[1,0],"goal":1,"start":4,"action_noise":0.1,"location_history":"[4,7,6,5,4,7,6,7,3,0,4,7,6,5,4,7,3,0,1]","action_history":"[0,0,0,0,1,1,1,1,0,1,0,0,0,0,0,1,0,0]","door_history":"[1,1,1,1,0,0,0,0,1,0,1,1,1,1,1,0,1,1]","location_rts":"[1528,381,440,1072,498,440,1607,593,781,637,945,464,1253,825,1826,1200,842,1280]","trial_type":"two-door-navigation","trial_index":9,"time_elapsed":135089,"internal_node_id":"0.0-2.0-7.0"},{"group":"square cycles (cube, non-group)","room_assignment":["yellow","brown","grey","red","pink","blue","purple","green"],"door_color_assignment":["white","black"],"door_generator_assignment":[1,0],"goal":4,"start":1,"action_noise":0.1,"location_history":"[1,0,1,0,4]","action_history":"[1,0,1,1]","door_history":"[0,1,0,0]","location_rts":"[703,1770,1365,568]","trial_type":"two-door-navigation","trial_index":10,"time_elapsed":147101,"internal_node_id":"0.0-2.0-8.0"},{"group":"square cycles (cube, non-group)","room_assignment":["yellow","brown","grey","red","pink","blue","purple","green"],"door_color_assignment":["white","black"],"door_generator_assignment":[1,0],"goal":5,"start":4,"action_noise":0.1,"location_history":"[4,5]","action_history":"[1]","door_history":"[0]","location_rts":"[703]","trial_type":"two-door-navigation","trial_index":11,"time_elapsed":152324,"internal_node_id":"0.0-2.0-9.0"},{"group":"square cycles (cube, non-group)","room_assignment":["yellow","brown","grey","red","pink","blue","purple","green"],"door_color_assignment":["white","black"],"door_generator_assignment":[1,0],"goal":3,"start":5,"action_noise":0.1,"location_history":"[5,1,2,3]","action_history":"[0,0,0]","door_history":"[1,1,1]","location_rts":"[802,485,1041]","trial_type":"two-door-navigation","trial_index":12,"time_elapsed":161232,"internal_node_id":"0.0-2.0-10.0"},{"group":"square cycles (cube, non-group)","room_assignment":["yellow","brown","grey","red","pink","blue","purple","green"],"door_color_assignment":["white","black"],"door_generator_assignment":[1,0],"goal":6,"start":3,"action_noise":0.1,"location_history":"[3,2,3,0,1,0,4,5,4,5,1,0,4,7,6]","action_history":"[1,0,0,0,1,1,1,0,1,1,1,1,0,0]","door_history":"[0,1,1,1,0,0,0,1,0,0,0,0,1,1]","location_rts":"[297,784,483,761,728,775,1085,2235,797,760,1598,1268,453,995]","trial_type":"two-door-navigation","trial_index":13,"time_elapsed":192082,"internal_node_id":"0.0-2.0-11.0"},{"group":"square cycles (cube, non-group)","room_assignment":["yellow","brown","grey","red","pink","blue","purple","green"],"door_color_assignment":["white","black"],"door_generator_assignment":[1,0],"goal":7,"start":6,"action_noise":0.1,"location_history":"[6,7]","action_history":"[1]","door_history":"[0]","location_rts":"[942]","trial_type":"two-door-navigation","trial_index":14,"time_elapsed":197550,"internal_node_id":"0.0-2.0-12.0"},{"group":"square cycles (cube, non-group)","room_assignment":["yellow","brown","grey","red","pink","blue","purple","green"],"door_color_assignment":["white","black"],"door_generator_assignment":[1,0],"goal":0,"start":7,"action_noise":0.1,"location_history":"[7,6,5,1,2,3,0]","action_history":"[0,0,1,0,0,0]","door_history":"[1,1,0,1,1,1]","location_rts":"[2460,506,994,1012,793,970]","trial_type":"two-door-navigation","trial_index":15,"time_elapsed":213925,"internal_node_id":"0.0-2.0-13.0"},{"group":"square cycles (cube, non-group)","room_assignment":["yellow","brown","grey","red","pink","blue","purple","green"],"door_color_assignment":["white","black"],"door_generator_assignment":[1,0],"goal":2,"start":0,"action_noise":0.1,"location_history":"[0,1,2]","action_history":"[0,0]","door_history":"[1,1]","location_rts":"[477,531]","trial_type":"two-door-navigation","trial_index":16,"time_elapsed":220491,"internal_node_id":"0.0-2.0-14.0"},{"group":"square cycles (cube, non-group)","room_assignment":["yellow","brown","grey","red","pink","blue","purple","green"],"door_color_assignment":["white","black"],"door_generator_assignment":[1,0],"goal":1,"start":2,"action_noise":0.1,"location_history":"[2,3,0,4,7,6,5,4,7,6,7,3,2,6,5,1]","action_history":"[0,1,0,0,0,0,0,1,0,1,1,1,1,0,0]","door_history":"[1,0,1,1,1,1,1,0,1,0,0,0,0,1,1]","location_rts":"[675,758,1151,390,430,1695,973,475,790,1400,626,558,982,1333,560]","trial_type":"two-door-navigation","trial_index":17,"time_elapsed":252102,"internal_node_id":"0.0-2.0-15.0"},{"group":"square cycles (cube, non-group)","room_assignment":["yellow","brown","grey","red","pink","blue","purple","green"],"door_color_assignment":["white","black"],"door_generator_assignment":[1,0],"goal":6,"start":1,"action_noise":0.1,"location_history":"[1,0,4,7,3,2,3,0,1,2,6]","action_history":"[1,0,0,0,1,0,0,0,0,1]","door_history":"[0,1,1,1,0,1,1,1,1,0]","location_rts":"[828,338,449,978,748,490,558,458,911,1618]","trial_type":"two-door-navigation","trial_index":18,"time_elapsed":273204,"internal_node_id":"0.0-2.0-16.0"},{"group":"square cycles (cube, non-group)","room_assignment":["yellow","brown","grey","red","pink","blue","purple","green"],"door_color_assignment":["white","black"],"door_generator_assignment":[1,0],"goal":3,"start":6,"action_noise":0.1,"location_history":"[6,7,3]","action_history":"[1,1]","door_history":"[0,0]","location_rts":"[1239,966]","trial_type":"two-door-navigation","trial_index":19,"time_elapsed":280956,"internal_node_id":"0.0-2.0-17.0"},{"group":"square cycles (cube, non-group)","room_assignment":["yellow","brown","grey","red","pink","blue","purple","green"],"door_color_assignment":["white","black"],"door_generator_assignment":[1,0],"goal":4,"start":3,"action_noise":0.1,"location_history":"[3,0,4]","action_history":"[0,1]","door_history":"[1,0]","location_rts":"[1181,342]","trial_type":"two-door-navigation","trial_index":20,"time_elapsed":288027,"internal_node_id":"0.0-2.0-18.0"},{"group":"square cycles (cube, non-group)","room_assignment":["yellow","brown","grey","red","pink","blue","purple","green"],"door_color_assignment":["white","black"],"door_generator_assignment":[1,0],"goal":5,"start":4,"action_noise":0.1,"location_history":"[4,7,6,7,3,2,6,7,6,5]","action_history":"[0,0,1,1,1,1,1,0,0]","door_history":"[1,1,0,0,0,0,0,1,1]","location_rts":"[841,1348,508,1236,1119,668,941,942,572]","trial_type":"two-door-navigation","trial_index":21,"time_elapsed":308902,"internal_node_id":"0.0-2.0-19.0"},{"group":"square cycles (cube, non-group)","room_assignment":["yellow","brown","grey","red","pink","blue","purple","green"],"door_color_assignment":["white","black"],"door_generator_assignment":[1,0],"goal":7,"start":5,"action_noise":0.1,"location_history":"[5,4,5,1,0,1,0,1,2,3,0,1,0,4,5,4,5,4,7]","action_history":"[0,1,1,1,1,1,0,0,0,0,0,0,1,1,1,1,0,0]","door_history":"[1,0,0,0,0,0,1,1,1,1,1,1,0,0,0,0,1,1]","location_rts":"[1055,399,1021,617,969,519,410,390,564,618,1342,1160,1186,557,1007,584,955,432]","trial_type":"two-door-navigation","trial_index":22,"time_elapsed":344622,"internal_node_id":"0.0-2.0-20.0"},{"group":"square cycles (cube, non-group)","room_assignment":["yellow","brown","grey","red","pink","blue","purple","green"],"door_color_assignment":["white","black"],"door_generator_assignment":[1,0],"goal":2,"start":7,"action_noise":0.1,"location_history":"[7,6,5,1,2]","action_history":"[0,0,1,1]","door_history":"[1,1,0,0]","location_rts":"[686,462,931,386]","trial_type":"two-door-navigation","trial_index":23,"time_elapsed":354674,"internal_node_id":"0.0-2.0-21.0"},{"group":"square cycles (cube, non-group)","room_assignment":["yellow","brown","grey","red","pink","blue","purple","green"],"door_color_assignment":["white","black"],"door_generator_assignment":[1,0],"goal":0,"start":2,"action_noise":0.1,"location_history":"[2,6,5,1,0]","action_history":"[1,0,1,1]","door_history":"[0,1,0,0]","location_rts":"[636,658,1383,704]","trial_type":"two-door-navigation","trial_index":24,"time_elapsed":365649,"internal_node_id":"0.0-2.0-22.0"},{"group":"square cycles (cube, non-group)","room_assignment":["yellow","brown","grey","red","pink","blue","purple","green"],"door_color_assignment":["white","black"],"door_generator_assignment":[1,0],"goal":7,"start":0,"action_noise":0.1,"location_history":"[0,1,0,4,5,4,7]","action_history":"[0,1,1,1,0,0]","door_history":"[1,0,0,0,1,1]","location_rts":"[561,466,360,503,975,527]","trial_type":"two-door-navigation","trial_index":25,"time_elapsed":378687,"internal_node_id":"0.0-2.0-23.0"},{"group":"square cycles (cube, non-group)","room_assignment":["yellow","brown","grey","red","pink","blue","purple","green"],"door_color_assignment":["white","black"],"door_generator_assignment":[1,0],"goal":5,"start":7,"action_noise":0.1,"location_history":"[7,6,5]","action_history":"[0,1]","door_history":"[1,0]","location_rts":"[1260,887]","trial_type":"two-door-navigation","trial_index":26,"time_elapsed":386390,"internal_node_id":"0.0-2.0-24.0"},{"group":"square cycles (cube, non-group)","room_assignment":["yellow","brown","grey","red","pink","blue","purple","green"],"door_color_assignment":["white","black"],"door_generator_assignment":[1,0],"goal":0,"start":5,"action_noise":0.1,"location_history":"[5,4,7,3,2,6,5,4,5,1,0]","action_history":"[0,0,1,1,1,0,0,1,1,1]","door_history":"[1,1,0,0,0,1,1,0,0,0]","location_rts":"[400,548,595,632,861,1144,541,1120,782,602]","trial_type":"two-door-navigation","trial_index":27,"time_elapsed":407346,"internal_node_id":"0.0-2.0-25.0"},{"group":"square cycles (cube, non-group)","room_assignment":["yellow","brown","grey","red","pink","blue","purple","green"],"door_color_assignment":["white","black"],"door_generator_assignment":[1,0],"goal":6,"start":0,"action_noise":0.1,"location_history":"[0,1,2,6]","action_history":"[0,0,1]","door_history":"[1,1,0]","location_rts":"[386,866,563]","trial_type":"two-door-navigation","trial_index":28,"time_elapsed":415735,"internal_node_id":"0.0-2.0-26.0"},{"group":"square cycles (cube, non-group)","room_assignment":["yellow","brown","grey","red","pink","blue","purple","green"],"door_color_assignment":["white","black"],"door_generator_assignment":[1,0],"goal":4,"start":6,"action_noise":0.1,"location_history":"[6,5,4]","action_history":"[0,0]","door_history":"[1,1]","location_rts":"[1612,672]","trial_type":"two-door-navigation","trial_index":29,"time_elapsed":423567,"internal_node_id":"0.0-2.0-27.0"},{"group":"square cycles (cube, non-group)","room_assignment":["yellow","brown","grey","red","pink","blue","purple","green"],"door_color_assignment":["white","black"],"door_generator_assignment":[1,0],"goal":2,"start":4,"action_noise":0.1,"location_history":"[4,7,6,5,4,7,6,7,3,2]","action_history":"[1,0,0,0,0,0,1,1,1]","door_history":"[0,1,1,1,1,1,0,0,0]","location_rts":"[895,621,527,639,701,838,903,511,502]","trial_type":"two-door-navigation","trial_index":30,"time_elapsed":442415,"internal_node_id":"0.0-2.0-28.0"},{"group":"square cycles (cube, non-group)","room_assignment":["yellow","brown","grey","red","pink","blue","purple","green"],"door_color_assignment":["white","black"],"door_generator_assignment":[1,0],"goal":3,"start":2,"action_noise":0.1,"location_history":"[2,3]","action_history":"[0]","door_history":"[1]","location_rts":"[734]","trial_type":"two-door-navigation","trial_index":31,"time_elapsed":447675,"internal_node_id":"0.0-2.0-29.0"},{"group":"square cycles (cube, non-group)","room_assignment":["yellow","brown","grey","red","pink","blue","purple","green"],"door_color_assignment":["white","black"],"door_generator_assignment":[1,0],"goal":1,"start":3,"action_noise":0.1,"location_history":"[3,0,4,5,1]","action_history":"[0,1,1,0]","door_history":"[1,0,0,1]","location_rts":"[381,887,606,1123]","trial_type":"two-door-navigation","trial_index":32,"time_elapsed":458261,"internal_node_id":"0.0-2.0-30.0"},{"group":"square cycles (cube, non-group)","room_assignment":["yellow","brown","grey","red","pink","blue","purple","green"],"door_color_assignment":["white","black"],"door_generator_assignment":[1,0],"goal":4,"start":1,"action_noise":0.1,"location_history":"[1,2,3,2,6,5,4]","action_history":"[0,1,1,1,0,1]","door_history":"[1,0,0,0,1,0]","location_rts":"[466,1977,1442,491,492,982]","trial_type":"two-door-navigation","trial_index":33,"time_elapsed":473746,"internal_node_id":"0.0-2.0-31.0"},{"group":"square cycles (cube, non-group)","room_assignment":["yellow","brown","grey","red","pink","blue","purple","green"],"door_color_assignment":["white","black"],"door_generator_assignment":[1,0],"goal":3,"start":4,"action_noise":0.1,"location_history":"[4,5,4,7,3]","action_history":"[1,0,0,1]","door_history":"[0,1,1,0]","location_rts":"[934,42,540,578]","trial_type":"two-door-navigation","trial_index":34,"time_elapsed":483431,"internal_node_id":"0.0-2.0-32.0"},{"group":"square cycles (cube, non-group)","room_assignment":["yellow","brown","grey","red","pink","blue","purple","green"],"door_color_assignment":["white","black"],"door_generator_assignment":[1,0],"goal":6,"start":3,"action_noise":0.1,"location_history":"[3,2,3,2,6]","action_history":"[1,0,1,1]","door_history":"[0,1,0,0]","location_rts":"[2063,455,657,428]","trial_type":"two-door-navigation","trial_index":35,"time_elapsed":494624,"internal_node_id":"0.0-2.0-33.0"},{"group":"square cycles (cube, non-group)","room_assignment":["yellow","brown","grey","red","pink","blue","purple","green"],"door_color_assignment":["white","black"],"door_generator_assignment":[1,0],"goal":0,"start":6,"action_noise":0.1,"location_history":"[6,5,4,7,3,2,3,0]","action_history":"[0,0,1,1,1,0,0]","door_history":"[1,1,0,0,0,1,1]","location_rts":"[825,427,895,394,605,754,412]","trial_type":"two-door-navigation","trial_index":36,"time_elapsed":509589,"internal_node_id":"0.0-2.0-34.0"},{"group":"square cycles (cube, non-group)","room_assignment":["yellow","brown","grey","red","pink","blue","purple","green"],"door_color_assignment":["white","black"],"door_generator_assignment":[1,0],"goal":1,"start":0,"action_noise":0.1,"location_history":"[0,1]","action_history":"[0]","door_history":"[1]","location_rts":"[406]","trial_type":"two-door-navigation","trial_index":37,"time_elapsed":514518,"internal_node_id":"0.0-2.0-35.0"},{"group":"square cycles (cube, non-group)","room_assignment":["yellow","brown","grey","red","pink","blue","purple","green"],"door_color_assignment":["white","black"],"door_generator_assignment":[1,0],"goal":5,"start":1,"action_noise":0.1,"location_history":"[1,0,1,2,3,2,6,5]","action_history":"[1,0,0,0,1,1,1]","door_history":"[0,1,1,1,0,0,0]","location_rts":"[613,322,355,1575,761,541,701]","trial_type":"two-door-navigation","trial_index":38,"time_elapsed":530046,"internal_node_id":"0.0-2.0-36.0"},{"group":"square cycles (cube, non-group)","room_assignment":["yellow","brown","grey","red","pink","blue","purple","green"],"door_color_assignment":["white","black"],"door_generator_assignment":[1,0],"goal":7,"start":5,"action_noise":0.1,"location_history":"[5,4,5,1,2,3,0,4,5,4,5,4,7]","action_history":"[0,1,1,0,0,0,1,1,1,1,0,0]","door_history":"[1,0,0,1,1,1,0,0,0,0,1,1]","location_rts":"[567,569,443,622,374,499,663,1125,1173,524,628,545]","trial_type":"two-door-navigation","trial_index":39,"time_elapsed":553558,"internal_node_id":"0.0-2.0-37.0"},{"group":"square cycles (cube, non-group)","room_assignment":["yellow","brown","grey","red","pink","blue","purple","green"],"door_color_assignment":["white","black"],"door_generator_assignment":[1,0],"goal":2,"start":7,"action_noise":0.1,"location_history":"[7,6,5,4,5,4,5,4,7,6,5,4,7,3,0,4,5,1,0,1,0,4,7,6,5,4,7,3,0,4,7,6,5,1,0,1,0,1,2]","action_history":"[0,0,0,1,1,1,0,0,0,0,0,0,1,1,1,1,1,1,0,1,1,0,0,0,0,0,1,0,1,0,1,1,1,1,0,0,0,0]","door_history":"[1,1,1,0,0,0,1,1,1,1,1,1,0,0,0,0,0,0,1,0,0,1,1,1,1,1,0,1,0,1,0,0,0,0,1,1,1,1]","location_rts":"[407,700,623,640,682,730,1040,546,566,492,760,970,815,519,697,651,1006,1238,1352,1133,338,1017,727,642,969,1013,865,1231,856,1220,464,1014,716,939,780,978,1280,2220]","trial_type":"two-door-navigation","trial_index":40,"time_elapsed":628707,"internal_node_id":"0.0-2.0-38.0"},{"group":"square cycles (cube, non-group)","room_assignment":["yellow","brown","grey","red","pink","blue","purple","green"],"door_color_assignment":["white","black"],"door_generator_assignment":[1,0],"goal":1,"start":2,"action_noise":0.1,"location_history":"[2,3,0,4,5,4,7,6,5,1]","action_history":"[0,1,1,1,0,0,0,0,1]","door_history":"[1,0,0,0,1,1,1,1,0]","location_rts":"[702,546,479,665,805,529,629,948,2250]","trial_type":"two-door-navigation","trial_index":41,"time_elapsed":648960,"internal_node_id":"0.0-2.0-39.0"},{"group":"square cycles (cube, non-group)","room_assignment":["yellow","brown","grey","red","pink","blue","purple","green"],"door_color_assignment":["white","black"],"door_generator_assignment":[1,0],"goal":3,"start":1,"action_noise":0.1,"location_history":"[1,0,4,7,3]","action_history":"[1,1,0,1]","door_history":"[0,0,1,0]","location_rts":"[1034,340,353,830]","trial_type":"two-door-navigation","trial_index":42,"time_elapsed":659110,"internal_node_id":"0.0-2.0-40.0"},{"group":"square cycles (cube, non-group)","room_assignment":["yellow","brown","grey","red","pink","blue","purple","green"],"door_color_assignment":["white","black"],"door_generator_assignment":[1,0],"goal":4,"start":3,"action_noise":0.1,"location_history":"[3,2,3,0,4]","action_history":"[1,0,0,1]","door_history":"[0,1,1,0]","location_rts":"[450,300,953,713]","trial_type":"two-door-navigation","trial_index":43,"time_elapsed":669113,"internal_node_id":"0.0-2.0-41.0"},{"group":"square cycles (cube, non-group)","room_assignment":["yellow","brown","grey","red","pink","blue","purple","green"],"door_color_assignment":["white","black"],"door_generator_assignment":[1,0],"goal":2,"start":4,"action_noise":0.1,"location_history":"[4,5,4,7,6,7,3,2]","action_history":"[0,1,0,0,1,1,0]","door_history":"[1,0,1,1,0,0,1]","location_rts":"[991,912,946,275,847,677,947]","trial_type":"two-door-navigation","trial_index":44,"time_elapsed":685366,"internal_node_id":"0.0-2.0-42.0"},{"group":"square cycles (cube, non-group)","room_assignment":["yellow","brown","grey","red","pink","blue","purple","green"],"door_color_assignment":["white","black"],"door_generator_assignment":[1,0],"goal":5,"start":2,"action_noise":0.1,"location_history":"[2,3,2,6,5]","action_history":"[0,1,1,0]","door_history":"[1,0,0,1]","location_rts":"[897,462,453,614]","trial_type":"two-door-navigation","trial_index":45,"time_elapsed":695376,"internal_node_id":"0.0-2.0-43.0"},{"group":"square cycles (cube, non-group)","room_assignment":["yellow","brown","grey","red","pink","blue","purple","green"],"door_color_assignment":["white","black"],"door_generator_assignment":[1,0],"goal":0,"start":5,"action_noise":0.1,"location_history":"[5,1,0]","action_history":"[0,1]","door_history":"[1,0]","location_rts":"[486,618]","trial_type":"two-door-navigation","trial_index":46,"time_elapsed":702032,"internal_node_id":"0.0-2.0-44.0"},{"group":"square cycles (cube, non-group)","room_assignment":["yellow","brown","grey","red","pink","blue","purple","green"],"door_color_assignment":["white","black"],"door_generator_assignment":[1,0],"goal":7,"start":0,"action_noise":0.1,"location_history":"[0,1,2,3,2,6,7]","action_history":"[0,0,0,1,1,0]","door_history":"[1,1,1,0,0,1]","location_rts":"[772,795,608,727,1100,590]","trial_type":"two-door-navigation","trial_index":47,"time_elapsed":716258,"internal_node_id":"0.0-2.0-45.0"},{"group":"square cycles (cube, non-group)","room_assignment":["yellow","brown","grey","red","pink","blue","purple","green"],"door_color_assignment":["white","black"],"door_generator_assignment":[1,0],"goal":6,"start":7,"action_noise":0.1,"location_history":"[7,3,2,6]","action_history":"[0,1,1]","door_history":"[1,0,0]","location_rts":"[815,262,578]","trial_type":"two-door-navigation","trial_index":48,"time_elapsed":724475,"internal_node_id":"0.0-2.0-46.0"},{"group":"square cycles (cube, non-group)","room_assignment":["yellow","brown","grey","red","pink","blue","purple","green"],"door_color_assignment":["white","black"],"door_generator_assignment":[1,0],"goal":2,"start":6,"action_noise":0.1,"location_history":"[6,5,4,7,6,7,3,0,1,0,4,5,1,2]","action_history":"[0,1,1,0,1,1,0,0,1,1,1,1,0]","door_history":"[1,0,0,1,0,0,1,1,0,0,0,0,1]","location_rts":"[423,903,534,747,493,480,622,850,733,688,865,1467,585]","trial_type":"two-door-navigation","trial_index":49,"time_elapsed":750643,"internal_node_id":"0.0-2.0-47.0"},{"group":"square cycles (cube, non-group)","room_assignment":["yellow","brown","grey","red","pink","blue","purple","green"],"door_color_assignment":["white","black"],"door_generator_assignment":[1,0],"goal":5,"start":2,"action_noise":0.1,"location_history":"[2,6,5]","action_history":"[1,0]","door_history":"[0,1]","location_rts":"[1093,643]","trial_type":"two-door-navigation","trial_index":50,"time_elapsed":757926,"internal_node_id":"0.0-2.0-48.0"},{"group":"square cycles (cube, non-group)","room_assignment":["yellow","brown","grey","red","pink","blue","purple","green"],"door_color_assignment":["white","black"],"door_generator_assignment":[1,0],"goal":3,"start":5,"action_noise":0.1,"location_history":"[5,4,7,6,5,4,5,1,2,6,7,6,7,6,5,4,7,3]","action_history":"[0,0,0,0,0,1,1,0,1,1,1,1,0,0,0,0,1]","door_history":"[1,1,1,1,1,0,0,1,0,0,0,0,1,1,1,1,0]","location_rts":"[521,774,682,1853,984,354,902,539,784,429,615,1155,787,926,960,741,1553]","trial_type":"two-door-navigation","trial_index":51,"time_elapsed":793347,"internal_node_id":"0.0-2.0-49.0"},{"view_history":"[{\"page_index\":0,\"viewing_time\":2083}]","rt":2084,"trial_type":"instructions","trial_index":52,"time_elapsed":796433,"internal_node_id":"0.0-3.0"},{"view_history":"[{\"page_index\":0,\"viewing_time\":1850},{\"page_index\":1,\"viewing_time\":2606}]","rt":4456,"trial_type":"instructions","trial_index":53,"time_elapsed":801889,"internal_node_id":"0.0-4.0"},{"group":"square cycles (cube, non-group)","fractal_assignment":["../images/grn_red.png","../images/cyn_red.png","../images/org_blu.png","../images/pnk_blu.png","../images/ylw_slt.png","../images/gry_blk.png","../images/blu_wht.png","../images/ylw_pnk.png"],"mutagen_generator_assignment":[1,0],"goal":5,"start":7,"action_noise":0.1,"location_history":"[7,3,0,4,5]","action_history":"[1,1,1,1]","mutagen_history":"[0,0,0,0]","location_rts":"[3130,580,1205,506]","trial_type":"fractal-mutation","trial_index":54,"time_elapsed":815414,"internal_node_id":"0.0-5.0-0.0"},{"group":"square cycles (cube, non-group)","fractal_assignment":["../images/grn_red.png","../images/cyn_red.png","../images/org_blu.png","../images/pnk_blu.png","../images/ylw_slt.png","../images/gry_blk.png","../images/blu_wht.png","../images/ylw_pnk.png"],"mutagen_generator_assignment":[1,0],"goal":2,"start":5,"action_noise":0.1,"location_history":"[5,4,7,6,5,1,0,4,5,1,2]","action_history":"[0,0,0,0,1,1,1,1,1,0]","mutagen_history":"[1,1,1,1,0,0,0,0,0,1]","location_rts":"[845,426,638,592,355,472,471,413,447,678]","trial_type":"fractal-mutation","trial_index":55,"time_elapsed":835746,"internal_node_id":"0.0-5.0-1.0"},{"group":"square cycles (cube, non-group)","fractal_assignment":["../images/grn_red.png","../images/cyn_red.png","../images/org_blu.png","../images/pnk_blu.png","../images/ylw_slt.png","../images/gry_blk.png","../images/blu_wht.png","../images/ylw_pnk.png"],"mutagen_generator_assignment":[1,0],"goal":0,"start":2,"action_noise":0.1,"location_history":"[2,3,0]","action_history":"[0,0]","mutagen_history":"[1,1]","location_rts":"[826,490]","trial_type":"fractal-mutation","trial_index":56,"time_elapsed":842960,"internal_node_id":"0.0-5.0-2.0"},{"group":"square cycles (cube, non-group)","fractal_assignment":["../images/grn_red.png","../images/cyn_red.png","../images/org_blu.png","../images/pnk_blu.png","../images/ylw_slt.png","../images/gry_blk.png","../images/blu_wht.png","../images/ylw_pnk.png"],"mutagen_generator_assignment":[1,0],"goal":1,"start":0,"action_noise":0.1,"location_history":"[0,1]","action_history":"[0]","mutagen_history":"[1]","location_rts":"[1485]","trial_type":"fractal-mutation","trial_index":57,"time_elapsed":849085,"internal_node_id":"0.0-5.0-3.0"},{"group":"square cycles (cube, non-group)","fractal_assignment":["../images/grn_red.png","../images/cyn_red.png","../images/org_blu.png","../images/pnk_blu.png","../images/ylw_slt.png","../images/gry_blk.png","../images/blu_wht.png","../images/ylw_pnk.png"],"mutagen_generator_assignment":[1,0],"goal":6,"start":1,"action_noise":0.1,"location_history":"[1,2,3,0,1,2,6]","action_history":"[1,1,0,0,0,1]","mutagen_history":"[0,0,1,1,1,0]","location_rts":"[1046,284,707,1579,367,511]","trial_type":"fractal-mutation","trial_index":58,"time_elapsed":863814,"internal_node_id":"0.0-5.0-4.0"},{"group":"square cycles (cube, non-group)","fractal_assignment":["../images/grn_red.png","../images/cyn_red.png","../images/org_blu.png","../images/pnk_blu.png","../images/ylw_slt.png","../images/gry_blk.png","../images/blu_wht.png","../images/ylw_pnk.png"],"mutagen_generator_assignment":[1,0],"goal":3,"start":6,"action_noise":0.1,"location_history":"[6,5,4,7,3]","action_history":"[0,0,0,1]","mutagen_history":"[1,1,1,0]","location_rts":"[757,250,395,97]","trial_type":"fractal-mutation","trial_index":59,"time_elapsed":873438,"internal_node_id":"0.0-5.0-5.0"},{"group":"square cycles (cube, non-group)","fractal_assignment":["../images/grn_red.png","../images/cyn_red.png","../images/org_blu.png","../images/pnk_blu.png","../images/ylw_slt.png","../images/gry_blk.png","../images/blu_wht.png","../images/ylw_pnk.png"],"mutagen_generator_assignment":[1,0],"goal":4,"start":3,"action_noise":0.1,"location_history":"[3,0,4]","action_history":"[0,1]","mutagen_history":"[1,0]","location_rts":"[1517,796]","trial_type":"fractal-mutation","trial_index":60,"time_elapsed":881544,"internal_node_id":"0.0-5.0-6.0"},{"group":"square cycles (cube, non-group)","fractal_assignment":["../images/grn_red.png","../images/cyn_red.png","../images/org_blu.png","../images/pnk_blu.png","../images/ylw_slt.png","../images/gry_blk.png","../images/blu_wht.png","../images/ylw_pnk.png"],"mutagen_generator_assignment":[1,0],"goal":1,"start":4,"action_noise":0.1,"location_history":"[4,7,6,7,6,5,1]","action_history":"[0,0,1,0,0,1]","mutagen_history":"[1,1,0,1,1,0]","location_rts":"[922,368,610,662,1514,495]","trial_type":"fractal-mutation","trial_index":61,"time_elapsed":896446,"internal_node_id":"0.0-5.0-7.0"},{"group":"square cycles (cube, non-group)","fractal_assignment":["../images/grn_red.png","../images/cyn_red.png","../images/org_blu.png","../images/pnk_blu.png","../images/ylw_slt.png","../images/gry_blk.png","../images/blu_wht.png","../images/ylw_pnk.png"],"mutagen_generator_assignment":[1,0],"goal":4,"start":1,"action_noise":0.1,"location_history":"[1,0,4]","action_history":"[0,1]","mutagen_history":"[1,0]","location_rts":"[1296,499]","trial_type":"fractal-mutation","trial_index":62,"time_elapsed":903967,"internal_node_id":"0.0-5.0-8.0"},{"group":"square cycles (cube, non-group)","fractal_assignment":["../images/grn_red.png","../images/cyn_red.png","../images/org_blu.png","../images/pnk_blu.png","../images/ylw_slt.png","../images/gry_blk.png","../images/blu_wht.png","../images/ylw_pnk.png"],"mutagen_generator_assignment":[1,0],"goal":5,"start":4,"action_noise":0.1,"location_history":"[4,5]","action_history":"[1]","mutagen_history":"[0]","location_rts":"[1103]","trial_type":"fractal-mutation","trial_index":63,"time_elapsed":909671,"internal_node_id":"0.0-5.0-9.0"},{"group":"square cycles (cube, non-group)","fractal_assignment":["../images/grn_red.png","../images/cyn_red.png","../images/org_blu.png","../images/pnk_blu.png","../images/ylw_slt.png","../images/gry_blk.png","../images/blu_wht.png","../images/ylw_pnk.png"],"mutagen_generator_assignment":[1,0],"goal":3,"start":5,"action_noise":0.1,"location_history":"[5,4,7,3]","action_history":"[0,0,1]","mutagen_history":"[1,1,0]","location_rts":"[818,362,1145]","trial_type":"fractal-mutation","trial_index":64,"time_elapsed":918815,"internal_node_id":"0.0-5.0-10.0"},{"group":"square cycles (cube, non-group)","fractal_assignment":["../images/grn_red.png","../images/cyn_red.png","../images/org_blu.png","../images/pnk_blu.png","../images/ylw_slt.png","../images/gry_blk.png","../images/blu_wht.png","../images/ylw_pnk.png"],"mutagen_generator_assignment":[1,0],"goal":6,"start":3,"action_noise":0.1,"location_history":"[3,0,4,7,3,0,1,0,4,5,4,7,6]","action_history":"[0,1,0,1,1,0,1,1,1,0,1,0]","mutagen_history":"[1,0,1,0,0,1,0,0,0,1,0,1]","location_rts":"[489,1197,1257,723,891,885,651,475,734,1467,799,606]","trial_type":"fractal-mutation","trial_index":65,"time_elapsed":945875,"internal_node_id":"0.0-5.0-11.0"},{"group":"square cycles (cube, non-group)","fractal_assignment":["../images/grn_red.png","../images/cyn_red.png","../images/org_blu.png","../images/pnk_blu.png","../images/ylw_slt.png","../images/gry_blk.png","../images/blu_wht.png","../images/ylw_pnk.png"],"mutagen_generator_assignment":[1,0],"goal":7,"start":6,"action_noise":0.1,"location_history":"[6,5,1,0,4,7]","action_history":"[0,1,1,1,0]","mutagen_history":"[1,0,0,0,1]","location_rts":"[803,479,397,843,836]","trial_type":"fractal-mutation","trial_index":66,"time_elapsed":958358,"internal_node_id":"0.0-5.0-12.0"},{"group":"square cycles (cube, non-group)","fractal_assignment":["../images/grn_red.png","../images/cyn_red.png","../images/org_blu.png","../images/pnk_blu.png","../images/ylw_slt.png","../images/gry_blk.png","../images/blu_wht.png","../images/ylw_pnk.png"],"mutagen_generator_assignment":[1,0],"goal":0,"start":7,"action_noise":0.1,"location_history":"[7,6,7,6,7,3,2,6,7,6,5,4,7,6,7,6,5,4,7,6,7,3,2,6,5,4,7,3,2,3,0]","action_history":"[0,0,0,1,1,1,1,1,0,0,0,0,0,1,0,0,0,0,1,1,1,1,1,0,0,0,0,1,0,0]","mutagen_history":"[1,1,1,0,0,0,0,0,1,1,1,1,1,0,1,1,1,1,0,0,0,0,0,1,1,1,1,0,1,1]","location_rts":"[934,369,386,142,815,635,1463,513,485,366,451,362,597,558,548,953,533,1070,741,471,505,754,602,968,570,614,841,130,868,471]","trial_type":"fractal-mutation","trial_index":67,"time_elapsed":1014297,"internal_node_id":"0.0-5.0-13.0"},{"group":"square cycles (cube, non-group)","fractal_assignment":["../images/grn_red.png","../images/cyn_red.png","../images/org_blu.png","../images/pnk_blu.png","../images/ylw_slt.png","../images/gry_blk.png","../images/blu_wht.png","../images/ylw_pnk.png"],"mutagen_generator_assignment":[1,0],"goal":2,"start":0,"action_noise":0.1,"location_history":"[0,1,0,4,5,1,2]","action_history":"[0,0,1,1,1,0]","mutagen_history":"[1,1,0,0,0,1]","location_rts":"[1143,623,452,982,702,964]","trial_type":"fractal-mutation","trial_index":68,"time_elapsed":1029326,"internal_node_id":"0.0-5.0-14.0"},{"group":"square cycles (cube, non-group)","fractal_assignment":["../images/grn_red.png","../images/cyn_red.png","../images/org_blu.png","../images/pnk_blu.png","../images/ylw_slt.png","../images/gry_blk.png","../images/blu_wht.png","../images/ylw_pnk.png"],"mutagen_generator_assignment":[1,0],"goal":1,"start":2,"action_noise":0.1,"location_history":"[2,3,0,1]","action_history":"[0,0,0]","mutagen_history":"[1,1,1]","location_rts":"[895,698,591]","trial_type":"fractal-mutation","trial_index":69,"time_elapsed":1038460,"internal_node_id":"0.0-5.0-15.0"},{"group":"square cycles (cube, non-group)","fractal_assignment":["../images/grn_red.png","../images/cyn_red.png","../images/org_blu.png","../images/pnk_blu.png","../images/ylw_slt.png","../images/gry_blk.png","../images/blu_wht.png","../images/ylw_pnk.png"],"mutagen_generator_assignment":[1,0],"goal":6,"start":1,"action_noise":0.1,"location_history":"[1,2,3,0,4,7,6]","action_history":"[0,1,0,0,0,0]","mutagen_history":"[1,0,1,1,1,1]","location_rts":"[441,546,427,626,626,927]","trial_type":"fractal-mutation","trial_index":70,"time_elapsed":1052372,"internal_node_id":"0.0-5.0-16.0"},{"group":"square cycles (cube, non-group)","fractal_assignment":["../images/grn_red.png","../images/cyn_red.png","../images/org_blu.png","../images/pnk_blu.png","../images/ylw_slt.png","../images/gry_blk.png","../images/blu_wht.png","../images/ylw_pnk.png"],"mutagen_generator_assignment":[1,0],"goal":3,"start":6,"action_noise":0.1,"location_history":"[6,5,4,5,4,5,1,0,4,5,1,0,4,7,6,7,3]","action_history":"[0,0,0,0,1,1,1,0,1,1,1,1,0,0,1,1]","mutagen_history":"[1,1,1,1,0,0,0,1,0,0,0,0,1,1,0,0]","location_rts":"[793,368,664,655,362,913,1274,1606,552,1108,545,943,928,413,491,810]","trial_type":"fractal-mutation","trial_index":71,"time_elapsed":1086281,"internal_node_id":"0.0-5.0-17.0"},{"group":"square cycles (cube, non-group)","fractal_assignment":["../images/grn_red.png","../images/cyn_red.png","../images/org_blu.png","../images/pnk_blu.png","../images/ylw_slt.png","../images/gry_blk.png","../images/blu_wht.png","../images/ylw_pnk.png"],"mutagen_generator_assignment":[1,0],"goal":4,"start":3,"action_noise":0.1,"location_history":"[3,0,1,0,1,0,4]","action_history":"[0,0,1,0,0,1]","mutagen_history":"[1,1,0,1,1,0]","location_rts":"[458,413,413,688,333,444]","trial_type":"fractal-mutation","trial_index":72,"time_elapsed":1099401,"internal_node_id":"0.0-5.0-18.0"},{"group":"square cycles (cube, non-group)","fractal_assignment":["../images/grn_red.png","../images/cyn_red.png","../images/org_blu.png","../images/pnk_blu.png","../images/ylw_slt.png","../images/gry_blk.png","../images/blu_wht.png","../images/ylw_pnk.png"],"mutagen_generator_assignment":[1,0],"goal":5,"start":4,"action_noise":0.1,"location_history":"[4,5]","action_history":"[1]","mutagen_history":"[0]","location_rts":"[1220]","trial_type":"fractal-mutation","trial_index":73,"time_elapsed":1105246,"internal_node_id":"0.0-5.0-19.0"},{"group":"square cycles (cube, non-group)","fractal_assignment":["../images/grn_red.png","../images/cyn_red.png","../images/org_blu.png","../images/pnk_blu.png","../images/ylw_slt.png","../images/gry_blk.png","../images/blu_wht.png","../images/ylw_pnk.png"],"mutagen_generator_assignment":[1,0],"goal":7,"start":5,"action_noise":0.1,"location_history":"[5,4,5,4,5,1,2,3,0,1,2,6,5,4,5,4,7]","action_history":"[0,0,0,1,0,0,0,0,0,0,1,0,0,1,1,1]","mutagen_history":"[1,1,1,0,1,1,1,1,1,1,0,1,1,0,0,0]","location_rts":"[1118,471,431,766,445,472,405,2092,640,726,634,817,565,250,706,513]","trial_type":"fractal-mutation","trial_index":74,"time_elapsed":1137797,"internal_node_id":"0.0-5.0-20.0"},{"group":"square cycles (cube, non-group)","fractal_assignment":["../images/grn_red.png","../images/cyn_red.png","../images/org_blu.png","../images/pnk_blu.png","../images/ylw_slt.png","../images/gry_blk.png","../images/blu_wht.png","../images/ylw_pnk.png"],"mutagen_generator_assignment":[1,0],"goal":2,"start":7,"action_noise":0.1,"location_history":"[7,6,5,1,0,4,5,4,7,6,7,6,5,1,2]","action_history":"[0,0,1,1,1,1,0,0,1,1,0,0,1,0]","mutagen_history":"[1,1,0,0,0,0,1,1,0,0,1,1,0,1]","location_rts":"[2178,762,1808,469,775,917,383,701,2084,817,284,664,470,543]","trial_type":"fractal-mutation","trial_index":75,"time_elapsed":1169757,"internal_node_id":"0.0-5.0-21.0"},{"group":"square cycles (cube, non-group)","fractal_assignment":["../images/grn_red.png","../images/cyn_red.png","../images/org_blu.png","../images/pnk_blu.png","../images/ylw_slt.png","../images/gry_blk.png","../images/blu_wht.png","../images/ylw_pnk.png"],"mutagen_generator_assignment":[1,0],"goal":0,"start":2,"action_noise":0.1,"location_history":"[2,3,0]","action_history":"[0,0]","mutagen_history":"[1,1]","location_rts":"[828,794]","trial_type":"fractal-mutation","trial_index":76,"time_elapsed":1177156,"internal_node_id":"0.0-5.0-22.0"},{"group":"square cycles (cube, non-group)","fractal_assignment":["../images/grn_red.png","../images/cyn_red.png","../images/org_blu.png","../images/pnk_blu.png","../images/ylw_slt.png","../images/gry_blk.png","../images/blu_wht.png","../images/ylw_pnk.png"],"mutagen_generator_assignment":[1,0],"goal":7,"start":0,"action_noise":0.1,"location_history":"[0,4,7]","action_history":"[1,1]","mutagen_history":"[0,0]","location_rts":"[1687,457]","trial_type":"fractal-mutation","trial_index":77,"time_elapsed":1184976,"internal_node_id":"0.0-5.0-23.0"},{"group":"square cycles (cube, non-group)","fractal_assignment":["../images/grn_red.png","../images/cyn_red.png","../images/org_blu.png","../images/pnk_blu.png","../images/ylw_slt.png","../images/gry_blk.png","../images/blu_wht.png","../images/ylw_pnk.png"],"mutagen_generator_assignment":[1,0],"goal":5,"start":7,"action_noise":0.1,"location_history":"[7,3,2,6,7,6,5]","action_history":"[1,1,1,1,0,0]","mutagen_history":"[0,0,0,0,1,1]","location_rts":"[1178,360,395,583,437,553]","trial_type":"fractal-mutation","trial_index":78,"time_elapsed":1198524,"internal_node_id":"0.0-5.0-24.0"},{"group":"square cycles (cube, non-group)","fractal_assignment":["../images/grn_red.png","../images/cyn_red.png","../images/org_blu.png","../images/pnk_blu.png","../images/ylw_slt.png","../images/gry_blk.png","../images/blu_wht.png","../images/ylw_pnk.png"],"mutagen_generator_assignment":[1,0],"goal":0,"start":5,"action_noise":0.1,"location_history":"[5,4,7,6,5,4,7,6,5,1,2,6,7,3,2,6,5,1,0]","action_history":"[0,0,0,0,0,0,0,0,1,0,1,1,1,1,0,0,1,1]","mutagen_history":"[1,1,1,1,1,1,1,1,0,1,0,0,0,0,1,1,0,0]","location_rts":"[838,408,518,461,562,422,682,603,760,1198,489,361,432,498,1702,428,445,932]","trial_type":"fractal-mutation","trial_index":79,"time_elapsed":1233959,"internal_node_id":"0.0-5.0-25.0"},{"group":"square cycles (cube, non-group)","fractal_assignment":["../images/grn_red.png","../images/cyn_red.png","../images/org_blu.png","../images/pnk_blu.png","../images/ylw_slt.png","../images/gry_blk.png","../images/blu_wht.png","../images/ylw_pnk.png"],"mutagen_generator_assignment":[1,0],"goal":6,"start":0,"action_noise":0.1,"location_history":"[0,1,2,3,0,4,5,1,2,6]","action_history":"[0,0,0,0,1,1,1,0,1]","mutagen_history":"[1,1,1,1,0,0,0,1,0]","location_rts":"[452,370,439,333,363,837,613,316,1070]","trial_type":"fractal-mutation","trial_index":80,"time_elapsed":1252305,"internal_node_id":"0.0-5.0-26.0"},{"group":"square cycles (cube, non-group)","fractal_assignment":["../images/grn_red.png","../images/cyn_red.png","../images/org_blu.png","../images/pnk_blu.png","../images/ylw_slt.png","../images/gry_blk.png","../images/blu_wht.png","../images/ylw_pnk.png"],"mutagen_generator_assignment":[1,0],"goal":4,"start":6,"action_noise":0.1,"location_history":"[6,5,4]","action_history":"[0,0]","mutagen_history":"[1,1]","location_rts":"[1152,451]","trial_type":"fractal-mutation","trial_index":81,"time_elapsed":1259674,"internal_node_id":"0.0-5.0-27.0"},{"group":"square cycles (cube, non-group)","fractal_assignment":["../images/grn_red.png","../images/cyn_red.png","../images/org_blu.png","../images/pnk_blu.png","../images/ylw_slt.png","../images/gry_blk.png","../images/blu_wht.png","../images/ylw_pnk.png"],"mutagen_generator_assignment":[1,0],"goal":2,"start":4,"action_noise":0.1,"location_history":"[4,7,6,5,1,0,4,5,1,2]","action_history":"[0,0,0,1,1,1,1,0,0]","mutagen_history":"[1,1,1,0,0,0,0,1,1]","location_rts":"[722,468,362,17,834,531,649,852,444]","trial_type":"fractal-mutation","trial_index":82,"time_elapsed":1278127,"internal_node_id":"0.0-5.0-28.0"},{"group":"square cycles (cube, non-group)","fractal_assignment":["../images/grn_red.png","../images/cyn_red.png","../images/org_blu.png","../images/pnk_blu.png","../images/ylw_slt.png","../images/gry_blk.png","../images/blu_wht.png","../images/ylw_pnk.png"],"mutagen_generator_assignment":[1,0],"goal":3,"start":2,"action_noise":0.1,"location_history":"[2,3]","action_history":"[0]","mutagen_history":"[1]","location_rts":"[723]","trial_type":"fractal-mutation","trial_index":83,"time_elapsed":1283485,"internal_node_id":"0.0-5.0-29.0"},{"group":"square cycles (cube, non-group)","fractal_assignment":["../images/grn_red.png","../images/cyn_red.png","../images/org_blu.png","../images/pnk_blu.png","../images/ylw_slt.png","../images/gry_blk.png","../images/blu_wht.png","../images/ylw_pnk.png"],"mutagen_generator_assignment":[1,0],"goal":1,"start":3,"action_noise":0.1,"location_history":"[3,0,1]","action_history":"[0,0]","mutagen_history":"[1,1]","location_rts":"[1710,483]","trial_type":"fractal-mutation","trial_index":84,"time_elapsed":1291501,"internal_node_id":"0.0-5.0-30.0"},{"group":"square cycles (cube, non-group)","fractal_assignment":["../images/grn_red.png","../images/cyn_red.png","../images/org_blu.png","../images/pnk_blu.png","../images/ylw_slt.png","../images/gry_blk.png","../images/blu_wht.png","../images/ylw_pnk.png"],"mutagen_generator_assignment":[1,0],"goal":4,"start":1,"action_noise":0.1,"location_history":"[1,2,3,0,4]","action_history":"[0,0,0,1]","mutagen_history":"[1,1,1,0]","location_rts":"[1201,415,467,547]","trial_type":"fractal-mutation","trial_index":85,"time_elapsed":1302177,"internal_node_id":"0.0-5.0-31.0"},{"group":"square cycles (cube, non-group)","fractal_assignment":["../images/grn_red.png","../images/cyn_red.png","../images/org_blu.png","../images/pnk_blu.png","../images/ylw_slt.png","../images/gry_blk.png","../images/blu_wht.png","../images/ylw_pnk.png"],"mutagen_generator_assignment":[1,0],"goal":3,"start":4,"action_noise":0.1,"location_history":"[4,7,6,5,1,0,4,7,6,7,3]","action_history":"[0,0,0,1,1,1,0,0,1,1]","mutagen_history":"[1,1,1,0,0,0,1,1,0,0]","location_rts":"[392,265,374,462,1162,510,658,404,343,484]","trial_type":"fractal-mutation","trial_index":86,"time_elapsed":1321865,"internal_node_id":"0.0-5.0-32.0"},{"group":"square cycles (cube, non-group)","fractal_assignment":["../images/grn_red.png","../images/cyn_red.png","../images/org_blu.png","../images/pnk_blu.png","../images/ylw_slt.png","../images/gry_blk.png","../images/blu_wht.png","../images/ylw_pnk.png"],"mutagen_generator_assignment":[1,0],"goal":6,"start":3,"action_noise":0.1,"location_history":"[3,2,3,0,1,0,4,5,1,2,3,0,1,0,4,5,1,2,3,2,6]","action_history":"[0,0,0,0,1,1,1,1,0,0,0,0,1,1,1,1,0,0,1,1]","mutagen_history":"[1,1,1,1,0,0,0,0,1,1,1,1,0,0,0,0,1,1,0,0]","location_rts":"[533,540,403,520,460,1282,567,714,379,514,345,407,482,512,734,2677,317,507,338,645]","trial_type":"fractal-mutation","trial_index":87,"time_elapsed":1360858,"internal_node_id":"0.0-5.0-33.0"},{"group":"square cycles (cube, non-group)","fractal_assignment":["../images/grn_red.png","../images/cyn_red.png","../images/org_blu.png","../images/pnk_blu.png","../images/ylw_slt.png","../images/gry_blk.png","../images/blu_wht.png","../images/ylw_pnk.png"],"mutagen_generator_assignment":[1,0],"goal":0,"start":6,"action_noise":0.1,"location_history":"[6,5,4,5,4,5,1,0]","action_history":"[0,0,1,0,1,1,1]","mutagen_history":"[1,1,0,1,0,0,0]","location_rts":"[1377,645,439,558,427,343,649]","trial_type":"fractal-mutation","trial_index":88,"time_elapsed":1376526,"internal_node_id":"0.0-5.0-34.0"},{"group":"square cycles (cube, non-group)","fractal_assignment":["../images/grn_red.png","../images/cyn_red.png","../images/org_blu.png","../images/pnk_blu.png","../images/ylw_slt.png","../images/gry_blk.png","../images/blu_wht.png","../images/ylw_pnk.png"],"mutagen_generator_assignment":[1,0],"goal":1,"start":0,"action_noise":0.1,"location_history":"[0,1]","action_history":"[0]","mutagen_history":"[1]","location_rts":"[1205]","trial_type":"fractal-mutation","trial_index":89,"time_elapsed":1382402,"internal_node_id":"0.0-5.0-35.0"},{"group":"square cycles (cube, non-group)","fractal_assignment":["../images/grn_red.png","../images/cyn_red.png","../images/org_blu.png","../images/pnk_blu.png","../images/ylw_slt.png","../images/gry_blk.png","../images/blu_wht.png","../images/ylw_pnk.png"],"mutagen_generator_assignment":[1,0],"goal":5,"start":1,"action_noise":0.1,"location_history":"[1,2,6,5]","action_history":"[0,0,0]","mutagen_history":"[1,1,1]","location_rts":"[1013,326,714]","trial_type":"fractal-mutation","trial_index":90,"time_elapsed":1391429,"internal_node_id":"0.0-5.0-36.0"},{"group":"square cycles (cube, non-group)","fractal_assignment":["../images/grn_red.png","../images/cyn_red.png","../images/org_blu.png","../images/pnk_blu.png","../images/ylw_slt.png","../images/gry_blk.png","../images/blu_wht.png","../images/ylw_pnk.png"],"mutagen_generator_assignment":[1,0],"goal":7,"start":5,"action_noise":0.1,"location_history":"[5,4,7]","action_history":"[0,0]","mutagen_history":"[1,1]","location_rts":"[794,331]","trial_type":"fractal-mutation","trial_index":91,"time_elapsed":1398355,"internal_node_id":"0.0-5.0-37.0"},{"group":"square cycles (cube, non-group)","fractal_assignment":["../images/grn_red.png","../images/cyn_red.png","../images/org_blu.png","../images/pnk_blu.png","../images/ylw_slt.png","../images/gry_blk.png","../images/blu_wht.png","../images/ylw_pnk.png"],"mutagen_generator_assignment":[1,0],"goal":2,"start":7,"action_noise":0.1,"location_history":"[7,3,2]","action_history":"[1,1]","mutagen_history":"[0,0]","location_rts":"[1046,410]","trial_type":"fractal-mutation","trial_index":92,"time_elapsed":1405491,"internal_node_id":"0.0-5.0-38.0"},{"group":"square cycles (cube, non-group)","fractal_assignment":["../images/grn_red.png","../images/cyn_red.png","../images/org_blu.png","../images/pnk_blu.png","../images/ylw_slt.png","../images/gry_blk.png","../images/blu_wht.png","../images/ylw_pnk.png"],"mutagen_generator_assignment":[1,0],"goal":1,"start":2,"action_noise":0.1,"location_history":"[2,6,7,3,0,1]","action_history":"[0,1,0,0,0]","mutagen_history":"[1,0,1,1,1]","location_rts":"[1598,476,1284,303,555]","trial_type":"fractal-mutation","trial_index":93,"time_elapsed":1418834,"internal_node_id":"0.0-5.0-39.0"},{"group":"square cycles (cube, non-group)","fractal_assignment":["../images/grn_red.png","../images/cyn_red.png","../images/org_blu.png","../images/pnk_blu.png","../images/ylw_slt.png","../images/gry_blk.png","../images/blu_wht.png","../images/ylw_pnk.png"],"mutagen_generator_assignment":[1,0],"goal":3,"start":1,"action_noise":0.1,"location_history":"[1,0,4,7,3]","action_history":"[1,1,0,1]","mutagen_history":"[0,0,1,0]","location_rts":"[1014,418,671,2127]","trial_type":"fractal-mutation","trial_index":94,"time_elapsed":1430986,"internal_node_id":"0.0-5.0-40.0"},{"group":"square cycles (cube, non-group)","fractal_assignment":["../images/grn_red.png","../images/cyn_red.png","../images/org_blu.png","../images/pnk_blu.png","../images/ylw_slt.png","../images/gry_blk.png","../images/blu_wht.png","../images/ylw_pnk.png"],"mutagen_generator_assignment":[1,0],"goal":4,"start":3,"action_noise":0.1,"location_history":"[3,0,1,0,4]","action_history":"[1,1,1,1]","mutagen_history":"[0,0,0,0]","location_rts":"[11567,483,390,403]","trial_type":"fractal-mutation","trial_index":95,"time_elapsed":1451720,"internal_node_id":"0.0-5.0-41.0"},{"group":"square cycles (cube, non-group)","fractal_assignment":["../images/grn_red.png","../images/cyn_red.png","../images/org_blu.png","../images/pnk_blu.png","../images/ylw_slt.png","../images/gry_blk.png","../images/blu_wht.png","../images/ylw_pnk.png"],"mutagen_generator_assignment":[1,0],"goal":2,"start":4,"action_noise":0.1,"location_history":"[4,7,6,7,3,2]","action_history":"[0,0,1,1,1]","mutagen_history":"[1,1,0,0,0]","location_rts":"[752,321,725,1145,845]","trial_type":"fractal-mutation","trial_index":96,"time_elapsed":1464507,"internal_node_id":"0.0-5.0-42.0"},{"group":"square cycles (cube, non-group)","fractal_assignment":["../images/grn_red.png","../images/cyn_red.png","../images/org_blu.png","../images/pnk_blu.png","../images/ylw_slt.png","../images/gry_blk.png","../images/blu_wht.png","../images/ylw_pnk.png"],"mutagen_generator_assignment":[1,0],"goal":5,"start":2,"action_noise":0.1,"location_history":"[2,3,0,1,2,6,7,3,2,6,7,6,5]","action_history":"[0,0,0,0,1,1,1,1,1,1,0,0]","mutagen_history":"[1,1,1,1,0,0,0,0,0,0,1,1]","location_rts":"[1164,476,417,378,675,512,428,534,792,639,607,617]","trial_type":"fractal-mutation","trial_index":97,"time_elapsed":1488595,"internal_node_id":"0.0-5.0-43.0"},{"group":"square cycles (cube, non-group)","fractal_assignment":["../images/grn_red.png","../images/cyn_red.png","../images/org_blu.png","../images/pnk_blu.png","../images/ylw_slt.png","../images/gry_blk.png","../images/blu_wht.png","../images/ylw_pnk.png"],"mutagen_generator_assignment":[1,0],"goal":0,"start":5,"action_noise":0.1,"location_history":"[5,4,5,1,0]","action_history":"[0,1,0,1]","mutagen_history":"[1,0,1,0]","location_rts":"[840,938,1586,1917]","trial_type":"fractal-mutation","trial_index":98,"time_elapsed":1501830,"internal_node_id":"0.0-5.0-44.0"},{"group":"square cycles (cube, non-group)","fractal_assignment":["../images/grn_red.png","../images/cyn_red.png","../images/org_blu.png","../images/pnk_blu.png","../images/ylw_slt.png","../images/gry_blk.png","../images/blu_wht.png","../images/ylw_pnk.png"],"mutagen_generator_assignment":[1,0],"goal":7,"start":0,"action_noise":0.1,"location_history":"[0,4,5,4,5,4,7]","action_history":"[1,1,0,1,0,0]","mutagen_history":"[0,0,1,0,1,1]","location_rts":"[1125,504,640,538,1809,421]","trial_type":"fractal-mutation","trial_index":99,"time_elapsed":1517036,"internal_node_id":"0.0-5.0-45.0"},{"group":"square cycles (cube, non-group)","fractal_assignment":["../images/grn_red.png","../images/cyn_red.png","../images/org_blu.png","../images/pnk_blu.png","../images/ylw_slt.png","../images/gry_blk.png","../images/blu_wht.png","../images/ylw_pnk.png"],"mutagen_generator_assignment":[1,0],"goal":6,"start":7,"action_noise":0.1,"location_history":"[7,6]","action_history":"[0]","mutagen_history":"[1]","location_rts":"[2727]","trial_type":"fractal-mutation","trial_index":100,"time_elapsed":1524432,"internal_node_id":"0.0-5.0-46.0"},{"group":"square cycles (cube, non-group)","fractal_assignment":["../images/grn_red.png","../images/cyn_red.png","../images/org_blu.png","../images/pnk_blu.png","../images/ylw_slt.png","../images/gry_blk.png","../images/blu_wht.png","../images/ylw_pnk.png"],"mutagen_generator_assignment":[1,0],"goal":2,"start":6,"action_noise":0.1,"location_history":"[6,5,4,7,6,7,3,2]","action_history":"[0,0,0,1,1,1,1]","mutagen_history":"[1,1,1,0,0,0,0]","location_rts":"[1143,392,541,507,466,1766,810]","trial_type":"fractal-mutation","trial_index":101,"time_elapsed":1541440,"internal_node_id":"0.0-5.0-47.0"},{"group":"square cycles (cube, non-group)","fractal_assignment":["../images/grn_red.png","../images/cyn_red.png","../images/org_blu.png","../images/pnk_blu.png","../images/ylw_slt.png","../images/gry_blk.png","../images/blu_wht.png","../images/ylw_pnk.png"],"mutagen_generator_assignment":[1,0],"goal":5,"start":2,"action_noise":0.1,"location_history":"[2,3,0,1,2,3,0,1,0,4,5]","action_history":"[0,0,1,0,0,0,1,1,1,1]","mutagen_history":"[1,1,0,1,1,1,0,0,0,0]","location_rts":"[1231,357,440,378,543,571,594,563,497,477]","trial_type":"fractal-mutation","trial_index":102,"time_elapsed":1561894,"internal_node_id":"0.0-5.0-48.0"},{"group":"square cycles (cube, non-group)","fractal_assignment":["../images/grn_red.png","../images/cyn_red.png","../images/org_blu.png","../images/pnk_blu.png","../images/ylw_slt.png","../images/gry_blk.png","../images/blu_wht.png","../images/ylw_pnk.png"],"mutagen_generator_assignment":[1,0],"goal":3,"start":5,"action_noise":0.1,"location_history":"[5,4,7,6,7,3]","action_history":"[0,0,0,1,1]","mutagen_history":"[1,1,1,0,0]","location_rts":"[2309,490,789,689,890]","trial_type":"fractal-mutation","trial_index":103,"time_elapsed":1576265,"internal_node_id":"0.0-5.0-49.0"},{"view_history":"[{\"page_index\":0,\"viewing_time\":2991}]","rt":2991,"trial_type":"instructions","trial_index":104,"time_elapsed":1580257,"internal_node_id":"0.0-6.0"},{"rt":46187,"responses":"{\"Q0\":\"Memory and ability to discern repetition.\"}","trial_type":"survey-text","trial_index":105,"time_elapsed":1627449,"internal_node_id":"0.0-7.0-0.0"},{"rt":66874,"responses":"{\"Q0\":\"Ability to keep track of patterns and acknowledging results based on trials and errors.\"}","trial_type":"survey-text","trial_index":106,"time_elapsed":1695326,"internal_node_id":"0.0-7.0-1.0"},{"rt":94788,"responses":"{\"Q0\":\"<img src='../images/diagrams/square_cycles.png'>\"}","trial_type":"survey-multi-choice","trial_index":107,"time_elapsed":1791122,"internal_node_id":"0.0-7.0-2.0"},{"rt":72942,"assignments":["../images/ylw_slt.png","../images/blu_wht.png","../images/pnk_blu.png","../images/ylw_pnk.png","../images/gry_blk.png","../images/org_blu.png","../images/grn_red.png","../images/cyn_red.png"],"trial_type":"drag-drop-on-image","trial_index":108,"time_elapsed":1865065,"internal_node_id":"0.0-7.0-3.0"},{"rt":6484,"responses":"{\"Q0\":\"3\"}","trial_type":"survey-likert","trial_index":109,"time_elapsed":1872553,"internal_node_id":"0.0-7.0-4.0"},{"rt":145265,"responses":"{\"Q0\":\"Some pathways are connected as such that decisions can easily lead back to previous choices and vice versa.\"}","trial_type":"survey-text","trial_index":110,"time_elapsed":2018820,"internal_node_id":"0.0-7.0-5.0"},{"rt":19707,"responses":"{\"Q0\":\"No\"}","trial_type":"survey-multi-choice","trial_index":111,"time_elapsed":2039537,"internal_node_id":"0.0-7.0-6.0"},{"rt":18132,"responses":"{\"Q0\":\"Did not notice\"}","trial_type":"survey-multi-choice","trial_index":112,"time_elapsed":2058676,"internal_node_id":"0.0-7.0-7.0"},{"rt":8029,"responses":"{\"Q0\":\"\"}","trial_type":"survey-text","trial_index":113,"time_elapsed":2067707,"internal_node_id":"0.0-7.0-8.0"},{"rt":11102,"responses":"{\"Q0\":\"0\"}","trial_type":"survey-likert","trial_index":114,"time_elapsed":2079812,"internal_node_id":"0.0-7.0-9.0"},{"rt":10485,"responses":"{\"Q0\":\"Different structure\"}","trial_type":"survey-multi-choice","trial_index":115,"time_elapsed":2091300,"internal_node_id":"0.0-7.0-10.0"},{"rt":71898,"responses":"{\"Q0\":\"left (white) door = acid, (black) door = ray\",\"Q1\":\"Slightly confident\"}","trial_type":"survey-multi-choice","trial_index":116,"time_elapsed":2164204,"internal_node_id":"0.0-7.0-11.0"},{"rt":11447,"responses":"{\"Q0\":\"25-35\",\"Q1\":\"Bachelor's degree\",\"Q2\":\"Male\",\"Q3\":\"White\"}","trial_type":"survey-multi-choice","trial_index":117,"time_elapsed":2176660,"internal_node_id":"0.0-8.0"},{"rt":2558,"responses":"{\"Q0\":\"\"}","trial_type":"survey-text","trial_index":118,"time_elapsed":2180221,"internal_node_id":"0.0-9.0"}]