[{"view_history":"[{\"page_index\":0,\"viewing_time\":3742},{\"page_index\":1,\"viewing_time\":4999}]","rt":8741,"trial_type":"instructions","trial_index":0,"time_elapsed":8744,"internal_node_id":"0.0-0.0"},{"view_history":"[{\"page_index\":0,\"viewing_time\":2446},{\"page_index\":1,\"viewing_time\":2472}]","rt":4919,"trial_type":"instructions","trial_index":1,"time_elapsed":14664,"internal_node_id":"0.0-1.0"},{"group":"tri cycles (cube, non-group)","room_assignment":["yellow","blue","red","pink","brown","grey","green","purple"],"door_color_assignment":["white","black"],"door_generator_assignment":[1,0],"goal":5,"start":7,"action_noise":0.1,"location_history":"[7,6,5]","action_history":"[0,1]","door_history":"[1,0]","location_rts":"[13823,3431]","trial_type":"two-door-navigation","trial_index":2,"time_elapsed":37449,"internal_node_id":"0.0-2.0-0.0"},{"group":"tri cycles (cube, non-group)","room_assignment":["yellow","blue","red","pink","brown","grey","green","purple"],"door_color_assignment":["white","black"],"door_generator_assignment":[1,0],"goal":2,"start":5,"action_noise":0.1,"location_history":"[5,1,0,2]","action_history":"[1,0,0]","door_history":"[0,1,1]","location_rts":"[3766,15107,2368]","trial_type":"two-door-navigation","trial_index":3,"time_elapsed":65213,"internal_node_id":"0.0-2.0-1.0"},{"group":"tri cycles (cube, non-group)","room_assignment":["yellow","blue","red","pink","brown","grey","green","purple"],"door_color_assignment":["white","black"],"door_generator_assignment":[1,0],"goal":0,"start":2,"action_noise":0.1,"location_history":"[2,6,4,0]","action_history":"[0,0,1]","door_history":"[1,1,0]","location_rts":"[22107,21508,4025]","trial_type":"two-door-navigation","trial_index":4,"time_elapsed":119369,"internal_node_id":"0.0-2.0-2.0"},{"group":"tri cycles (cube, non-group)","room_assignment":["yellow","blue","red","pink","brown","grey","green","purple"],"door_color_assignment":["white","black"],"door_generator_assignment":[1,0],"goal":1,"start":0,"action_noise":0.1,"location_history":"[0,2,6,5,2,6,5,2,6,5,1]","action_history":"[0,1,1,1,1,1,1,1,0,0]","door_history":"[1,0,0,0,0,0,0,0,1,1]","location_rts":"[20799,7037,11553,4568,13749,17417,2738,5876,714,1609]","trial_type":"two-door-navigation","trial_index":5,"time_elapsed":219025,"internal_node_id":"0.0-2.0-3.0"},{"group":"tri cycles (cube, non-group)","room_assignment":["yellow","blue","red","pink","brown","grey","green","purple"],"door_color_assignment":["white","black"],"door_generator_assignment":[1,0],"goal":6,"start":1,"action_noise":0.1,"location_history":"[1,0,2,6]","action_history":"[1,0,0]","door_history":"[0,1,1]","location_rts":"[12440,17435,531]","trial_type":"two-door-navigation","trial_index":6,"time_elapsed":255948,"internal_node_id":"0.0-2.0-4.0"},{"group":"tri cycles (cube, non-group)","room_assignment":["yellow","blue","red","pink","brown","grey","green","purple"],"door_color_assignment":["white","black"],"door_generator_assignment":[1,0],"goal":3,"start":6,"action_noise":0.1,"location_history":"[6,4,7,6,4,0,3]","action_history":"[0,0,0,0,1,1]","door_history":"[1,1,1,1,0,0]","location_rts":"[11325,1636,15700,4572,8303,1434]","trial_type":"two-door-navigation","trial_index":7,"time_elapsed":308457,"internal_node_id":"0.0-2.0-5.0"},{"group":"tri cycles (cube, non-group)","room_assignment":["yellow","blue","red","pink","brown","grey","green","purple"],"door_color_assignment":["white","black"],"door_generator_assignment":[1,0],"goal":4,"start":3,"action_noise":0.1,"location_history":"[3,4]","action_history":"[1]","door_history":"[0]","location_rts":"[3705]","trial_type":"two-door-navigation","trial_index":8,"time_elapsed":316675,"internal_node_id":"0.0-2.0-6.0"},{"group":"tri cycles (cube, non-group)","room_assignment":["yellow","blue","red","pink","brown","grey","green","purple"],"door_color_assignment":["white","black"],"door_generator_assignment":[1,0],"goal":1,"start":4,"action_noise":0.1,"location_history":"[4,7,3,7,6,5,2,1]","action_history":"[0,1,0,0,1,1,0]","door_history":"[1,0,1,1,0,0,1]","location_rts":"[24916,3520,14620,1268,3942,2563,3143]","trial_type":"two-door-navigation","trial_index":9,"time_elapsed":381214,"internal_node_id":"0.0-2.0-7.0"},{"group":"tri cycles (cube, non-group)","room_assignment":["yellow","blue","red","pink","brown","grey","green","purple"],"door_color_assignment":["white","black"],"door_generator_assignment":[1,0],"goal":4,"start":1,"action_noise":0.1,"location_history":"[1,0,2,1,5,2,6,5,2,1,5,1,5,1,0,3,4]","action_history":"[0,0,0,1,1,1,1,1,0,0,0,1,0,0,1,1]","door_history":"[1,1,1,0,0,0,0,0,1,1,1,0,1,1,0,0]","location_rts":"[8289,9864,3627,799,1005,862,925,858,837,545,645,640,905,502,4892,2703]","trial_type":"two-door-navigation","trial_index":10,"time_elapsed":438730,"internal_node_id":"0.0-2.0-8.0"},{"group":"tri cycles (cube, non-group)","room_assignment":["yellow","blue","red","pink","brown","grey","green","purple"],"door_color_assignment":["white","black"],"door_generator_assignment":[1,0],"goal":5,"start":4,"action_noise":0.1,"location_history":"[4,7,6,5]","action_history":"[0,0,1]","door_history":"[1,1,0]","location_rts":"[14023,1690,2964]","trial_type":"two-door-navigation","trial_index":11,"time_elapsed":463922,"internal_node_id":"0.0-2.0-9.0"},{"group":"tri cycles (cube, non-group)","room_assignment":["yellow","blue","red","pink","brown","grey","green","purple"],"door_color_assignment":["white","black"],"door_generator_assignment":[1,0],"goal":3,"start":5,"action_noise":0.1,"location_history":"[5,1,0,3]","action_history":"[0,0,1]","door_history":"[1,1,0]","location_rts":"[6686,3434,982]","trial_type":"two-door-navigation","trial_index":12,"time_elapsed":481547,"internal_node_id":"0.0-2.0-10.0"},{"group":"tri cycles (cube, non-group)","room_assignment":["yellow","blue","red","pink","brown","grey","green","purple"],"door_color_assignment":["white","black"],"door_generator_assignment":[1,0],"goal":6,"start":3,"action_noise":0.1,"location_history":"[3,7,6]","action_history":"[0,0]","door_history":"[1,1]","location_rts":"[10843,1536]","trial_type":"two-door-navigation","trial_index":13,"time_elapsed":499446,"internal_node_id":"0.0-2.0-11.0"},{"group":"tri cycles (cube, non-group)","room_assignment":["yellow","blue","red","pink","brown","grey","green","purple"],"door_color_assignment":["white","black"],"door_generator_assignment":[1,0],"goal":7,"start":6,"action_noise":0.1,"location_history":"[6,4,0,2,6,4,7]","action_history":"[0,1,1,1,0,0]","door_history":"[1,0,0,0,1,1]","location_rts":"[16825,4001,9108,3802,3112,5099]","trial_type":"two-door-navigation","trial_index":14,"time_elapsed":550924,"internal_node_id":"0.0-2.0-12.0"},{"group":"tri cycles (cube, non-group)","room_assignment":["yellow","blue","red","pink","brown","grey","green","purple"],"door_color_assignment":["white","black"],"door_generator_assignment":[1,0],"goal":0,"start":7,"action_noise":0.1,"location_history":"[7,3,7,3,7,6,4,0]","action_history":"[1,1,1,0,0,0,1]","door_history":"[0,0,0,1,1,1,0]","location_rts":"[5472,11957,3700,1467,1120,5633,8990]","trial_type":"two-door-navigation","trial_index":15,"time_elapsed":599819,"internal_node_id":"0.0-2.0-13.0"},{"group":"tri cycles (cube, non-group)","room_assignment":["yellow","blue","red","pink","brown","grey","green","purple"],"door_color_assignment":["white","black"],"door_generator_assignment":[1,0],"goal":2,"start":0,"action_noise":0.1,"location_history":"[0,2]","action_history":"[0]","door_history":"[1]","location_rts":"[3207]","trial_type":"two-door-navigation","trial_index":16,"time_elapsed":607548,"internal_node_id":"0.0-2.0-14.0"},{"group":"tri cycles (cube, non-group)","room_assignment":["yellow","blue","red","pink","brown","grey","green","purple"],"door_color_assignment":["white","black"],"door_generator_assignment":[1,0],"goal":1,"start":2,"action_noise":0.1,"location_history":"[2,1]","action_history":"[0]","door_history":"[1]","location_rts":"[5003]","trial_type":"two-door-navigation","trial_index":17,"time_elapsed":617060,"internal_node_id":"0.0-2.0-15.0"},{"group":"tri cycles (cube, non-group)","room_assignment":["yellow","blue","red","pink","brown","grey","green","purple"],"door_color_assignment":["white","black"],"door_generator_assignment":[1,0],"goal":6,"start":1,"action_noise":0.1,"location_history":"[1,0,2,6]","action_history":"[0,0,1]","door_history":"[1,1,0]","location_rts":"[10477,782,8892]","trial_type":"two-door-navigation","trial_index":18,"time_elapsed":643730,"internal_node_id":"0.0-2.0-16.0"},{"group":"tri cycles (cube, non-group)","room_assignment":["yellow","blue","red","pink","brown","grey","green","purple"],"door_color_assignment":["white","black"],"door_generator_assignment":[1,0],"goal":3,"start":6,"action_noise":0.1,"location_history":"[6,5,1,0,2,6,4,0,3]","action_history":"[1,0,0,1,0,0,1,1]","door_history":"[0,1,1,0,1,1,0,0]","location_rts":"[18373,7086,3240,992,3127,1123,1775,1080]","trial_type":"two-door-navigation","trial_index":19,"time_elapsed":692078,"internal_node_id":"0.0-2.0-17.0"},{"group":"tri cycles (cube, non-group)","room_assignment":["yellow","blue","red","pink","brown","grey","green","purple"],"door_color_assignment":["white","black"],"door_generator_assignment":[1,0],"goal":4,"start":3,"action_noise":0.1,"location_history":"[3,4]","action_history":"[1]","door_history":"[0]","location_rts":"[4593]","trial_type":"two-door-navigation","trial_index":20,"time_elapsed":701178,"internal_node_id":"0.0-2.0-18.0"},{"group":"tri cycles (cube, non-group)","room_assignment":["yellow","blue","red","pink","brown","grey","green","purple"],"door_color_assignment":["white","black"],"door_generator_assignment":[1,0],"goal":5,"start":4,"action_noise":0.1,"location_history":"[4,7,6,5]","action_history":"[0,0,1]","door_history":"[1,1,0]","location_rts":"[10757,4816,4668]","trial_type":"two-door-navigation","trial_index":21,"time_elapsed":727941,"internal_node_id":"0.0-2.0-19.0"},{"group":"tri cycles (cube, non-group)","room_assignment":["yellow","blue","red","pink","brown","grey","green","purple"],"door_color_assignment":["white","black"],"door_generator_assignment":[1,0],"goal":7,"start":5,"action_noise":0.1,"location_history":"[5,1,5,1,0,2,6,5,1,5,2,6,4,7]","action_history":"[0,1,0,0,0,1,1,0,1,1,1,0,0]","door_history":"[1,0,1,1,1,0,0,1,0,0,0,1,1]","location_rts":"[11132,6349,9184,4313,3180,1348,1010,624,979,691,595,667,583]","trial_type":"two-door-navigation","trial_index":22,"time_elapsed":785175,"internal_node_id":"0.0-2.0-20.0"},{"group":"tri cycles (cube, non-group)","room_assignment":["yellow","blue","red","pink","brown","grey","green","purple"],"door_color_assignment":["white","black"],"door_generator_assignment":[1,0],"goal":2,"start":7,"action_noise":0.1,"location_history":"[7,6,4,0,3,4,0,3,7,3,7,6,4,0,2]","action_history":"[0,0,1,1,1,1,0,0,1,1,0,0,1,0]","door_history":"[1,1,0,0,0,0,1,1,0,0,1,1,0,1]","location_rts":"[4608,4570,1627,1457,1292,605,843,1139,814,418,916,788,626,1419]","trial_type":"two-door-navigation","trial_index":23,"time_elapsed":823891,"internal_node_id":"0.0-2.0-21.0"},{"group":"tri cycles (cube, non-group)","room_assignment":["yellow","blue","red","pink","brown","grey","green","purple"],"door_color_assignment":["white","black"],"door_generator_assignment":[1,0],"goal":0,"start":2,"action_noise":0.1,"location_history":"[2,1,0]","action_history":"[0,0]","door_history":"[1,1]","location_rts":"[4141,3996]","trial_type":"two-door-navigation","trial_index":24,"time_elapsed":837541,"internal_node_id":"0.0-2.0-22.0"},{"group":"tri cycles (cube, non-group)","room_assignment":["yellow","blue","red","pink","brown","grey","green","purple"],"door_color_assignment":["white","black"],"door_generator_assignment":[1,0],"goal":7,"start":0,"action_noise":0.1,"location_history":"[0,2,6,5,1,5,2,1,0,3,7]","action_history":"[1,1,1,0,1,1,0,0,1,0]","door_history":"[0,0,0,1,0,0,1,1,0,1]","location_rts":"[10396,1982,624,967,4804,574,413,428,2017,2989]","trial_type":"two-door-navigation","trial_index":25,"time_elapsed":876297,"internal_node_id":"0.0-2.0-23.0"},{"group":"tri cycles (cube, non-group)","room_assignment":["yellow","blue","red","pink","brown","grey","green","purple"],"door_color_assignment":["white","black"],"door_generator_assignment":[1,0],"goal":5,"start":7,"action_noise":0.1,"location_history":"[7,6,5]","action_history":"[0,1]","door_history":"[1,0]","location_rts":"[9273,2688]","trial_type":"two-door-navigation","trial_index":26,"time_elapsed":893773,"internal_node_id":"0.0-2.0-24.0"},{"group":"tri cycles (cube, non-group)","room_assignment":["yellow","blue","red","pink","brown","grey","green","purple"],"door_color_assignment":["white","black"],"door_generator_assignment":[1,0],"goal":0,"start":5,"action_noise":0.1,"location_history":"[5,1,0]","action_history":"[0,0]","door_history":"[1,1]","location_rts":"[8523,5992]","trial_type":"two-door-navigation","trial_index":27,"time_elapsed":913802,"internal_node_id":"0.0-2.0-25.0"},{"group":"tri cycles (cube, non-group)","room_assignment":["yellow","blue","red","pink","brown","grey","green","purple"],"door_color_assignment":["white","black"],"door_generator_assignment":[1,0],"goal":6,"start":0,"action_noise":0.1,"location_history":"[0,2,6]","action_history":"[0,1]","door_history":"[1,0]","location_rts":"[6997,5283]","trial_type":"two-door-navigation","trial_index":28,"time_elapsed":931594,"internal_node_id":"0.0-2.0-26.0"},{"group":"tri cycles (cube, non-group)","room_assignment":["yellow","blue","red","pink","brown","grey","green","purple"],"door_color_assignment":["white","black"],"door_generator_assignment":[1,0],"goal":4,"start":6,"action_noise":0.1,"location_history":"[6,4]","action_history":"[0]","door_history":"[1]","location_rts":"[9446]","trial_type":"two-door-navigation","trial_index":29,"time_elapsed":945547,"internal_node_id":"0.0-2.0-27.0"},{"group":"tri cycles (cube, non-group)","room_assignment":["yellow","blue","red","pink","brown","grey","green","purple"],"door_color_assignment":["white","black"],"door_generator_assignment":[1,0],"goal":2,"start":4,"action_noise":0.1,"location_history":"[4,0,2]","action_history":"[1,0]","door_history":"[0,1]","location_rts":"[13088,2209]","trial_type":"two-door-navigation","trial_index":30,"time_elapsed":966361,"internal_node_id":"0.0-2.0-28.0"},{"group":"tri cycles (cube, non-group)","room_assignment":["yellow","blue","red","pink","brown","grey","green","purple"],"door_color_assignment":["white","black"],"door_generator_assignment":[1,0],"goal":3,"start":2,"action_noise":0.1,"location_history":"[2,6,5,1,5,2,1,5,2,1,0,3]","action_history":"[1,1,0,1,1,0,1,0,0,0,1]","door_history":"[0,0,1,0,0,1,0,1,1,1,0]","location_rts":"[13104,5041,13790,4492,9964,1335,1376,602,466,725,2837]","trial_type":"two-door-navigation","trial_index":31,"time_elapsed":1034642,"internal_node_id":"0.0-2.0-29.0"},{"group":"tri cycles (cube, non-group)","room_assignment":["yellow","blue","red","pink","brown","grey","green","purple"],"door_color_assignment":["white","black"],"door_generator_assignment":[1,0],"goal":1,"start":3,"action_noise":0.1,"location_history":"[3,4,7,6,4,0,3,7,6,5,1]","action_history":"[1,0,0,0,1,1,0,0,1,0]","door_history":"[0,1,1,1,0,0,1,1,0,1]","location_rts":"[7638,6052,6167,7896,7615,1054,642,586,436,356]","trial_type":"two-door-navigation","trial_index":32,"time_elapsed":1086628,"internal_node_id":"0.0-2.0-30.0"},{"group":"tri cycles (cube, non-group)","room_assignment":["yellow","blue","red","pink","brown","grey","green","purple"],"door_color_assignment":["white","black"],"door_generator_assignment":[1,0],"goal":4,"start":1,"action_noise":0.1,"location_history":"[1,5,1,0,3,4]","action_history":"[1,0,0,1,1]","door_history":"[0,1,1,0,0]","location_rts":"[13675,11799,2074,4306,1691]","trial_type":"two-door-navigation","trial_index":33,"time_elapsed":1128713,"internal_node_id":"0.0-2.0-31.0"},{"group":"tri cycles (cube, non-group)","room_assignment":["yellow","blue","red","pink","brown","grey","green","purple"],"door_color_assignment":["white","black"],"door_generator_assignment":[1,0],"goal":3,"start":4,"action_noise":0.1,"location_history":"[4,0,3]","action_history":"[1,1]","door_history":"[0,0]","location_rts":"[14424,1152]","trial_type":"two-door-navigation","trial_index":34,"time_elapsed":1149802,"internal_node_id":"0.0-2.0-32.0"},{"group":"tri cycles (cube, non-group)","room_assignment":["yellow","blue","red","pink","brown","grey","green","purple"],"door_color_assignment":["white","black"],"door_generator_assignment":[1,0],"goal":6,"start":3,"action_noise":0.1,"location_history":"[3,4,7,6]","action_history":"[0,0,0]","door_history":"[1,1,1]","location_rts":"[7879,3644,2898]","trial_type":"two-door-navigation","trial_index":35,"time_elapsed":1170743,"internal_node_id":"0.0-2.0-33.0"},{"group":"tri cycles (cube, non-group)","room_assignment":["yellow","blue","red","pink","brown","grey","green","purple"],"door_color_assignment":["white","black"],"door_generator_assignment":[1,0],"goal":0,"start":6,"action_noise":0.1,"location_history":"[6,4,0]","action_history":"[0,1]","door_history":"[1,0]","location_rts":"[10851,6929]","trial_type":"two-door-navigation","trial_index":36,"time_elapsed":1194033,"internal_node_id":"0.0-2.0-34.0"},{"group":"tri cycles (cube, non-group)","room_assignment":["yellow","blue","red","pink","brown","grey","green","purple"],"door_color_assignment":["white","black"],"door_generator_assignment":[1,0],"goal":1,"start":0,"action_noise":0.1,"location_history":"[0,2,1]","action_history":"[0,0]","door_history":"[1,1]","location_rts":"[5928,9290]","trial_type":"two-door-navigation","trial_index":37,"time_elapsed":1214764,"internal_node_id":"0.0-2.0-35.0"},{"group":"tri cycles (cube, non-group)","room_assignment":["yellow","blue","red","pink","brown","grey","green","purple"],"door_color_assignment":["white","black"],"door_generator_assignment":[1,0],"goal":5,"start":1,"action_noise":0.1,"location_history":"[1,0,2,6,5]","action_history":"[0,0,1,1]","door_history":"[1,1,0,0]","location_rts":"[5164,13613,6624,2876]","trial_type":"two-door-navigation","trial_index":38,"time_elapsed":1250563,"internal_node_id":"0.0-2.0-36.0"},{"group":"tri cycles (cube, non-group)","room_assignment":["yellow","blue","red","pink","brown","grey","green","purple"],"door_color_assignment":["white","black"],"door_generator_assignment":[1,0],"goal":7,"start":5,"action_noise":0.1,"location_history":"[5,1,5,2,1,5,2,1,0,3,7]","action_history":"[0,1,1,0,1,1,0,0,1,0]","door_history":"[1,0,0,1,0,0,1,1,0,1]","location_rts":"[5645,6146,5255,5075,3149,1380,937,807,10414,716]","trial_type":"two-door-navigation","trial_index":39,"time_elapsed":1303632,"internal_node_id":"0.0-2.0-37.0"},{"group":"tri cycles (cube, non-group)","room_assignment":["yellow","blue","red","pink","brown","grey","green","purple"],"door_color_assignment":["white","black"],"door_generator_assignment":[1,0],"goal":2,"start":7,"action_noise":0.1,"location_history":"[7,6,5,2]","action_history":"[0,1,1]","door_history":"[1,0,0]","location_rts":"[3791,10417,1045]","trial_type":"two-door-navigation","trial_index":40,"time_elapsed":1325425,"internal_node_id":"0.0-2.0-38.0"},{"group":"tri cycles (cube, non-group)","room_assignment":["yellow","blue","red","pink","brown","grey","green","purple"],"door_color_assignment":["white","black"],"door_generator_assignment":[1,0],"goal":1,"start":2,"action_noise":0.1,"location_history":"[2,1]","action_history":"[0]","door_history":"[1]","location_rts":"[12976]","trial_type":"two-door-navigation","trial_index":41,"time_elapsed":1342910,"internal_node_id":"0.0-2.0-39.0"},{"group":"tri cycles (cube, non-group)","room_assignment":["yellow","blue","red","pink","brown","grey","green","purple"],"door_color_assignment":["white","black"],"door_generator_assignment":[1,0],"goal":3,"start":1,"action_noise":0.1,"location_history":"[1,0,3]","action_history":"[1,1]","door_history":"[0,0]","location_rts":"[3176,930]","trial_type":"two-door-navigation","trial_index":42,"time_elapsed":1352537,"internal_node_id":"0.0-2.0-40.0"},{"group":"tri cycles (cube, non-group)","room_assignment":["yellow","blue","red","pink","brown","grey","green","purple"],"door_color_assignment":["white","black"],"door_generator_assignment":[1,0],"goal":4,"start":3,"action_noise":0.1,"location_history":"[3,4]","action_history":"[1]","door_history":"[0]","location_rts":"[7231]","trial_type":"two-door-navigation","trial_index":43,"time_elapsed":1364282,"internal_node_id":"0.0-2.0-41.0"},{"group":"tri cycles (cube, non-group)","room_assignment":["yellow","blue","red","pink","brown","grey","green","purple"],"door_color_assignment":["white","black"],"door_generator_assignment":[1,0],"goal":2,"start":4,"action_noise":0.1,"location_history":"[4,7,6,4,0,2]","action_history":"[1,0,0,1,0]","door_history":"[0,1,1,0,1]","location_rts":"[7828,9997,3219,1931,1592]","trial_type":"two-door-navigation","trial_index":44,"time_elapsed":1397376,"internal_node_id":"0.0-2.0-42.0"},{"group":"tri cycles (cube, non-group)","room_assignment":["yellow","blue","red","pink","brown","grey","green","purple"],"door_color_assignment":["white","black"],"door_generator_assignment":[1,0],"goal":5,"start":2,"action_noise":0.1,"location_history":"[2,6,4,0,2,1,0,3,4,7,3,7,6,5]","action_history":"[1,0,1,0,0,0,1,1,0,1,0,0,1]","door_history":"[0,1,0,1,1,1,0,0,1,0,1,1,0]","location_rts":"[17722,2320,7243,3624,658,4988,1180,403,895,461,505,339,459]","trial_type":"two-door-navigation","trial_index":45,"time_elapsed":1454787,"internal_node_id":"0.0-2.0-43.0"},{"group":"tri cycles (cube, non-group)","room_assignment":["yellow","blue","red","pink","brown","grey","green","purple"],"door_color_assignment":["white","black"],"door_generator_assignment":[1,0],"goal":0,"start":5,"action_noise":0.1,"location_history":"[5,2,1,0]","action_history":"[1,0,1]","door_history":"[0,1,0]","location_rts":"[9341,1978,2853]","trial_type":"two-door-navigation","trial_index":46,"time_elapsed":1475488,"internal_node_id":"0.0-2.0-44.0"},{"group":"tri cycles (cube, non-group)","room_assignment":["yellow","blue","red","pink","brown","grey","green","purple"],"door_color_assignment":["white","black"],"door_generator_assignment":[1,0],"goal":7,"start":0,"action_noise":0.1,"location_history":"[0,2,6,5,1,0,3,7]","action_history":"[1,1,1,0,0,1,0]","door_history":"[0,0,0,1,1,0,1]","location_rts":"[7182,1811,757,4887,538,747,3838]","trial_type":"two-door-navigation","trial_index":47,"time_elapsed":1505781,"internal_node_id":"0.0-2.0-45.0"},{"group":"tri cycles (cube, non-group)","room_assignment":["yellow","blue","red","pink","brown","grey","green","purple"],"door_color_assignment":["white","black"],"door_generator_assignment":[1,0],"goal":6,"start":7,"action_noise":0.1,"location_history":"[7,6]","action_history":"[0]","door_history":"[1]","location_rts":"[4073]","trial_type":"two-door-navigation","trial_index":48,"time_elapsed":1514366,"internal_node_id":"0.0-2.0-46.0"},{"group":"tri cycles (cube, non-group)","room_assignment":["yellow","blue","red","pink","brown","grey","green","purple"],"door_color_assignment":["white","black"],"door_generator_assignment":[1,0],"goal":2,"start":6,"action_noise":0.1,"location_history":"[6,5,2]","action_history":"[1,1]","door_history":"[0,0]","location_rts":"[9459,5189]","trial_type":"two-door-navigation","trial_index":49,"time_elapsed":1534523,"internal_node_id":"0.0-2.0-47.0"},{"group":"tri cycles (cube, non-group)","room_assignment":["yellow","blue","red","pink","brown","grey","green","purple"],"door_color_assignment":["white","black"],"door_generator_assignment":[1,0],"goal":5,"start":2,"action_noise":0.1,"location_history":"[2,6,5]","action_history":"[1,1]","door_history":"[0,0]","location_rts":"[4989,4454]","trial_type":"two-door-navigation","trial_index":50,"time_elapsed":1549483,"internal_node_id":"0.0-2.0-48.0"},{"group":"tri cycles (cube, non-group)","room_assignment":["yellow","blue","red","pink","brown","grey","green","purple"],"door_color_assignment":["white","black"],"door_generator_assignment":[1,0],"goal":3,"start":5,"action_noise":0.1,"location_history":"[5,2,6,5,1,5,2,6,5,1,0,3]","action_history":"[1,1,1,0,1,1,1,0,0,0,1]","door_history":"[0,0,0,1,0,0,0,1,1,1,0]","location_rts":"[8142,3325,1152,1036,1940,1734,619,956,502,420,1332]","trial_type":"two-door-navigation","trial_index":51,"time_elapsed":1585214,"internal_node_id":"0.0-2.0-49.0"},{"view_history":"[{\"page_index\":0,\"viewing_time\":2353}]","rt":2353,"trial_type":"instructions","trial_index":52,"time_elapsed":1588568,"internal_node_id":"0.0-3.0"},{"view_history":"[{\"page_index\":0,\"viewing_time\":4398},{\"page_index\":1,\"viewing_time\":1952}]","rt":6350,"trial_type":"instructions","trial_index":53,"time_elapsed":1595919,"internal_node_id":"0.0-4.0"},{"group":"square cycles (cube, non-group)","fractal_assignment":["../images/org_blu.png","../images/gry_blk.png","../images/ylw_pnk.png","../images/grn_red.png","../images/blu_wht.png","../images/cyn_red.png","../images/pnk_blu.png","../images/ylw_slt.png"],"mutagen_generator_assignment":[0,1],"goal":5,"start":7,"action_noise":0.1,"location_history":"[7,6,5]","action_history":"[0,0]","mutagen_history":"[0,0]","location_rts":"[6551,1255]","trial_type":"fractal-mutation","trial_index":54,"time_elapsed":1609398,"internal_node_id":"0.0-5.0-0.0"},{"group":"square cycles (cube, non-group)","fractal_assignment":["../images/org_blu.png","../images/gry_blk.png","../images/ylw_pnk.png","../images/grn_red.png","../images/blu_wht.png","../images/cyn_red.png","../images/pnk_blu.png","../images/ylw_slt.png"],"mutagen_generator_assignment":[0,1],"goal":2,"start":5,"action_noise":0.1,"location_history":"[5,1,2]","action_history":"[0,0]","mutagen_history":"[0,0]","location_rts":"[1481,880]","trial_type":"fractal-mutation","trial_index":55,"time_elapsed":1617395,"internal_node_id":"0.0-5.0-1.0"},{"group":"square cycles (cube, non-group)","fractal_assignment":["../images/org_blu.png","../images/gry_blk.png","../images/ylw_pnk.png","../images/grn_red.png","../images/blu_wht.png","../images/cyn_red.png","../images/pnk_blu.png","../images/ylw_slt.png"],"mutagen_generator_assignment":[0,1],"goal":0,"start":2,"action_noise":0.1,"location_history":"[2,3,2,6,7,3,0]","action_history":"[0,0,1,1,0,0]","mutagen_history":"[0,0,1,1,0,0]","location_rts":"[1447,737,1103,1119,1030,535]","trial_type":"fractal-mutation","trial_index":56,"time_elapsed":1633391,"internal_node_id":"0.0-5.0-2.0"},{"group":"square cycles (cube, non-group)","fractal_assignment":["../images/org_blu.png","../images/gry_blk.png","../images/ylw_pnk.png","../images/grn_red.png","../images/blu_wht.png","../images/cyn_red.png","../images/pnk_blu.png","../images/ylw_slt.png"],"mutagen_generator_assignment":[0,1],"goal":1,"start":0,"action_noise":0.1,"location_history":"[0,1]","action_history":"[0]","mutagen_history":"[0]","location_rts":"[1146]","trial_type":"fractal-mutation","trial_index":57,"time_elapsed":1639111,"internal_node_id":"0.0-5.0-3.0"},{"group":"square cycles (cube, non-group)","fractal_assignment":["../images/org_blu.png","../images/gry_blk.png","../images/ylw_pnk.png","../images/grn_red.png","../images/blu_wht.png","../images/cyn_red.png","../images/pnk_blu.png","../images/ylw_slt.png"],"mutagen_generator_assignment":[0,1],"goal":6,"start":1,"action_noise":0.1,"location_history":"[1,2,3,0,4,7,6]","action_history":"[0,0,0,1,0,0]","mutagen_history":"[0,0,0,1,0,0]","location_rts":"[1456,985,614,823,574,647]","trial_type":"fractal-mutation","trial_index":58,"time_elapsed":1654222,"internal_node_id":"0.0-5.0-4.0"},{"group":"square cycles (cube, non-group)","fractal_assignment":["../images/org_blu.png","../images/gry_blk.png","../images/ylw_pnk.png","../images/grn_red.png","../images/blu_wht.png","../images/cyn_red.png","../images/pnk_blu.png","../images/ylw_slt.png"],"mutagen_generator_assignment":[0,1],"goal":3,"start":6,"action_noise":0.1,"location_history":"[6,5,4,7,6,5,4,7,3]","action_history":"[0,0,0,0,0,0,0,1]","mutagen_history":"[0,0,0,0,0,0,0,1]","location_rts":"[1433,697,485,510,588,988,712,431]","trial_type":"fractal-mutation","trial_index":59,"time_elapsed":1672174,"internal_node_id":"0.0-5.0-5.0"},{"group":"square cycles (cube, non-group)","fractal_assignment":["../images/org_blu.png","../images/gry_blk.png","../images/ylw_pnk.png","../images/grn_red.png","../images/blu_wht.png","../images/cyn_red.png","../images/pnk_blu.png","../images/ylw_slt.png"],"mutagen_generator_assignment":[0,1],"goal":4,"start":3,"action_noise":0.1,"location_history":"[3,2,6,5,1,2,6,7,6,5,4]","action_history":"[1,1,0,1,0,1,1,0,1,0]","mutagen_history":"[1,1,0,1,0,1,1,0,1,0]","location_rts":"[1969,813,726,605,932,580,486,459,825,536]","trial_type":"fractal-mutation","trial_index":60,"time_elapsed":1694651,"internal_node_id":"0.0-5.0-6.0"},{"group":"square cycles (cube, non-group)","fractal_assignment":["../images/org_blu.png","../images/gry_blk.png","../images/ylw_pnk.png","../images/grn_red.png","../images/blu_wht.png","../images/cyn_red.png","../images/pnk_blu.png","../images/ylw_slt.png"],"mutagen_generator_assignment":[0,1],"goal":1,"start":4,"action_noise":0.1,"location_history":"[4,5,1]","action_history":"[1,1]","mutagen_history":"[1,1]","location_rts":"[1500,1261]","trial_type":"fractal-mutation","trial_index":61,"time_elapsed":1703174,"internal_node_id":"0.0-5.0-7.0"},{"group":"square cycles (cube, non-group)","fractal_assignment":["../images/org_blu.png","../images/gry_blk.png","../images/ylw_pnk.png","../images/grn_red.png","../images/blu_wht.png","../images/cyn_red.png","../images/pnk_blu.png","../images/ylw_slt.png"],"mutagen_generator_assignment":[0,1],"goal":4,"start":1,"action_noise":0.1,"location_history":"[1,0,1,0,4]","action_history":"[0,0,1,1]","mutagen_history":"[0,0,1,1]","location_rts":"[1361,860,954,894]","trial_type":"fractal-mutation","trial_index":62,"time_elapsed":1715175,"internal_node_id":"0.0-5.0-8.0"},{"group":"square cycles (cube, non-group)","fractal_assignment":["../images/org_blu.png","../images/gry_blk.png","../images/ylw_pnk.png","../images/grn_red.png","../images/blu_wht.png","../images/cyn_red.png","../images/pnk_blu.png","../images/ylw_slt.png"],"mutagen_generator_assignment":[0,1],"goal":5,"start":4,"action_noise":0.1,"location_history":"[4,7,3,0,1,2,3,2,3,2,3,2,6,5]","action_history":"[1,0,1,0,0,0,1,0,0,0,1,1,1]","mutagen_history":"[1,0,1,0,0,0,1,0,0,0,1,1,1]","location_rts":"[1376,754,1954,763,565,803,1125,621,974,882,949,425,493]","trial_type":"fractal-mutation","trial_index":63,"time_elapsed":1744548,"internal_node_id":"0.0-5.0-9.0"},{"group":"square cycles (cube, non-group)","fractal_assignment":["../images/org_blu.png","../images/gry_blk.png","../images/ylw_pnk.png","../images/grn_red.png","../images/blu_wht.png","../images/cyn_red.png","../images/pnk_blu.png","../images/ylw_slt.png"],"mutagen_generator_assignment":[0,1],"goal":3,"start":5,"action_noise":0.1,"location_history":"[5,4,7,6,7,3]","action_history":"[0,0,0,1,1]","mutagen_history":"[0,0,0,1,1]","location_rts":"[1908,741,716,557,485]","trial_type":"fractal-mutation","trial_index":64,"time_elapsed":1757880,"internal_node_id":"0.0-5.0-10.0"},{"group":"square cycles (cube, non-group)","fractal_assignment":["../images/org_blu.png","../images/gry_blk.png","../images/ylw_pnk.png","../images/grn_red.png","../images/blu_wht.png","../images/cyn_red.png","../images/pnk_blu.png","../images/ylw_slt.png"],"mutagen_generator_assignment":[0,1],"goal":6,"start":3,"action_noise":0.1,"location_history":"[3,0,4,7,3,2,6]","action_history":"[0,1,0,1,1,1]","mutagen_history":"[0,1,0,1,1,1]","location_rts":"[962,546,686,519,966,495]","trial_type":"fractal-mutation","trial_index":65,"time_elapsed":1772276,"internal_node_id":"0.0-5.0-11.0"},{"group":"square cycles (cube, non-group)","fractal_assignment":["../images/org_blu.png","../images/gry_blk.png","../images/ylw_pnk.png","../images/grn_red.png","../images/blu_wht.png","../images/cyn_red.png","../images/pnk_blu.png","../images/ylw_slt.png"],"mutagen_generator_assignment":[0,1],"goal":7,"start":6,"action_noise":0.1,"location_history":"[6,5,4,7]","action_history":"[0,0,0]","mutagen_history":"[0,0,0]","location_rts":"[882,811,644]","trial_type":"fractal-mutation","trial_index":66,"time_elapsed":1781335,"internal_node_id":"0.0-5.0-12.0"},{"group":"square cycles (cube, non-group)","fractal_assignment":["../images/org_blu.png","../images/gry_blk.png","../images/ylw_pnk.png","../images/grn_red.png","../images/blu_wht.png","../images/cyn_red.png","../images/pnk_blu.png","../images/ylw_slt.png"],"mutagen_generator_assignment":[0,1],"goal":0,"start":7,"action_noise":0.1,"location_history":"[7,6,7,6,5,4,7,3,2,6,7,6,7,3,0]","action_history":"[0,1,0,0,0,0,1,1,1,1,0,1,1,0]","mutagen_history":"[0,1,0,0,0,0,1,1,1,1,0,1,1,0]","location_rts":"[1647,830,1043,365,755,704,792,389,477,600,675,405,406,652]","trial_type":"fractal-mutation","trial_index":67,"time_elapsed":1809918,"internal_node_id":"0.0-5.0-13.0"},{"group":"square cycles (cube, non-group)","fractal_assignment":["../images/org_blu.png","../images/gry_blk.png","../images/ylw_pnk.png","../images/grn_red.png","../images/blu_wht.png","../images/cyn_red.png","../images/pnk_blu.png","../images/ylw_slt.png"],"mutagen_generator_assignment":[0,1],"goal":2,"start":0,"action_noise":0.1,"location_history":"[0,4,5,4,7,6,5,1,2]","action_history":"[1,1,0,0,0,0,1,1]","mutagen_history":"[1,1,0,0,0,0,1,1]","location_rts":"[1769,720,663,720,1101,768,452,354]","trial_type":"fractal-mutation","trial_index":68,"time_elapsed":1828714,"internal_node_id":"0.0-5.0-14.0"},{"group":"square cycles (cube, non-group)","fractal_assignment":["../images/org_blu.png","../images/gry_blk.png","../images/ylw_pnk.png","../images/grn_red.png","../images/blu_wht.png","../images/cyn_red.png","../images/pnk_blu.png","../images/ylw_slt.png"],"mutagen_generator_assignment":[0,1],"goal":1,"start":2,"action_noise":0.1,"location_history":"[2,3,0,1]","action_history":"[0,0,0]","mutagen_history":"[0,0,0]","location_rts":"[1300,808,799]","trial_type":"fractal-mutation","trial_index":69,"time_elapsed":1838335,"internal_node_id":"0.0-5.0-15.0"},{"group":"square cycles (cube, non-group)","fractal_assignment":["../images/org_blu.png","../images/gry_blk.png","../images/ylw_pnk.png","../images/grn_red.png","../images/blu_wht.png","../images/cyn_red.png","../images/pnk_blu.png","../images/ylw_slt.png"],"mutagen_generator_assignment":[0,1],"goal":6,"start":1,"action_noise":0.1,"location_history":"[1,0,4,5,4,7,3,2,3,2,6]","action_history":"[1,1,1,0,0,1,1,0,1,1]","mutagen_history":"[1,1,1,0,0,1,1,0,1,1]","location_rts":"[1680,1243,630,715,1229,676,562,665,569,458]","trial_type":"fractal-mutation","trial_index":70,"time_elapsed":1861326,"internal_node_id":"0.0-5.0-16.0"},{"group":"square cycles (cube, non-group)","fractal_assignment":["../images/org_blu.png","../images/gry_blk.png","../images/ylw_pnk.png","../images/grn_red.png","../images/blu_wht.png","../images/cyn_red.png","../images/pnk_blu.png","../images/ylw_slt.png"],"mutagen_generator_assignment":[0,1],"goal":3,"start":6,"action_noise":0.1,"location_history":"[6,7,6,7,6,5,1,2,3]","action_history":"[0,0,1,1,0,1,0,0]","mutagen_history":"[0,0,1,1,0,1,0,0]","location_rts":"[2498,893,1001,951,709,1657,608,781]","trial_type":"fractal-mutation","trial_index":71,"time_elapsed":1882627,"internal_node_id":"0.0-5.0-17.0"},{"group":"square cycles (cube, non-group)","fractal_assignment":["../images/org_blu.png","../images/gry_blk.png","../images/ylw_pnk.png","../images/grn_red.png","../images/blu_wht.png","../images/cyn_red.png","../images/pnk_blu.png","../images/ylw_slt.png"],"mutagen_generator_assignment":[0,1],"goal":4,"start":3,"action_noise":0.1,"location_history":"[3,0,1,0,4]","action_history":"[0,0,0,1]","mutagen_history":"[0,0,0,1]","location_rts":"[1033,655,548,476]","trial_type":"fractal-mutation","trial_index":72,"time_elapsed":1893203,"internal_node_id":"0.0-5.0-18.0"},{"group":"square cycles (cube, non-group)","fractal_assignment":["../images/org_blu.png","../images/gry_blk.png","../images/ylw_pnk.png","../images/grn_red.png","../images/blu_wht.png","../images/cyn_red.png","../images/pnk_blu.png","../images/ylw_slt.png"],"mutagen_generator_assignment":[0,1],"goal":5,"start":4,"action_noise":0.1,"location_history":"[4,5]","action_history":"[1]","mutagen_history":"[1]","location_rts":"[1763]","trial_type":"fractal-mutation","trial_index":73,"time_elapsed":1899571,"internal_node_id":"0.0-5.0-19.0"},{"group":"square cycles (cube, non-group)","fractal_assignment":["../images/org_blu.png","../images/gry_blk.png","../images/ylw_pnk.png","../images/grn_red.png","../images/blu_wht.png","../images/cyn_red.png","../images/pnk_blu.png","../images/ylw_slt.png"],"mutagen_generator_assignment":[0,1],"goal":7,"start":5,"action_noise":0.1,"location_history":"[5,4,7]","action_history":"[0,0]","mutagen_history":"[0,0]","location_rts":"[1445,1109]","trial_type":"fractal-mutation","trial_index":74,"time_elapsed":1907740,"internal_node_id":"0.0-5.0-20.0"},{"group":"square cycles (cube, non-group)","fractal_assignment":["../images/org_blu.png","../images/gry_blk.png","../images/ylw_pnk.png","../images/grn_red.png","../images/blu_wht.png","../images/cyn_red.png","../images/pnk_blu.png","../images/ylw_slt.png"],"mutagen_generator_assignment":[0,1],"goal":2,"start":7,"action_noise":0.1,"location_history":"[7,3,0,1,2]","action_history":"[1,0,0,0]","mutagen_history":"[1,0,0,0]","location_rts":"[2235,1263,665,614]","trial_type":"fractal-mutation","trial_index":75,"time_elapsed":1920339,"internal_node_id":"0.0-5.0-21.0"},{"group":"square cycles (cube, non-group)","fractal_assignment":["../images/org_blu.png","../images/gry_blk.png","../images/ylw_pnk.png","../images/grn_red.png","../images/blu_wht.png","../images/cyn_red.png","../images/pnk_blu.png","../images/ylw_slt.png"],"mutagen_generator_assignment":[0,1],"goal":0,"start":2,"action_noise":0.1,"location_history":"[2,6,7,6,7,3,2,6,5,1,2,3,0]","action_history":"[0,1,0,1,1,1,1,0,0,0,0,0]","mutagen_history":"[0,1,0,1,1,1,1,0,0,0,0,0]","location_rts":"[1499,918,859,603,349,663,1068,584,455,925,554,494]","trial_type":"fractal-mutation","trial_index":76,"time_elapsed":1945879,"internal_node_id":"0.0-5.0-22.0"},{"group":"square cycles (cube, non-group)","fractal_assignment":["../images/org_blu.png","../images/gry_blk.png","../images/ylw_pnk.png","../images/grn_red.png","../images/blu_wht.png","../images/cyn_red.png","../images/pnk_blu.png","../images/ylw_slt.png"],"mutagen_generator_assignment":[0,1],"goal":7,"start":0,"action_noise":0.1,"location_history":"[0,4,5,4,7]","action_history":"[1,1,1,0]","mutagen_history":"[1,1,1,0]","location_rts":"[1841,574,1255,583]","trial_type":"fractal-mutation","trial_index":77,"time_elapsed":1958095,"internal_node_id":"0.0-5.0-23.0"},{"group":"square cycles (cube, non-group)","fractal_assignment":["../images/org_blu.png","../images/gry_blk.png","../images/ylw_pnk.png","../images/grn_red.png","../images/blu_wht.png","../images/cyn_red.png","../images/pnk_blu.png","../images/ylw_slt.png"],"mutagen_generator_assignment":[0,1],"goal":5,"start":7,"action_noise":0.1,"location_history":"[7,3,0,1,2,6,7,6,5]","action_history":"[1,0,0,0,1,1,0,0]","mutagen_history":"[1,0,0,0,1,1,0,0]","location_rts":"[2002,916,689,545,572,466,677,519]","trial_type":"fractal-mutation","trial_index":78,"time_elapsed":1976735,"internal_node_id":"0.0-5.0-24.0"},{"group":"square cycles (cube, non-group)","fractal_assignment":["../images/org_blu.png","../images/gry_blk.png","../images/ylw_pnk.png","../images/grn_red.png","../images/blu_wht.png","../images/cyn_red.png","../images/pnk_blu.png","../images/ylw_slt.png"],"mutagen_generator_assignment":[0,1],"goal":0,"start":5,"action_noise":0.1,"location_history":"[5,4,5,1,2,3,0]","action_history":"[0,1,1,0,0,0]","mutagen_history":"[0,1,1,0,0,0]","location_rts":"[1264,936,744,1048,461,396]","trial_type":"fractal-mutation","trial_index":79,"time_elapsed":1991590,"internal_node_id":"0.0-5.0-25.0"},{"group":"square cycles (cube, non-group)","fractal_assignment":["../images/org_blu.png","../images/gry_blk.png","../images/ylw_pnk.png","../images/grn_red.png","../images/blu_wht.png","../images/cyn_red.png","../images/pnk_blu.png","../images/ylw_slt.png"],"mutagen_generator_assignment":[0,1],"goal":6,"start":0,"action_noise":0.1,"location_history":"[0,4,7,6]","action_history":"[1,0,0]","mutagen_history":"[1,0,0]","location_rts":"[1690,806,656]","trial_type":"fractal-mutation","trial_index":80,"time_elapsed":2001514,"internal_node_id":"0.0-5.0-26.0"},{"group":"square cycles (cube, non-group)","fractal_assignment":["../images/org_blu.png","../images/gry_blk.png","../images/ylw_pnk.png","../images/grn_red.png","../images/blu_wht.png","../images/cyn_red.png","../images/pnk_blu.png","../images/ylw_slt.png"],"mutagen_generator_assignment":[0,1],"goal":4,"start":6,"action_noise":0.1,"location_history":"[6,5,1,0,1,2,3,2,6,5,4]","action_history":"[1,1,1,0,0,0,1,1,0,0]","mutagen_history":"[1,1,1,0,0,0,1,1,0,0]","location_rts":"[1406,808,887,502,497,1327,615,491,539,482]","trial_type":"fractal-mutation","trial_index":81,"time_elapsed":2023500,"internal_node_id":"0.0-5.0-27.0"},{"group":"square cycles (cube, non-group)","fractal_assignment":["../images/org_blu.png","../images/gry_blk.png","../images/ylw_pnk.png","../images/grn_red.png","../images/blu_wht.png","../images/cyn_red.png","../images/pnk_blu.png","../images/ylw_slt.png"],"mutagen_generator_assignment":[0,1],"goal":2,"start":4,"action_noise":0.1,"location_history":"[4,5,4,7,3,2]","action_history":"[1,0,0,1,1]","mutagen_history":"[1,0,0,1,1]","location_rts":"[1219,473,444,623,463]","trial_type":"fractal-mutation","trial_index":82,"time_elapsed":2035682,"internal_node_id":"0.0-5.0-28.0"},{"group":"square cycles (cube, non-group)","fractal_assignment":["../images/org_blu.png","../images/gry_blk.png","../images/ylw_pnk.png","../images/grn_red.png","../images/blu_wht.png","../images/cyn_red.png","../images/pnk_blu.png","../images/ylw_slt.png"],"mutagen_generator_assignment":[0,1],"goal":3,"start":2,"action_noise":0.1,"location_history":"[2,6,7,6,5,4,7,3]","action_history":"[1,1,0,0,1,0,0]","mutagen_history":"[1,1,0,0,1,0,0]","location_rts":"[1720,832,558,493,708,555,537]","trial_type":"fractal-mutation","trial_index":83,"time_elapsed":2052214,"internal_node_id":"0.0-5.0-29.0"},{"group":"square cycles (cube, non-group)","fractal_assignment":["../images/org_blu.png","../images/gry_blk.png","../images/ylw_pnk.png","../images/grn_red.png","../images/blu_wht.png","../images/cyn_red.png","../images/pnk_blu.png","../images/ylw_slt.png"],"mutagen_generator_assignment":[0,1],"goal":1,"start":3,"action_noise":0.1,"location_history":"[3,0,1]","action_history":"[0,0]","mutagen_history":"[0,0]","location_rts":"[1744,637]","trial_type":"fractal-mutation","trial_index":84,"time_elapsed":2060245,"internal_node_id":"0.0-5.0-30.0"},{"group":"square cycles (cube, non-group)","fractal_assignment":["../images/org_blu.png","../images/gry_blk.png","../images/ylw_pnk.png","../images/grn_red.png","../images/blu_wht.png","../images/cyn_red.png","../images/pnk_blu.png","../images/ylw_slt.png"],"mutagen_generator_assignment":[0,1],"goal":4,"start":1,"action_noise":0.1,"location_history":"[1,2,6,5,4]","action_history":"[0,1,0,0]","mutagen_history":"[0,1,0,0]","location_rts":"[2115,1037,638,544]","trial_type":"fractal-mutation","trial_index":85,"time_elapsed":2072424,"internal_node_id":"0.0-5.0-31.0"},{"group":"square cycles (cube, non-group)","fractal_assignment":["../images/org_blu.png","../images/gry_blk.png","../images/ylw_pnk.png","../images/grn_red.png","../images/blu_wht.png","../images/cyn_red.png","../images/pnk_blu.png","../images/ylw_slt.png"],"mutagen_generator_assignment":[0,1],"goal":3,"start":4,"action_noise":0.1,"location_history":"[4,5,1,2,3]","action_history":"[1,1,0,0]","mutagen_history":"[1,1,0,0]","location_rts":"[1488,918,746,531]","trial_type":"fractal-mutation","trial_index":86,"time_elapsed":2083946,"internal_node_id":"0.0-5.0-32.0"},{"group":"square cycles (cube, non-group)","fractal_assignment":["../images/org_blu.png","../images/gry_blk.png","../images/ylw_pnk.png","../images/grn_red.png","../images/blu_wht.png","../images/cyn_red.png","../images/pnk_blu.png","../images/ylw_slt.png"],"mutagen_generator_assignment":[0,1],"goal":6,"start":3,"action_noise":0.1,"location_history":"[3,2,6]","action_history":"[1,1]","mutagen_history":"[1,1]","location_rts":"[1779,849]","trial_type":"fractal-mutation","trial_index":87,"time_elapsed":2092297,"internal_node_id":"0.0-5.0-33.0"},{"group":"square cycles (cube, non-group)","fractal_assignment":["../images/org_blu.png","../images/gry_blk.png","../images/ylw_pnk.png","../images/grn_red.png","../images/blu_wht.png","../images/cyn_red.png","../images/pnk_blu.png","../images/ylw_slt.png"],"mutagen_generator_assignment":[0,1],"goal":0,"start":6,"action_noise":0.1,"location_history":"[6,5,4,7,6,5,4,5,1,2,3,0]","action_history":"[0,0,0,0,0,0,1,1,0,0,0]","mutagen_history":"[0,0,0,0,0,0,1,1,0,0,0]","location_rts":"[1212,777,656,623,527,517,642,614,1355,545,515]","trial_type":"fractal-mutation","trial_index":88,"time_elapsed":2115650,"internal_node_id":"0.0-5.0-34.0"},{"group":"square cycles (cube, non-group)","fractal_assignment":["../images/org_blu.png","../images/gry_blk.png","../images/ylw_pnk.png","../images/grn_red.png","../images/blu_wht.png","../images/cyn_red.png","../images/pnk_blu.png","../images/ylw_slt.png"],"mutagen_generator_assignment":[0,1],"goal":1,"start":0,"action_noise":0.1,"location_history":"[0,1]","action_history":"[0]","mutagen_history":"[0]","location_rts":"[1429]","trial_type":"fractal-mutation","trial_index":89,"time_elapsed":2121659,"internal_node_id":"0.0-5.0-35.0"},{"group":"square cycles (cube, non-group)","fractal_assignment":["../images/org_blu.png","../images/gry_blk.png","../images/ylw_pnk.png","../images/grn_red.png","../images/blu_wht.png","../images/cyn_red.png","../images/pnk_blu.png","../images/ylw_slt.png"],"mutagen_generator_assignment":[0,1],"goal":5,"start":1,"action_noise":0.1,"location_history":"[1,0,4,5]","action_history":"[1,1,1]","mutagen_history":"[1,1,1]","location_rts":"[1408,706,675]","trial_type":"fractal-mutation","trial_index":90,"time_elapsed":2131312,"internal_node_id":"0.0-5.0-36.0"},{"group":"square cycles (cube, non-group)","fractal_assignment":["../images/org_blu.png","../images/gry_blk.png","../images/ylw_pnk.png","../images/grn_red.png","../images/blu_wht.png","../images/cyn_red.png","../images/pnk_blu.png","../images/ylw_slt.png"],"mutagen_generator_assignment":[0,1],"goal":7,"start":5,"action_noise":0.1,"location_history":"[5,4,5,1,0,4,7]","action_history":"[0,1,1,1,1,0]","mutagen_history":"[0,1,1,1,1,0]","location_rts":"[1365,694,704,953,845,528]","trial_type":"fractal-mutation","trial_index":91,"time_elapsed":2146531,"internal_node_id":"0.0-5.0-37.0"},{"group":"square cycles (cube, non-group)","fractal_assignment":["../images/org_blu.png","../images/gry_blk.png","../images/ylw_pnk.png","../images/grn_red.png","../images/blu_wht.png","../images/cyn_red.png","../images/pnk_blu.png","../images/ylw_slt.png"],"mutagen_generator_assignment":[0,1],"goal":2,"start":7,"action_noise":0.1,"location_history":"[7,3,0,1,2]","action_history":"[1,0,0,0]","mutagen_history":"[1,0,0,0]","location_rts":"[9869,810,713,415]","trial_type":"fractal-mutation","trial_index":92,"time_elapsed":2166202,"internal_node_id":"0.0-5.0-38.0"},{"group":"square cycles (cube, non-group)","fractal_assignment":["../images/org_blu.png","../images/gry_blk.png","../images/ylw_pnk.png","../images/grn_red.png","../images/blu_wht.png","../images/cyn_red.png","../images/pnk_blu.png","../images/ylw_slt.png"],"mutagen_generator_assignment":[0,1],"goal":1,"start":2,"action_noise":0.1,"location_history":"[2,6,5,4,7,6,7,3,2,6,5,4,7,6,5,1]","action_history":"[1,0,0,0,0,1,1,1,1,0,0,0,0,0,1]","mutagen_history":"[1,0,0,0,0,1,1,1,1,0,0,0,0,0,1]","location_rts":"[1444,557,513,587,1150,588,310,482,519,449,359,416,537,415,549]","trial_type":"fractal-mutation","trial_index":93,"time_elapsed":2194938,"internal_node_id":"0.0-5.0-39.0"},{"group":"square cycles (cube, non-group)","fractal_assignment":["../images/org_blu.png","../images/gry_blk.png","../images/ylw_pnk.png","../images/grn_red.png","../images/blu_wht.png","../images/cyn_red.png","../images/pnk_blu.png","../images/ylw_slt.png"],"mutagen_generator_assignment":[0,1],"goal":3,"start":1,"action_noise":0.1,"location_history":"[1,0,4,7,3]","action_history":"[1,0,0,1]","mutagen_history":"[1,0,0,1]","location_rts":"[1373,772,751,647]","trial_type":"fractal-mutation","trial_index":94,"time_elapsed":2206412,"internal_node_id":"0.0-5.0-40.0"},{"group":"square cycles (cube, non-group)","fractal_assignment":["../images/org_blu.png","../images/gry_blk.png","../images/ylw_pnk.png","../images/grn_red.png","../images/blu_wht.png","../images/cyn_red.png","../images/pnk_blu.png","../images/ylw_slt.png"],"mutagen_generator_assignment":[0,1],"goal":4,"start":3,"action_noise":0.1,"location_history":"[3,0,1,0,4]","action_history":"[0,0,1,1]","mutagen_history":"[0,0,1,1]","location_rts":"[1369,983,714,562]","trial_type":"fractal-mutation","trial_index":95,"time_elapsed":2217953,"internal_node_id":"0.0-5.0-41.0"},{"group":"square cycles (cube, non-group)","fractal_assignment":["../images/org_blu.png","../images/gry_blk.png","../images/ylw_pnk.png","../images/grn_red.png","../images/blu_wht.png","../images/cyn_red.png","../images/pnk_blu.png","../images/ylw_slt.png"],"mutagen_generator_assignment":[0,1],"goal":2,"start":4,"action_noise":0.1,"location_history":"[4,7,3,2]","action_history":"[0,1,1]","mutagen_history":"[0,1,1]","location_rts":"[1397,824,741]","trial_type":"fractal-mutation","trial_index":96,"time_elapsed":2227748,"internal_node_id":"0.0-5.0-42.0"},{"group":"square cycles (cube, non-group)","fractal_assignment":["../images/org_blu.png","../images/gry_blk.png","../images/ylw_pnk.png","../images/grn_red.png","../images/blu_wht.png","../images/cyn_red.png","../images/pnk_blu.png","../images/ylw_slt.png"],"mutagen_generator_assignment":[0,1],"goal":5,"start":2,"action_noise":0.1,"location_history":"[2,6,7,6,5]","action_history":"[1,1,0,0]","mutagen_history":"[1,1,0,0]","location_rts":"[1332,589,672,501]","trial_type":"fractal-mutation","trial_index":97,"time_elapsed":2238739,"internal_node_id":"0.0-5.0-43.0"},{"group":"square cycles (cube, non-group)","fractal_assignment":["../images/org_blu.png","../images/gry_blk.png","../images/ylw_pnk.png","../images/grn_red.png","../images/blu_wht.png","../images/cyn_red.png","../images/pnk_blu.png","../images/ylw_slt.png"],"mutagen_generator_assignment":[0,1],"goal":0,"start":5,"action_noise":0.1,"location_history":"[5,1,2,3,0]","action_history":"[1,0,0,0]","mutagen_history":"[1,0,0,0]","location_rts":"[909,835,366,353]","trial_type":"fractal-mutation","trial_index":98,"time_elapsed":2249045,"internal_node_id":"0.0-5.0-44.0"},{"group":"square cycles (cube, non-group)","fractal_assignment":["../images/org_blu.png","../images/gry_blk.png","../images/ylw_pnk.png","../images/grn_red.png","../images/blu_wht.png","../images/cyn_red.png","../images/pnk_blu.png","../images/ylw_slt.png"],"mutagen_generator_assignment":[0,1],"goal":7,"start":0,"action_noise":0.1,"location_history":"[0,4,5,1,2,3,0,1,0,4,7]","action_history":"[1,1,1,0,0,0,1,1,1,0]","mutagen_history":"[1,1,1,0,0,0,1,1,1,0]","location_rts":"[1884,548,479,688,568,636,891,455,504,556]","trial_type":"fractal-mutation","trial_index":99,"time_elapsed":2270753,"internal_node_id":"0.0-5.0-45.0"},{"group":"square cycles (cube, non-group)","fractal_assignment":["../images/org_blu.png","../images/gry_blk.png","../images/ylw_pnk.png","../images/grn_red.png","../images/blu_wht.png","../images/cyn_red.png","../images/pnk_blu.png","../images/ylw_slt.png"],"mutagen_generator_assignment":[0,1],"goal":6,"start":7,"action_noise":0.1,"location_history":"[7,3,0,4,5,4,7,3,2,3,2,6]","action_history":"[1,0,1,1,1,0,0,1,0,1,1]","mutagen_history":"[1,0,1,1,1,0,0,1,0,1,1]","location_rts":"[1655,688,468,414,414,442,404,357,427,423,373]","trial_type":"fractal-mutation","trial_index":100,"time_elapsed":2292484,"internal_node_id":"0.0-5.0-46.0"},{"group":"square cycles (cube, non-group)","fractal_assignment":["../images/org_blu.png","../images/gry_blk.png","../images/ylw_pnk.png","../images/grn_red.png","../images/blu_wht.png","../images/cyn_red.png","../images/pnk_blu.png","../images/ylw_slt.png"],"mutagen_generator_assignment":[0,1],"goal":2,"start":6,"action_noise":0.1,"location_history":"[6,5,1,2]","action_history":"[0,1,0]","mutagen_history":"[0,1,0]","location_rts":"[1669,844,883]","trial_type":"fractal-mutation","trial_index":101,"time_elapsed":2302657,"internal_node_id":"0.0-5.0-47.0"},{"group":"square cycles (cube, non-group)","fractal_assignment":["../images/org_blu.png","../images/gry_blk.png","../images/ylw_pnk.png","../images/grn_red.png","../images/blu_wht.png","../images/cyn_red.png","../images/pnk_blu.png","../images/ylw_slt.png"],"mutagen_generator_assignment":[0,1],"goal":5,"start":2,"action_noise":0.1,"location_history":"[2,3,2,6,7,3,0,4,5]","action_history":"[0,1,1,1,0,0,1,1]","mutagen_history":"[0,1,1,1,0,0,1,1]","location_rts":"[1063,1079,466,462,508,732,616,466]","trial_type":"fractal-mutation","trial_index":102,"time_elapsed":2320397,"internal_node_id":"0.0-5.0-48.0"},{"group":"square cycles (cube, non-group)","fractal_assignment":["../images/org_blu.png","../images/gry_blk.png","../images/ylw_pnk.png","../images/grn_red.png","../images/blu_wht.png","../images/cyn_red.png","../images/pnk_blu.png","../images/ylw_slt.png"],"mutagen_generator_assignment":[0,1],"goal":3,"start":5,"action_noise":0.1,"location_history":"[5,1,2,3]","action_history":"[1,0,0]","mutagen_history":"[1,0,0]","location_rts":"[1860,653,895]","trial_type":"fractal-mutation","trial_index":103,"time_elapsed":2330592,"internal_node_id":"0.0-5.0-49.0"},{"view_history":"[{\"page_index\":0,\"viewing_time\":2615}]","rt":2616,"trial_type":"instructions","trial_index":104,"time_elapsed":2334209,"internal_node_id":"0.0-6.0"},{"rt":27877,"responses":"{\"Q0\":\"To see if I would remember how I got to each room and if I could remember how to make each shape\"}","trial_type":"survey-text","trial_index":105,"time_elapsed":2363090,"internal_node_id":"0.0-7.0-0.0"},{"rt":13932,"responses":"{\"Q0\":\"If I could remember how to make the shapes\"}","trial_type":"survey-text","trial_index":106,"time_elapsed":2378023,"internal_node_id":"0.0-7.0-1.0"},{"rt":24212,"responses":"{\"Q0\":\"<img src='../images/diagrams/square_cycles.png'>\"}","trial_type":"survey-multi-choice","trial_index":107,"time_elapsed":2403242,"internal_node_id":"0.0-7.0-2.0"},{"rt":43268,"assignments":["../images/grn_red.png","../images/pnk_blu.png","../images/ylw_slt.png","../images/ylw_pnk.png","../images/gry_blk.png","../images/cyn_red.png","../images/org_blu.png","../images/blu_wht.png"],"trial_type":"drag-drop-on-image","trial_index":108,"time_elapsed":2447511,"internal_node_id":"0.0-7.0-3.0"},{"rt":6044,"responses":"{\"Q0\":\"1\"}","trial_type":"survey-likert","trial_index":109,"time_elapsed":2454561,"internal_node_id":"0.0-7.0-4.0"},{"rt":22742,"responses":"{\"Q0\":\"Not really the rooms seemed easier to remember maybe because it felt like a game \"}","trial_type":"survey-text","trial_index":110,"time_elapsed":2478304,"internal_node_id":"0.0-7.0-5.0"},{"rt":3564,"responses":"{\"Q0\":\"No\"}","trial_type":"survey-multi-choice","trial_index":111,"time_elapsed":2482873,"internal_node_id":"0.0-7.0-6.0"},{"rt":4746,"responses":"{\"Q0\":\"Did not notice\"}","trial_type":"survey-multi-choice","trial_index":112,"time_elapsed":2488648,"internal_node_id":"0.0-7.0-7.0"},{"rt":3544,"responses":"{\"Q0\":\"\"}","trial_type":"survey-text","trial_index":113,"time_elapsed":2493192,"internal_node_id":"0.0-7.0-8.0"},{"rt":4847,"responses":"{\"Q0\":\"2\"}","trial_type":"survey-likert","trial_index":114,"time_elapsed":2499040,"internal_node_id":"0.0-7.0-9.0"},{"rt":17382,"responses":"{\"Q0\":\"Same structure\"}","trial_type":"survey-multi-choice","trial_index":115,"time_elapsed":2517424,"internal_node_id":"0.0-7.0-10.0"},{"rt":25289,"responses":"{\"Q0\":\"left (white) door = ray, (black) door = acid\",\"Q1\":\"Pretty confident\"}","trial_type":"survey-multi-choice","trial_index":116,"time_elapsed":2543721,"internal_node_id":"0.0-7.0-11.0"},{"rt":9042,"responses":"{\"Q0\":\"55-65\",\"Q1\":\"High school degree or GED\",\"Q2\":\"Female\",\"Q3\":\"White\"}","trial_type":"survey-multi-choice","trial_index":117,"time_elapsed":2553778,"internal_node_id":"0.0-8.0"},{"rt":10678,"responses":"{\"Q0\":\"The room part was the most fun\"}","trial_type":"survey-text","trial_index":118,"time_elapsed":2565456,"internal_node_id":"0.0-9.0"}]