[{"view_history":"[{\"page_index\":0,\"viewing_time\":2060},{\"page_index\":1,\"viewing_time\":16351}]","rt":18412,"trial_type":"instructions","trial_index":0,"time_elapsed":18413,"internal_node_id":"0.0-0.0"},{"view_history":"[{\"page_index\":0,\"viewing_time\":3215},{\"page_index\":1,\"viewing_time\":4055}]","rt":7270,"trial_type":"instructions","trial_index":1,"time_elapsed":26700,"internal_node_id":"0.0-1.0"},{"group":"tri cycles (cube, non-group)","room_assignment":["brown","green","grey","pink","purple","yellow","red","blue"],"door_color_assignment":["white","black"],"door_generator_assignment":[0,1],"goal":5,"start":7,"action_noise":0.1,"location_history":"[7,3,4,0,2,1,0,2,6,5]","action_history":"[1,1,1,0,0,0,0,1,1]","door_history":"[1,1,1,0,0,0,0,1,1]","location_rts":"[4186,492,1584,2453,372,411,355,384,15186]","trial_type":"two-door-navigation","trial_index":2,"time_elapsed":64890,"internal_node_id":"0.0-2.0-0.0"},{"group":"tri cycles (cube, non-group)","room_assignment":["brown","green","grey","pink","purple","yellow","red","blue"],"door_color_assignment":["white","black"],"door_generator_assignment":[0,1],"goal":2,"start":5,"action_noise":0.1,"location_history":"[5,2]","action_history":"[1]","door_history":"[1]","location_rts":"[674]","trial_type":"two-door-navigation","trial_index":3,"time_elapsed":70092,"internal_node_id":"0.0-2.0-1.0"},{"group":"tri cycles (cube, non-group)","room_assignment":["brown","green","grey","pink","purple","yellow","red","blue"],"door_color_assignment":["white","black"],"door_generator_assignment":[0,1],"goal":0,"start":2,"action_noise":0.1,"location_history":"[2,1,0]","action_history":"[1,1]","door_history":"[1,1]","location_rts":"[753,491]","trial_type":"two-door-navigation","trial_index":4,"time_elapsed":76899,"internal_node_id":"0.0-2.0-2.0"},{"group":"tri cycles (cube, non-group)","room_assignment":["brown","green","grey","pink","purple","yellow","red","blue"],"door_color_assignment":["white","black"],"door_generator_assignment":[0,1],"goal":1,"start":0,"action_noise":0.1,"location_history":"[0,3,4,0,2,1]","action_history":"[1,1,1,0,0]","door_history":"[1,1,1,0,0]","location_rts":"[927,15129,1029,1666,379]","trial_type":"two-door-navigation","trial_index":5,"time_elapsed":104665,"internal_node_id":"0.0-2.0-3.0"},{"group":"tri cycles (cube, non-group)","room_assignment":["brown","green","grey","pink","purple","yellow","red","blue"],"door_color_assignment":["white","black"],"door_generator_assignment":[0,1],"goal":6,"start":1,"action_noise":0.1,"location_history":"[1,5,2,1,5,2,1,0,2,1,5,2,6]","action_history":"[1,1,1,1,0,0,0,0,0,1,1,1]","door_history":"[1,1,1,1,0,0,0,0,0,1,1,1]","location_rts":"[10729,400,336,327,336,818,457,7022,408,396,380,333]","trial_type":"two-door-navigation","trial_index":6,"time_elapsed":142407,"internal_node_id":"0.0-2.0-4.0"},{"group":"tri cycles (cube, non-group)","room_assignment":["brown","green","grey","pink","purple","yellow","red","blue"],"door_color_assignment":["white","black"],"door_generator_assignment":[0,1],"goal":3,"start":6,"action_noise":0.1,"location_history":"[6,5,2,6,4,0,2,6,5,2,1,5,2,6,5,1,0,2,1,0,3]","action_history":"[1,1,1,0,0,0,1,1,1,0,1,1,1,1,0,0,0,0,0,1]","door_history":"[1,1,1,0,0,0,1,1,1,0,1,1,1,1,0,0,0,0,0,1]","location_rts":"[1586,917,345,327,334,351,340,360,324,716,821,421,288,272,941,376,1420,323,334,349]","trial_type":"two-door-navigation","trial_index":7,"time_elapsed":177563,"internal_node_id":"0.0-2.0-5.0"},{"group":"tri cycles (cube, non-group)","room_assignment":["brown","green","grey","pink","purple","yellow","red","blue"],"door_color_assignment":["white","black"],"door_generator_assignment":[0,1],"goal":4,"start":3,"action_noise":0.1,"location_history":"[3,4]","action_history":"[1]","door_history":"[1]","location_rts":"[735]","trial_type":"two-door-navigation","trial_index":8,"time_elapsed":182840,"internal_node_id":"0.0-2.0-6.0"},{"group":"tri cycles (cube, non-group)","room_assignment":["brown","green","grey","pink","purple","yellow","red","blue"],"door_color_assignment":["white","black"],"door_generator_assignment":[0,1],"goal":1,"start":4,"action_noise":0.1,"location_history":"[4,0,3,7,6,4,7,6,4,0,3,4,0,2,1]","action_history":"[1,1,1,0,0,0,0,0,1,1,1,1,1,0]","door_history":"[1,1,1,0,0,0,0,0,1,1,1,1,1,0]","location_rts":"[5348,374,281,387,370,335,404,348,287,352,324,336,318,223]","trial_type":"two-door-navigation","trial_index":9,"time_elapsed":210394,"internal_node_id":"0.0-2.0-7.0"},{"group":"tri cycles (cube, non-group)","room_assignment":["brown","green","grey","pink","purple","yellow","red","blue"],"door_color_assignment":["white","black"],"door_generator_assignment":[0,1],"goal":4,"start":1,"action_noise":0.1,"location_history":"[1,0,2,1,5,2,6,5,1,0,2,6,4]","action_history":"[0,0,0,1,1,1,1,0,0,0,1,0]","door_history":"[0,0,0,1,1,1,1,0,0,0,1,0]","location_rts":"[777,340,349,369,400,380,335,373,369,511,347,10994]","trial_type":"two-door-navigation","trial_index":10,"time_elapsed":241726,"internal_node_id":"0.0-2.0-8.0"},{"group":"tri cycles (cube, non-group)","room_assignment":["brown","green","grey","pink","purple","yellow","red","blue"],"door_color_assignment":["white","black"],"door_generator_assignment":[0,1],"goal":5,"start":4,"action_noise":0.1,"location_history":"[4,0,2,1,0,3,4,0,3,7,3,4,0,2,6,5]","action_history":"[1,1,1,0,1,1,1,1,0,1,1,1,0,1,1]","door_history":"[1,1,1,0,1,1,1,1,0,1,1,1,0,1,1]","location_rts":"[1524,375,531,381,384,328,336,451,363,757,416,134,400,1276,415]","trial_type":"two-door-navigation","trial_index":11,"time_elapsed":268714,"internal_node_id":"0.0-2.0-9.0"},{"group":"tri cycles (cube, non-group)","room_assignment":["brown","green","grey","pink","purple","yellow","red","blue"],"door_color_assignment":["white","black"],"door_generator_assignment":[0,1],"goal":3,"start":5,"action_noise":0.1,"location_history":"[5,2,1,5,2,1,5,2,6,5,2,6,5,2,1,5,2,1,0,3]","action_history":"[1,0,1,1,0,1,1,1,0,1,1,1,1,0,1,1,1,0,1]","door_history":"[1,0,1,1,0,1,1,1,0,1,1,1,1,0,1,1,1,0,1]","location_rts":"[699,579,335,392,363,299,373,298,276,300,390,374,340,313,353,377,284,322,336]","trial_type":"two-door-navigation","trial_index":12,"time_elapsed":298676,"internal_node_id":"0.0-2.0-10.0"},{"group":"tri cycles (cube, non-group)","room_assignment":["brown","green","grey","pink","purple","yellow","red","blue"],"door_color_assignment":["white","black"],"door_generator_assignment":[0,1],"goal":6,"start":3,"action_noise":0.1,"location_history":"[3,4,0,2,1,0,2,1,5,2,6]","action_history":"[1,1,1,1,0,0,0,1,1,1]","door_history":"[1,1,1,1,0,0,0,1,1,1]","location_rts":"[565,10553,1171,357,119,309,311,288,362,337]","trial_type":"two-door-navigation","trial_index":13,"time_elapsed":326787,"internal_node_id":"0.0-2.0-11.0"},{"group":"tri cycles (cube, non-group)","room_assignment":["brown","green","grey","pink","purple","yellow","red","blue"],"door_color_assignment":["white","black"],"door_generator_assignment":[0,1],"goal":7,"start":6,"action_noise":0.1,"location_history":"[6,5,1,0,2,1,0,2,6,5,2,6,5,1,0,2,1,5,2,6,5,2,1,5,2,6,5,1,5,2,1,0,2,1,0,2,6,5,2,1,5,1,0,2,6,5,2,6,5,2,1,0,2,6,4,7]","action_history":"[1,1,0,0,0,0,0,1,1,1,1,1,0,0,0,0,0,1,1,1,1,0,1,1,1,1,0,1,1,1,0,0,0,0,0,1,1,1,1,1,0,0,0,0,1,1,1,1,1,0,0,0,0,0,0]","door_history":"[1,1,0,0,0,0,0,1,1,1,1,1,0,0,0,0,0,1,1,1,1,0,1,1,1,1,0,1,1,1,0,0,0,0,0,1,1,1,1,1,0,0,0,0,1,1,1,1,1,0,0,0,0,0,0]","location_rts":"[536,311,287,324,257,218,486,471,272,315,227,242,273,314,345,433,357,274,385,239,304,397,231,366,458,286,290,651,419,295,357,344,257,314,323,271,296,362,257,275,471,479,303,322,317,328,236,149,279,249,374,350,286,185,252]","trial_type":"two-door-navigation","trial_index":14,"time_elapsed":404435,"internal_node_id":"0.0-2.0-12.0"},{"group":"tri cycles (cube, non-group)","room_assignment":["brown","green","grey","pink","purple","yellow","red","blue"],"door_color_assignment":["white","black"],"door_generator_assignment":[0,1],"goal":0,"start":7,"action_noise":0.1,"location_history":"[7,6,4,0]","action_history":"[0,0,1]","door_history":"[0,0,1]","location_rts":"[1800,380,308]","trial_type":"two-door-navigation","trial_index":15,"time_elapsed":413490,"internal_node_id":"0.0-2.0-13.0"},{"group":"tri cycles (cube, non-group)","room_assignment":["brown","green","grey","pink","purple","yellow","red","blue"],"door_color_assignment":["white","black"],"door_generator_assignment":[0,1],"goal":2,"start":0,"action_noise":0.1,"location_history":"[0,3,4,0,3,7,6,4,7,6,5,2]","action_history":"[1,1,1,1,0,0,0,0,0,1,1]","door_history":"[1,1,1,1,0,0,0,0,0,1,1]","location_rts":"[671,337,190,266,292,352,213,329,244,278,230]","trial_type":"two-door-navigation","trial_index":16,"time_elapsed":431671,"internal_node_id":"0.0-2.0-14.0"},{"group":"tri cycles (cube, non-group)","room_assignment":["brown","green","grey","pink","purple","yellow","red","blue"],"door_color_assignment":["white","black"],"door_generator_assignment":[0,1],"goal":1,"start":2,"action_noise":0.1,"location_history":"[2,6,5,2,1]","action_history":"[1,1,1,0]","door_history":"[1,1,1,0]","location_rts":"[305,297,483,249]","trial_type":"two-door-navigation","trial_index":17,"time_elapsed":440618,"internal_node_id":"0.0-2.0-15.0"},{"group":"tri cycles (cube, non-group)","room_assignment":["brown","green","grey","pink","purple","yellow","red","blue"],"door_color_assignment":["white","black"],"door_generator_assignment":[0,1],"goal":6,"start":1,"action_noise":0.1,"location_history":"[1,0,2,1,0,3,4,0,3,7,6]","action_history":"[0,0,0,0,1,1,1,1,0,0]","door_history":"[0,0,0,0,1,1,1,1,0,0]","location_rts":"[304,343,11018,621,374,297,184,283,271,332]","trial_type":"two-door-navigation","trial_index":18,"time_elapsed":468405,"internal_node_id":"0.0-2.0-16.0"},{"group":"tri cycles (cube, non-group)","room_assignment":["brown","green","grey","pink","purple","yellow","red","blue"],"door_color_assignment":["white","black"],"door_generator_assignment":[0,1],"goal":3,"start":6,"action_noise":0.1,"location_history":"[6,4,0,3]","action_history":"[0,1,1]","door_history":"[0,1,1]","location_rts":"[421,351,447]","trial_type":"two-door-navigation","trial_index":19,"time_elapsed":476211,"internal_node_id":"0.0-2.0-17.0"},{"group":"tri cycles (cube, non-group)","room_assignment":["brown","green","grey","pink","purple","yellow","red","blue"],"door_color_assignment":["white","black"],"door_generator_assignment":[0,1],"goal":4,"start":3,"action_noise":0.1,"location_history":"[3,4]","action_history":"[1]","door_history":"[1]","location_rts":"[557]","trial_type":"two-door-navigation","trial_index":20,"time_elapsed":481300,"internal_node_id":"0.0-2.0-18.0"},{"group":"tri cycles (cube, non-group)","room_assignment":["brown","green","grey","pink","purple","yellow","red","blue"],"door_color_assignment":["white","black"],"door_generator_assignment":[0,1],"goal":5,"start":4,"action_noise":0.1,"location_history":"[4,7,6,4,0,3,4,0,2,6,5]","action_history":"[0,0,0,1,1,1,1,0,1,1]","door_history":"[0,0,0,1,1,1,1,0,1,1]","location_rts":"[1040,285,316,290,526,333,539,262,329,510]","trial_type":"two-door-navigation","trial_index":21,"time_elapsed":499495,"internal_node_id":"0.0-2.0-19.0"},{"group":"tri cycles (cube, non-group)","room_assignment":["brown","green","grey","pink","purple","yellow","red","blue"],"door_color_assignment":["white","black"],"door_generator_assignment":[0,1],"goal":7,"start":5,"action_noise":0.1,"location_history":"[5,2,6,4,7]","action_history":"[1,1,0,0]","door_history":"[1,1,0,0]","location_rts":"[521,270,308,430]","trial_type":"two-door-navigation","trial_index":22,"time_elapsed":508632,"internal_node_id":"0.0-2.0-20.0"},{"group":"tri cycles (cube, non-group)","room_assignment":["brown","green","grey","pink","purple","yellow","red","blue"],"door_color_assignment":["white","black"],"door_generator_assignment":[0,1],"goal":2,"start":7,"action_noise":0.1,"location_history":"[7,6,4,0,3,4,0,3,4,7,6,4,0,3,4,0,2]","action_history":"[0,0,0,1,1,1,1,1,0,0,0,1,1,1,1,0]","door_history":"[0,0,0,1,1,1,1,1,0,0,0,1,1,1,1,0]","location_rts":"[320,279,298,334,286,238,254,277,238,297,237,259,315,287,308,168]","trial_type":"two-door-navigation","trial_index":23,"time_elapsed":532928,"internal_node_id":"0.0-2.0-21.0"},{"group":"tri cycles (cube, non-group)","room_assignment":["brown","green","grey","pink","purple","yellow","red","blue"],"door_color_assignment":["white","black"],"door_generator_assignment":[0,1],"goal":0,"start":2,"action_noise":0.1,"location_history":"[2,1,5,2,6,5,1,5,2,1,5,2,6,5,2,1,0]","action_history":"[0,1,1,1,1,0,0,0,0,1,1,1,1,1,0,0]","door_history":"[0,1,1,1,1,0,0,0,0,1,1,1,1,1,0,0]","location_rts":"[5160,415,403,249,184,248,303,414,264,287,326,285,342,194,180,253]","trial_type":"two-door-navigation","trial_index":24,"time_elapsed":562338,"internal_node_id":"0.0-2.0-22.0"},{"group":"tri cycles (cube, non-group)","room_assignment":["brown","green","grey","pink","purple","yellow","red","blue"],"door_color_assignment":["white","black"],"door_generator_assignment":[0,1],"goal":7,"start":0,"action_noise":0.1,"location_history":"[0,2,1,0,3,4,7]","action_history":"[0,0,0,1,1,1]","door_history":"[0,0,0,1,1,1]","location_rts":"[327,264,255,281,251,189]","trial_type":"two-door-navigation","trial_index":25,"time_elapsed":573556,"internal_node_id":"0.0-2.0-23.0"},{"group":"tri cycles (cube, non-group)","room_assignment":["brown","green","grey","pink","purple","yellow","red","blue"],"door_color_assignment":["white","black"],"door_generator_assignment":[0,1],"goal":5,"start":7,"action_noise":0.1,"location_history":"[7,3,4,7,6,4,7,3,4,0,3,7,6,5]","action_history":"[1,1,0,0,0,0,1,1,1,1,0,1,1]","door_history":"[1,1,0,0,0,0,1,1,1,1,0,1,1]","location_rts":"[300,479,234,298,278,214,244,323,298,162,224,588,347]","trial_type":"two-door-navigation","trial_index":26,"time_elapsed":594416,"internal_node_id":"0.0-2.0-24.0"},{"group":"tri cycles (cube, non-group)","room_assignment":["brown","green","grey","pink","purple","yellow","red","blue"],"door_color_assignment":["white","black"],"door_generator_assignment":[0,1],"goal":0,"start":5,"action_noise":0.1,"location_history":"[5,2,6,5,2,1,0]","action_history":"[1,1,1,1,0,0]","door_history":"[1,1,1,1,0,0]","location_rts":"[432,378,200,261,242,254]","trial_type":"two-door-navigation","trial_index":27,"time_elapsed":605851,"internal_node_id":"0.0-2.0-25.0"},{"group":"tri cycles (cube, non-group)","room_assignment":["brown","green","grey","pink","purple","yellow","red","blue"],"door_color_assignment":["white","black"],"door_generator_assignment":[0,1],"goal":6,"start":0,"action_noise":0.1,"location_history":"[0,2,1,0,2,6]","action_history":"[0,0,0,0,1]","door_history":"[0,0,0,0,1]","location_rts":"[501,186,188,251,276]","trial_type":"two-door-navigation","trial_index":28,"time_elapsed":615898,"internal_node_id":"0.0-2.0-26.0"},{"group":"tri cycles (cube, non-group)","room_assignment":["brown","green","grey","pink","purple","yellow","red","blue"],"door_color_assignment":["white","black"],"door_generator_assignment":[0,1],"goal":4,"start":6,"action_noise":0.1,"location_history":"[6,5,2,6,5,1,0,2,1,0,2,6,5,2,6,4]","action_history":"[1,1,1,1,0,0,0,0,0,0,1,1,1,1,1]","door_history":"[1,1,1,1,0,0,0,0,0,0,1,1,1,1,1]","location_rts":"[286,312,233,283,245,267,443,261,288,321,253,278,263,237,245]","trial_type":"two-door-navigation","trial_index":29,"time_elapsed":639017,"internal_node_id":"0.0-2.0-27.0"},{"group":"tri cycles (cube, non-group)","room_assignment":["brown","green","grey","pink","purple","yellow","red","blue"],"door_color_assignment":["white","black"],"door_generator_assignment":[0,1],"goal":2,"start":4,"action_noise":0.1,"location_history":"[4,0,3,4,0,2]","action_history":"[1,1,1,1,0]","door_history":"[1,1,1,1,0]","location_rts":"[308,321,439,120,325]","trial_type":"two-door-navigation","trial_index":30,"time_elapsed":649161,"internal_node_id":"0.0-2.0-28.0"},{"group":"tri cycles (cube, non-group)","room_assignment":["brown","green","grey","pink","purple","yellow","red","blue"],"door_color_assignment":["white","black"],"door_generator_assignment":[0,1],"goal":3,"start":2,"action_noise":0.1,"location_history":"[2,1,0,2,6,5,2,1,5,2,6,5,1,5,2,1,5,1,5,2,6,4,7,3]","action_history":"[0,0,1,1,1,1,0,1,1,1,1,0,1,1,1,1,0,1,1,1,0,1,1]","door_history":"[0,0,1,1,1,1,0,1,1,1,1,0,1,1,1,1,0,1,1,1,0,1,1]","location_rts":"[541,288,265,336,249,300,268,223,378,330,278,282,243,311,323,8433,288,273,248,243,294,277,311]","trial_type":"two-door-navigation","trial_index":31,"time_elapsed":691213,"internal_node_id":"0.0-2.0-29.0"},{"group":"tri cycles (cube, non-group)","room_assignment":["brown","green","grey","pink","purple","yellow","red","blue"],"door_color_assignment":["white","black"],"door_generator_assignment":[0,1],"goal":1,"start":3,"action_noise":0.1,"location_history":"[3,4,0,3,4,7,6,4,7,3,4,0,3,4,0,3,7,6,4,7,3,7,6,4,7,3,4,7,6,5,1]","action_history":"[1,1,1,0,0,0,0,0,1,1,1,1,1,1,1,0,0,0,0,1,0,0,0,0,1,1,0,0,0,0]","door_history":"[1,1,1,0,0,0,0,0,1,1,1,1,1,1,1,0,0,0,0,1,0,0,0,0,1,1,0,0,0,0]","location_rts":"[755,226,311,281,245,299,293,279,243,242,182,227,159,145,156,47,259,250,274,154,398,350,302,239,251,1062,1466,383,318,425]","trial_type":"two-door-navigation","trial_index":32,"time_elapsed":735707,"internal_node_id":"0.0-2.0-30.0"},{"group":"tri cycles (cube, non-group)","room_assignment":["brown","green","grey","pink","purple","yellow","red","blue"],"door_color_assignment":["white","black"],"door_generator_assignment":[0,1],"goal":4,"start":1,"action_noise":0.1,"location_history":"[1,5,1,0,3,4]","action_history":"[0,0,0,1,1]","door_history":"[0,0,0,1,1]","location_rts":"[435,254,210,262,294]","trial_type":"two-door-navigation","trial_index":33,"time_elapsed":745791,"internal_node_id":"0.0-2.0-31.0"},{"group":"tri cycles (cube, non-group)","room_assignment":["brown","green","grey","pink","purple","yellow","red","blue"],"door_color_assignment":["white","black"],"door_generator_assignment":[0,1],"goal":3,"start":4,"action_noise":0.1,"location_history":"[4,0,2,6,5,1,0,3]","action_history":"[1,1,1,1,0,1,1]","door_history":"[1,1,1,1,0,1,1]","location_rts":"[296,317,270,177,32,748,465]","trial_type":"two-door-navigation","trial_index":34,"time_elapsed":758807,"internal_node_id":"0.0-2.0-32.0"},{"group":"tri cycles (cube, non-group)","room_assignment":["brown","green","grey","pink","purple","yellow","red","blue"],"door_color_assignment":["white","black"],"door_generator_assignment":[0,1],"goal":6,"start":3,"action_noise":0.1,"location_history":"[3,7,6]","action_history":"[0,0]","door_history":"[0,0]","location_rts":"[11057,378]","trial_type":"two-door-navigation","trial_index":35,"time_elapsed":775794,"internal_node_id":"0.0-2.0-33.0"},{"group":"tri cycles (cube, non-group)","room_assignment":["brown","green","grey","pink","purple","yellow","red","blue"],"door_color_assignment":["white","black"],"door_generator_assignment":[0,1],"goal":0,"start":6,"action_noise":0.1,"location_history":"[6,4,7,6,5,2,6,5,2,6,5,1,0]","action_history":"[0,0,0,1,1,1,1,1,1,1,0,0]","door_history":"[0,0,0,1,1,1,1,1,1,1,0,0]","location_rts":"[325,311,298,291,316,204,254,264,230,291,260,249]","trial_type":"two-door-navigation","trial_index":36,"time_elapsed":794917,"internal_node_id":"0.0-2.0-34.0"},{"group":"tri cycles (cube, non-group)","room_assignment":["brown","green","grey","pink","purple","yellow","red","blue"],"door_color_assignment":["white","black"],"door_generator_assignment":[0,1],"goal":1,"start":0,"action_noise":0.1,"location_history":"[0,2,1]","action_history":"[0,0]","door_history":"[0,0]","location_rts":"[323,214]","trial_type":"two-door-navigation","trial_index":37,"time_elapsed":801022,"internal_node_id":"0.0-2.0-35.0"},{"group":"tri cycles (cube, non-group)","room_assignment":["brown","green","grey","pink","purple","yellow","red","blue"],"door_color_assignment":["white","black"],"door_generator_assignment":[0,1],"goal":5,"start":1,"action_noise":0.1,"location_history":"[1,0,3,7,6,4,7,3,4,0,3,7,6,4,0,3,4,0,3,4,0,3,7,6,5]","action_history":"[1,1,0,0,0,0,1,1,1,1,0,0,0,1,1,1,0,1,1,0,1,0,0,1]","door_history":"[1,1,0,0,0,0,1,1,1,1,0,0,0,1,1,1,0,1,1,0,1,0,0,1]","location_rts":"[339,282,10037,231,239,301,286,494,294,284,275,240,264,825,290,503,586,1215,311,321,261,728,259,149]","trial_type":"two-door-navigation","trial_index":38,"time_elapsed":848163,"internal_node_id":"0.0-2.0-36.0"},{"group":"tri cycles (cube, non-group)","room_assignment":["brown","green","grey","pink","purple","yellow","red","blue"],"door_color_assignment":["white","black"],"door_generator_assignment":[0,1],"goal":7,"start":5,"action_noise":0.1,"location_history":"[5,2,6,5,1,0,2,1,5,1,5,2,6,4,7]","action_history":"[1,1,1,0,0,0,0,1,1,1,1,1,0,0]","door_history":"[1,1,1,0,0,0,0,1,1,1,1,1,0,0]","location_rts":"[526,404,325,18161,345,383,295,267,336,393,306,261,255,573]","trial_type":"two-door-navigation","trial_index":39,"time_elapsed":888910,"internal_node_id":"0.0-2.0-37.0"},{"group":"tri cycles (cube, non-group)","room_assignment":["brown","green","grey","pink","purple","yellow","red","blue"],"door_color_assignment":["white","black"],"door_generator_assignment":[0,1],"goal":2,"start":7,"action_noise":0.1,"location_history":"[7,6,4,0,3,4,0,2]","action_history":"[0,0,1,1,1,1,0]","door_history":"[0,0,1,1,1,1,0]","location_rts":"[743,306,501,287,320,264,212]","trial_type":"two-door-navigation","trial_index":40,"time_elapsed":902223,"internal_node_id":"0.0-2.0-38.0"},{"group":"tri cycles (cube, non-group)","room_assignment":["brown","green","grey","pink","purple","yellow","red","blue"],"door_color_assignment":["white","black"],"door_generator_assignment":[0,1],"goal":1,"start":2,"action_noise":0.1,"location_history":"[2,1]","action_history":"[0]","door_history":"[0]","location_rts":"[612]","trial_type":"two-door-navigation","trial_index":41,"time_elapsed":907361,"internal_node_id":"0.0-2.0-39.0"},{"group":"tri cycles (cube, non-group)","room_assignment":["brown","green","grey","pink","purple","yellow","red","blue"],"door_color_assignment":["white","black"],"door_generator_assignment":[0,1],"goal":3,"start":1,"action_noise":0.1,"location_history":"[1,5,2,6,4,0,2,6,4,0,3]","action_history":"[1,1,1,0,1,1,1,0,1,1]","door_history":"[1,1,1,0,1,1,1,0,1,1]","location_rts":"[20337,473,161,282,280,308,14064,376,324,501]","trial_type":"two-door-navigation","trial_index":42,"time_elapsed":958219,"internal_node_id":"0.0-2.0-40.0"},{"group":"tri cycles (cube, non-group)","room_assignment":["brown","green","grey","pink","purple","yellow","red","blue"],"door_color_assignment":["white","black"],"door_generator_assignment":[0,1],"goal":4,"start":3,"action_noise":0.1,"location_history":"[3,4]","action_history":"[1]","door_history":"[1]","location_rts":"[1111]","trial_type":"two-door-navigation","trial_index":43,"time_elapsed":963862,"internal_node_id":"0.0-2.0-41.0"},{"group":"tri cycles (cube, non-group)","room_assignment":["brown","green","grey","pink","purple","yellow","red","blue"],"door_color_assignment":["white","black"],"door_generator_assignment":[0,1],"goal":2,"start":4,"action_noise":0.1,"location_history":"[4,7,6,4,0,3,4,7,3,7,3,4,0,3,7,6,4,0,3,4,7,3,4,0,3,7,6,5,2]","action_history":"[0,0,0,1,1,1,0,0,0,1,1,1,1,0,0,0,1,1,0,1,1,1,1,0,0,0,1,1]","door_history":"[0,0,0,1,1,1,0,0,0,1,1,1,1,0,0,0,1,1,0,1,1,1,1,0,0,0,1,1]","location_rts":"[1481,356,496,306,330,296,282,485,285,292,301,279,232,358,301,276,259,313,19516,745,309,231,245,337,435,273,215,252]","trial_type":"two-door-navigation","trial_index":44,"time_elapsed":1025598,"internal_node_id":"0.0-2.0-42.0"},{"group":"tri cycles (cube, non-group)","room_assignment":["brown","green","grey","pink","purple","yellow","red","blue"],"door_color_assignment":["white","black"],"door_generator_assignment":[0,1],"goal":5,"start":2,"action_noise":0.1,"location_history":"[2,6,5]","action_history":"[1,1]","door_history":"[1,1]","location_rts":"[535,279]","trial_type":"two-door-navigation","trial_index":45,"time_elapsed":1031965,"internal_node_id":"0.0-2.0-43.0"},{"group":"tri cycles (cube, non-group)","room_assignment":["brown","green","grey","pink","purple","yellow","red","blue"],"door_color_assignment":["white","black"],"door_generator_assignment":[0,1],"goal":0,"start":5,"action_noise":0.1,"location_history":"[5,2,6,5,2,6,4,7,6,5,2,6,4,7,6,5,2,1,5,1,0]","action_history":"[1,1,1,1,0,0,0,1,1,1,1,0,0,0,1,1,1,1,0,0]","door_history":"[1,1,1,1,0,0,0,1,1,1,1,0,0,0,1,1,1,1,0,0]","location_rts":"[474,208,6856,366,378,303,138,288,285,253,253,262,469,620,284,298,250,273,305,714]","trial_type":"two-door-navigation","trial_index":46,"time_elapsed":1069225,"internal_node_id":"0.0-2.0-44.0"},{"group":"tri cycles (cube, non-group)","room_assignment":["brown","green","grey","pink","purple","yellow","red","blue"],"door_color_assignment":["white","black"],"door_generator_assignment":[0,1],"goal":7,"start":0,"action_noise":0.1,"location_history":"[0,3,4,0,3,4,7]","action_history":"[0,1,1,1,1,0]","door_history":"[0,1,1,1,1,0]","location_rts":"[436,375,364,301,295,745]","trial_type":"two-door-navigation","trial_index":47,"time_elapsed":1081398,"internal_node_id":"0.0-2.0-45.0"},{"group":"tri cycles (cube, non-group)","room_assignment":["brown","green","grey","pink","purple","yellow","red","blue"],"door_color_assignment":["white","black"],"door_generator_assignment":[0,1],"goal":6,"start":7,"action_noise":0.1,"location_history":"[7,6]","action_history":"[0]","door_history":"[0]","location_rts":"[326]","trial_type":"two-door-navigation","trial_index":48,"time_elapsed":1086257,"internal_node_id":"0.0-2.0-46.0"},{"group":"tri cycles (cube, non-group)","room_assignment":["brown","green","grey","pink","purple","yellow","red","blue"],"door_color_assignment":["white","black"],"door_generator_assignment":[0,1],"goal":2,"start":6,"action_noise":0.1,"location_history":"[6,5,2]","action_history":"[1,1]","door_history":"[1,1]","location_rts":"[1373,364]","trial_type":"two-door-navigation","trial_index":49,"time_elapsed":1093555,"internal_node_id":"0.0-2.0-47.0"},{"group":"tri cycles (cube, non-group)","room_assignment":["brown","green","grey","pink","purple","yellow","red","blue"],"door_color_assignment":["white","black"],"door_generator_assignment":[0,1],"goal":5,"start":2,"action_noise":0.1,"location_history":"[2,1,0,2,1,5]","action_history":"[0,0,0,0,1]","door_history":"[0,0,0,0,1]","location_rts":"[857,373,321,303,306]","trial_type":"two-door-navigation","trial_index":50,"time_elapsed":1104332,"internal_node_id":"0.0-2.0-48.0"},{"group":"tri cycles (cube, non-group)","room_assignment":["brown","green","grey","pink","purple","yellow","red","blue"],"door_color_assignment":["white","black"],"door_generator_assignment":[0,1],"goal":3,"start":5,"action_noise":0.1,"location_history":"[5,1,0,3]","action_history":"[0,0,0]","door_history":"[0,0,0]","location_rts":"[2633,296,209]","trial_type":"two-door-navigation","trial_index":51,"time_elapsed":1114054,"internal_node_id":"0.0-2.0-49.0"},{"view_history":"[{\"page_index\":0,\"viewing_time\":469612}]","rt":469612,"trial_type":"instructions","trial_index":52,"time_elapsed":1584667,"internal_node_id":"0.0-3.0"},{"view_history":"[{\"page_index\":0,\"viewing_time\":2288},{\"page_index\":1,\"viewing_time\":4048}]","rt":6336,"trial_type":"instructions","trial_index":53,"time_elapsed":1592004,"internal_node_id":"0.0-4.0"},{"group":"tri cycles (cube, non-group)","fractal_assignment":["../images/ylw_slt.png","../images/gry_blk.png","../images/grn_red.png","../images/blu_wht.png","../images/ylw_pnk.png","../images/cyn_red.png","../images/org_blu.png","../images/pnk_blu.png"],"mutagen_generator_assignment":[0,1],"goal":5,"start":7,"action_noise":0.1,"location_history":"[7,6,4,0,2,6,5]","action_history":"[0,0,0,0,1,1]","mutagen_history":"[0,0,0,0,1,1]","location_rts":"[5990,49,402,22,487,537]","trial_type":"fractal-mutation","trial_index":54,"time_elapsed":1609229,"internal_node_id":"0.0-5.0-0.0"},{"group":"tri cycles (cube, non-group)","fractal_assignment":["../images/ylw_slt.png","../images/gry_blk.png","../images/grn_red.png","../images/blu_wht.png","../images/ylw_pnk.png","../images/cyn_red.png","../images/org_blu.png","../images/pnk_blu.png"],"mutagen_generator_assignment":[0,1],"goal":2,"start":5,"action_noise":0.1,"location_history":"[5,2]","action_history":"[1]","mutagen_history":"[1]","location_rts":"[698]","trial_type":"fractal-mutation","trial_index":55,"time_elapsed":1614486,"internal_node_id":"0.0-5.0-1.0"},{"group":"tri cycles (cube, non-group)","fractal_assignment":["../images/ylw_slt.png","../images/gry_blk.png","../images/grn_red.png","../images/blu_wht.png","../images/ylw_pnk.png","../images/cyn_red.png","../images/org_blu.png","../images/pnk_blu.png"],"mutagen_generator_assignment":[0,1],"goal":0,"start":2,"action_noise":0.1,"location_history":"[2,1,0]","action_history":"[0,0]","mutagen_history":"[0,0]","location_rts":"[1172,424]","trial_type":"fractal-mutation","trial_index":56,"time_elapsed":1621662,"internal_node_id":"0.0-5.0-2.0"},{"group":"tri cycles (cube, non-group)","fractal_assignment":["../images/ylw_slt.png","../images/gry_blk.png","../images/grn_red.png","../images/blu_wht.png","../images/ylw_pnk.png","../images/cyn_red.png","../images/org_blu.png","../images/pnk_blu.png"],"mutagen_generator_assignment":[0,1],"goal":1,"start":0,"action_noise":0.1,"location_history":"[0,3,4,0,3,7,6,4,7,6,4,0,3,4,0,3,7,6,5,2,1]","action_history":"[1,1,1,1,0,0,0,0,0,0,1,1,1,1,1,0,0,1,1,0]","mutagen_history":"[1,1,1,1,0,0,0,0,0,0,1,1,1,1,1,0,0,1,1,0]","location_rts":"[666,400,485,398,243,374,273,342,230,328,441,561,654,6735,192,594,580,440,424,424]","trial_type":"fractal-mutation","trial_index":57,"time_elapsed":1660739,"internal_node_id":"0.0-5.0-3.0"},{"group":"tri cycles (cube, non-group)","fractal_assignment":["../images/ylw_slt.png","../images/gry_blk.png","../images/grn_red.png","../images/blu_wht.png","../images/ylw_pnk.png","../images/cyn_red.png","../images/org_blu.png","../images/pnk_blu.png"],"mutagen_generator_assignment":[0,1],"goal":6,"start":1,"action_noise":0.1,"location_history":"[1,0,2,1,0,2,6]","action_history":"[0,0,0,0,0,1]","mutagen_history":"[0,0,0,0,0,1]","location_rts":"[772,443,449,520,217,1750]","trial_type":"fractal-mutation","trial_index":58,"time_elapsed":1674629,"internal_node_id":"0.0-5.0-4.0"},{"group":"tri cycles (cube, non-group)","fractal_assignment":["../images/ylw_slt.png","../images/gry_blk.png","../images/grn_red.png","../images/blu_wht.png","../images/ylw_pnk.png","../images/cyn_red.png","../images/org_blu.png","../images/pnk_blu.png"],"mutagen_generator_assignment":[0,1],"goal":3,"start":6,"action_noise":0.1,"location_history":"[6,5,2,6,5,2,1,0,2,1,0,2,1,0,3]","action_history":"[1,1,1,1,1,0,0,0,0,0,0,0,0,1]","mutagen_history":"[1,1,1,1,1,0,0,0,0,0,0,0,0,1]","location_rts":"[768,462,25,334,552,1059,810,642,325,537,563,760,614,534]","trial_type":"fractal-mutation","trial_index":59,"time_elapsed":1700662,"internal_node_id":"0.0-5.0-5.0"},{"group":"tri cycles (cube, non-group)","fractal_assignment":["../images/ylw_slt.png","../images/gry_blk.png","../images/grn_red.png","../images/blu_wht.png","../images/ylw_pnk.png","../images/cyn_red.png","../images/org_blu.png","../images/pnk_blu.png"],"mutagen_generator_assignment":[0,1],"goal":4,"start":3,"action_noise":0.1,"location_history":"[3,4]","action_history":"[1]","mutagen_history":"[1]","location_rts":"[815]","trial_type":"fractal-mutation","trial_index":60,"time_elapsed":1706029,"internal_node_id":"0.0-5.0-6.0"},{"group":"tri cycles (cube, non-group)","fractal_assignment":["../images/ylw_slt.png","../images/gry_blk.png","../images/grn_red.png","../images/blu_wht.png","../images/ylw_pnk.png","../images/cyn_red.png","../images/org_blu.png","../images/pnk_blu.png"],"mutagen_generator_assignment":[0,1],"goal":1,"start":4,"action_noise":0.1,"location_history":"[4,0,3,4,7,3,4,7,6,4,7,3,4,0,3,4,7,6,4,7,6,5,2,6,5,2,1]","action_history":"[1,1,1,1,1,1,0,0,0,0,1,1,1,1,1,0,0,0,0,0,0,1,1,1,1,1]","mutagen_history":"[1,1,1,1,1,1,0,0,0,0,1,1,1,1,1,0,0,0,0,0,0,1,1,1,1,1]","location_rts":"[666,418,543,327,321,420,369,538,614,753,714,537,505,503,619,699,121,534,597,504,170,324,357,75,279,55]","trial_type":"fractal-mutation","trial_index":61,"time_elapsed":1748122,"internal_node_id":"0.0-5.0-7.0"},{"group":"tri cycles (cube, non-group)","fractal_assignment":["../images/ylw_slt.png","../images/gry_blk.png","../images/grn_red.png","../images/blu_wht.png","../images/ylw_pnk.png","../images/cyn_red.png","../images/org_blu.png","../images/pnk_blu.png"],"mutagen_generator_assignment":[0,1],"goal":4,"start":1,"action_noise":0.1,"location_history":"[1,0,2,1,0,2,1,5,2,6,5,2,6,5,2,1,0,2,1,0,2,1,5,2,6,5,2,6,5,2,1,0,2,6,4]","action_history":"[0,0,0,0,0,0,1,1,1,1,1,1,1,1,0,0,0,0,0,1,1,1,1,1,1,1,1,1,0,0,0,0,0,0]","mutagen_history":"[0,0,0,0,0,0,1,1,1,1,1,1,1,1,0,0,0,0,0,1,1,1,1,1,1,1,1,1,0,0,0,0,0,0]","location_rts":"[639,246,324,265,254,261,368,163,154,667,409,299,346,204,353,298,122,188,215,314,238,114,161,116,16,74,66,27,244,118,155,200,212,209]","trial_type":"fractal-mutation","trial_index":62,"time_elapsed":1794980,"internal_node_id":"0.0-5.0-8.0"},{"group":"tri cycles (cube, non-group)","fractal_assignment":["../images/ylw_slt.png","../images/gry_blk.png","../images/grn_red.png","../images/blu_wht.png","../images/ylw_pnk.png","../images/cyn_red.png","../images/org_blu.png","../images/pnk_blu.png"],"mutagen_generator_assignment":[0,1],"goal":5,"start":4,"action_noise":0.1,"location_history":"[4,0,2,1,5]","action_history":"[0,0,0,1]","mutagen_history":"[0,0,0,1]","location_rts":"[550,240,286,326]","trial_type":"fractal-mutation","trial_index":63,"time_elapsed":1804038,"internal_node_id":"0.0-5.0-9.0"},{"group":"tri cycles (cube, non-group)","fractal_assignment":["../images/ylw_slt.png","../images/gry_blk.png","../images/grn_red.png","../images/blu_wht.png","../images/ylw_pnk.png","../images/cyn_red.png","../images/org_blu.png","../images/pnk_blu.png"],"mutagen_generator_assignment":[0,1],"goal":3,"start":5,"action_noise":0.1,"location_history":"[5,1,0,2,1,5,2,6,5,1,5,2,6,5,2,1,0,3]","action_history":"[0,0,0,0,1,1,1,1,1,1,1,1,1,1,0,0,0]","mutagen_history":"[0,0,0,0,1,1,1,1,1,1,1,1,1,1,0,0,0]","location_rts":"[851,217,212,233,298,427,405,145,278,111,185,197,308,150,299,363,217]","trial_type":"fractal-mutation","trial_index":64,"time_elapsed":1830076,"internal_node_id":"0.0-5.0-10.0"},{"group":"tri cycles (cube, non-group)","fractal_assignment":["../images/ylw_slt.png","../images/gry_blk.png","../images/grn_red.png","../images/blu_wht.png","../images/ylw_pnk.png","../images/cyn_red.png","../images/org_blu.png","../images/pnk_blu.png"],"mutagen_generator_assignment":[0,1],"goal":6,"start":3,"action_noise":0.1,"location_history":"[3,7,6]","action_history":"[0,0]","mutagen_history":"[0,0]","location_rts":"[492,272]","trial_type":"fractal-mutation","trial_index":65,"time_elapsed":1836413,"internal_node_id":"0.0-5.0-11.0"},{"group":"tri cycles (cube, non-group)","fractal_assignment":["../images/ylw_slt.png","../images/gry_blk.png","../images/grn_red.png","../images/blu_wht.png","../images/ylw_pnk.png","../images/cyn_red.png","../images/org_blu.png","../images/pnk_blu.png"],"mutagen_generator_assignment":[0,1],"goal":7,"start":6,"action_noise":0.1,"location_history":"[6,5,2,6,5,1,5,2,1,0,2,1,5,1,0,2,6,5,2,1,0,2,1,0,2,1,5,1,5,2,6,4,7]","action_history":"[1,1,1,1,1,1,1,0,0,0,0,0,0,0,1,1,1,1,0,0,0,0,0,0,0,1,1,1,1,1,0,0]","mutagen_history":"[1,1,1,1,1,1,1,0,0,0,0,0,0,0,1,1,1,1,0,0,0,0,0,0,0,1,1,1,1,1,0,0]","location_rts":"[587,233,189,239,262,172,163,241,292,250,341,3326,510,424,256,252,197,101,223,380,137,150,139,156,229,279,177,170,153,135,206,153]","trial_type":"fractal-mutation","trial_index":66,"time_elapsed":1883890,"internal_node_id":"0.0-5.0-12.0"},{"group":"tri cycles (cube, non-group)","fractal_assignment":["../images/ylw_slt.png","../images/gry_blk.png","../images/grn_red.png","../images/blu_wht.png","../images/ylw_pnk.png","../images/cyn_red.png","../images/org_blu.png","../images/pnk_blu.png"],"mutagen_generator_assignment":[0,1],"goal":0,"start":7,"action_noise":0.1,"location_history":"[7,3,4,0]","action_history":"[1,1,1]","mutagen_history":"[1,1,1]","location_rts":"[610,275,1132]","trial_type":"fractal-mutation","trial_index":67,"time_elapsed":1892580,"internal_node_id":"0.0-5.0-13.0"},{"group":"tri cycles (cube, non-group)","fractal_assignment":["../images/ylw_slt.png","../images/gry_blk.png","../images/grn_red.png","../images/blu_wht.png","../images/ylw_pnk.png","../images/cyn_red.png","../images/org_blu.png","../images/pnk_blu.png"],"mutagen_generator_assignment":[0,1],"goal":2,"start":0,"action_noise":0.1,"location_history":"[0,2]","action_history":"[0]","mutagen_history":"[0]","location_rts":"[434]","trial_type":"fractal-mutation","trial_index":68,"time_elapsed":1897554,"internal_node_id":"0.0-5.0-14.0"},{"group":"tri cycles (cube, non-group)","fractal_assignment":["../images/ylw_slt.png","../images/gry_blk.png","../images/grn_red.png","../images/blu_wht.png","../images/ylw_pnk.png","../images/cyn_red.png","../images/org_blu.png","../images/pnk_blu.png"],"mutagen_generator_assignment":[0,1],"goal":1,"start":2,"action_noise":0.1,"location_history":"[2,6,5,2,1]","action_history":"[1,1,1,1]","mutagen_history":"[1,1,1,1]","location_rts":"[355,163,196,207]","trial_type":"fractal-mutation","trial_index":69,"time_elapsed":1906143,"internal_node_id":"0.0-5.0-15.0"},{"group":"tri cycles (cube, non-group)","fractal_assignment":["../images/ylw_slt.png","../images/gry_blk.png","../images/grn_red.png","../images/blu_wht.png","../images/ylw_pnk.png","../images/cyn_red.png","../images/org_blu.png","../images/pnk_blu.png"],"mutagen_generator_assignment":[0,1],"goal":6,"start":1,"action_noise":0.1,"location_history":"[1,0,2,1,0,3,7,6]","action_history":"[0,0,0,0,0,0,0]","mutagen_history":"[0,0,0,0,0,0,0]","location_rts":"[457,167,504,178,167,167,234]","trial_type":"fractal-mutation","trial_index":70,"time_elapsed":1918756,"internal_node_id":"0.0-5.0-16.0"},{"group":"tri cycles (cube, non-group)","fractal_assignment":["../images/ylw_slt.png","../images/gry_blk.png","../images/grn_red.png","../images/blu_wht.png","../images/ylw_pnk.png","../images/cyn_red.png","../images/org_blu.png","../images/pnk_blu.png"],"mutagen_generator_assignment":[0,1],"goal":3,"start":6,"action_noise":0.1,"location_history":"[6,5,2,6,5,2,6,4,7,6,4,7,6,5,2,6,5,2,1,5,2,6,5,2,1,0,2,1,0,3]","action_history":"[1,1,1,1,1,1,0,0,0,0,0,0,1,1,1,1,1,1,1,1,1,1,1,0,0,0,0,0,1]","mutagen_history":"[1,1,1,1,1,1,0,0,0,0,0,0,1,1,1,1,1,1,1,1,1,1,1,0,0,0,0,0,1]","location_rts":"[371,301,151,114,76,143,239,211,135,170,147,215,196,168,216,207,142,10234,245,77,58,102,224,117,133,254,308,128,298]","trial_type":"fractal-mutation","trial_index":71,"time_elapsed":1967798,"internal_node_id":"0.0-5.0-17.0"},{"group":"tri cycles (cube, non-group)","fractal_assignment":["../images/ylw_slt.png","../images/gry_blk.png","../images/grn_red.png","../images/blu_wht.png","../images/ylw_pnk.png","../images/cyn_red.png","../images/org_blu.png","../images/pnk_blu.png"],"mutagen_generator_assignment":[0,1],"goal":4,"start":3,"action_noise":0.1,"location_history":"[3,4]","action_history":"[1]","mutagen_history":"[1]","location_rts":"[301]","trial_type":"fractal-mutation","trial_index":72,"time_elapsed":1972647,"internal_node_id":"0.0-5.0-18.0"},{"group":"tri cycles (cube, non-group)","fractal_assignment":["../images/ylw_slt.png","../images/gry_blk.png","../images/grn_red.png","../images/blu_wht.png","../images/ylw_pnk.png","../images/cyn_red.png","../images/org_blu.png","../images/pnk_blu.png"],"mutagen_generator_assignment":[0,1],"goal":5,"start":4,"action_noise":0.1,"location_history":"[4,0,3,4,0,3,7,6,4,7,6,4,7,3,7,3,4,0,2,1,5]","action_history":"[1,1,1,1,1,0,0,0,0,0,0,0,1,1,1,1,1,0,0,1]","mutagen_history":"[1,1,1,1,1,0,0,0,0,0,0,0,1,1,1,1,1,0,0,1]","location_rts":"[336,697,1073,3443,274,135,185,183,253,153,187,102,1323,259,141,183,91,156,169,472]","trial_type":"fractal-mutation","trial_index":73,"time_elapsed":2006747,"internal_node_id":"0.0-5.0-19.0"},{"group":"tri cycles (cube, non-group)","fractal_assignment":["../images/ylw_slt.png","../images/gry_blk.png","../images/grn_red.png","../images/blu_wht.png","../images/ylw_pnk.png","../images/cyn_red.png","../images/org_blu.png","../images/pnk_blu.png"],"mutagen_generator_assignment":[0,1],"goal":7,"start":5,"action_noise":0.1,"location_history":"[5,2,1,0,3,4,7]","action_history":"[1,0,0,1,1,1]","mutagen_history":"[1,0,0,1,1,1]","location_rts":"[7225,387,291,2799,153,339]","trial_type":"fractal-mutation","trial_index":74,"time_elapsed":2027724,"internal_node_id":"0.0-5.0-20.0"},{"group":"tri cycles (cube, non-group)","fractal_assignment":["../images/ylw_slt.png","../images/gry_blk.png","../images/grn_red.png","../images/blu_wht.png","../images/ylw_pnk.png","../images/cyn_red.png","../images/org_blu.png","../images/pnk_blu.png"],"mutagen_generator_assignment":[0,1],"goal":2,"start":7,"action_noise":0.1,"location_history":"[7,6,4,7,6,4,0,3,4,0,3,4,0,3,4,0,2]","action_history":"[0,0,0,0,1,1,1,1,1,1,1,1,1,1,1,0]","mutagen_history":"[0,0,0,0,1,1,1,1,1,1,1,1,1,1,1,0]","location_rts":"[313,301,391,151,298,309,193,175,326,127,158,119,459,10163,131,190]","trial_type":"fractal-mutation","trial_index":75,"time_elapsed":2061686,"internal_node_id":"0.0-5.0-21.0"},{"group":"tri cycles (cube, non-group)","fractal_assignment":["../images/ylw_slt.png","../images/gry_blk.png","../images/grn_red.png","../images/blu_wht.png","../images/ylw_pnk.png","../images/cyn_red.png","../images/org_blu.png","../images/pnk_blu.png"],"mutagen_generator_assignment":[0,1],"goal":0,"start":2,"action_noise":0.1,"location_history":"[2,6,4,0]","action_history":"[1,1,1]","mutagen_history":"[1,1,1]","location_rts":"[399,240,178]","trial_type":"fractal-mutation","trial_index":76,"time_elapsed":2069152,"internal_node_id":"0.0-5.0-22.0"},{"group":"tri cycles (cube, non-group)","fractal_assignment":["../images/ylw_slt.png","../images/gry_blk.png","../images/grn_red.png","../images/blu_wht.png","../images/ylw_pnk.png","../images/cyn_red.png","../images/org_blu.png","../images/pnk_blu.png"],"mutagen_generator_assignment":[0,1],"goal":7,"start":0,"action_noise":0.1,"location_history":"[0,3,4,0,3,7]","action_history":"[1,1,1,1,1]","mutagen_history":"[1,1,1,1,1]","location_rts":"[355,238,157,124,212]","trial_type":"fractal-mutation","trial_index":77,"time_elapsed":2078967,"internal_node_id":"0.0-5.0-23.0"},{"group":"tri cycles (cube, non-group)","fractal_assignment":["../images/ylw_slt.png","../images/gry_blk.png","../images/grn_red.png","../images/blu_wht.png","../images/ylw_pnk.png","../images/cyn_red.png","../images/org_blu.png","../images/pnk_blu.png"],"mutagen_generator_assignment":[0,1],"goal":5,"start":7,"action_noise":0.1,"location_history":"[7,3,4,7,6,4,0,3,4,0,3,4,0,3,4,7,6,4,7,6,5]","action_history":"[0,0,0,0,0,1,1,1,1,1,1,1,1,0,0,0,0,0,1,1]","mutagen_history":"[0,0,0,0,0,1,1,1,1,1,1,1,1,0,0,0,0,0,1,1]","location_rts":"[653,1543,6494,275,297,246,336,182,175,188,154,154,164,161,236,208,224,297,281,254]","trial_type":"fractal-mutation","trial_index":78,"time_elapsed":2115820,"internal_node_id":"0.0-5.0-24.0"},{"group":"tri cycles (cube, non-group)","fractal_assignment":["../images/ylw_slt.png","../images/gry_blk.png","../images/grn_red.png","../images/blu_wht.png","../images/ylw_pnk.png","../images/cyn_red.png","../images/org_blu.png","../images/pnk_blu.png"],"mutagen_generator_assignment":[0,1],"goal":0,"start":5,"action_noise":0.1,"location_history":"[5,2,6,5,2,6,4,0]","action_history":"[1,1,1,1,1,0,0]","mutagen_history":"[1,1,1,1,1,0,0]","location_rts":"[312,190,182,185,197,303,312]","trial_type":"fractal-mutation","trial_index":79,"time_elapsed":2128310,"internal_node_id":"0.0-5.0-25.0"},{"group":"tri cycles (cube, non-group)","fractal_assignment":["../images/ylw_slt.png","../images/gry_blk.png","../images/grn_red.png","../images/blu_wht.png","../images/ylw_pnk.png","../images/cyn_red.png","../images/org_blu.png","../images/pnk_blu.png"],"mutagen_generator_assignment":[0,1],"goal":6,"start":0,"action_noise":0.1,"location_history":"[0,3,4,0,3,7,6]","action_history":"[1,1,1,1,0,0]","mutagen_history":"[1,1,1,1,0,0]","location_rts":"[520,268,173,241,365,294]","trial_type":"fractal-mutation","trial_index":80,"time_elapsed":2139945,"internal_node_id":"0.0-5.0-26.0"},{"group":"tri cycles (cube, non-group)","fractal_assignment":["../images/ylw_slt.png","../images/gry_blk.png","../images/grn_red.png","../images/blu_wht.png","../images/ylw_pnk.png","../images/cyn_red.png","../images/org_blu.png","../images/pnk_blu.png"],"mutagen_generator_assignment":[0,1],"goal":4,"start":6,"action_noise":0.1,"location_history":"[6,4]","action_history":"[0]","mutagen_history":"[0]","location_rts":"[348]","trial_type":"fractal-mutation","trial_index":81,"time_elapsed":2144835,"internal_node_id":"0.0-5.0-27.0"},{"group":"tri cycles (cube, non-group)","fractal_assignment":["../images/ylw_slt.png","../images/gry_blk.png","../images/grn_red.png","../images/blu_wht.png","../images/ylw_pnk.png","../images/cyn_red.png","../images/org_blu.png","../images/pnk_blu.png"],"mutagen_generator_assignment":[0,1],"goal":2,"start":4,"action_noise":0.1,"location_history":"[4,0,3,4,0,3,7,6,4,7,6,4,0,3,4,0,2]","action_history":"[1,1,1,1,1,0,0,0,0,0,0,1,1,1,1,1]","mutagen_history":"[1,1,1,1,1,0,0,0,0,0,0,1,1,1,1,1]","location_rts":"[308,175,90,136,158,416,313,260,316,307,224,276,272,195,189,202]","trial_type":"fractal-mutation","trial_index":82,"time_elapsed":2168873,"internal_node_id":"0.0-5.0-28.0"},{"group":"tri cycles (cube, non-group)","fractal_assignment":["../images/ylw_slt.png","../images/gry_blk.png","../images/grn_red.png","../images/blu_wht.png","../images/ylw_pnk.png","../images/cyn_red.png","../images/org_blu.png","../images/pnk_blu.png"],"mutagen_generator_assignment":[0,1],"goal":3,"start":2,"action_noise":0.1,"location_history":"[2,6,5,2,1,0,2,1,5,2,1,5,2,6,5,1,0,2,1,0,2,6,5,2,6,5,2,6,5,1,5,1,0,3]","action_history":"[1,1,1,0,0,0,0,1,1,1,1,1,1,0,0,0,0,0,0,0,1,1,1,1,1,1,1,1,0,0,0,1,1]","mutagen_history":"[1,1,1,0,0,0,0,1,1,1,1,1,1,0,0,0,0,0,0,0,1,1,1,1,1,1,1,1,0,0,0,1,1]","location_rts":"[10203,217,49,404,240,161,234,262,308,174,204,100,176,180,293,324,170,197,166,156,202,354,314,131,225,189,191,226,391,250,175,251,224]","trial_type":"fractal-mutation","trial_index":83,"time_elapsed":2223960,"internal_node_id":"0.0-5.0-29.0"},{"group":"tri cycles (cube, non-group)","fractal_assignment":["../images/ylw_slt.png","../images/gry_blk.png","../images/grn_red.png","../images/blu_wht.png","../images/ylw_pnk.png","../images/cyn_red.png","../images/org_blu.png","../images/pnk_blu.png"],"mutagen_generator_assignment":[0,1],"goal":1,"start":3,"action_noise":0.1,"location_history":"[3,7,3,4,0,2,1]","action_history":"[1,1,1,1,0,0]","mutagen_history":"[1,1,1,1,0,0]","location_rts":"[380,270,47,167,166,237]","trial_type":"fractal-mutation","trial_index":84,"time_elapsed":2234995,"internal_node_id":"0.0-5.0-30.0"},{"group":"tri cycles (cube, non-group)","fractal_assignment":["../images/ylw_slt.png","../images/gry_blk.png","../images/grn_red.png","../images/blu_wht.png","../images/ylw_pnk.png","../images/cyn_red.png","../images/org_blu.png","../images/pnk_blu.png"],"mutagen_generator_assignment":[0,1],"goal":4,"start":1,"action_noise":0.1,"location_history":"[1,5,2,6,5,2,1,5,1,0,2,6,5,2,6,4]","action_history":"[1,1,1,1,1,0,0,0,0,0,1,1,1,1,1]","mutagen_history":"[1,1,1,1,1,0,0,0,0,0,1,1,1,1,1]","location_rts":"[400,146,142,130,56,221,347,196,150,177,311,151,132,76,170]","trial_type":"fractal-mutation","trial_index":85,"time_elapsed":2256892,"internal_node_id":"0.0-5.0-31.0"},{"group":"tri cycles (cube, non-group)","fractal_assignment":["../images/ylw_slt.png","../images/gry_blk.png","../images/grn_red.png","../images/blu_wht.png","../images/ylw_pnk.png","../images/cyn_red.png","../images/org_blu.png","../images/pnk_blu.png"],"mutagen_generator_assignment":[0,1],"goal":3,"start":4,"action_noise":0.1,"location_history":"[4,0,3]","action_history":"[1,1]","mutagen_history":"[1,1]","location_rts":"[325,140]","trial_type":"fractal-mutation","trial_index":86,"time_elapsed":2262944,"internal_node_id":"0.0-5.0-32.0"},{"group":"tri cycles (cube, non-group)","fractal_assignment":["../images/ylw_slt.png","../images/gry_blk.png","../images/grn_red.png","../images/blu_wht.png","../images/ylw_pnk.png","../images/cyn_red.png","../images/org_blu.png","../images/pnk_blu.png"],"mutagen_generator_assignment":[0,1],"goal":6,"start":3,"action_noise":0.1,"location_history":"[3,4,7,3,4,7,6]","action_history":"[1,1,1,1,0,0]","mutagen_history":"[1,1,1,1,0,0]","location_rts":"[132,361,288,223,92,297]","trial_type":"fractal-mutation","trial_index":87,"time_elapsed":2274075,"internal_node_id":"0.0-5.0-33.0"},{"group":"tri cycles (cube, non-group)","fractal_assignment":["../images/ylw_slt.png","../images/gry_blk.png","../images/grn_red.png","../images/blu_wht.png","../images/ylw_pnk.png","../images/cyn_red.png","../images/org_blu.png","../images/pnk_blu.png"],"mutagen_generator_assignment":[0,1],"goal":0,"start":6,"action_noise":0.1,"location_history":"[6,5,2,6,5,2,1,0]","action_history":"[1,1,1,1,1,0,0]","mutagen_history":"[1,1,1,1,1,0,0]","location_rts":"[331,157,85,157,164,262,295]","trial_type":"fractal-mutation","trial_index":88,"time_elapsed":2286316,"internal_node_id":"0.0-5.0-34.0"},{"group":"tri cycles (cube, non-group)","fractal_assignment":["../images/ylw_slt.png","../images/gry_blk.png","../images/grn_red.png","../images/blu_wht.png","../images/ylw_pnk.png","../images/cyn_red.png","../images/org_blu.png","../images/pnk_blu.png"],"mutagen_generator_assignment":[0,1],"goal":1,"start":0,"action_noise":0.1,"location_history":"[0,3,4,7,3,4,0,2,1]","action_history":"[1,1,1,1,1,1,0,0]","mutagen_history":"[1,1,1,1,1,1,0,0]","location_rts":"[329,16,182,75,119,114,91,272]","trial_type":"fractal-mutation","trial_index":89,"time_elapsed":2299350,"internal_node_id":"0.0-5.0-35.0"},{"group":"tri cycles (cube, non-group)","fractal_assignment":["../images/ylw_slt.png","../images/gry_blk.png","../images/grn_red.png","../images/blu_wht.png","../images/ylw_pnk.png","../images/cyn_red.png","../images/org_blu.png","../images/pnk_blu.png"],"mutagen_generator_assignment":[0,1],"goal":5,"start":1,"action_noise":0.1,"location_history":"[1,0,2,1,0,2,1,5]","action_history":"[0,0,0,0,0,0,1]","mutagen_history":"[0,0,0,0,0,0,1]","location_rts":"[349,27,173,156,264,135,243]","trial_type":"fractal-mutation","trial_index":90,"time_elapsed":2311485,"internal_node_id":"0.0-5.0-36.0"},{"group":"tri cycles (cube, non-group)","fractal_assignment":["../images/ylw_slt.png","../images/gry_blk.png","../images/grn_red.png","../images/blu_wht.png","../images/ylw_pnk.png","../images/cyn_red.png","../images/org_blu.png","../images/pnk_blu.png"],"mutagen_generator_assignment":[0,1],"goal":7,"start":5,"action_noise":0.1,"location_history":"[5,2,6,5,2,6,5,2,1,5,1,0,2,1,5,2,6,5,1,0,2,1,0,3,4,0,3,4,0,2,1,0,3,4,0,3,4,7]","action_history":"[1,1,1,1,1,1,1,0,0,0,0,0,0,1,1,1,1,0,0,0,0,0,1,1,1,1,1,1,0,0,0,1,1,1,1,1,0]","mutagen_history":"[1,1,1,1,1,1,1,0,0,0,0,0,0,1,1,1,1,0,0,0,0,0,1,1,1,1,1,1,0,0,0,1,1,1,1,1,0]","location_rts":"[777,232,189,197,173,150,170,166,269,207,260,198,269,110,368,226,157,175,152,214,311,153,262,152,264,143,280,257,126,285,173,317,285,170,147,123,159]","trial_type":"fractal-mutation","trial_index":91,"time_elapsed":2361694,"internal_node_id":"0.0-5.0-37.0"},{"group":"tri cycles (cube, non-group)","fractal_assignment":["../images/ylw_slt.png","../images/gry_blk.png","../images/grn_red.png","../images/blu_wht.png","../images/ylw_pnk.png","../images/cyn_red.png","../images/org_blu.png","../images/pnk_blu.png"],"mutagen_generator_assignment":[0,1],"goal":2,"start":7,"action_noise":0.1,"location_history":"[7,3,4,0,3,4,0,2]","action_history":"[1,1,1,1,1,1,0]","mutagen_history":"[1,1,1,1,1,1,0]","location_rts":"[407,103,162,145,211,118,179]","trial_type":"fractal-mutation","trial_index":92,"time_elapsed":2373828,"internal_node_id":"0.0-5.0-38.0"},{"group":"tri cycles (cube, non-group)","fractal_assignment":["../images/ylw_slt.png","../images/gry_blk.png","../images/grn_red.png","../images/blu_wht.png","../images/ylw_pnk.png","../images/cyn_red.png","../images/org_blu.png","../images/pnk_blu.png"],"mutagen_generator_assignment":[0,1],"goal":1,"start":2,"action_noise":0.1,"location_history":"[2,6,5,2,6,5,1]","action_history":"[1,1,1,1,1,0]","mutagen_history":"[1,1,1,1,1,0]","location_rts":"[351,236,184,104,222,151]","trial_type":"fractal-mutation","trial_index":93,"time_elapsed":2384835,"internal_node_id":"0.0-5.0-39.0"},{"group":"tri cycles (cube, non-group)","fractal_assignment":["../images/ylw_slt.png","../images/gry_blk.png","../images/grn_red.png","../images/blu_wht.png","../images/ylw_pnk.png","../images/cyn_red.png","../images/org_blu.png","../images/pnk_blu.png"],"mutagen_generator_assignment":[0,1],"goal":3,"start":1,"action_noise":0.1,"location_history":"[1,5,2,6,4,0,3]","action_history":"[1,1,1,1,1,1]","mutagen_history":"[1,1,1,1,1,1]","location_rts":"[529,88,122,154,59,175]","trial_type":"fractal-mutation","trial_index":94,"time_elapsed":2395717,"internal_node_id":"0.0-5.0-40.0"},{"group":"tri cycles (cube, non-group)","fractal_assignment":["../images/ylw_slt.png","../images/gry_blk.png","../images/grn_red.png","../images/blu_wht.png","../images/ylw_pnk.png","../images/cyn_red.png","../images/org_blu.png","../images/pnk_blu.png"],"mutagen_generator_assignment":[0,1],"goal":4,"start":3,"action_noise":0.1,"location_history":"[3,7,6,4]","action_history":"[0,0,0]","mutagen_history":"[0,0,0]","location_rts":"[382,243,172]","trial_type":"fractal-mutation","trial_index":95,"time_elapsed":2403133,"internal_node_id":"0.0-5.0-41.0"},{"group":"tri cycles (cube, non-group)","fractal_assignment":["../images/ylw_slt.png","../images/gry_blk.png","../images/grn_red.png","../images/blu_wht.png","../images/ylw_pnk.png","../images/cyn_red.png","../images/org_blu.png","../images/pnk_blu.png"],"mutagen_generator_assignment":[0,1],"goal":2,"start":4,"action_noise":0.1,"location_history":"[4,0,3,4,0,2]","action_history":"[1,1,1,1,1]","mutagen_history":"[1,1,1,1,1]","location_rts":"[344,933,246,197,273]","trial_type":"fractal-mutation","trial_index":96,"time_elapsed":2413834,"internal_node_id":"0.0-5.0-42.0"},{"group":"tri cycles (cube, non-group)","fractal_assignment":["../images/ylw_slt.png","../images/gry_blk.png","../images/grn_red.png","../images/blu_wht.png","../images/ylw_pnk.png","../images/cyn_red.png","../images/org_blu.png","../images/pnk_blu.png"],"mutagen_generator_assignment":[0,1],"goal":5,"start":2,"action_noise":0.1,"location_history":"[2,1,0,2,1,0,3,4,0,3,4,7,3,4,7,6,4,7,6,5]","action_history":"[0,0,0,0,0,0,1,1,1,1,1,1,1,0,0,0,0,0,1]","mutagen_history":"[0,0,0,0,0,0,1,1,1,1,1,1,1,0,0,0,0,0,1]","location_rts":"[297,110,209,131,173,81,238,302,110,165,132,148,166,126,208,164,203,221,244]","trial_type":"fractal-mutation","trial_index":97,"time_elapsed":2440485,"internal_node_id":"0.0-5.0-43.0"},{"group":"tri cycles (cube, non-group)","fractal_assignment":["../images/ylw_slt.png","../images/gry_blk.png","../images/grn_red.png","../images/blu_wht.png","../images/ylw_pnk.png","../images/cyn_red.png","../images/org_blu.png","../images/pnk_blu.png"],"mutagen_generator_assignment":[0,1],"goal":0,"start":5,"action_noise":0.1,"location_history":"[5,2,6,5,2,1,0]","action_history":"[1,1,1,1,0,0]","mutagen_history":"[1,1,1,1,0,0]","location_rts":"[304,96,114,51,140,171]","trial_type":"fractal-mutation","trial_index":98,"time_elapsed":2451113,"internal_node_id":"0.0-5.0-44.0"},{"group":"tri cycles (cube, non-group)","fractal_assignment":["../images/ylw_slt.png","../images/gry_blk.png","../images/grn_red.png","../images/blu_wht.png","../images/ylw_pnk.png","../images/cyn_red.png","../images/org_blu.png","../images/pnk_blu.png"],"mutagen_generator_assignment":[0,1],"goal":7,"start":0,"action_noise":0.1,"location_history":"[0,3,4,0,2,1,5,1,0,2,6,4,0,3,4,7]","action_history":"[1,1,1,1,0,0,0,0,0,1,1,1,1,1,0]","mutagen_history":"[1,1,1,1,0,0,0,0,0,1,1,1,1,1,0]","location_rts":"[300,127,156,195,242,267,188,219,212,314,235,37,253,147,124]","trial_type":"fractal-mutation","trial_index":99,"time_elapsed":2473207,"internal_node_id":"0.0-5.0-45.0"},{"group":"tri cycles (cube, non-group)","fractal_assignment":["../images/ylw_slt.png","../images/gry_blk.png","../images/grn_red.png","../images/blu_wht.png","../images/ylw_pnk.png","../images/cyn_red.png","../images/org_blu.png","../images/pnk_blu.png"],"mutagen_generator_assignment":[0,1],"goal":6,"start":7,"action_noise":0.1,"location_history":"[7,6]","action_history":"[0]","mutagen_history":"[0]","location_rts":"[318]","trial_type":"fractal-mutation","trial_index":100,"time_elapsed":2478072,"internal_node_id":"0.0-5.0-46.0"},{"group":"tri cycles (cube, non-group)","fractal_assignment":["../images/ylw_slt.png","../images/gry_blk.png","../images/grn_red.png","../images/blu_wht.png","../images/ylw_pnk.png","../images/cyn_red.png","../images/org_blu.png","../images/pnk_blu.png"],"mutagen_generator_assignment":[0,1],"goal":2,"start":6,"action_noise":0.1,"location_history":"[6,4,7,6,5,2]","action_history":"[0,0,0,1,1]","mutagen_history":"[0,0,0,1,1]","location_rts":"[330,74,130,300,438]","trial_type":"fractal-mutation","trial_index":101,"time_elapsed":2488073,"internal_node_id":"0.0-5.0-47.0"},{"group":"tri cycles (cube, non-group)","fractal_assignment":["../images/ylw_slt.png","../images/gry_blk.png","../images/grn_red.png","../images/blu_wht.png","../images/ylw_pnk.png","../images/cyn_red.png","../images/org_blu.png","../images/pnk_blu.png"],"mutagen_generator_assignment":[0,1],"goal":5,"start":2,"action_noise":0.1,"location_history":"[2,6,5]","action_history":"[1,1]","mutagen_history":"[1,1]","location_rts":"[313,36]","trial_type":"fractal-mutation","trial_index":102,"time_elapsed":2493999,"internal_node_id":"0.0-5.0-48.0"},{"group":"tri cycles (cube, non-group)","fractal_assignment":["../images/ylw_slt.png","../images/gry_blk.png","../images/grn_red.png","../images/blu_wht.png","../images/ylw_pnk.png","../images/cyn_red.png","../images/org_blu.png","../images/pnk_blu.png"],"mutagen_generator_assignment":[0,1],"goal":3,"start":5,"action_noise":0.1,"location_history":"[5,1,5,2,6,4,7,6,4,7,6,5,2,6,5,1,0,2,1,0,3]","action_history":"[1,1,1,1,0,0,0,0,0,0,1,1,1,1,0,0,0,0,1,1]","mutagen_history":"[1,1,1,1,0,0,0,0,0,0,1,1,1,1,0,0,0,0,1,1]","location_rts":"[373,360,28,192,337,183,452,223,261,151,577,239,146,267,136,279,266,180,280,151]","trial_type":"fractal-mutation","trial_index":103,"time_elapsed":2523335,"internal_node_id":"0.0-5.0-49.0"},{"view_history":"[{\"page_index\":0,\"viewing_time\":4125}]","rt":4125,"trial_type":"instructions","trial_index":104,"time_elapsed":2528461,"internal_node_id":"0.0-6.0"},{"rt":64774,"responses":"{\"Q0\":\"How well we see patterns?\"}","trial_type":"survey-text","trial_index":105,"time_elapsed":2594240,"internal_node_id":"0.0-7.0-0.0"},{"rt":10898,"responses":"{\"Q0\":\"Also how well we see patterns?\"}","trial_type":"survey-text","trial_index":106,"time_elapsed":2606141,"internal_node_id":"0.0-7.0-1.0"},{"rt":13990,"responses":"{}","trial_type":"survey-multi-choice","trial_index":107,"time_elapsed":2621142,"internal_node_id":"0.0-7.0-2.0"},{"rt":54043,"assignments":["../images/ylw_pnk.png","../images/grn_red.png","../images/blu_wht.png","../images/pnk_blu.png","../images/org_blu.png","../images/cyn_red.png","../images/ylw_slt.png","../images/gry_blk.png"],"trial_type":"drag-drop-on-image","trial_index":108,"time_elapsed":2676190,"internal_node_id":"0.0-7.0-3.0"},{"rt":6378,"responses":"{\"Q0\":\"3\"}","trial_type":"survey-likert","trial_index":109,"time_elapsed":2683574,"internal_node_id":"0.0-7.0-4.0"},{"rt":17830,"responses":"{\"Q0\":\"Just that they both required us to figure out patterns.  I found them very hard though.\"}","trial_type":"survey-text","trial_index":110,"time_elapsed":2702405,"internal_node_id":"0.0-7.0-5.0"},{"rt":6547,"responses":"{\"Q0\":\"No\"}","trial_type":"survey-multi-choice","trial_index":111,"time_elapsed":2709957,"internal_node_id":"0.0-7.0-6.0"},{"rt":5922,"responses":"{\"Q0\":\"Did not notice\"}","trial_type":"survey-multi-choice","trial_index":112,"time_elapsed":2716893,"internal_node_id":"0.0-7.0-7.0"},{"rt":5183,"responses":"{\"Q0\":\"\"}","trial_type":"survey-text","trial_index":113,"time_elapsed":2723076,"internal_node_id":"0.0-7.0-8.0"},{"rt":5309,"responses":"{\"Q0\":\"1\"}","trial_type":"survey-likert","trial_index":114,"time_elapsed":2729404,"internal_node_id":"0.0-7.0-9.0"},{"rt":7451,"responses":"{\"Q0\":\"Different structure\"}","trial_type":"survey-multi-choice","trial_index":115,"time_elapsed":2737861,"internal_node_id":"0.0-7.0-10.0"},{"rt":22475,"responses":"{\"Q0\":\"left (white) door = ray, (black) door = acid\",\"Q1\":\"Slightly confident\"}","trial_type":"survey-multi-choice","trial_index":116,"time_elapsed":2761349,"internal_node_id":"0.0-7.0-11.0"},{"rt":10662,"responses":"{\"Q0\":\"35-45\",\"Q1\":\"Bachelor's degree\",\"Q2\":\"Male\",\"Q3\":\"White\"}","trial_type":"survey-multi-choice","trial_index":117,"time_elapsed":2773037,"internal_node_id":"0.0-8.0"},{"rt":6259,"responses":"{\"Q0\":\"Thank you\"}","trial_type":"survey-text","trial_index":118,"time_elapsed":2780299,"internal_node_id":"0.0-9.0"}]