[{"view_history":"[{\"page_index\":0,\"viewing_time\":6212},{\"page_index\":1,\"viewing_time\":3861}]","rt":10075,"trial_type":"instructions","trial_index":0,"time_elapsed":10078,"internal_node_id":"0.0-0.0"},{"view_history":"[{\"page_index\":0,\"viewing_time\":2355},{\"page_index\":1,\"viewing_time\":1344}]","rt":3700,"trial_type":"instructions","trial_index":1,"time_elapsed":14780,"internal_node_id":"0.0-1.0"},{"group":"square cycles (cube, non-group)","room_assignment":["brown","green","pink","grey","blue","purple","red","yellow"],"door_color_assignment":["black","white"],"door_generator_assignment":[0,1],"goal":5,"start":7,"action_noise":0.1,"location_history":"[7,3,2,6,7,3,2,6,5]","action_history":"[1,1,1,1,1,1,1,0]","door_history":"[1,1,1,1,1,1,1,0]","location_rts":"[2200,532,376,594,358,297,147,289]","trial_type":"two-door-navigation","trial_index":2,"time_elapsed":31328,"internal_node_id":"0.0-2.0-0.0"},{"group":"square cycles (cube, non-group)","room_assignment":["brown","green","pink","grey","blue","purple","red","yellow"],"door_color_assignment":["black","white"],"door_generator_assignment":[0,1],"goal":2,"start":5,"action_noise":0.1,"location_history":"[5,4,5,1,2]","action_history":"[1,1,1,0]","door_history":"[1,1,1,0]","location_rts":"[866,363,944,516]","trial_type":"two-door-navigation","trial_index":3,"time_elapsed":41632,"internal_node_id":"0.0-2.0-1.0"},{"group":"square cycles (cube, non-group)","room_assignment":["brown","green","pink","grey","blue","purple","red","yellow"],"door_color_assignment":["black","white"],"door_generator_assignment":[0,1],"goal":0,"start":2,"action_noise":0.1,"location_history":"[2,6,7,3,2,6,7,3,2,6,5,1,2,6,5,4,7,6,5,1,0]","action_history":"[0,0,1,1,1,1,1,1,1,0,0,0,0,0,0,0,0,0,1,1]","door_history":"[0,0,1,1,1,1,1,1,1,0,0,0,0,0,0,0,0,0,1,1]","location_rts":"[875,1312,908,357,331,325,470,439,309,172,275,293,276,290,297,294,339,373,304,256]","trial_type":"two-door-navigation","trial_index":4,"time_elapsed":74311,"internal_node_id":"0.0-2.0-2.0"},{"group":"square cycles (cube, non-group)","room_assignment":["brown","green","pink","grey","blue","purple","red","yellow"],"door_color_assignment":["black","white"],"door_generator_assignment":[0,1],"goal":1,"start":0,"action_noise":0.1,"location_history":"[0,1]","action_history":"[1]","door_history":"[1]","location_rts":"[191354]","trial_type":"two-door-navigation","trial_index":5,"time_elapsed":270198,"internal_node_id":"0.0-2.0-3.0"},{"group":"square cycles (cube, non-group)","room_assignment":["brown","green","pink","grey","blue","purple","red","yellow"],"door_color_assignment":["black","white"],"door_generator_assignment":[0,1],"goal":6,"start":1,"action_noise":0.1,"location_history":"[1,0,4,7,3,2,6]","action_history":"[1,1,1,1,1,1]","door_history":"[1,1,1,1,1,1]","location_rts":"[8961,292,262,265,287,250]","trial_type":"two-door-navigation","trial_index":6,"time_elapsed":290179,"internal_node_id":"0.0-2.0-4.0"},{"group":"square cycles (cube, non-group)","room_assignment":["brown","green","pink","grey","blue","purple","red","yellow"],"door_color_assignment":["black","white"],"door_generator_assignment":[0,1],"goal":3,"start":6,"action_noise":0.1,"location_history":"[6,7,3]","action_history":"[1,1]","door_history":"[1,1]","location_rts":"[3543,317]","trial_type":"two-door-navigation","trial_index":7,"time_elapsed":299613,"internal_node_id":"0.0-2.0-5.0"},{"group":"square cycles (cube, non-group)","room_assignment":["brown","green","pink","grey","blue","purple","red","yellow"],"door_color_assignment":["black","white"],"door_generator_assignment":[0,1],"goal":4,"start":3,"action_noise":0.1,"location_history":"[3,2,6,7,3,2,3,2,6,5,4]","action_history":"[1,1,1,1,1,1,1,1,0,0]","door_history":"[1,1,1,1,1,1,1,1,0,0]","location_rts":"[1155,276,285,15901,3734,12455,392,281,862,3720]","trial_type":"two-door-navigation","trial_index":8,"time_elapsed":353075,"internal_node_id":"0.0-2.0-6.0"},{"group":"square cycles (cube, non-group)","room_assignment":["brown","green","pink","grey","blue","purple","red","yellow"],"door_color_assignment":["black","white"],"door_generator_assignment":[0,1],"goal":1,"start":4,"action_noise":0.1,"location_history":"[4,5,4,5,4,7,6,5,4,5,1]","action_history":"[0,0,0,0,0,0,0,0,1,1]","door_history":"[0,0,0,0,0,0,0,0,1,1]","location_rts":"[13354,321,375,376,243,499,314,430,227,301]","trial_type":"two-door-navigation","trial_index":9,"time_elapsed":384381,"internal_node_id":"0.0-2.0-7.0"},{"group":"square cycles (cube, non-group)","room_assignment":["brown","green","pink","grey","blue","purple","red","yellow"],"door_color_assignment":["black","white"],"door_generator_assignment":[0,1],"goal":4,"start":1,"action_noise":0.1,"location_history":"[1,2,3,0,1,0,4]","action_history":"[0,0,0,0,1,1]","door_history":"[0,0,0,0,1,1]","location_rts":"[2336,357,273,326,871,324]","trial_type":"two-door-navigation","trial_index":10,"time_elapsed":398566,"internal_node_id":"0.0-2.0-8.0"},{"group":"square cycles (cube, non-group)","room_assignment":["brown","green","pink","grey","blue","purple","red","yellow"],"door_color_assignment":["black","white"],"door_generator_assignment":[0,1],"goal":5,"start":4,"action_noise":0.1,"location_history":"[4,7,3,0,4,7,3,2,6,7,3,2,3,0,4,7,3,0,1,0,4,5]","action_history":"[0,0,0,0,0,1,1,1,1,1,1,1,1,1,0,0,0,0,1,1,1]","door_history":"[0,0,0,0,0,1,1,1,1,1,1,1,1,1,0,0,0,0,1,1,1]","location_rts":"[1472,323,371,309,404,568,370,251,368,316,378,376,372,1028,179,270,257,265,1086,3701,258]","trial_type":"two-door-navigation","trial_index":11,"time_elapsed":437065,"internal_node_id":"0.0-2.0-9.0"},{"group":"square cycles (cube, non-group)","room_assignment":["brown","green","pink","grey","blue","purple","red","yellow"],"door_color_assignment":["black","white"],"door_generator_assignment":[0,1],"goal":3,"start":5,"action_noise":0.1,"location_history":"[5,4,7,6,7,6,7,3]","action_history":"[0,0,0,0,0,1,1]","door_history":"[0,0,0,0,0,1,1]","location_rts":"[12015,4441,309,319,307,1090,365]","trial_type":"two-door-navigation","trial_index":12,"time_elapsed":467600,"internal_node_id":"0.0-2.0-10.0"},{"group":"square cycles (cube, non-group)","room_assignment":["brown","green","pink","grey","blue","purple","red","yellow"],"door_color_assignment":["black","white"],"door_generator_assignment":[0,1],"goal":6,"start":3,"action_noise":0.1,"location_history":"[3,2,6]","action_history":"[1,1]","door_history":"[1,1]","location_rts":"[851,379]","trial_type":"two-door-navigation","trial_index":13,"time_elapsed":474393,"internal_node_id":"0.0-2.0-11.0"},{"group":"square cycles (cube, non-group)","room_assignment":["brown","green","pink","grey","blue","purple","red","yellow"],"door_color_assignment":["black","white"],"door_generator_assignment":[0,1],"goal":7,"start":6,"action_noise":0.1,"location_history":"[6,7]","action_history":"[1]","door_history":"[1]","location_rts":"[4609]","trial_type":"two-door-navigation","trial_index":14,"time_elapsed":483539,"internal_node_id":"0.0-2.0-12.0"},{"group":"square cycles (cube, non-group)","room_assignment":["brown","green","pink","grey","blue","purple","red","yellow"],"door_color_assignment":["black","white"],"door_generator_assignment":[0,1],"goal":0,"start":7,"action_noise":0.1,"location_history":"[7,3,2,3,2,6,7,3,2,3,0]","action_history":"[1,1,1,1,1,1,1,1,0,0]","door_history":"[1,1,1,1,1,1,1,1,0,0]","location_rts":"[805,426,323,333,349,7616,3383,399,49,450]","trial_type":"two-door-navigation","trial_index":15,"time_elapsed":511462,"internal_node_id":"0.0-2.0-13.0"},{"group":"square cycles (cube, non-group)","room_assignment":["brown","green","pink","grey","blue","purple","red","yellow"],"door_color_assignment":["black","white"],"door_generator_assignment":[0,1],"goal":2,"start":0,"action_noise":0.1,"location_history":"[0,4,7,6,5,4,7,3,0,1,2]","action_history":"[1,1,0,0,0,0,0,0,0,0]","door_history":"[1,1,0,0,0,0,0,0,0,0]","location_rts":"[14451,373,652,302,287,304,751,795,504,327]","trial_type":"two-door-navigation","trial_index":16,"time_elapsed":543986,"internal_node_id":"0.0-2.0-14.0"},{"group":"square cycles (cube, non-group)","room_assignment":["brown","green","pink","grey","blue","purple","red","yellow"],"door_color_assignment":["black","white"],"door_generator_assignment":[0,1],"goal":1,"start":2,"action_noise":0.1,"location_history":"[2,6,7,3,2,6,5,1]","action_history":"[1,1,1,1,1,0,0]","door_history":"[1,1,1,1,1,0,0]","location_rts":"[20152,341,388,339,358,642,3988]","trial_type":"two-door-navigation","trial_index":17,"time_elapsed":581273,"internal_node_id":"0.0-2.0-15.0"},{"group":"square cycles (cube, non-group)","room_assignment":["brown","green","pink","grey","blue","purple","red","yellow"],"door_color_assignment":["black","white"],"door_generator_assignment":[0,1],"goal":6,"start":1,"action_noise":0.1,"location_history":"[1,2,3,0,1,0,4,5,1,0,4,7,6]","action_history":"[0,0,0,0,1,1,1,1,1,1,0,0]","door_history":"[0,0,0,0,1,1,1,1,1,1,0,0]","location_rts":"[759,504,303,342,275,381,286,356,373,340,910,4371]","trial_type":"two-door-navigation","trial_index":18,"time_elapsed":606389,"internal_node_id":"0.0-2.0-16.0"},{"group":"square cycles (cube, non-group)","room_assignment":["brown","green","pink","grey","blue","purple","red","yellow"],"door_color_assignment":["black","white"],"door_generator_assignment":[0,1],"goal":3,"start":6,"action_noise":0.1,"location_history":"[6,5,4,5,4,7,3]","action_history":"[0,0,0,0,0,1]","door_history":"[0,0,0,0,0,1]","location_rts":"[1260,509,328,321,296,359]","trial_type":"two-door-navigation","trial_index":19,"time_elapsed":619134,"internal_node_id":"0.0-2.0-17.0"},{"group":"square cycles (cube, non-group)","room_assignment":["brown","green","pink","grey","blue","purple","red","yellow"],"door_color_assignment":["black","white"],"door_generator_assignment":[0,1],"goal":4,"start":3,"action_noise":0.1,"location_history":"[3,2,6,7,3,2,3,2,3,0,1,2,6,7,3,0,4]","action_history":"[1,1,1,1,0,0,0,0,0,0,0,0,1,1,1,1]","door_history":"[1,1,1,1,0,0,0,0,0,0,0,0,1,1,1,1]","location_rts":"[773,436,348,323,297,280,276,253,352,483,495,350,189,341,4659,421]","trial_type":"two-door-navigation","trial_index":20,"time_elapsed":650059,"internal_node_id":"0.0-2.0-18.0"},{"group":"square cycles (cube, non-group)","room_assignment":["brown","green","pink","grey","blue","purple","red","yellow"],"door_color_assignment":["black","white"],"door_generator_assignment":[0,1],"goal":5,"start":4,"action_noise":0.1,"location_history":"[4,7,6,5]","action_history":"[0,0,0]","door_history":"[0,0,0]","location_rts":"[5621,332,426]","trial_type":"two-door-navigation","trial_index":21,"time_elapsed":664497,"internal_node_id":"0.0-2.0-19.0"},{"group":"square cycles (cube, non-group)","room_assignment":["brown","green","pink","grey","blue","purple","red","yellow"],"door_color_assignment":["black","white"],"door_generator_assignment":[0,1],"goal":7,"start":5,"action_noise":0.1,"location_history":"[5,1,2,6,7]","action_history":"[1,1,1,1]","door_history":"[1,1,1,1]","location_rts":"[5292,425,283,360]","trial_type":"two-door-navigation","trial_index":22,"time_elapsed":678509,"internal_node_id":"0.0-2.0-20.0"},{"group":"square cycles (cube, non-group)","room_assignment":["brown","green","pink","grey","blue","purple","red","yellow"],"door_color_assignment":["black","white"],"door_generator_assignment":[0,1],"goal":2,"start":7,"action_noise":0.1,"location_history":"[7,3,2]","action_history":"[1,1]","door_history":"[1,1]","location_rts":"[1009,386]","trial_type":"two-door-navigation","trial_index":23,"time_elapsed":685469,"internal_node_id":"0.0-2.0-21.0"},{"group":"square cycles (cube, non-group)","room_assignment":["brown","green","pink","grey","blue","purple","red","yellow"],"door_color_assignment":["black","white"],"door_generator_assignment":[0,1],"goal":0,"start":2,"action_noise":0.1,"location_history":"[2,6,5,1,0]","action_history":"[1,1,1,1]","door_history":"[1,1,1,1]","location_rts":"[1273,481,510,372]","trial_type":"two-door-navigation","trial_index":24,"time_elapsed":697626,"internal_node_id":"0.0-2.0-22.0"},{"group":"square cycles (cube, non-group)","room_assignment":["brown","green","pink","grey","blue","purple","red","yellow"],"door_color_assignment":["black","white"],"door_generator_assignment":[0,1],"goal":7,"start":0,"action_noise":0.1,"location_history":"[0,4,5,1,0,1,2,3,0,1,2,6,7]","action_history":"[1,1,1,1,0,0,0,0,0,0,1,1]","door_history":"[1,1,1,1,0,0,0,0,0,0,1,1]","location_rts":"[659,982,336,312,792,3966,502,519,498,334,586,338]","trial_type":"two-door-navigation","trial_index":25,"time_elapsed":724049,"internal_node_id":"0.0-2.0-23.0"},{"group":"square cycles (cube, non-group)","room_assignment":["brown","green","pink","grey","blue","purple","red","yellow"],"door_color_assignment":["black","white"],"door_generator_assignment":[0,1],"goal":5,"start":7,"action_noise":0.1,"location_history":"[7,3,2,6,7,3,2,3,0,4,7,6,7,3,2,6,7,3,2,6,7,6,5]","action_history":"[1,1,1,1,1,0,0,0,0,0,0,1,1,1,1,1,1,1,1,1,0,0]","door_history":"[1,1,1,1,1,0,0,0,0,0,0,1,1,1,1,1,1,1,1,1,0,0]","location_rts":"[3256,469,409,4383,553,372,273,358,302,385,339,870,4017,322,282,303,265,331,381,525,1319,370]","trial_type":"two-door-navigation","trial_index":26,"time_elapsed":772047,"internal_node_id":"0.0-2.0-24.0"},{"group":"square cycles (cube, non-group)","room_assignment":["brown","green","pink","grey","blue","purple","red","yellow"],"door_color_assignment":["black","white"],"door_generator_assignment":[0,1],"goal":0,"start":5,"action_noise":0.1,"location_history":"[5,4,7,6,7,6,7,3,0]","action_history":"[0,0,0,1,1,1,1,1]","door_history":"[0,0,0,1,1,1,1,1]","location_rts":"[707,301,262,575,292,252,273,7101]","trial_type":"two-door-navigation","trial_index":27,"time_elapsed":793529,"internal_node_id":"0.0-2.0-25.0"},{"group":"square cycles (cube, non-group)","room_assignment":["brown","green","pink","grey","blue","purple","red","yellow"],"door_color_assignment":["black","white"],"door_generator_assignment":[0,1],"goal":6,"start":0,"action_noise":0.1,"location_history":"[0,4,5,1,0,1,0,4,7,6]","action_history":"[1,1,1,1,0,0,0,0,0]","door_history":"[1,1,1,1,0,0,0,0,0]","location_rts":"[2503,921,401,384,425,271,370,421,334]","trial_type":"two-door-navigation","trial_index":28,"time_elapsed":812313,"internal_node_id":"0.0-2.0-26.0"},{"group":"square cycles (cube, non-group)","room_assignment":["brown","green","pink","grey","blue","purple","red","yellow"],"door_color_assignment":["black","white"],"door_generator_assignment":[0,1],"goal":4,"start":6,"action_noise":0.1,"location_history":"[6,5,4]","action_history":"[0,0]","door_history":"[0,0]","location_rts":"[859,491]","trial_type":"two-door-navigation","trial_index":29,"time_elapsed":820096,"internal_node_id":"0.0-2.0-27.0"},{"group":"square cycles (cube, non-group)","room_assignment":["brown","green","pink","grey","blue","purple","red","yellow"],"door_color_assignment":["black","white"],"door_generator_assignment":[0,1],"goal":2,"start":4,"action_noise":0.1,"location_history":"[4,5,4,5,1,0,1,2]","action_history":"[1,1,1,1,1,0,0]","door_history":"[1,1,1,1,1,0,0]","location_rts":"[10655,6460,26237,419,432,371,4120]","trial_type":"two-door-navigation","trial_index":30,"time_elapsed":879981,"internal_node_id":"0.0-2.0-28.0"},{"group":"square cycles (cube, non-group)","room_assignment":["brown","green","pink","grey","blue","purple","red","yellow"],"door_color_assignment":["black","white"],"door_generator_assignment":[0,1],"goal":3,"start":2,"action_noise":0.1,"location_history":"[2,3]","action_history":"[0]","door_history":"[0]","location_rts":"[1132]","trial_type":"two-door-navigation","trial_index":31,"time_elapsed":886049,"internal_node_id":"0.0-2.0-29.0"},{"group":"square cycles (cube, non-group)","room_assignment":["brown","green","pink","grey","blue","purple","red","yellow"],"door_color_assignment":["black","white"],"door_generator_assignment":[0,1],"goal":1,"start":3,"action_noise":0.1,"location_history":"[3,0,1]","action_history":"[0,0]","door_history":"[0,0]","location_rts":"[108609,4282]","trial_type":"two-door-navigation","trial_index":32,"time_elapsed":1006049,"internal_node_id":"0.0-2.0-30.0"},{"group":"square cycles (cube, non-group)","room_assignment":["brown","green","pink","grey","blue","purple","red","yellow"],"door_color_assignment":["black","white"],"door_generator_assignment":[0,1],"goal":4,"start":1,"action_noise":0.1,"location_history":"[1,0,1,2,3,2,6,7,3,0,4]","action_history":"[1,0,0,0,1,1,1,1,1,1]","door_history":"[1,0,0,0,1,1,1,1,1,1]","location_rts":"[26197,4676,350,285,426,280,261,276,346,306]","trial_type":"two-door-navigation","trial_index":33,"time_elapsed":1055049,"internal_node_id":"0.0-2.0-31.0"},{"group":"square cycles (cube, non-group)","room_assignment":["brown","green","pink","grey","blue","purple","red","yellow"],"door_color_assignment":["black","white"],"door_generator_assignment":[0,1],"goal":3,"start":4,"action_noise":0.1,"location_history":"[4,5,1,0,4,5,1,2,3]","action_history":"[1,1,1,1,1,1,0,0]","door_history":"[1,1,1,1,1,1,0,0]","location_rts":"[17483,4777,490,615,214,270,203,274]","trial_type":"two-door-navigation","trial_index":34,"time_elapsed":1093048,"internal_node_id":"0.0-2.0-32.0"},{"group":"square cycles (cube, non-group)","room_assignment":["brown","green","pink","grey","blue","purple","red","yellow"],"door_color_assignment":["black","white"],"door_generator_assignment":[0,1],"goal":6,"start":3,"action_noise":0.1,"location_history":"[3,2,6]","action_history":"[1,1]","door_history":"[1,1]","location_rts":"[29485,4554]","trial_type":"two-door-navigation","trial_index":35,"time_elapsed":1134050,"internal_node_id":"0.0-2.0-33.0"},{"group":"square cycles (cube, non-group)","room_assignment":["brown","green","pink","grey","blue","purple","red","yellow"],"door_color_assignment":["black","white"],"door_generator_assignment":[0,1],"goal":0,"start":6,"action_noise":0.1,"location_history":"[6,7,3,2,3,0]","action_history":"[1,1,1,1,1]","door_history":"[1,1,1,1,1]","location_rts":"[9947,3687,571,391,460]","trial_type":"two-door-navigation","trial_index":36,"time_elapsed":1159051,"internal_node_id":"0.0-2.0-34.0"},{"group":"square cycles (cube, non-group)","room_assignment":["brown","green","pink","grey","blue","purple","red","yellow"],"door_color_assignment":["black","white"],"door_generator_assignment":[0,1],"goal":1,"start":0,"action_noise":0.1,"location_history":"[0,1]","action_history":"[0]","door_history":"[0]","location_rts":"[12025]","trial_type":"two-door-navigation","trial_index":37,"time_elapsed":1176605,"internal_node_id":"0.0-2.0-35.0"},{"group":"square cycles (cube, non-group)","room_assignment":["brown","green","pink","grey","blue","purple","red","yellow"],"door_color_assignment":["black","white"],"door_generator_assignment":[0,1],"goal":5,"start":1,"action_noise":0.1,"location_history":"[1,0,4,7,3,2,6,5]","action_history":"[1,1,1,1,1,1,0]","door_history":"[1,1,1,1,1,1,0]","location_rts":"[9067,402,432,346,390,395,851]","trial_type":"two-door-navigation","trial_index":38,"time_elapsed":1200049,"internal_node_id":"0.0-2.0-36.0"},{"group":"square cycles (cube, non-group)","room_assignment":["brown","green","pink","grey","blue","purple","red","yellow"],"door_color_assignment":["black","white"],"door_generator_assignment":[0,1],"goal":7,"start":5,"action_noise":0.1,"location_history":"[5,1,0,4,5,1,0,1,2,3,0,1,0,1,2,3,0,4,5,1,0,4,5,1,2,3,2,3,0,1,2,6,7]","action_history":"[1,1,1,1,1,1,0,0,0,0,0,0,0,0,0,0,1,1,1,1,1,1,1,0,0,0,0,0,0,0,1,1]","door_history":"[1,1,1,1,1,1,0,0,0,0,0,0,0,0,0,0,1,1,1,1,1,1,1,0,0,0,0,0,0,0,1,1]","location_rts":"[16591,373,316,353,308,331,727,339,320,299,312,319,330,334,529,566,829,293,255,233,351,321,317,951,317,302,274,583,254,445,851,364]","trial_type":"two-door-navigation","trial_index":39,"time_elapsed":1266688,"internal_node_id":"0.0-2.0-37.0"},{"group":"square cycles (cube, non-group)","room_assignment":["brown","green","pink","grey","blue","purple","red","yellow"],"door_color_assignment":["black","white"],"door_generator_assignment":[0,1],"goal":2,"start":7,"action_noise":0.1,"location_history":"[7,3,0,4,5,1,0,4,5,1,0,1,0,4,7,6,5,4,7,6,5,4,7,3,2]","action_history":"[1,1,1,1,1,1,1,1,1,1,1,1,0,0,0,0,0,0,0,0,0,0,1,1]","door_history":"[1,1,1,1,1,1,1,1,1,1,1,1,0,0,0,0,0,0,0,0,0,0,1,1]","location_rts":"[2196,782,329,295,336,273,284,326,337,349,414,356,996,281,317,276,289,362,276,345,321,343,1068,3455]","trial_type":"two-door-navigation","trial_index":40,"time_elapsed":1310048,"internal_node_id":"0.0-2.0-38.0"},{"group":"square cycles (cube, non-group)","room_assignment":["brown","green","pink","grey","blue","purple","red","yellow"],"door_color_assignment":["black","white"],"door_generator_assignment":[0,1],"goal":1,"start":2,"action_noise":0.1,"location_history":"[2,6,7,3,2,6,5,1]","action_history":"[1,1,1,1,1,0,0]","door_history":"[1,1,1,1,1,0,0]","location_rts":"[13575,1609,505,401,350,1322,496]","trial_type":"two-door-navigation","trial_index":41,"time_elapsed":1339003,"internal_node_id":"0.0-2.0-39.0"},{"group":"square cycles (cube, non-group)","room_assignment":["brown","green","pink","grey","blue","purple","red","yellow"],"door_color_assignment":["black","white"],"door_generator_assignment":[0,1],"goal":3,"start":1,"action_noise":0.1,"location_history":"[1,0,4,5,1,0,4,7,6,5,1,2,6,5,4,7,3]","action_history":"[1,1,1,1,1,1,0,0,0,0,0,0,0,0,0,0]","door_history":"[1,1,1,1,1,1,0,0,0,0,0,0,0,0,0,0]","location_rts":"[3439,280,302,55523,297,262,808,291,336,316,281,725,475,250,261,292]","trial_type":"two-door-navigation","trial_index":42,"time_elapsed":1424049,"internal_node_id":"0.0-2.0-40.0"},{"group":"square cycles (cube, non-group)","room_assignment":["brown","green","pink","grey","blue","purple","red","yellow"],"door_color_assignment":["black","white"],"door_generator_assignment":[0,1],"goal":4,"start":3,"action_noise":0.1,"location_history":"[3,0,1,2,3,0,1,2,3,2,3,0,1,0,4]","action_history":"[0,0,0,0,0,0,0,0,0,0,0,0,1,1]","door_history":"[0,0,0,0,0,0,0,0,0,0,0,0,1,1]","location_rts":"[234312,299,315,305,253,283,279,224,98,227,354,397,687,355]","trial_type":"two-door-navigation","trial_index":43,"time_elapsed":1680303,"internal_node_id":"0.0-2.0-41.0"},{"group":"square cycles (cube, non-group)","room_assignment":["brown","green","pink","grey","blue","purple","red","yellow"],"door_color_assignment":["black","white"],"door_generator_assignment":[0,1],"goal":2,"start":4,"action_noise":0.1,"location_history":"[4,5,1,0,1,2]","action_history":"[1,1,1,0,0]","door_history":"[1,1,1,0,0]","location_rts":"[29762,417,290,329,319]","trial_type":"two-door-navigation","trial_index":44,"time_elapsed":1720053,"internal_node_id":"0.0-2.0-42.0"},{"group":"square cycles (cube, non-group)","room_assignment":["brown","green","pink","grey","blue","purple","red","yellow"],"door_color_assignment":["black","white"],"door_generator_assignment":[0,1],"goal":5,"start":2,"action_noise":0.1,"location_history":"[2,6,7,3,2,6,5]","action_history":"[1,1,1,1,1,0]","door_history":"[1,1,1,1,1,0]","location_rts":"[41722,337,277,307,308,201]","trial_type":"two-door-navigation","trial_index":45,"time_elapsed":1773054,"internal_node_id":"0.0-2.0-43.0"},{"group":"square cycles (cube, non-group)","room_assignment":["brown","green","pink","grey","blue","purple","red","yellow"],"door_color_assignment":["black","white"],"door_generator_assignment":[0,1],"goal":0,"start":5,"action_noise":0.1,"location_history":"[5,4,7,6,5,1,2,3,2,6,7,3,0]","action_history":"[0,0,0,0,0,0,0,1,1,1,1,1]","door_history":"[0,0,0,0,0,0,0,1,1,1,1,1]","location_rts":"[7240,261,283,283,354,346,745,1170,337,336,251,284]","trial_type":"two-door-navigation","trial_index":46,"time_elapsed":1802050,"internal_node_id":"0.0-2.0-44.0"},{"group":"square cycles (cube, non-group)","room_assignment":["brown","green","pink","grey","blue","purple","red","yellow"],"door_color_assignment":["black","white"],"door_generator_assignment":[0,1],"goal":7,"start":0,"action_noise":0.1,"location_history":"[0,4,5,1,0,1,2,6,5,4,7]","action_history":"[1,1,1,1,0,0,0,0,0,0]","door_history":"[1,1,1,1,0,0,0,0,0,0]","location_rts":"[24846,1992,378,348,189,274,229,196597,353,301]","trial_type":"two-door-navigation","trial_index":47,"time_elapsed":2043049,"internal_node_id":"0.0-2.0-45.0"},{"group":"square cycles (cube, non-group)","room_assignment":["brown","green","pink","grey","blue","purple","red","yellow"],"door_color_assignment":["black","white"],"door_generator_assignment":[0,1],"goal":6,"start":7,"action_noise":0.1,"location_history":"[7,6]","action_history":"[0]","door_history":"[0]","location_rts":"[38071]","trial_type":"two-door-navigation","trial_index":48,"time_elapsed":2087049,"internal_node_id":"0.0-2.0-46.0"},{"group":"square cycles (cube, non-group)","room_assignment":["brown","green","pink","grey","blue","purple","red","yellow"],"door_color_assignment":["black","white"],"door_generator_assignment":[0,1],"goal":2,"start":6,"action_noise":0.1,"location_history":"[6,5,4,5,4,7,6,5,1,0,4,5,1,0,1,2]","action_history":"[0,0,0,0,0,0,0,1,1,1,1,1,1,0,0]","door_history":"[0,0,0,0,0,0,0,1,1,1,1,1,1,0,0]","location_rts":"[160643,520,300,290,97799,306,306,242,254,232,310,384,226,216,243]","trial_type":"two-door-navigation","trial_index":49,"time_elapsed":2370050,"internal_node_id":"0.0-2.0-47.0"},{"group":"square cycles (cube, non-group)","room_assignment":["brown","green","pink","grey","blue","purple","red","yellow"],"door_color_assignment":["black","white"],"door_generator_assignment":[0,1],"goal":5,"start":2,"action_noise":0.1,"location_history":"[2,6,7,3,2,3,0,1,2,3,0,1,2,3,2,3,2,3,2,6,5]","action_history":"[1,1,1,1,0,0,0,0,0,0,0,0,1,1,1,1,1,1,1,0]","door_history":"[1,1,1,1,0,0,0,0,0,0,0,0,1,1,1,1,1,1,1,0]","location_rts":"[75326,263,243,364,164,369,289,246,305,369,261,447,303,199,220,265,263,244,283,283]","trial_type":"two-door-navigation","trial_index":50,"time_elapsed":2476051,"internal_node_id":"0.0-2.0-48.0"},{"group":"square cycles (cube, non-group)","room_assignment":["brown","green","pink","grey","blue","purple","red","yellow"],"door_color_assignment":["black","white"],"door_generator_assignment":[0,1],"goal":3,"start":5,"action_noise":0.1,"location_history":"[5,4,7,6,5,4,5,1,0,4,5,1,0,4,5,4,5,1,0,1,0,1,2,6,5,4,5,4,5,4,7,3]","action_history":"[0,0,0,0,0,1,1,1,1,1,1,1,1,1,1,1,1,1,0,0,0,0,0,0,0,0,0,0,0,0,1]","door_history":"[0,0,0,0,0,1,1,1,1,1,1,1,1,1,1,1,1,1,0,0,0,0,0,0,0,0,0,0,0,0,1]","location_rts":"[7298,228,218,217,444,186,67,154,699,339,281,235,234,338,292,199,276,264,821,261,183,292,229,237,222,5963,197,285,295,270,237]","trial_type":"two-door-navigation","trial_index":51,"time_elapsed":2534051,"internal_node_id":"0.0-2.0-49.0"},{"view_history":"[{\"page_index\":0,\"viewing_time\":53957}]","rt":53958,"trial_type":"instructions","trial_index":52,"time_elapsed":2590007,"internal_node_id":"0.0-3.0"},{"view_history":"[{\"page_index\":0,\"viewing_time\":22654},{\"page_index\":1,\"viewing_time\":1105}]","rt":23759,"trial_type":"instructions","trial_index":53,"time_elapsed":2614768,"internal_node_id":"0.0-4.0"},{"group":"tri cycles (cube, non-group)","fractal_assignment":["../images/org_blu.png","../images/ylw_pnk.png","../images/pnk_blu.png","../images/ylw_slt.png","../images/blu_wht.png","../images/grn_red.png","../images/gry_blk.png","../images/cyn_red.png"],"mutagen_generator_assignment":[1,0],"goal":5,"start":7,"action_noise":0.1,"location_history":"[7,6,4,7,6,4,0,2,6,5]","action_history":"[0,0,0,0,1,1,1,1,1]","mutagen_history":"[1,1,1,1,0,0,0,0,0]","location_rts":"[4164,173,360,319,441,409,276,372,412]","trial_type":"fractal-mutation","trial_index":54,"time_elapsed":2636053,"internal_node_id":"0.0-5.0-0.0"},{"group":"tri cycles (cube, non-group)","fractal_assignment":["../images/org_blu.png","../images/ylw_pnk.png","../images/pnk_blu.png","../images/ylw_slt.png","../images/blu_wht.png","../images/grn_red.png","../images/gry_blk.png","../images/cyn_red.png"],"mutagen_generator_assignment":[1,0],"goal":2,"start":5,"action_noise":0.1,"location_history":"[5,2]","action_history":"[1]","mutagen_history":"[0]","location_rts":"[386617]","trial_type":"fractal-mutation","trial_index":55,"time_elapsed":3029049,"internal_node_id":"0.0-5.0-1.0"},{"group":"tri cycles (cube, non-group)","fractal_assignment":["../images/org_blu.png","../images/ylw_pnk.png","../images/pnk_blu.png","../images/ylw_slt.png","../images/blu_wht.png","../images/grn_red.png","../images/gry_blk.png","../images/cyn_red.png"],"mutagen_generator_assignment":[1,0],"goal":0,"start":2,"action_noise":0.1,"location_history":"[2,1,0]","action_history":"[0,0]","mutagen_history":"[1,1]","location_rts":"[13401,491]","trial_type":"fractal-mutation","trial_index":56,"time_elapsed":3050050,"internal_node_id":"0.0-5.0-2.0"},{"group":"tri cycles (cube, non-group)","fractal_assignment":["../images/org_blu.png","../images/ylw_pnk.png","../images/pnk_blu.png","../images/ylw_slt.png","../images/blu_wht.png","../images/grn_red.png","../images/gry_blk.png","../images/cyn_red.png"],"mutagen_generator_assignment":[1,0],"goal":1,"start":0,"action_noise":0.1,"location_history":"[0,3,4,0,2,1]","action_history":"[1,1,1,0,0]","mutagen_history":"[0,0,0,1,1]","location_rts":"[673,393,440,572,341]","trial_type":"fractal-mutation","trial_index":57,"time_elapsed":3063049,"internal_node_id":"0.0-5.0-3.0"},{"group":"tri cycles (cube, non-group)","fractal_assignment":["../images/org_blu.png","../images/ylw_pnk.png","../images/pnk_blu.png","../images/ylw_slt.png","../images/blu_wht.png","../images/grn_red.png","../images/gry_blk.png","../images/cyn_red.png"],"mutagen_generator_assignment":[1,0],"goal":6,"start":1,"action_noise":0.1,"location_history":"[1,0,2,1,0,3,4,0,3,7,6]","action_history":"[0,0,0,0,1,1,1,1,0,0]","mutagen_history":"[1,1,1,1,0,0,0,0,1,1]","location_rts":"[1138,416,599,372,471,427,342,403,29453,369]","trial_type":"fractal-mutation","trial_index":58,"time_elapsed":3112054,"internal_node_id":"0.0-5.0-4.0"},{"group":"tri cycles (cube, non-group)","fractal_assignment":["../images/org_blu.png","../images/ylw_pnk.png","../images/pnk_blu.png","../images/ylw_slt.png","../images/blu_wht.png","../images/grn_red.png","../images/gry_blk.png","../images/cyn_red.png"],"mutagen_generator_assignment":[1,0],"goal":3,"start":6,"action_noise":0.1,"location_history":"[6,4,0,2,6,4,7,3]","action_history":"[0,1,1,1,0,0,0]","mutagen_history":"[1,0,0,0,1,1,1]","location_rts":"[16239,772,338,285,347,368,268]","trial_type":"fractal-mutation","trial_index":59,"time_elapsed":3147048,"internal_node_id":"0.0-5.0-5.0"},{"group":"tri cycles (cube, non-group)","fractal_assignment":["../images/org_blu.png","../images/ylw_pnk.png","../images/pnk_blu.png","../images/ylw_slt.png","../images/blu_wht.png","../images/grn_red.png","../images/gry_blk.png","../images/cyn_red.png"],"mutagen_generator_assignment":[1,0],"goal":4,"start":3,"action_noise":0.1,"location_history":"[3,7,6,4]","action_history":"[0,0,0]","mutagen_history":"[1,1,1]","location_rts":"[9058,346,427]","trial_type":"fractal-mutation","trial_index":60,"time_elapsed":3164660,"internal_node_id":"0.0-5.0-6.0"},{"group":"tri cycles (cube, non-group)","fractal_assignment":["../images/org_blu.png","../images/ylw_pnk.png","../images/pnk_blu.png","../images/ylw_slt.png","../images/blu_wht.png","../images/grn_red.png","../images/gry_blk.png","../images/cyn_red.png"],"mutagen_generator_assignment":[1,0],"goal":1,"start":4,"action_noise":0.1,"location_history":"[4,7,6,4,7,6,5,2,1]","action_history":"[0,0,0,0,0,1,1,1]","mutagen_history":"[1,1,1,1,1,0,0,0]","location_rts":"[24990,329,320,305,339,239,305,233]","trial_type":"fractal-mutation","trial_index":61,"time_elapsed":3203790,"internal_node_id":"0.0-5.0-7.0"},{"group":"tri cycles (cube, non-group)","fractal_assignment":["../images/org_blu.png","../images/ylw_pnk.png","../images/pnk_blu.png","../images/ylw_slt.png","../images/blu_wht.png","../images/grn_red.png","../images/gry_blk.png","../images/cyn_red.png"],"mutagen_generator_assignment":[1,0],"goal":4,"start":1,"action_noise":0.1,"location_history":"[1,0,2,1,0,3,4]","action_history":"[0,0,0,0,1,1]","mutagen_history":"[1,1,1,1,0,0]","location_rts":"[22597,322,430,296,660,483]","trial_type":"fractal-mutation","trial_index":62,"time_elapsed":3239050,"internal_node_id":"0.0-5.0-8.0"},{"group":"tri cycles (cube, non-group)","fractal_assignment":["../images/org_blu.png","../images/ylw_pnk.png","../images/pnk_blu.png","../images/ylw_slt.png","../images/blu_wht.png","../images/grn_red.png","../images/gry_blk.png","../images/cyn_red.png"],"mutagen_generator_assignment":[1,0],"goal":5,"start":4,"action_noise":0.1,"location_history":"[4,7,6,4,7,3,4,0,3,4,0,3,4,0,2,1,0,2,1,5]","action_history":"[0,0,0,0,1,1,1,1,1,1,1,1,1,0,0,0,0,0,1]","mutagen_history":"[1,1,1,1,0,0,0,0,0,0,0,0,0,1,1,1,1,1,0]","location_rts":"[5546,416,322,319,249,334,274,284,570,499,281,576,304,499,342,322,387,316,877]","trial_type":"fractal-mutation","trial_index":63,"time_elapsed":3277063,"internal_node_id":"0.0-5.0-9.0"},{"group":"tri cycles (cube, non-group)","fractal_assignment":["../images/org_blu.png","../images/ylw_pnk.png","../images/pnk_blu.png","../images/ylw_slt.png","../images/blu_wht.png","../images/grn_red.png","../images/gry_blk.png","../images/cyn_red.png"],"mutagen_generator_assignment":[1,0],"goal":3,"start":5,"action_noise":0.1,"location_history":"[5,1,0,3]","action_history":"[0,0,1]","mutagen_history":"[1,1,0]","location_rts":"[8666,347,658]","trial_type":"fractal-mutation","trial_index":64,"time_elapsed":3295051,"internal_node_id":"0.0-5.0-10.0"},{"group":"tri cycles (cube, non-group)","fractal_assignment":["../images/org_blu.png","../images/ylw_pnk.png","../images/pnk_blu.png","../images/ylw_slt.png","../images/blu_wht.png","../images/grn_red.png","../images/gry_blk.png","../images/cyn_red.png"],"mutagen_generator_assignment":[1,0],"goal":6,"start":3,"action_noise":0.1,"location_history":"[3,7,6]","action_history":"[0,0]","mutagen_history":"[1,1]","location_rts":"[536,345]","trial_type":"fractal-mutation","trial_index":65,"time_elapsed":3301975,"internal_node_id":"0.0-5.0-11.0"},{"group":"tri cycles (cube, non-group)","fractal_assignment":["../images/org_blu.png","../images/ylw_pnk.png","../images/pnk_blu.png","../images/ylw_slt.png","../images/blu_wht.png","../images/grn_red.png","../images/gry_blk.png","../images/cyn_red.png"],"mutagen_generator_assignment":[1,0],"goal":7,"start":6,"action_noise":0.1,"location_history":"[6,5,1,0,2,1,5,2,6,5,2,1,0,2,6,4,0,3,4,0,3,4,7]","action_history":"[0,0,0,0,0,1,1,1,1,1,1,0,0,0,0,0,1,1,1,1,1,0]","mutagen_history":"[1,1,1,1,1,0,0,0,0,0,0,1,1,1,1,1,0,0,0,0,0,1]","location_rts":"[866,362,352,900,556,436,290,311,320,455,449,339,258,359,4807,267,621,356,320,414,268,380]","trial_type":"fractal-mutation","trial_index":66,"time_elapsed":3343050,"internal_node_id":"0.0-5.0-12.0"},{"group":"tri cycles (cube, non-group)","fractal_assignment":["../images/org_blu.png","../images/ylw_pnk.png","../images/pnk_blu.png","../images/ylw_slt.png","../images/blu_wht.png","../images/grn_red.png","../images/gry_blk.png","../images/cyn_red.png"],"mutagen_generator_assignment":[1,0],"goal":0,"start":7,"action_noise":0.1,"location_history":"[7,6,4,7,6,4,0]","action_history":"[0,0,0,0,1,1]","mutagen_history":"[1,1,1,1,0,0]","location_rts":"[934,400,279,270,383,389]","trial_type":"fractal-mutation","trial_index":67,"time_elapsed":3356010,"internal_node_id":"0.0-5.0-13.0"},{"group":"tri cycles (cube, non-group)","fractal_assignment":["../images/org_blu.png","../images/ylw_pnk.png","../images/pnk_blu.png","../images/ylw_slt.png","../images/blu_wht.png","../images/grn_red.png","../images/gry_blk.png","../images/cyn_red.png"],"mutagen_generator_assignment":[1,0],"goal":2,"start":0,"action_noise":0.1,"location_history":"[0,2]","action_history":"[0]","mutagen_history":"[1]","location_rts":"[489]","trial_type":"fractal-mutation","trial_index":68,"time_elapsed":3361075,"internal_node_id":"0.0-5.0-14.0"},{"group":"tri cycles (cube, non-group)","fractal_assignment":["../images/org_blu.png","../images/ylw_pnk.png","../images/pnk_blu.png","../images/ylw_slt.png","../images/blu_wht.png","../images/grn_red.png","../images/gry_blk.png","../images/cyn_red.png"],"mutagen_generator_assignment":[1,0],"goal":1,"start":2,"action_noise":0.1,"location_history":"[2,1]","action_history":"[0]","mutagen_history":"[1]","location_rts":"[34393]","trial_type":"fractal-mutation","trial_index":69,"time_elapsed":3401050,"internal_node_id":"0.0-5.0-15.0"},{"group":"tri cycles (cube, non-group)","fractal_assignment":["../images/org_blu.png","../images/ylw_pnk.png","../images/pnk_blu.png","../images/ylw_slt.png","../images/blu_wht.png","../images/grn_red.png","../images/gry_blk.png","../images/cyn_red.png"],"mutagen_generator_assignment":[1,0],"goal":6,"start":1,"action_noise":0.1,"location_history":"[1,0,2,1,0,3,7,6]","action_history":"[0,0,0,0,1,1,1]","mutagen_history":"[1,1,1,1,0,0,0]","location_rts":"[47859,297,312,297,510,470,329]","trial_type":"fractal-mutation","trial_index":70,"time_elapsed":3463049,"internal_node_id":"0.0-5.0-16.0"},{"group":"tri cycles (cube, non-group)","fractal_assignment":["../images/org_blu.png","../images/ylw_pnk.png","../images/pnk_blu.png","../images/ylw_slt.png","../images/blu_wht.png","../images/grn_red.png","../images/gry_blk.png","../images/cyn_red.png"],"mutagen_generator_assignment":[1,0],"goal":3,"start":6,"action_noise":0.1,"location_history":"[6,4,7,6,5,1,5,2,6,5,2,6,4,7,6,4,7,6,4,7,3]","action_history":"[0,0,0,1,1,1,1,1,1,1,1,0,0,0,0,0,0,0,0,1]","mutagen_history":"[1,1,1,0,0,0,0,0,0,0,0,1,1,1,1,1,1,1,1,0]","location_rts":"[64367,568,296,519,316,423,280,292,322,298,309,488,402,287,327,303,269,267,362,247]","trial_type":"fractal-mutation","trial_index":71,"time_elapsed":3561051,"internal_node_id":"0.0-5.0-17.0"},{"group":"tri cycles (cube, non-group)","fractal_assignment":["../images/org_blu.png","../images/ylw_pnk.png","../images/pnk_blu.png","../images/ylw_slt.png","../images/blu_wht.png","../images/grn_red.png","../images/gry_blk.png","../images/cyn_red.png"],"mutagen_generator_assignment":[1,0],"goal":4,"start":3,"action_noise":0.1,"location_history":"[3,7,6,5,2,6,5,2,1,5,1,0,2,1,0,2,6,5,2,6,5,2,6,4]","action_history":"[0,0,1,1,1,1,1,0,0,0,0,0,0,0,0,1,1,1,1,1,1,1,0]","mutagen_history":"[1,1,0,0,0,0,0,1,1,1,1,1,1,1,1,0,0,0,0,0,0,0,1]","location_rts":"[50779,327,570,243,334,349,326,511,313,344,398,328,495,325,242,256,357,342,461,261,321,319,313]","trial_type":"fractal-mutation","trial_index":72,"time_elapsed":3649054,"internal_node_id":"0.0-5.0-18.0"},{"group":"tri cycles (cube, non-group)","fractal_assignment":["../images/org_blu.png","../images/ylw_pnk.png","../images/pnk_blu.png","../images/ylw_slt.png","../images/blu_wht.png","../images/grn_red.png","../images/gry_blk.png","../images/cyn_red.png"],"mutagen_generator_assignment":[1,0],"goal":5,"start":4,"action_noise":0.1,"location_history":"[4,7,6,4,7,3,4,0,3,4,0,2,6,5]","action_history":"[0,0,0,0,1,1,1,1,1,1,1,1,1]","mutagen_history":"[1,1,1,1,0,0,0,0,0,0,0,0,0]","location_rts":"[30063,302,273,295,594,299,260,533,360,362,438,503,368]","trial_type":"fractal-mutation","trial_index":73,"time_elapsed":3701007,"internal_node_id":"0.0-5.0-19.0"},{"group":"tri cycles (cube, non-group)","fractal_assignment":["../images/org_blu.png","../images/ylw_pnk.png","../images/pnk_blu.png","../images/ylw_slt.png","../images/blu_wht.png","../images/grn_red.png","../images/gry_blk.png","../images/cyn_red.png"],"mutagen_generator_assignment":[1,0],"goal":7,"start":5,"action_noise":0.1,"location_history":"[5,1,0,3,4,0,3,7]","action_history":"[0,0,1,1,1,1,1]","mutagen_history":"[1,1,0,0,0,0,0]","location_rts":"[32625,350,586,273,319,442,287]","trial_type":"fractal-mutation","trial_index":74,"time_elapsed":3747060,"internal_node_id":"0.0-5.0-20.0"},{"group":"tri cycles (cube, non-group)","fractal_assignment":["../images/org_blu.png","../images/ylw_pnk.png","../images/pnk_blu.png","../images/ylw_slt.png","../images/blu_wht.png","../images/grn_red.png","../images/gry_blk.png","../images/cyn_red.png"],"mutagen_generator_assignment":[1,0],"goal":2,"start":7,"action_noise":0.1,"location_history":"[7,3,7,3,4,7,3,7,6,4,7,6,4,7,3,4,0,3,4,0,2]","action_history":"[0,0,1,1,1,1,0,0,0,0,0,0,1,1,1,1,1,1,1,0]","mutagen_history":"[1,1,0,0,0,0,1,1,1,1,1,1,0,0,0,0,0,0,0,1]","location_rts":"[17651,530,298,298,330,334,396,273,254,334,339,355,493,283,300,341,277,482,405,578]","trial_type":"fractal-mutation","trial_index":75,"time_elapsed":3797303,"internal_node_id":"0.0-5.0-21.0"},{"group":"tri cycles (cube, non-group)","fractal_assignment":["../images/org_blu.png","../images/ylw_pnk.png","../images/pnk_blu.png","../images/ylw_slt.png","../images/blu_wht.png","../images/grn_red.png","../images/gry_blk.png","../images/cyn_red.png"],"mutagen_generator_assignment":[1,0],"goal":0,"start":2,"action_noise":0.1,"location_history":"[2,1,0]","action_history":"[0,0]","mutagen_history":"[1,1]","location_rts":"[53586,564]","trial_type":"fractal-mutation","trial_index":76,"time_elapsed":3857876,"internal_node_id":"0.0-5.0-22.0"},{"group":"tri cycles (cube, non-group)","fractal_assignment":["../images/org_blu.png","../images/ylw_pnk.png","../images/pnk_blu.png","../images/ylw_slt.png","../images/blu_wht.png","../images/grn_red.png","../images/gry_blk.png","../images/cyn_red.png"],"mutagen_generator_assignment":[1,0],"goal":7,"start":0,"action_noise":0.1,"location_history":"[0,2,1,0,2,6,5,2,1,5,2,1,0,2,1,5,2,1,0,3,4,0,3,4,7]","action_history":"[0,0,0,0,1,1,1,1,1,1,0,0,0,0,0,0,0,0,1,1,1,1,1,0]","mutagen_history":"[1,1,1,1,0,0,0,0,0,0,1,1,1,1,1,1,1,1,0,0,0,0,0,1]","location_rts":"[614,318,291,537,398,265,331,302,296,388,257,275,465,293,321,391,1171,344,561,293,295,240,327,535]","trial_type":"fractal-mutation","trial_index":77,"time_elapsed":3897052,"internal_node_id":"0.0-5.0-23.0"},{"group":"tri cycles (cube, non-group)","fractal_assignment":["../images/org_blu.png","../images/ylw_pnk.png","../images/pnk_blu.png","../images/ylw_slt.png","../images/blu_wht.png","../images/grn_red.png","../images/gry_blk.png","../images/cyn_red.png"],"mutagen_generator_assignment":[1,0],"goal":5,"start":7,"action_noise":0.1,"location_history":"[7,3,7,6,5]","action_history":"[0,0,0,1]","mutagen_history":"[1,1,1,0]","location_rts":"[45414,294,288,274]","trial_type":"fractal-mutation","trial_index":78,"time_elapsed":3952121,"internal_node_id":"0.0-5.0-24.0"},{"group":"tri cycles (cube, non-group)","fractal_assignment":["../images/org_blu.png","../images/ylw_pnk.png","../images/pnk_blu.png","../images/ylw_slt.png","../images/blu_wht.png","../images/grn_red.png","../images/gry_blk.png","../images/cyn_red.png"],"mutagen_generator_assignment":[1,0],"goal":0,"start":5,"action_noise":0.1,"location_history":"[5,1,0]","action_history":"[0,0]","mutagen_history":"[1,1]","location_rts":"[507,334]","trial_type":"fractal-mutation","trial_index":79,"time_elapsed":3958615,"internal_node_id":"0.0-5.0-25.0"},{"group":"tri cycles (cube, non-group)","fractal_assignment":["../images/org_blu.png","../images/ylw_pnk.png","../images/pnk_blu.png","../images/ylw_slt.png","../images/blu_wht.png","../images/grn_red.png","../images/gry_blk.png","../images/cyn_red.png"],"mutagen_generator_assignment":[1,0],"goal":6,"start":0,"action_noise":0.1,"location_history":"[0,2,1,0,3,7,3,4,0,3,4,0,2,1,0,3,7,6]","action_history":"[0,0,0,1,0,1,1,1,1,1,1,0,0,0,1,0,0]","mutagen_history":"[1,1,1,0,1,0,0,0,0,0,0,1,1,1,0,1,1]","location_rts":"[786,682,313,459,13209,405,227,516,332,351,413,625,444,838,8876,730,521]","trial_type":"fractal-mutation","trial_index":80,"time_elapsed":4013612,"internal_node_id":"0.0-5.0-26.0"},{"group":"tri cycles (cube, non-group)","fractal_assignment":["../images/org_blu.png","../images/ylw_pnk.png","../images/pnk_blu.png","../images/ylw_slt.png","../images/blu_wht.png","../images/grn_red.png","../images/gry_blk.png","../images/cyn_red.png"],"mutagen_generator_assignment":[1,0],"goal":4,"start":6,"action_noise":0.1,"location_history":"[6,5,2,6,4]","action_history":"[1,1,1,0]","mutagen_history":"[0,0,0,1]","location_rts":"[633,535,374,628]","trial_type":"fractal-mutation","trial_index":81,"time_elapsed":4023526,"internal_node_id":"0.0-5.0-27.0"},{"group":"tri cycles (cube, non-group)","fractal_assignment":["../images/org_blu.png","../images/ylw_pnk.png","../images/pnk_blu.png","../images/ylw_slt.png","../images/blu_wht.png","../images/grn_red.png","../images/gry_blk.png","../images/cyn_red.png"],"mutagen_generator_assignment":[1,0],"goal":2,"start":4,"action_noise":0.1,"location_history":"[4,0,3,7,3,4,0,3,4,0,2]","action_history":"[0,0,0,0,1,1,1,1,1,0]","mutagen_history":"[1,1,1,1,0,0,0,0,0,1]","location_rts":"[550,464,391,471,636,409,293,457,392,496]","trial_type":"fractal-mutation","trial_index":82,"time_elapsed":4042211,"internal_node_id":"0.0-5.0-28.0"},{"group":"tri cycles (cube, non-group)","fractal_assignment":["../images/org_blu.png","../images/ylw_pnk.png","../images/pnk_blu.png","../images/ylw_slt.png","../images/blu_wht.png","../images/grn_red.png","../images/gry_blk.png","../images/cyn_red.png"],"mutagen_generator_assignment":[1,0],"goal":3,"start":2,"action_noise":0.1,"location_history":"[2,6,5,2,6,4,7,3]","action_history":"[1,1,1,1,1,1,1]","mutagen_history":"[0,0,0,0,0,0,0]","location_rts":"[1248,442,270,321,274,520,575]","trial_type":"fractal-mutation","trial_index":83,"time_elapsed":4056746,"internal_node_id":"0.0-5.0-29.0"},{"group":"tri cycles (cube, non-group)","fractal_assignment":["../images/org_blu.png","../images/ylw_pnk.png","../images/pnk_blu.png","../images/ylw_slt.png","../images/blu_wht.png","../images/grn_red.png","../images/gry_blk.png","../images/cyn_red.png"],"mutagen_generator_assignment":[1,0],"goal":1,"start":3,"action_noise":0.1,"location_history":"[3,7,6,4,7,6,4,7,6,5,1]","action_history":"[0,0,0,0,0,0,0,1,1,0]","mutagen_history":"[1,1,1,1,1,1,1,0,0,1]","location_rts":"[796,345,327,333,339,390,375,579,319,753]","trial_type":"fractal-mutation","trial_index":84,"time_elapsed":4075495,"internal_node_id":"0.0-5.0-30.0"},{"group":"tri cycles (cube, non-group)","fractal_assignment":["../images/org_blu.png","../images/ylw_pnk.png","../images/pnk_blu.png","../images/ylw_slt.png","../images/blu_wht.png","../images/grn_red.png","../images/gry_blk.png","../images/cyn_red.png"],"mutagen_generator_assignment":[1,0],"goal":4,"start":1,"action_noise":0.1,"location_history":"[1,0,2,1,0,2,6,5,1,5,2,6,4]","action_history":"[0,0,0,0,0,1,1,1,1,1,1,0]","mutagen_history":"[1,1,1,1,1,0,0,0,0,0,0,1]","location_rts":"[928,766,903,606,791,635,487,610,424,317,580,666]","trial_type":"fractal-mutation","trial_index":85,"time_elapsed":4099399,"internal_node_id":"0.0-5.0-31.0"},{"group":"tri cycles (cube, non-group)","fractal_assignment":["../images/org_blu.png","../images/ylw_pnk.png","../images/pnk_blu.png","../images/ylw_slt.png","../images/blu_wht.png","../images/grn_red.png","../images/gry_blk.png","../images/cyn_red.png"],"mutagen_generator_assignment":[1,0],"goal":3,"start":4,"action_noise":0.1,"location_history":"[4,7,3]","action_history":"[0,1]","mutagen_history":"[1,0]","location_rts":"[773,5481]","trial_type":"fractal-mutation","trial_index":86,"time_elapsed":4111277,"internal_node_id":"0.0-5.0-32.0"},{"group":"tri cycles (cube, non-group)","fractal_assignment":["../images/org_blu.png","../images/ylw_pnk.png","../images/pnk_blu.png","../images/ylw_slt.png","../images/blu_wht.png","../images/grn_red.png","../images/gry_blk.png","../images/cyn_red.png"],"mutagen_generator_assignment":[1,0],"goal":6,"start":3,"action_noise":0.1,"location_history":"[3,7,6]","action_history":"[0,0]","mutagen_history":"[1,1]","location_rts":"[62545,572]","trial_type":"fractal-mutation","trial_index":87,"time_elapsed":4180052,"internal_node_id":"0.0-5.0-33.0"},{"group":"tri cycles (cube, non-group)","fractal_assignment":["../images/org_blu.png","../images/ylw_pnk.png","../images/pnk_blu.png","../images/ylw_slt.png","../images/blu_wht.png","../images/grn_red.png","../images/gry_blk.png","../images/cyn_red.png"],"mutagen_generator_assignment":[1,0],"goal":0,"start":6,"action_noise":0.1,"location_history":"[6,4,7,6,5,2,6,5,2,6,4,7,6,4,7,6,4,0]","action_history":"[0,0,0,1,1,1,1,1,1,0,0,0,0,0,0,0,1]","mutagen_history":"[1,1,1,0,0,0,0,0,0,1,1,1,1,1,1,1,0]","location_rts":"[62855,357,271,530,369,314,287,268,290,385,292,242,266,384,411,360,521]","trial_type":"fractal-mutation","trial_index":88,"time_elapsed":4272051,"internal_node_id":"0.0-5.0-34.0"},{"group":"tri cycles (cube, non-group)","fractal_assignment":["../images/org_blu.png","../images/ylw_pnk.png","../images/pnk_blu.png","../images/ylw_slt.png","../images/blu_wht.png","../images/grn_red.png","../images/gry_blk.png","../images/cyn_red.png"],"mutagen_generator_assignment":[1,0],"goal":1,"start":0,"action_noise":0.1,"location_history":"[0,3,4,0,2,6,5,1]","action_history":"[1,1,1,1,1,0,0]","mutagen_history":"[0,0,0,0,0,1,1]","location_rts":"[3054,377,319,402,300,352,267]","trial_type":"fractal-mutation","trial_index":89,"time_elapsed":4289033,"internal_node_id":"0.0-5.0-35.0"},{"group":"tri cycles (cube, non-group)","fractal_assignment":["../images/org_blu.png","../images/ylw_pnk.png","../images/pnk_blu.png","../images/ylw_slt.png","../images/blu_wht.png","../images/grn_red.png","../images/gry_blk.png","../images/cyn_red.png"],"mutagen_generator_assignment":[1,0],"goal":5,"start":1,"action_noise":0.1,"location_history":"[1,0,3,7,6,4,7,6,4,7,6,4,7,6,4,0,3,4,0,3,4,0,3,7,6,4,7,3,4,0,3,4,0,2,6,5]","action_history":"[0,0,0,0,0,0,0,0,0,0,0,0,0,0,1,1,1,1,1,1,1,1,0,0,0,0,1,1,1,1,1,1,1,1,1]","mutagen_history":"[1,1,1,1,1,1,1,1,1,1,1,1,1,1,0,0,0,0,0,0,0,0,1,1,1,1,0,0,0,0,0,0,0,0,0]","location_rts":"[481,458,239,326,344,388,468,386,346,463,346,306,290,284,222,337,289,286,347,334,338,418,535,342,240,268,676,387,244,319,363,261,385,414,481]","trial_type":"fractal-mutation","trial_index":90,"time_elapsed":4343056,"internal_node_id":"0.0-5.0-36.0"},{"group":"tri cycles (cube, non-group)","fractal_assignment":["../images/org_blu.png","../images/ylw_pnk.png","../images/pnk_blu.png","../images/ylw_slt.png","../images/blu_wht.png","../images/grn_red.png","../images/gry_blk.png","../images/cyn_red.png"],"mutagen_generator_assignment":[1,0],"goal":7,"start":5,"action_noise":0.1,"location_history":"[5,1,0,2,1,0,3,4,0,3,4,0,3,4,0,3,4,0,3,7]","action_history":"[0,0,0,0,0,1,1,1,1,1,1,1,1,1,1,1,1,1,1]","mutagen_history":"[1,1,1,1,1,0,0,0,0,0,0,0,0,0,0,0,0,0,0]","location_rts":"[125586,306,2387,256,315,313,301,417,2102,87,263,276,134,303,1385,273,366,252,620]","trial_type":"fractal-mutation","trial_index":91,"time_elapsed":4504039,"internal_node_id":"0.0-5.0-37.0"},{"group":"tri cycles (cube, non-group)","fractal_assignment":["../images/org_blu.png","../images/ylw_pnk.png","../images/pnk_blu.png","../images/ylw_slt.png","../images/blu_wht.png","../images/grn_red.png","../images/gry_blk.png","../images/cyn_red.png"],"mutagen_generator_assignment":[1,0],"goal":2,"start":7,"action_noise":0.1,"location_history":"[7,6,4,0,2]","action_history":"[0,0,0,0]","mutagen_history":"[1,1,1,1]","location_rts":"[785,406,1006,288]","trial_type":"fractal-mutation","trial_index":92,"time_elapsed":4514797,"internal_node_id":"0.0-5.0-38.0"},{"group":"tri cycles (cube, non-group)","fractal_assignment":["../images/org_blu.png","../images/ylw_pnk.png","../images/pnk_blu.png","../images/ylw_slt.png","../images/blu_wht.png","../images/grn_red.png","../images/gry_blk.png","../images/cyn_red.png"],"mutagen_generator_assignment":[1,0],"goal":1,"start":2,"action_noise":0.1,"location_history":"[2,6,5,1]","action_history":"[1,1,0]","mutagen_history":"[0,0,1]","location_rts":"[760,312,570]","trial_type":"fractal-mutation","trial_index":93,"time_elapsed":4524049,"internal_node_id":"0.0-5.0-39.0"},{"group":"tri cycles (cube, non-group)","fractal_assignment":["../images/org_blu.png","../images/ylw_pnk.png","../images/pnk_blu.png","../images/ylw_slt.png","../images/blu_wht.png","../images/grn_red.png","../images/gry_blk.png","../images/cyn_red.png"],"mutagen_generator_assignment":[1,0],"goal":3,"start":1,"action_noise":0.1,"location_history":"[1,0,2,6,5,1,5,2,6,4,7,6,5,2,6,4,0,3]","action_history":"[0,0,1,1,1,1,1,0,0,0,0,1,1,1,0,1,1]","mutagen_history":"[1,1,0,0,0,0,0,1,1,1,1,0,0,0,1,0,0]","location_rts":"[745,347,602,362,340,305,265,502,306,389,393,393,350,291,1977,1371,516]","trial_type":"fractal-mutation","trial_index":94,"time_elapsed":4555843,"internal_node_id":"0.0-5.0-40.0"},{"group":"tri cycles (cube, non-group)","fractal_assignment":["../images/org_blu.png","../images/ylw_pnk.png","../images/pnk_blu.png","../images/ylw_slt.png","../images/blu_wht.png","../images/grn_red.png","../images/gry_blk.png","../images/cyn_red.png"],"mutagen_generator_assignment":[1,0],"goal":4,"start":3,"action_noise":0.1,"location_history":"[3,7,6,4]","action_history":"[0,0,0]","mutagen_history":"[1,1,1]","location_rts":"[491,274,348]","trial_type":"fractal-mutation","trial_index":95,"time_elapsed":4564050,"internal_node_id":"0.0-5.0-41.0"},{"group":"tri cycles (cube, non-group)","fractal_assignment":["../images/org_blu.png","../images/ylw_pnk.png","../images/pnk_blu.png","../images/ylw_slt.png","../images/blu_wht.png","../images/grn_red.png","../images/gry_blk.png","../images/cyn_red.png"],"mutagen_generator_assignment":[1,0],"goal":2,"start":4,"action_noise":0.1,"location_history":"[4,7,3,7,6,5,2]","action_history":"[0,0,0,0,1,1]","mutagen_history":"[1,1,1,1,0,0]","location_rts":"[422,313,409,410,356,324]","trial_type":"fractal-mutation","trial_index":96,"time_elapsed":4577049,"internal_node_id":"0.0-5.0-42.0"},{"group":"tri cycles (cube, non-group)","fractal_assignment":["../images/org_blu.png","../images/ylw_pnk.png","../images/pnk_blu.png","../images/ylw_slt.png","../images/blu_wht.png","../images/grn_red.png","../images/gry_blk.png","../images/cyn_red.png"],"mutagen_generator_assignment":[1,0],"goal":5,"start":2,"action_noise":0.1,"location_history":"[2,6,4,0,2,6,5]","action_history":"[0,0,0,0,1,1]","mutagen_history":"[1,1,1,1,0,0]","location_rts":"[661,267,272,511,300,303]","trial_type":"fractal-mutation","trial_index":97,"time_elapsed":4590049,"internal_node_id":"0.0-5.0-43.0"},{"group":"tri cycles (cube, non-group)","fractal_assignment":["../images/org_blu.png","../images/ylw_pnk.png","../images/pnk_blu.png","../images/ylw_slt.png","../images/blu_wht.png","../images/grn_red.png","../images/gry_blk.png","../images/cyn_red.png"],"mutagen_generator_assignment":[1,0],"goal":0,"start":5,"action_noise":0.1,"location_history":"[5,1,0]","action_history":"[0,0]","mutagen_history":"[1,1]","location_rts":"[504,353]","trial_type":"fractal-mutation","trial_index":98,"time_elapsed":4597050,"internal_node_id":"0.0-5.0-44.0"},{"group":"tri cycles (cube, non-group)","fractal_assignment":["../images/org_blu.png","../images/ylw_pnk.png","../images/pnk_blu.png","../images/ylw_slt.png","../images/blu_wht.png","../images/grn_red.png","../images/gry_blk.png","../images/cyn_red.png"],"mutagen_generator_assignment":[1,0],"goal":7,"start":0,"action_noise":0.1,"location_history":"[0,3,4,0,3,4,0,2,6,4,0,2,1,0,2,1,0,3,4,0,3,4,7]","action_history":"[1,1,1,1,1,1,1,1,1,0,0,0,0,0,0,0,1,1,1,1,1,1]","mutagen_history":"[0,0,0,0,0,0,0,0,0,1,1,1,1,1,1,1,0,0,0,0,0,0]","location_rts":"[393,343,289,440,300,349,288,366,423,569,524,319,271,428,321,299,219,313,300,388,296,1784]","trial_type":"fractal-mutation","trial_index":99,"time_elapsed":4633541,"internal_node_id":"0.0-5.0-45.0"},{"group":"tri cycles (cube, non-group)","fractal_assignment":["../images/org_blu.png","../images/ylw_pnk.png","../images/pnk_blu.png","../images/ylw_slt.png","../images/blu_wht.png","../images/grn_red.png","../images/gry_blk.png","../images/cyn_red.png"],"mutagen_generator_assignment":[1,0],"goal":6,"start":7,"action_noise":0.1,"location_history":"[7,6]","action_history":"[0]","mutagen_history":"[1]","location_rts":"[3456]","trial_type":"fractal-mutation","trial_index":100,"time_elapsed":4642086,"internal_node_id":"0.0-5.0-46.0"},{"group":"tri cycles (cube, non-group)","fractal_assignment":["../images/org_blu.png","../images/ylw_pnk.png","../images/pnk_blu.png","../images/ylw_slt.png","../images/blu_wht.png","../images/grn_red.png","../images/gry_blk.png","../images/cyn_red.png"],"mutagen_generator_assignment":[1,0],"goal":2,"start":6,"action_noise":0.1,"location_history":"[6,4,0,2]","action_history":"[0,0,0]","mutagen_history":"[1,1,1]","location_rts":"[818,381,294]","trial_type":"fractal-mutation","trial_index":101,"time_elapsed":4650306,"internal_node_id":"0.0-5.0-47.0"},{"group":"tri cycles (cube, non-group)","fractal_assignment":["../images/org_blu.png","../images/ylw_pnk.png","../images/pnk_blu.png","../images/ylw_slt.png","../images/blu_wht.png","../images/grn_red.png","../images/gry_blk.png","../images/cyn_red.png"],"mutagen_generator_assignment":[1,0],"goal":5,"start":2,"action_noise":0.1,"location_history":"[2,1,0,2,1,0,2,1,5]","action_history":"[0,0,0,0,0,0,0,1]","mutagen_history":"[1,1,1,1,1,1,1,0]","location_rts":"[495,459,308,333,271,205,291,591]","trial_type":"fractal-mutation","trial_index":102,"time_elapsed":4665303,"internal_node_id":"0.0-5.0-48.0"},{"group":"tri cycles (cube, non-group)","fractal_assignment":["../images/org_blu.png","../images/ylw_pnk.png","../images/pnk_blu.png","../images/ylw_slt.png","../images/blu_wht.png","../images/grn_red.png","../images/gry_blk.png","../images/cyn_red.png"],"mutagen_generator_assignment":[1,0],"goal":3,"start":5,"action_noise":0.1,"location_history":"[5,1,5,2,6,5,2,1,0,2,1,5,2,6,5,1,0,2,1,0,2,1,0,3]","action_history":"[0,0,1,1,1,1,0,0,0,0,1,1,1,1,0,0,0,0,0,0,0,0,1]","mutagen_history":"[1,1,0,0,0,0,1,1,1,1,0,0,0,0,1,1,1,1,1,1,1,1,0]","location_rts":"[534,634,344,516,415,403,539,334,1082,655,484,277,282,361,2274,233,106,316,236,261,250,279,418]","trial_type":"fractal-mutation","trial_index":103,"time_elapsed":4704489,"internal_node_id":"0.0-5.0-49.0"},{"view_history":"[{\"page_index\":0,\"viewing_time\":2878}]","rt":2879,"trial_type":"instructions","trial_index":104,"time_elapsed":4708369,"internal_node_id":"0.0-6.0"},{"rt":24153,"responses":"{\"Q0\":\"how we would learn what did what\"}","trial_type":"survey-text","trial_index":105,"time_elapsed":4733537,"internal_node_id":"0.0-7.0-0.0"},{"rt":10421,"responses":"{\"Q0\":\"a different approach on the first\"}","trial_type":"survey-text","trial_index":106,"time_elapsed":4744962,"internal_node_id":"0.0-7.0-1.0"},{"rt":10737,"responses":"{\"Q0\":\"<img src='../images/diagrams/square_cycles.png'>\"}","trial_type":"survey-multi-choice","trial_index":107,"time_elapsed":4756713,"internal_node_id":"0.0-7.0-2.0"},{"rt":51910,"assignments":["../images/pnk_blu.png","../images/cyn_red.png","../images/ylw_pnk.png","../images/gry_blk.png","../images/grn_red.png","../images/blu_wht.png","../images/org_blu.png","../images/ylw_slt.png"],"trial_type":"drag-drop-on-image","trial_index":108,"time_elapsed":4809630,"internal_node_id":"0.0-7.0-3.0"},{"rt":19031,"responses":"{\"Q0\":\"3\"}","trial_type":"survey-likert","trial_index":109,"time_elapsed":4830091,"internal_node_id":"0.0-7.0-4.0"},{"rt":40866,"responses":"{\"Q0\":\"the way that the patterens were it was the same atleast somewhat with both like this color will take you somewhere else while this one will take you another place\"}","trial_type":"survey-text","trial_index":110,"time_elapsed":4871961,"internal_node_id":"0.0-7.0-5.0"},{"rt":5153,"responses":"{\"Q0\":\"Yes\"}","trial_type":"survey-multi-choice","trial_index":111,"time_elapsed":4878123,"internal_node_id":"0.0-7.0-6.0"},{"rt":5407,"responses":"{\"Q0\":\"Between sessions 1 and 2\"}","trial_type":"survey-multi-choice","trial_index":112,"time_elapsed":4884548,"internal_node_id":"0.0-7.0-7.0"},{"rt":19483,"responses":"{\"Q0\":\"just they seemed similar not really sure how to describe it\"}","trial_type":"survey-text","trial_index":113,"time_elapsed":4905036,"internal_node_id":"0.0-7.0-8.0"},{"rt":4619,"responses":"{\"Q0\":\"2\"}","trial_type":"survey-likert","trial_index":114,"time_elapsed":4910660,"internal_node_id":"0.0-7.0-9.0"},{"rt":12635,"responses":"{\"Q0\":\"Different structure\"}","trial_type":"survey-multi-choice","trial_index":115,"time_elapsed":4924733,"internal_node_id":"0.0-7.0-10.0"},{"rt":22772,"responses":"{\"Q0\":\"left (black) door = ray, (white) door = acid\",\"Q1\":\"Slightly confident\"}","trial_type":"survey-multi-choice","trial_index":116,"time_elapsed":4948523,"internal_node_id":"0.0-7.0-11.0"},{"rt":7289,"responses":"{\"Q0\":\"35-45\",\"Q1\":\"Some college\",\"Q2\":\"Female\",\"Q3\":\"White\"}","trial_type":"survey-multi-choice","trial_index":117,"time_elapsed":4956842,"internal_node_id":"0.0-8.0"},{"rt":4766,"responses":"{\"Q0\":\"\"}","trial_type":"survey-text","trial_index":118,"time_elapsed":4962613,"internal_node_id":"0.0-9.0"}]