[{"view_history":"[{\"page_index\":0,\"viewing_time\":10676},{\"page_index\":1,\"viewing_time\":12591}]","rt":23268,"trial_type":"instructions","trial_index":0,"time_elapsed":23269,"internal_node_id":"0.0-0.0"},{"view_history":"[{\"page_index\":0,\"viewing_time\":2826},{\"page_index\":1,\"viewing_time\":88202}]","rt":91029,"trial_type":"instructions","trial_index":1,"time_elapsed":115299,"internal_node_id":"0.0-1.0"},{"group":"tri cycles (cube, non-group)","room_assignment":["grey","pink","brown","blue","yellow","red","purple","green"],"door_color_assignment":["white","black"],"door_generator_assignment":[0,1],"goal":5,"start":7,"action_noise":0.1,"location_history":"[7,3,4,7,6,4,0,3,4,7,6,4,7,6,4,0,3,7,3,7,3,7,6,4,0,3,4,0,2,1,0,2,6,4,0,3,4,0,3,7,3,7,3,7,3,4,7,6,5]","action_history":"[1,1,0,0,0,1,1,1,0,0,0,0,0,0,1,1,0,1,0,1,0,0,1,1,1,1,1,1,0,0,0,1,0,0,1,1,1,0,0,0,0,1,1,1,1,0,0,0]","door_history":"[1,1,0,0,0,1,1,1,0,0,0,0,0,0,1,1,0,1,0,1,0,0,1,1,1,1,1,1,0,0,0,1,0,0,1,1,1,0,0,0,0,1,1,1,1,0,0,0]","location_rts":"[8026,574,363,136,124,95,114,68,91,126,78,146,158,180,193,230,93,99,32,51,737,90,170,86,146,135,149,291,50,193,159,78,153,154,72,160,38,29,116,82,127,56,179,106,122,23,98,27]","trial_type":"two-door-navigation","trial_index":2,"time_elapsed":184563,"internal_node_id":"0.0-2.0-0.0"},{"group":"tri cycles (cube, non-group)","room_assignment":["grey","pink","brown","blue","yellow","red","purple","green"],"door_color_assignment":["white","black"],"door_generator_assignment":[0,1],"goal":2,"start":5,"action_noise":0.1,"location_history":"[5,1,0,2]","action_history":"[0,0,0]","door_history":"[0,0,0]","location_rts":"[958,146,88]","trial_type":"two-door-navigation","trial_index":3,"time_elapsed":192437,"internal_node_id":"0.0-2.0-1.0"},{"group":"tri cycles (cube, non-group)","room_assignment":["grey","pink","brown","blue","yellow","red","purple","green"],"door_color_assignment":["white","black"],"door_generator_assignment":[0,1],"goal":0,"start":2,"action_noise":0.1,"location_history":"[2,1,0]","action_history":"[0,0]","door_history":"[0,0]","location_rts":"[1145,214]","trial_type":"two-door-navigation","trial_index":4,"time_elapsed":199420,"internal_node_id":"0.0-2.0-2.0"},{"group":"tri cycles (cube, non-group)","room_assignment":["grey","pink","brown","blue","yellow","red","purple","green"],"door_color_assignment":["white","black"],"door_generator_assignment":[0,1],"goal":1,"start":0,"action_noise":0.1,"location_history":"[0,2,1]","action_history":"[0,0]","door_history":"[0,0]","location_rts":"[828,45]","trial_type":"two-door-navigation","trial_index":5,"time_elapsed":205931,"internal_node_id":"0.0-2.0-3.0"},{"group":"tri cycles (cube, non-group)","room_assignment":["grey","pink","brown","blue","yellow","red","purple","green"],"door_color_assignment":["white","black"],"door_generator_assignment":[0,1],"goal":6,"start":1,"action_noise":0.1,"location_history":"[1,5,2,1,5,2,1,0,3,7,3,7,6]","action_history":"[1,1,0,0,0,0,0,0,0,0,0,0]","door_history":"[1,1,0,0,0,0,0,0,0,0,0,0]","location_rts":"[561,97,643,418,498,123,250,104,411,457,181,69]","trial_type":"two-door-navigation","trial_index":6,"time_elapsed":225965,"internal_node_id":"0.0-2.0-4.0"},{"group":"tri cycles (cube, non-group)","room_assignment":["grey","pink","brown","blue","yellow","red","purple","green"],"door_color_assignment":["white","black"],"door_generator_assignment":[0,1],"goal":3,"start":6,"action_noise":0.1,"location_history":"[6,5,2,6,4,7,6,4,7,3]","action_history":"[1,1,1,0,0,0,0,0,0]","door_history":"[1,1,1,0,0,0,0,0,0]","location_rts":"[791,137,28,255,343,894,386,396,314]","trial_type":"two-door-navigation","trial_index":7,"time_elapsed":242581,"internal_node_id":"0.0-2.0-5.0"},{"group":"tri cycles (cube, non-group)","room_assignment":["grey","pink","brown","blue","yellow","red","purple","green"],"door_color_assignment":["white","black"],"door_generator_assignment":[0,1],"goal":4,"start":3,"action_noise":0.1,"location_history":"[3,7,6,4]","action_history":"[0,0,0]","door_history":"[0,0,0]","location_rts":"[2735,505,1747]","trial_type":"two-door-navigation","trial_index":8,"time_elapsed":254266,"internal_node_id":"0.0-2.0-6.0"},{"group":"tri cycles (cube, non-group)","room_assignment":["grey","pink","brown","blue","yellow","red","purple","green"],"door_color_assignment":["white","black"],"door_generator_assignment":[0,1],"goal":1,"start":4,"action_noise":0.1,"location_history":"[4,0,3,4,0,3,7,6,4,7,6,4,0,3,4,7,3,4,0,2,1]","action_history":"[1,1,1,0,0,0,0,0,0,0,0,0,1,1,1,1,1,1,0,0]","door_history":"[1,1,1,0,0,0,0,0,0,0,0,0,1,1,1,1,1,1,0,0]","location_rts":"[974,659,60,136,19,57,734,71,110,369,209,235,806,90,29,92,191,154,808,711]","trial_type":"two-door-navigation","trial_index":9,"time_elapsed":285519,"internal_node_id":"0.0-2.0-7.0"},{"group":"tri cycles (cube, non-group)","room_assignment":["grey","pink","brown","blue","yellow","red","purple","green"],"door_color_assignment":["white","black"],"door_generator_assignment":[0,1],"goal":4,"start":1,"action_noise":0.1,"location_history":"[1,0,2,1,0,2,1,0,2,1,5,2,6,5,2,1,5,1,5,1,0,2,1,5,2,6,5,1,5,2,1,5,1,5,2,6,5,2,1,0,2,1,5,2,6,5,1,5,1,5,2,6,5,2,6,4]","action_history":"[0,0,0,0,0,0,0,0,0,1,1,1,1,1,1,1,1,1,0,0,0,0,1,1,1,1,0,0,0,0,0,0,1,1,1,1,1,1,0,0,0,1,1,1,1,0,0,0,1,1,1,1,1,1,0]","door_history":"[0,0,0,0,0,0,0,0,0,1,1,1,1,1,1,1,1,1,0,0,0,0,1,1,1,1,0,0,0,0,0,0,1,1,1,1,1,1,0,0,0,1,1,1,1,0,0,0,1,1,1,1,1,1,0]","location_rts":"[636,168,778,1150,84,56,33,79,229,137,128,155,702,66,952,604,124,30,107,15,82,4,18,38,7,6,172,235,29,200,41,26,158,563,1095,32,50,28,638,47,37,1490,278,268,95,182,19,94,62,167,117,108,116,50,156]","trial_type":"two-door-navigation","trial_index":10,"time_elapsed":360263,"internal_node_id":"0.0-2.0-8.0"},{"group":"tri cycles (cube, non-group)","room_assignment":["grey","pink","brown","blue","yellow","red","purple","green"],"door_color_assignment":["white","black"],"door_generator_assignment":[0,1],"goal":5,"start":4,"action_noise":0.1,"location_history":"[4,7,6,5]","action_history":"[0,0,0]","door_history":"[0,0,0]","location_rts":"[19,105,130]","trial_type":"two-door-navigation","trial_index":11,"time_elapsed":367200,"internal_node_id":"0.0-2.0-9.0"},{"group":"tri cycles (cube, non-group)","room_assignment":["grey","pink","brown","blue","yellow","red","purple","green"],"door_color_assignment":["white","black"],"door_generator_assignment":[0,1],"goal":3,"start":5,"action_noise":0.1,"location_history":"[5,2,6,4,0,3]","action_history":"[1,1,1,1,1]","door_history":"[1,1,1,1,1]","location_rts":"[62,199,145,93,194]","trial_type":"two-door-navigation","trial_index":12,"time_elapsed":376704,"internal_node_id":"0.0-2.0-10.0"},{"group":"tri cycles (cube, non-group)","room_assignment":["grey","pink","brown","blue","yellow","red","purple","green"],"door_color_assignment":["white","black"],"door_generator_assignment":[0,1],"goal":6,"start":3,"action_noise":0.1,"location_history":"[3,7,6]","action_history":"[0,0]","door_history":"[0,0]","location_rts":"[161,136]","trial_type":"two-door-navigation","trial_index":13,"time_elapsed":382623,"internal_node_id":"0.0-2.0-11.0"},{"group":"tri cycles (cube, non-group)","room_assignment":["grey","pink","brown","blue","yellow","red","purple","green"],"door_color_assignment":["white","black"],"door_generator_assignment":[0,1],"goal":7,"start":6,"action_noise":0.1,"location_history":"[6,4,7]","action_history":"[0,0]","door_history":"[0,0]","location_rts":"[80,104]","trial_type":"two-door-navigation","trial_index":14,"time_elapsed":388440,"internal_node_id":"0.0-2.0-12.0"},{"group":"tri cycles (cube, non-group)","room_assignment":["grey","pink","brown","blue","yellow","red","purple","green"],"door_color_assignment":["white","black"],"door_generator_assignment":[0,1],"goal":0,"start":7,"action_noise":0.1,"location_history":"[7,6,4,7,6,4,7,6,4,7,6,5,2,1,5,2,1,5,2,6,5,2,6,5,2,1,0]","action_history":"[0,0,0,0,0,0,0,0,0,0,1,1,1,1,1,1,1,1,1,1,1,1,1,1,1,0]","door_history":"[0,0,0,0,0,0,0,0,0,0,1,1,1,1,1,1,1,1,1,1,1,1,1,1,1,0]","location_rts":"[193,212,159,3,80,111,106,138,162,124,114,95,161,185,162,116,200,173,202,184,197,207,166,169,131,243]","trial_type":"two-door-navigation","trial_index":15,"time_elapsed":423487,"internal_node_id":"0.0-2.0-13.0"},{"group":"tri cycles (cube, non-group)","room_assignment":["grey","pink","brown","blue","yellow","red","purple","green"],"door_color_assignment":["white","black"],"door_generator_assignment":[0,1],"goal":2,"start":0,"action_noise":0.1,"location_history":"[0,2]","action_history":"[0]","door_history":"[0]","location_rts":"[288]","trial_type":"two-door-navigation","trial_index":16,"time_elapsed":428340,"internal_node_id":"0.0-2.0-14.0"},{"group":"tri cycles (cube, non-group)","room_assignment":["grey","pink","brown","blue","yellow","red","purple","green"],"door_color_assignment":["white","black"],"door_generator_assignment":[0,1],"goal":1,"start":2,"action_noise":0.1,"location_history":"[2,1]","action_history":"[0]","door_history":"[0]","location_rts":"[29]","trial_type":"two-door-navigation","trial_index":17,"time_elapsed":432934,"internal_node_id":"0.0-2.0-15.0"},{"group":"tri cycles (cube, non-group)","room_assignment":["grey","pink","brown","blue","yellow","red","purple","green"],"door_color_assignment":["white","black"],"door_generator_assignment":[0,1],"goal":6,"start":1,"action_noise":0.1,"location_history":"[1,0,2,1,0,2,1,0,2,1,0,2,1,0,2,1,0,3,7,3,7,6]","action_history":"[0,0,0,0,0,0,0,0,0,0,0,0,0,0,0,0,0,0,0,0,0]","door_history":"[0,0,0,0,0,0,0,0,0,0,0,0,0,0,0,0,0,0,0,0,0]","location_rts":"[163,163,161,138,127,4,120,213,202,172,172,136,180,221,145,212,79,273,164,8286,187]","trial_type":"two-door-navigation","trial_index":18,"time_elapsed":470239,"internal_node_id":"0.0-2.0-16.0"},{"group":"tri cycles (cube, non-group)","room_assignment":["grey","pink","brown","blue","yellow","red","purple","green"],"door_color_assignment":["white","black"],"door_generator_assignment":[0,1],"goal":3,"start":6,"action_noise":0.1,"location_history":"[6,4,0,2,6,5,2,1,0,2,1,0,2,6,5,2,6,5,2,6,5,2,1,0,2,1,0,2,1,0,2,1,0,2,6,4,7,6,4,7,6,4,0,3]","action_history":"[1,1,1,1,1,1,0,0,0,0,0,1,1,1,1,1,1,1,1,1,1,0,0,0,0,0,0,0,0,0,0,0,0,0,0,0,0,0,0,0,0,1,1]","door_history":"[1,1,1,1,1,1,0,0,0,0,0,1,1,1,1,1,1,1,1,1,1,0,0,0,0,0,0,0,0,0,0,0,0,0,0,0,0,0,0,0,0,1,1]","location_rts":"[605,147,289,268,269,295,195,343,167,136,156,103,38,175,134,93,2,185,69,112,114,39,114,156,172,160,135,179,1140,269,124,31,9,844,250,193,725,63,83,102,191,760,125]","trial_type":"two-door-navigation","trial_index":19,"time_elapsed":529117,"internal_node_id":"0.0-2.0-17.0"},{"group":"tri cycles (cube, non-group)","room_assignment":["grey","pink","brown","blue","yellow","red","purple","green"],"door_color_assignment":["white","black"],"door_generator_assignment":[0,1],"goal":4,"start":3,"action_noise":0.1,"location_history":"[3,4]","action_history":"[1]","door_history":"[1]","location_rts":"[495]","trial_type":"two-door-navigation","trial_index":20,"time_elapsed":534179,"internal_node_id":"0.0-2.0-18.0"},{"group":"tri cycles (cube, non-group)","room_assignment":["grey","pink","brown","blue","yellow","red","purple","green"],"door_color_assignment":["white","black"],"door_generator_assignment":[0,1],"goal":5,"start":4,"action_noise":0.1,"location_history":"[4,0,2,6,4,7,6,4,7,3,4,0,3,4,0,3,4,7,6,4,7,6,4,0,3,4,0,3,7,3,7,6,4,7,6,5]","action_history":"[1,1,1,0,0,0,0,0,1,1,1,1,1,1,1,1,0,0,0,0,0,0,1,1,1,1,1,0,0,0,0,0,0,0,0]","door_history":"[1,1,1,0,0,0,0,0,1,1,1,1,1,1,1,1,0,0,0,0,0,0,1,1,1,1,1,0,0,0,0,0,0,0,0]","location_rts":"[402,183,335,21,125,1117,83,5,859,550,492,257,190,17,217,174,667,135,218,219,145,252,95,137,168,115,121,677,46,246,154,135,174,168,278]","trial_type":"two-door-navigation","trial_index":21,"time_elapsed":583991,"internal_node_id":"0.0-2.0-19.0"},{"group":"tri cycles (cube, non-group)","room_assignment":["grey","pink","brown","blue","yellow","red","purple","green"],"door_color_assignment":["white","black"],"door_generator_assignment":[0,1],"goal":7,"start":5,"action_noise":0.1,"location_history":"[5,1,0,2,1,0,2,1,5,1,0,2,1,0,3,4,0,3,4,0,3,4,0,3,7]","action_history":"[0,0,0,0,0,0,0,0,0,0,0,0,0,1,1,1,1,1,1,1,1,1,1,1]","door_history":"[0,0,0,0,0,0,0,0,0,0,0,0,0,1,1,1,1,1,1,1,1,1,1,1]","location_rts":"[584,218,203,247,213,266,224,126,354,233,282,268,250,160,136,327,69,171,159,145,221,343,224,1547]","trial_type":"two-door-navigation","trial_index":22,"time_elapsed":619943,"internal_node_id":"0.0-2.0-20.0"},{"group":"tri cycles (cube, non-group)","room_assignment":["grey","pink","brown","blue","yellow","red","purple","green"],"door_color_assignment":["white","black"],"door_generator_assignment":[0,1],"goal":2,"start":7,"action_noise":0.1,"location_history":"[7,3,4,0,3,7,6,5,1,0,2]","action_history":"[1,1,1,0,0,0,0,0,0,0]","door_history":"[1,1,1,0,0,0,0,0,0,0]","location_rts":"[1016,572,239,234,83,115,26,275,72,181]","trial_type":"two-door-navigation","trial_index":23,"time_elapsed":636874,"internal_node_id":"0.0-2.0-21.0"},{"group":"tri cycles (cube, non-group)","room_assignment":["grey","pink","brown","blue","yellow","red","purple","green"],"door_color_assignment":["white","black"],"door_generator_assignment":[0,1],"goal":0,"start":2,"action_noise":0.1,"location_history":"[2,6,5,2,1,5,2,6,5,2,6,4,7,6,4,7,6,4,7,6,4,7,6,4,7,6,5,2,6,5,2,6,5,1,0]","action_history":"[1,1,1,1,1,1,1,1,1,0,0,0,0,0,0,0,0,0,0,0,0,0,0,0,0,1,1,1,1,1,1,1,0,0]","door_history":"[1,1,1,1,1,1,1,1,1,0,0,0,0,0,0,0,0,0,0,0,0,0,0,0,0,1,1,1,1,1,1,1,0,0]","location_rts":"[537,132,287,187,136,266,167,147,196,530,118,319,115,181,244,126,201,279,315,89,325,267,168,203,167,279,147,150,191,192,100,92,198,100]","trial_type":"two-door-navigation","trial_index":24,"time_elapsed":683626,"internal_node_id":"0.0-2.0-22.0"},{"group":"tri cycles (cube, non-group)","room_assignment":["grey","pink","brown","blue","yellow","red","purple","green"],"door_color_assignment":["white","black"],"door_generator_assignment":[0,1],"goal":7,"start":0,"action_noise":0.1,"location_history":"[0,3,4,0,2,6,4,7]","action_history":"[1,1,1,1,1,0,0]","door_history":"[1,1,1,1,1,0,0]","location_rts":"[458,220,67,184,175,246,83]","trial_type":"two-door-navigation","trial_index":25,"time_elapsed":695982,"internal_node_id":"0.0-2.0-23.0"},{"group":"tri cycles (cube, non-group)","room_assignment":["grey","pink","brown","blue","yellow","red","purple","green"],"door_color_assignment":["white","black"],"door_generator_assignment":[0,1],"goal":5,"start":7,"action_noise":0.1,"location_history":"[7,6,4,7,6,4,7,3,7,6,4,7,6,4,0,2,1,5]","action_history":"[0,0,0,0,0,0,0,0,0,0,0,0,0,0,0,0,0]","door_history":"[0,0,0,0,0,0,0,0,0,0,0,0,0,0,0,0,0]","location_rts":"[516,62,148,122,231,84,126,125,233,178,45,199,81,122,82,147,99]","trial_type":"two-door-navigation","trial_index":26,"time_elapsed":720143,"internal_node_id":"0.0-2.0-24.0"},{"group":"tri cycles (cube, non-group)","room_assignment":["grey","pink","brown","blue","yellow","red","purple","green"],"door_color_assignment":["white","black"],"door_generator_assignment":[0,1],"goal":0,"start":5,"action_noise":0.1,"location_history":"[5,2,6,5,2,6,5,2,1,5,2,6,5,2,6,5,2,6,5,1,0]","action_history":"[1,1,1,1,1,1,1,1,1,1,1,1,1,1,1,1,1,0,0,0]","door_history":"[1,1,1,1,1,1,1,1,1,1,1,1,1,1,1,1,1,0,0,0]","location_rts":"[337,127,60,117,69,123,146,53,202,115,179,127,161,14,260,167,233,145,176,96]","trial_type":"two-door-navigation","trial_index":27,"time_elapsed":747799,"internal_node_id":"0.0-2.0-25.0"},{"group":"tri cycles (cube, non-group)","room_assignment":["grey","pink","brown","blue","yellow","red","purple","green"],"door_color_assignment":["white","black"],"door_generator_assignment":[0,1],"goal":6,"start":0,"action_noise":0.1,"location_history":"[0,3,7,3,7,6]","action_history":"[0,0,0,0,0]","door_history":"[0,0,0,0,0]","location_rts":"[509,99,116,133,135]","trial_type":"two-door-navigation","trial_index":28,"time_elapsed":757601,"internal_node_id":"0.0-2.0-26.0"},{"group":"tri cycles (cube, non-group)","room_assignment":["grey","pink","brown","blue","yellow","red","purple","green"],"door_color_assignment":["white","black"],"door_generator_assignment":[0,1],"goal":4,"start":6,"action_noise":0.1,"location_history":"[6,4]","action_history":"[0]","door_history":"[0]","location_rts":"[629]","trial_type":"two-door-navigation","trial_index":29,"time_elapsed":762797,"internal_node_id":"0.0-2.0-27.0"},{"group":"tri cycles (cube, non-group)","room_assignment":["grey","pink","brown","blue","yellow","red","purple","green"],"door_color_assignment":["white","black"],"door_generator_assignment":[0,1],"goal":2,"start":4,"action_noise":0.1,"location_history":"[4,7,6,4,7,6,4,0,2]","action_history":"[0,0,0,0,0,0,0,0]","door_history":"[0,0,0,0,0,0,0,0]","location_rts":"[422,99,190,147,255,150,115,146]","trial_type":"two-door-navigation","trial_index":30,"time_elapsed":776328,"internal_node_id":"0.0-2.0-28.0"},{"group":"tri cycles (cube, non-group)","room_assignment":["grey","pink","brown","blue","yellow","red","purple","green"],"door_color_assignment":["white","black"],"door_generator_assignment":[0,1],"goal":3,"start":2,"action_noise":0.1,"location_history":"[2,1,0,2,6,4,7,6,4,7,6,4,7,3]","action_history":"[0,0,0,0,0,0,0,0,0,0,0,0,1]","door_history":"[0,0,0,0,0,0,0,0,0,0,0,0,1]","location_rts":"[524,156,181,106,129,147,224,118,178,163,151,70,3]","trial_type":"two-door-navigation","trial_index":31,"time_elapsed":795752,"internal_node_id":"0.0-2.0-29.0"},{"group":"tri cycles (cube, non-group)","room_assignment":["grey","pink","brown","blue","yellow","red","purple","green"],"door_color_assignment":["white","black"],"door_generator_assignment":[0,1],"goal":1,"start":3,"action_noise":0.1,"location_history":"[3,4,0,3,4,0,3,4,7,6,4,7,6,4,0,3,4,0,2,6,5,2,6,5,2,6,5,2,6,5,2,6,5,2,6,5,2,1]","action_history":"[1,1,1,1,1,0,0,0,0,0,0,0,1,1,1,1,1,1,1,1,1,1,1,1,1,1,1,1,1,1,1,1,1,1,1,1,0]","door_history":"[1,1,1,1,1,0,0,0,0,0,0,0,1,1,1,1,1,1,1,1,1,1,1,1,1,1,1,1,1,1,1,1,1,1,1,1,0]","location_rts":"[277,106,168,639,162,47,99,4,731,297,116,83,573,123,302,241,149,245,247,316,293,254,259,207,365,274,105,14,84,19,132,3,83,124,34,92,410]","trial_type":"two-door-navigation","trial_index":32,"time_elapsed":846187,"internal_node_id":"0.0-2.0-30.0"},{"group":"tri cycles (cube, non-group)","room_assignment":["grey","pink","brown","blue","yellow","red","purple","green"],"door_color_assignment":["white","black"],"door_generator_assignment":[0,1],"goal":4,"start":1,"action_noise":0.1,"location_history":"[1,0,2,1,0,2,1,0,2,1,0,2,1,0,3,7,6,4]","action_history":"[0,0,0,0,0,0,0,0,0,0,0,0,0,0,0,0,0]","door_history":"[0,0,0,0,0,0,0,0,0,0,0,0,0,0,0,0,0]","location_rts":"[643,127,156,82,136,57,140,57,215,20,191,74,127,192,116,149,112]","trial_type":"two-door-navigation","trial_index":33,"time_elapsed":870324,"internal_node_id":"0.0-2.0-31.0"},{"group":"tri cycles (cube, non-group)","room_assignment":["grey","pink","brown","blue","yellow","red","purple","green"],"door_color_assignment":["white","black"],"door_generator_assignment":[0,1],"goal":3,"start":4,"action_noise":0.1,"location_history":"[4,7,6,4,7,3]","action_history":"[0,0,0,0,1]","door_history":"[0,0,0,0,1]","location_rts":"[595,57,148,75,142]","trial_type":"two-door-navigation","trial_index":34,"time_elapsed":880162,"internal_node_id":"0.0-2.0-32.0"},{"group":"tri cycles (cube, non-group)","room_assignment":["grey","pink","brown","blue","yellow","red","purple","green"],"door_color_assignment":["white","black"],"door_generator_assignment":[0,1],"goal":6,"start":3,"action_noise":0.1,"location_history":"[3,4,0,3,7,6]","action_history":"[1,1,1,0,0]","door_history":"[1,1,1,0,0]","location_rts":"[395,67,603,118,86]","trial_type":"two-door-navigation","trial_index":35,"time_elapsed":890255,"internal_node_id":"0.0-2.0-33.0"},{"group":"tri cycles (cube, non-group)","room_assignment":["grey","pink","brown","blue","yellow","red","purple","green"],"door_color_assignment":["white","black"],"door_generator_assignment":[0,1],"goal":0,"start":6,"action_noise":0.1,"location_history":"[6,5,1,0]","action_history":"[1,1,1]","door_history":"[1,1,1]","location_rts":"[463,76,2]","trial_type":"two-door-navigation","trial_index":36,"time_elapsed":897476,"internal_node_id":"0.0-2.0-34.0"},{"group":"tri cycles (cube, non-group)","room_assignment":["grey","pink","brown","blue","yellow","red","purple","green"],"door_color_assignment":["white","black"],"door_generator_assignment":[0,1],"goal":1,"start":0,"action_noise":0.1,"location_history":"[0,2,1]","action_history":"[0,0]","door_history":"[0,0]","location_rts":"[419,94]","trial_type":"two-door-navigation","trial_index":37,"time_elapsed":903617,"internal_node_id":"0.0-2.0-35.0"},{"group":"tri cycles (cube, non-group)","room_assignment":["grey","pink","brown","blue","yellow","red","purple","green"],"door_color_assignment":["white","black"],"door_generator_assignment":[0,1],"goal":5,"start":1,"action_noise":0.1,"location_history":"[1,0,2,1,0,2,1,5]","action_history":"[1,1,0,0,0,0,1]","door_history":"[1,1,0,0,0,0,1]","location_rts":"[894,47,1704,87,67,105,15]","trial_type":"two-door-navigation","trial_index":38,"time_elapsed":917483,"internal_node_id":"0.0-2.0-36.0"},{"group":"tri cycles (cube, non-group)","room_assignment":["grey","pink","brown","blue","yellow","red","purple","green"],"door_color_assignment":["white","black"],"door_generator_assignment":[0,1],"goal":7,"start":5,"action_noise":0.1,"location_history":"[5,2,6,5,2,1,5,2,6,4,7]","action_history":"[1,1,1,1,1,1,1,1,0,0]","door_history":"[1,1,1,1,1,1,1,1,0,0]","location_rts":"[619,172,209,66,102,156,528,145,759,346]","trial_type":"two-door-navigation","trial_index":39,"time_elapsed":934707,"internal_node_id":"0.0-2.0-37.0"},{"group":"tri cycles (cube, non-group)","room_assignment":["grey","pink","brown","blue","yellow","red","purple","green"],"door_color_assignment":["white","black"],"door_generator_assignment":[0,1],"goal":2,"start":7,"action_noise":0.1,"location_history":"[7,6,4,7,6,4,7,3,7,6,5,2]","action_history":"[0,0,0,0,0,0,1,1,1,1,1]","door_history":"[0,0,0,0,0,0,1,1,1,1,1]","location_rts":"[1362,336,37,219,149,194,148,258,249,269,238]","trial_type":"two-door-navigation","trial_index":40,"time_elapsed":953329,"internal_node_id":"0.0-2.0-38.0"},{"group":"tri cycles (cube, non-group)","room_assignment":["grey","pink","brown","blue","yellow","red","purple","green"],"door_color_assignment":["white","black"],"door_generator_assignment":[0,1],"goal":1,"start":2,"action_noise":0.1,"location_history":"[2,1]","action_history":"[1]","door_history":"[1]","location_rts":"[560]","trial_type":"two-door-navigation","trial_index":41,"time_elapsed":958457,"internal_node_id":"0.0-2.0-39.0"},{"group":"tri cycles (cube, non-group)","room_assignment":["grey","pink","brown","blue","yellow","red","purple","green"],"door_color_assignment":["white","black"],"door_generator_assignment":[0,1],"goal":3,"start":1,"action_noise":0.1,"location_history":"[1,5,2,6,4,0,3]","action_history":"[1,1,1,1,1,1]","door_history":"[1,1,1,1,1,1]","location_rts":"[694,472,680,147,135,255]","trial_type":"two-door-navigation","trial_index":42,"time_elapsed":970704,"internal_node_id":"0.0-2.0-40.0"},{"group":"tri cycles (cube, non-group)","room_assignment":["grey","pink","brown","blue","yellow","red","purple","green"],"door_color_assignment":["white","black"],"door_generator_assignment":[0,1],"goal":4,"start":3,"action_noise":0.1,"location_history":"[3,4]","action_history":"[0]","door_history":"[0]","location_rts":"[776]","trial_type":"two-door-navigation","trial_index":43,"time_elapsed":976050,"internal_node_id":"0.0-2.0-41.0"},{"group":"tri cycles (cube, non-group)","room_assignment":["grey","pink","brown","blue","yellow","red","purple","green"],"door_color_assignment":["white","black"],"door_generator_assignment":[0,1],"goal":2,"start":4,"action_noise":0.1,"location_history":"[4,0,3,4,0,3,4,0,3,4,7,6,4,7,6,4,7,6,4,7,6,4,7,6,5,1,0,3,7,6,4,7,6,5,2]","action_history":"[1,1,1,1,1,1,1,1,1,1,1,0,0,0,0,0,0,0,0,0,0,0,0,0,0,0,0,0,0,0,0,0,1,1]","door_history":"[1,1,1,1,1,1,1,1,1,1,1,0,0,0,0,0,0,0,0,0,0,0,0,0,0,0,0,0,0,0,0,0,1,1]","location_rts":"[531,112,183,103,83,198,104,170,97,58,452,202,201,75,626,58,73,124,131,161,172,137,151,131,91,127,134,137,42,124,96,193,102,199]","trial_type":"two-door-navigation","trial_index":44,"time_elapsed":1021202,"internal_node_id":"0.0-2.0-42.0"},{"group":"tri cycles (cube, non-group)","room_assignment":["grey","pink","brown","blue","yellow","red","purple","green"],"door_color_assignment":["white","black"],"door_generator_assignment":[0,1],"goal":5,"start":2,"action_noise":0.1,"location_history":"[2,6,5]","action_history":"[1,1]","door_history":"[1,1]","location_rts":"[4382,113]","trial_type":"two-door-navigation","trial_index":45,"time_elapsed":1031330,"internal_node_id":"0.0-2.0-43.0"},{"group":"tri cycles (cube, non-group)","room_assignment":["grey","pink","brown","blue","yellow","red","purple","green"],"door_color_assignment":["white","black"],"door_generator_assignment":[0,1],"goal":0,"start":5,"action_noise":0.1,"location_history":"[5,2,6,4,0]","action_history":"[1,1,1,1]","door_history":"[1,1,1,1]","location_rts":"[1251,769,687,808]","trial_type":"two-door-navigation","trial_index":46,"time_elapsed":1042596,"internal_node_id":"0.0-2.0-44.0"},{"group":"tri cycles (cube, non-group)","room_assignment":["grey","pink","brown","blue","yellow","red","purple","green"],"door_color_assignment":["white","black"],"door_generator_assignment":[0,1],"goal":7,"start":0,"action_noise":0.1,"location_history":"[0,3,4,0,3,4,0,3,4,0,3,4,0,2,6,5,2,1,0,2,1,0,2,1,5,2,6,5,1,0,3,7]","action_history":"[1,1,1,1,1,1,1,1,1,1,1,1,1,1,1,1,1,0,0,0,0,0,0,1,1,1,1,0,0,0,0]","door_history":"[1,1,1,1,1,1,1,1,1,1,1,1,1,1,1,1,1,0,0,0,0,0,0,1,1,1,1,0,0,0,0]","location_rts":"[699,147,72,77,140,27,1040,4,71,59,79,67,7,58,84,15,203,466,89,812,169,234,278,181,243,242,142,148,159,137,38]","trial_type":"two-door-navigation","trial_index":47,"time_elapsed":1085177,"internal_node_id":"0.0-2.0-45.0"},{"group":"tri cycles (cube, non-group)","room_assignment":["grey","pink","brown","blue","yellow","red","purple","green"],"door_color_assignment":["white","black"],"door_generator_assignment":[0,1],"goal":6,"start":7,"action_noise":0.1,"location_history":"[7,3,7,6]","action_history":"[1,1,1]","door_history":"[1,1,1]","location_rts":"[1521,68,821]","trial_type":"two-door-navigation","trial_index":48,"time_elapsed":1094281,"internal_node_id":"0.0-2.0-46.0"},{"group":"tri cycles (cube, non-group)","room_assignment":["grey","pink","brown","blue","yellow","red","purple","green"],"door_color_assignment":["white","black"],"door_generator_assignment":[0,1],"goal":2,"start":6,"action_noise":0.1,"location_history":"[6,5,2]","action_history":"[1,1]","door_history":"[1,1]","location_rts":"[5053,190]","trial_type":"two-door-navigation","trial_index":49,"time_elapsed":1105158,"internal_node_id":"0.0-2.0-47.0"},{"group":"tri cycles (cube, non-group)","room_assignment":["grey","pink","brown","blue","yellow","red","purple","green"],"door_color_assignment":["white","black"],"door_generator_assignment":[0,1],"goal":5,"start":2,"action_noise":0.1,"location_history":"[2,6,5]","action_history":"[1,1]","door_history":"[1,1]","location_rts":"[1377,202]","trial_type":"two-door-navigation","trial_index":50,"time_elapsed":1112357,"internal_node_id":"0.0-2.0-48.0"},{"group":"tri cycles (cube, non-group)","room_assignment":["grey","pink","brown","blue","yellow","red","purple","green"],"door_color_assignment":["white","black"],"door_generator_assignment":[0,1],"goal":3,"start":5,"action_noise":0.1,"location_history":"[5,2,6,5,2,1,0,3]","action_history":"[1,1,1,1,0,0,0]","door_history":"[1,1,1,1,0,0,0]","location_rts":"[831,334,124,91,161,215,36]","trial_type":"two-door-navigation","trial_index":51,"time_elapsed":1125091,"internal_node_id":"0.0-2.0-49.0"},{"view_history":"[{\"page_index\":0,\"viewing_time\":2621}]","rt":2621,"trial_type":"instructions","trial_index":52,"time_elapsed":1128715,"internal_node_id":"0.0-3.0"},{"view_history":"[{\"page_index\":0,\"viewing_time\":2155},{\"page_index\":1,\"viewing_time\":14547}]","rt":16703,"trial_type":"instructions","trial_index":53,"time_elapsed":1146422,"internal_node_id":"0.0-4.0"},{"group":"square cycles (cube, non-group)","fractal_assignment":["../images/org_blu.png","../images/cyn_red.png","../images/blu_wht.png","../images/pnk_blu.png","../images/gry_blk.png","../images/ylw_slt.png","../images/ylw_pnk.png","../images/grn_red.png"],"mutagen_generator_assignment":[0,1],"goal":5,"start":7,"action_noise":0.1,"location_history":"[7,6,5]","action_history":"[0,0]","mutagen_history":"[0,0]","location_rts":"[1541,374]","trial_type":"fractal-mutation","trial_index":54,"time_elapsed":1153977,"internal_node_id":"0.0-5.0-0.0"},{"group":"square cycles (cube, non-group)","fractal_assignment":["../images/org_blu.png","../images/cyn_red.png","../images/blu_wht.png","../images/pnk_blu.png","../images/gry_blk.png","../images/ylw_slt.png","../images/ylw_pnk.png","../images/grn_red.png"],"mutagen_generator_assignment":[0,1],"goal":2,"start":5,"action_noise":0.1,"location_history":"[5,4,7,3,2]","action_history":"[0,0,1,1]","mutagen_history":"[0,0,1,1]","location_rts":"[573,559,389,438]","trial_type":"fractal-mutation","trial_index":55,"time_elapsed":1163698,"internal_node_id":"0.0-5.0-1.0"},{"group":"square cycles (cube, non-group)","fractal_assignment":["../images/org_blu.png","../images/cyn_red.png","../images/blu_wht.png","../images/pnk_blu.png","../images/gry_blk.png","../images/ylw_slt.png","../images/ylw_pnk.png","../images/grn_red.png"],"mutagen_generator_assignment":[0,1],"goal":0,"start":2,"action_noise":0.1,"location_history":"[2,6,5,4,7,6,5,4,7,6,7,3,2,6,5,4,7,6,5,4,5,4,7,6,7,3,2,6,7,3,2,6,7,6,5,4,7,6,5,1,0]","action_history":"[0,0,0,0,0,1,1,0,0,1,1,1,1,0,0,0,0,0,0,1,0,0,1,1,1,1,1,1,1,1,1,1,1,0,0,0,0,0,1,1]","mutagen_history":"[0,0,0,0,0,1,1,0,0,1,1,1,1,0,0,0,0,0,0,1,0,0,1,1,1,1,1,1,1,1,1,1,1,0,0,0,0,0,1,1]","location_rts":"[367,726,92,120,378,275,58,396,451,158,66,125,90,890,193,8,143,145,151,236,115,124,111,195,203,30,38,138,115,135,85,93,125,78,150,192,171,146,96,54]","trial_type":"fractal-mutation","trial_index":56,"time_elapsed":1217133,"internal_node_id":"0.0-5.0-2.0"},{"group":"square cycles (cube, non-group)","fractal_assignment":["../images/org_blu.png","../images/cyn_red.png","../images/blu_wht.png","../images/pnk_blu.png","../images/gry_blk.png","../images/ylw_slt.png","../images/ylw_pnk.png","../images/grn_red.png"],"mutagen_generator_assignment":[0,1],"goal":1,"start":0,"action_noise":0.1,"location_history":"[0,1]","action_history":"[0]","mutagen_history":"[0]","location_rts":"[100]","trial_type":"fractal-mutation","trial_index":57,"time_elapsed":1221805,"internal_node_id":"0.0-5.0-3.0"},{"group":"square cycles (cube, non-group)","fractal_assignment":["../images/org_blu.png","../images/cyn_red.png","../images/blu_wht.png","../images/pnk_blu.png","../images/gry_blk.png","../images/ylw_slt.png","../images/ylw_pnk.png","../images/grn_red.png"],"mutagen_generator_assignment":[0,1],"goal":6,"start":1,"action_noise":0.1,"location_history":"[1,2,3,0,4,7,3,2,6]","action_history":"[0,0,0,0,1,1,1,1]","mutagen_history":"[0,0,0,0,1,1,1,1]","location_rts":"[998,163,155,216,6,10,66,248]","trial_type":"fractal-mutation","trial_index":58,"time_elapsed":1235691,"internal_node_id":"0.0-5.0-4.0"},{"group":"square cycles (cube, non-group)","fractal_assignment":["../images/org_blu.png","../images/cyn_red.png","../images/blu_wht.png","../images/pnk_blu.png","../images/gry_blk.png","../images/ylw_slt.png","../images/ylw_pnk.png","../images/grn_red.png"],"mutagen_generator_assignment":[0,1],"goal":3,"start":6,"action_noise":0.1,"location_history":"[6,7,3]","action_history":"[1,1]","mutagen_history":"[1,1]","location_rts":"[1059,134]","trial_type":"fractal-mutation","trial_index":59,"time_elapsed":1242524,"internal_node_id":"0.0-5.0-5.0"},{"group":"square cycles (cube, non-group)","fractal_assignment":["../images/org_blu.png","../images/cyn_red.png","../images/blu_wht.png","../images/pnk_blu.png","../images/gry_blk.png","../images/ylw_slt.png","../images/ylw_pnk.png","../images/grn_red.png"],"mutagen_generator_assignment":[0,1],"goal":4,"start":3,"action_noise":0.1,"location_history":"[3,0,1,2,3,0,1,2,6,7,3,2,6,7,6,7,6,5,1,2,3,2,6,7,3,0,1,0,4]","action_history":"[0,0,0,0,0,0,0,1,1,1,1,1,1,0,1,0,0,1,0,0,1,1,1,0,0,0,1,1]","mutagen_history":"[0,0,0,0,0,0,0,1,1,1,1,1,1,0,1,0,0,1,0,0,1,1,1,0,0,0,1,1]","location_rts":"[535,246,16,65,59,8,271,169,17,46,55,291,43,196,203,140,12,49,178,187,10,0,176,212,211,209,89,58]","trial_type":"fractal-mutation","trial_index":60,"time_elapsed":1279539,"internal_node_id":"0.0-5.0-6.0"},{"group":"square cycles (cube, non-group)","fractal_assignment":["../images/org_blu.png","../images/cyn_red.png","../images/blu_wht.png","../images/pnk_blu.png","../images/gry_blk.png","../images/ylw_slt.png","../images/ylw_pnk.png","../images/grn_red.png"],"mutagen_generator_assignment":[0,1],"goal":1,"start":4,"action_noise":0.1,"location_history":"[4,5,1]","action_history":"[1,1]","mutagen_history":"[1,1]","location_rts":"[78,185]","trial_type":"fractal-mutation","trial_index":61,"time_elapsed":1285435,"internal_node_id":"0.0-5.0-7.0"},{"group":"square cycles (cube, non-group)","fractal_assignment":["../images/org_blu.png","../images/cyn_red.png","../images/blu_wht.png","../images/pnk_blu.png","../images/gry_blk.png","../images/ylw_slt.png","../images/ylw_pnk.png","../images/grn_red.png"],"mutagen_generator_assignment":[0,1],"goal":4,"start":1,"action_noise":0.1,"location_history":"[1,0,4]","action_history":"[1,1]","mutagen_history":"[1,1]","location_rts":"[437,30]","trial_type":"fractal-mutation","trial_index":62,"time_elapsed":1291534,"internal_node_id":"0.0-5.0-8.0"},{"group":"square cycles (cube, non-group)","fractal_assignment":["../images/org_blu.png","../images/cyn_red.png","../images/blu_wht.png","../images/pnk_blu.png","../images/gry_blk.png","../images/ylw_slt.png","../images/ylw_pnk.png","../images/grn_red.png"],"mutagen_generator_assignment":[0,1],"goal":5,"start":4,"action_noise":0.1,"location_history":"[4,5]","action_history":"[1]","mutagen_history":"[1]","location_rts":"[188]","trial_type":"fractal-mutation","trial_index":63,"time_elapsed":1296293,"internal_node_id":"0.0-5.0-9.0"},{"group":"square cycles (cube, non-group)","fractal_assignment":["../images/org_blu.png","../images/cyn_red.png","../images/blu_wht.png","../images/pnk_blu.png","../images/gry_blk.png","../images/ylw_slt.png","../images/ylw_pnk.png","../images/grn_red.png"],"mutagen_generator_assignment":[0,1],"goal":3,"start":5,"action_noise":0.1,"location_history":"[5,1,0,4,5,4,7,3]","action_history":"[1,1,1,1,1,1,0]","mutagen_history":"[1,1,1,1,1,1,0]","location_rts":"[405,66,39,115,36,58,49]","trial_type":"fractal-mutation","trial_index":64,"time_elapsed":1308000,"internal_node_id":"0.0-5.0-10.0"},{"group":"square cycles (cube, non-group)","fractal_assignment":["../images/org_blu.png","../images/cyn_red.png","../images/blu_wht.png","../images/pnk_blu.png","../images/gry_blk.png","../images/ylw_slt.png","../images/ylw_pnk.png","../images/grn_red.png"],"mutagen_generator_assignment":[0,1],"goal":6,"start":3,"action_noise":0.1,"location_history":"[3,0,1,2,3,0,4,5,1,0,4,5,1,2,6]","action_history":"[0,0,0,0,0,1,1,1,1,1,1,1,0,1]","mutagen_history":"[0,0,0,0,0,1,1,1,1,1,1,1,0,1]","location_rts":"[906,230,224,189,257,709,11,204,8,20,108,49,217,26]","trial_type":"fractal-mutation","trial_index":65,"time_elapsed":1329512,"internal_node_id":"0.0-5.0-11.0"},{"group":"square cycles (cube, non-group)","fractal_assignment":["../images/org_blu.png","../images/cyn_red.png","../images/blu_wht.png","../images/pnk_blu.png","../images/gry_blk.png","../images/ylw_slt.png","../images/ylw_pnk.png","../images/grn_red.png"],"mutagen_generator_assignment":[0,1],"goal":7,"start":6,"action_noise":0.1,"location_history":"[6,5,4,7]","action_history":"[0,0,0]","mutagen_history":"[0,0,0]","location_rts":"[412,194,255]","trial_type":"fractal-mutation","trial_index":66,"time_elapsed":1337066,"internal_node_id":"0.0-5.0-12.0"},{"group":"square cycles (cube, non-group)","fractal_assignment":["../images/org_blu.png","../images/cyn_red.png","../images/blu_wht.png","../images/pnk_blu.png","../images/gry_blk.png","../images/ylw_slt.png","../images/ylw_pnk.png","../images/grn_red.png"],"mutagen_generator_assignment":[0,1],"goal":0,"start":7,"action_noise":0.1,"location_history":"[7,3,2,3,2,3,0]","action_history":"[1,1,1,1,0,0]","mutagen_history":"[1,1,1,1,0,0]","location_rts":"[638,0,279,67,61,234]","trial_type":"fractal-mutation","trial_index":67,"time_elapsed":1348221,"internal_node_id":"0.0-5.0-13.0"},{"group":"square cycles (cube, non-group)","fractal_assignment":["../images/org_blu.png","../images/cyn_red.png","../images/blu_wht.png","../images/pnk_blu.png","../images/gry_blk.png","../images/ylw_slt.png","../images/ylw_pnk.png","../images/grn_red.png"],"mutagen_generator_assignment":[0,1],"goal":2,"start":0,"action_noise":0.1,"location_history":"[0,4,7,6,5,4,5,1,0,4,7,6,5,4,7,6,5,1,0,4,7,3,2]","action_history":"[0,0,0,0,0,1,1,1,1,1,0,0,0,0,0,0,1,1,0,0,1,1]","mutagen_history":"[0,0,0,0,0,1,1,1,1,1,0,0,0,0,0,0,1,1,0,0,1,1]","location_rts":"[42,248,164,112,61,94,126,249,76,198,200,12,104,52,104,150,44,34,226,48,263,66]","trial_type":"fractal-mutation","trial_index":68,"time_elapsed":1377792,"internal_node_id":"0.0-5.0-14.0"},{"group":"square cycles (cube, non-group)","fractal_assignment":["../images/org_blu.png","../images/cyn_red.png","../images/blu_wht.png","../images/pnk_blu.png","../images/gry_blk.png","../images/ylw_slt.png","../images/ylw_pnk.png","../images/grn_red.png"],"mutagen_generator_assignment":[0,1],"goal":1,"start":2,"action_noise":0.1,"location_history":"[2,6,7,3,0,1]","action_history":"[1,1,1,0,0]","mutagen_history":"[1,1,1,0,0]","location_rts":"[302,408,143,52,145]","trial_type":"fractal-mutation","trial_index":69,"time_elapsed":1387661,"internal_node_id":"0.0-5.0-15.0"},{"group":"square cycles (cube, non-group)","fractal_assignment":["../images/org_blu.png","../images/cyn_red.png","../images/blu_wht.png","../images/pnk_blu.png","../images/gry_blk.png","../images/ylw_slt.png","../images/ylw_pnk.png","../images/grn_red.png"],"mutagen_generator_assignment":[0,1],"goal":6,"start":1,"action_noise":0.1,"location_history":"[1,2,3,0,1,0,1,0,4,5,4,7,3,2,3,0,1,0,4,5,4,7,6]","action_history":"[0,0,0,0,1,1,1,1,1,0,0,1,1,0,0,0,1,1,1,0,0,0]","mutagen_history":"[0,0,0,0,1,1,1,1,1,0,0,1,1,0,0,0,1,1,1,0,0,0]","location_rts":"[441,180,68,60,411,150,97,90,66,10,239,10,63,296,312,269,17,87,67,179,213,14]","trial_type":"fractal-mutation","trial_index":70,"time_elapsed":1417873,"internal_node_id":"0.0-5.0-16.0"},{"group":"square cycles (cube, non-group)","fractal_assignment":["../images/org_blu.png","../images/cyn_red.png","../images/blu_wht.png","../images/pnk_blu.png","../images/gry_blk.png","../images/ylw_slt.png","../images/ylw_pnk.png","../images/grn_red.png"],"mutagen_generator_assignment":[0,1],"goal":3,"start":6,"action_noise":0.1,"location_history":"[6,5,1,2,3]","action_history":"[0,0,0,0]","mutagen_history":"[0,0,0,0]","location_rts":"[358,132,253,4]","trial_type":"fractal-mutation","trial_index":71,"time_elapsed":1426376,"internal_node_id":"0.0-5.0-17.0"},{"group":"square cycles (cube, non-group)","fractal_assignment":["../images/org_blu.png","../images/cyn_red.png","../images/blu_wht.png","../images/pnk_blu.png","../images/gry_blk.png","../images/ylw_slt.png","../images/ylw_pnk.png","../images/grn_red.png"],"mutagen_generator_assignment":[0,1],"goal":4,"start":3,"action_noise":0.1,"location_history":"[3,2,6,7,3,2,6,7,6,5,4]","action_history":"[1,1,1,1,1,1,1,0,0,0]","mutagen_history":"[1,1,1,1,1,1,1,0,0,0]","location_rts":"[4804,21,119,49,177,105,144,178,195,51]","trial_type":"fractal-mutation","trial_index":72,"time_elapsed":1446351,"internal_node_id":"0.0-5.0-18.0"},{"group":"square cycles (cube, non-group)","fractal_assignment":["../images/org_blu.png","../images/cyn_red.png","../images/blu_wht.png","../images/pnk_blu.png","../images/gry_blk.png","../images/ylw_slt.png","../images/ylw_pnk.png","../images/grn_red.png"],"mutagen_generator_assignment":[0,1],"goal":5,"start":4,"action_noise":0.1,"location_history":"[4,7,3,0,1,0,4,5]","action_history":"[0,0,0,0,0,1,1]","mutagen_history":"[0,0,0,0,0,1,1]","location_rts":"[167,178,169,218,208,47,171]","trial_type":"fractal-mutation","trial_index":73,"time_elapsed":1458449,"internal_node_id":"0.0-5.0-19.0"},{"group":"square cycles (cube, non-group)","fractal_assignment":["../images/org_blu.png","../images/cyn_red.png","../images/blu_wht.png","../images/pnk_blu.png","../images/gry_blk.png","../images/ylw_slt.png","../images/ylw_pnk.png","../images/grn_red.png"],"mutagen_generator_assignment":[0,1],"goal":7,"start":5,"action_noise":0.1,"location_history":"[5,1,2,6,7]","action_history":"[1,1,1,1]","mutagen_history":"[1,1,1,1]","location_rts":"[307,44,154,223]","trial_type":"fractal-mutation","trial_index":74,"time_elapsed":1466934,"internal_node_id":"0.0-5.0-20.0"},{"group":"square cycles (cube, non-group)","fractal_assignment":["../images/org_blu.png","../images/cyn_red.png","../images/blu_wht.png","../images/pnk_blu.png","../images/gry_blk.png","../images/ylw_slt.png","../images/ylw_pnk.png","../images/grn_red.png"],"mutagen_generator_assignment":[0,1],"goal":2,"start":7,"action_noise":0.1,"location_history":"[7,6,5,4,7,3,2]","action_history":"[0,0,0,0,0,1]","mutagen_history":"[0,0,0,0,0,1]","location_rts":"[321,197,7,48,105,72]","trial_type":"fractal-mutation","trial_index":75,"time_elapsed":1477567,"internal_node_id":"0.0-5.0-21.0"},{"group":"square cycles (cube, non-group)","fractal_assignment":["../images/org_blu.png","../images/cyn_red.png","../images/blu_wht.png","../images/pnk_blu.png","../images/gry_blk.png","../images/ylw_slt.png","../images/ylw_pnk.png","../images/grn_red.png"],"mutagen_generator_assignment":[0,1],"goal":0,"start":2,"action_noise":0.1,"location_history":"[2,6,7,3,2,6,7,6,7,6,7,3,0]","action_history":"[1,1,1,1,1,1,0,0,0,1,1,0]","mutagen_history":"[1,1,1,1,1,1,0,0,0,1,1,0]","location_rts":"[312,194,205,43,160,494,258,8,117,35,29,56]","trial_type":"fractal-mutation","trial_index":76,"time_elapsed":1495729,"internal_node_id":"0.0-5.0-22.0"},{"group":"square cycles (cube, non-group)","fractal_assignment":["../images/org_blu.png","../images/cyn_red.png","../images/blu_wht.png","../images/pnk_blu.png","../images/gry_blk.png","../images/ylw_slt.png","../images/ylw_pnk.png","../images/grn_red.png"],"mutagen_generator_assignment":[0,1],"goal":7,"start":0,"action_noise":0.1,"location_history":"[0,1,2,3,0,4,7]","action_history":"[0,0,0,0,1,0]","mutagen_history":"[0,0,0,0,1,0]","location_rts":"[503,1686,189,30,53,4332]","trial_type":"fractal-mutation","trial_index":77,"time_elapsed":1512405,"internal_node_id":"0.0-5.0-23.0"},{"group":"square cycles (cube, non-group)","fractal_assignment":["../images/org_blu.png","../images/cyn_red.png","../images/blu_wht.png","../images/pnk_blu.png","../images/gry_blk.png","../images/ylw_slt.png","../images/ylw_pnk.png","../images/grn_red.png"],"mutagen_generator_assignment":[0,1],"goal":5,"start":7,"action_noise":0.1,"location_history":"[7,3,2,6,7,6,5]","action_history":"[1,1,1,1,0,0]","mutagen_history":"[1,1,1,1,0,0]","location_rts":"[414,198,11,110,39,274]","trial_type":"fractal-mutation","trial_index":78,"time_elapsed":1523330,"internal_node_id":"0.0-5.0-24.0"},{"group":"square cycles (cube, non-group)","fractal_assignment":["../images/org_blu.png","../images/cyn_red.png","../images/blu_wht.png","../images/pnk_blu.png","../images/gry_blk.png","../images/ylw_slt.png","../images/ylw_pnk.png","../images/grn_red.png"],"mutagen_generator_assignment":[0,1],"goal":0,"start":5,"action_noise":0.1,"location_history":"[5,1,2,3,0]","action_history":"[0,0,0,0]","mutagen_history":"[0,0,0,0]","location_rts":"[423,152,28,85]","trial_type":"fractal-mutation","trial_index":79,"time_elapsed":1531778,"internal_node_id":"0.0-5.0-25.0"},{"group":"square cycles (cube, non-group)","fractal_assignment":["../images/org_blu.png","../images/cyn_red.png","../images/blu_wht.png","../images/pnk_blu.png","../images/gry_blk.png","../images/ylw_slt.png","../images/ylw_pnk.png","../images/grn_red.png"],"mutagen_generator_assignment":[0,1],"goal":6,"start":0,"action_noise":0.1,"location_history":"[0,1,0,1,2,6]","action_history":"[0,0,0,0,1]","mutagen_history":"[0,0,0,0,1]","location_rts":"[251,129,138,136,47]","trial_type":"fractal-mutation","trial_index":80,"time_elapsed":1541292,"internal_node_id":"0.0-5.0-26.0"},{"group":"square cycles (cube, non-group)","fractal_assignment":["../images/org_blu.png","../images/cyn_red.png","../images/blu_wht.png","../images/pnk_blu.png","../images/gry_blk.png","../images/ylw_slt.png","../images/ylw_pnk.png","../images/grn_red.png"],"mutagen_generator_assignment":[0,1],"goal":4,"start":6,"action_noise":0.1,"location_history":"[6,5,4]","action_history":"[0,0]","mutagen_history":"[0,0]","location_rts":"[4872,163]","trial_type":"fractal-mutation","trial_index":81,"time_elapsed":1551955,"internal_node_id":"0.0-5.0-27.0"},{"group":"square cycles (cube, non-group)","fractal_assignment":["../images/org_blu.png","../images/cyn_red.png","../images/blu_wht.png","../images/pnk_blu.png","../images/gry_blk.png","../images/ylw_slt.png","../images/ylw_pnk.png","../images/grn_red.png"],"mutagen_generator_assignment":[0,1],"goal":2,"start":4,"action_noise":0.1,"location_history":"[4,7,6,5,1,0,4,5,1,2]","action_history":"[0,0,0,0,1,1,1,1,0]","mutagen_history":"[0,0,0,0,1,1,1,1,0]","location_rts":"[340,93,158,187,201,75,179,226,100]","trial_type":"fractal-mutation","trial_index":82,"time_elapsed":1566580,"internal_node_id":"0.0-5.0-28.0"},{"group":"square cycles (cube, non-group)","fractal_assignment":["../images/org_blu.png","../images/cyn_red.png","../images/blu_wht.png","../images/pnk_blu.png","../images/gry_blk.png","../images/ylw_slt.png","../images/ylw_pnk.png","../images/grn_red.png"],"mutagen_generator_assignment":[0,1],"goal":3,"start":2,"action_noise":0.1,"location_history":"[2,6,5,1,0,4,5,1,0,1,2,3]","action_history":"[0,0,0,1,1,1,1,1,0,0,0]","mutagen_history":"[0,0,0,1,1,1,1,1,0,0,0]","location_rts":"[162,26,72,152,92,106,114,71,875,32,37]","trial_type":"fractal-mutation","trial_index":83,"time_elapsed":1583508,"internal_node_id":"0.0-5.0-29.0"},{"group":"square cycles (cube, non-group)","fractal_assignment":["../images/org_blu.png","../images/cyn_red.png","../images/blu_wht.png","../images/pnk_blu.png","../images/gry_blk.png","../images/ylw_slt.png","../images/ylw_pnk.png","../images/grn_red.png"],"mutagen_generator_assignment":[0,1],"goal":1,"start":3,"action_noise":0.1,"location_history":"[3,0,1]","action_history":"[0,0]","mutagen_history":"[0,0]","location_rts":"[222,165]","trial_type":"fractal-mutation","trial_index":84,"time_elapsed":1589534,"internal_node_id":"0.0-5.0-30.0"},{"group":"square cycles (cube, non-group)","fractal_assignment":["../images/org_blu.png","../images/cyn_red.png","../images/blu_wht.png","../images/pnk_blu.png","../images/gry_blk.png","../images/ylw_slt.png","../images/ylw_pnk.png","../images/grn_red.png"],"mutagen_generator_assignment":[0,1],"goal":4,"start":1,"action_noise":0.1,"location_history":"[1,2,3,0,1,2,6,7,6,5,4]","action_history":"[0,0,0,0,0,1,1,0,0,0]","mutagen_history":"[0,0,0,0,0,1,1,0,0,0]","location_rts":"[148,61,106,146,192,27,235,42,143,37]","trial_type":"fractal-mutation","trial_index":85,"time_elapsed":1604786,"internal_node_id":"0.0-5.0-31.0"},{"group":"square cycles (cube, non-group)","fractal_assignment":["../images/org_blu.png","../images/cyn_red.png","../images/blu_wht.png","../images/pnk_blu.png","../images/gry_blk.png","../images/ylw_slt.png","../images/ylw_pnk.png","../images/grn_red.png"],"mutagen_generator_assignment":[0,1],"goal":3,"start":4,"action_noise":0.1,"location_history":"[4,7,6,5,4,7,3]","action_history":"[0,0,0,0,0,1]","mutagen_history":"[0,0,0,0,0,1]","location_rts":"[522,199,133,213,234,178]","trial_type":"fractal-mutation","trial_index":86,"time_elapsed":1616149,"internal_node_id":"0.0-5.0-32.0"},{"group":"square cycles (cube, non-group)","fractal_assignment":["../images/org_blu.png","../images/cyn_red.png","../images/blu_wht.png","../images/pnk_blu.png","../images/gry_blk.png","../images/ylw_slt.png","../images/ylw_pnk.png","../images/grn_red.png"],"mutagen_generator_assignment":[0,1],"goal":6,"start":3,"action_noise":0.1,"location_history":"[3,2,6]","action_history":"[1,1]","mutagen_history":"[1,1]","location_rts":"[402,72]","trial_type":"fractal-mutation","trial_index":87,"time_elapsed":1622249,"internal_node_id":"0.0-5.0-33.0"},{"group":"square cycles (cube, non-group)","fractal_assignment":["../images/org_blu.png","../images/cyn_red.png","../images/blu_wht.png","../images/pnk_blu.png","../images/gry_blk.png","../images/ylw_slt.png","../images/ylw_pnk.png","../images/grn_red.png"],"mutagen_generator_assignment":[0,1],"goal":0,"start":6,"action_noise":0.1,"location_history":"[6,7,6,7,3,0]","action_history":"[0,0,1,1,0]","mutagen_history":"[0,0,1,1,0]","location_rts":"[418,61,48,185,176]","trial_type":"fractal-mutation","trial_index":88,"time_elapsed":1631962,"internal_node_id":"0.0-5.0-34.0"},{"group":"square cycles (cube, non-group)","fractal_assignment":["../images/org_blu.png","../images/cyn_red.png","../images/blu_wht.png","../images/pnk_blu.png","../images/gry_blk.png","../images/ylw_slt.png","../images/ylw_pnk.png","../images/grn_red.png"],"mutagen_generator_assignment":[0,1],"goal":1,"start":0,"action_noise":0.1,"location_history":"[0,1]","action_history":"[0]","mutagen_history":"[0]","location_rts":"[779]","trial_type":"fractal-mutation","trial_index":89,"time_elapsed":1637306,"internal_node_id":"0.0-5.0-35.0"},{"group":"square cycles (cube, non-group)","fractal_assignment":["../images/org_blu.png","../images/cyn_red.png","../images/blu_wht.png","../images/pnk_blu.png","../images/gry_blk.png","../images/ylw_slt.png","../images/ylw_pnk.png","../images/grn_red.png"],"mutagen_generator_assignment":[0,1],"goal":5,"start":1,"action_noise":0.1,"location_history":"[1,2,6,7,3,0,1,0,4,5]","action_history":"[1,1,1,0,0,0,1,1,1]","mutagen_history":"[1,1,1,0,0,0,1,1,1]","location_rts":"[17,203,147,476,7,148,501,92,236]","trial_type":"fractal-mutation","trial_index":90,"time_elapsed":1652202,"internal_node_id":"0.0-5.0-36.0"},{"group":"square cycles (cube, non-group)","fractal_assignment":["../images/org_blu.png","../images/cyn_red.png","../images/blu_wht.png","../images/pnk_blu.png","../images/gry_blk.png","../images/ylw_slt.png","../images/ylw_pnk.png","../images/grn_red.png"],"mutagen_generator_assignment":[0,1],"goal":7,"start":5,"action_noise":0.1,"location_history":"[5,1,2,6,5,4,7]","action_history":"[1,1,1,0,0,0]","mutagen_history":"[1,1,1,0,0,0]","location_rts":"[314,57,160,59,117,188]","trial_type":"fractal-mutation","trial_index":91,"time_elapsed":1662970,"internal_node_id":"0.0-5.0-37.0"},{"group":"square cycles (cube, non-group)","fractal_assignment":["../images/org_blu.png","../images/cyn_red.png","../images/blu_wht.png","../images/pnk_blu.png","../images/gry_blk.png","../images/ylw_slt.png","../images/ylw_pnk.png","../images/grn_red.png"],"mutagen_generator_assignment":[0,1],"goal":2,"start":7,"action_noise":0.1,"location_history":"[7,6,5,4,5,1,2]","action_history":"[0,0,0,1,1,1]","mutagen_history":"[0,0,0,1,1,1]","location_rts":"[4061,117,62,34,157,80]","trial_type":"fractal-mutation","trial_index":92,"time_elapsed":1677366,"internal_node_id":"0.0-5.0-38.0"},{"group":"square cycles (cube, non-group)","fractal_assignment":["../images/org_blu.png","../images/cyn_red.png","../images/blu_wht.png","../images/pnk_blu.png","../images/gry_blk.png","../images/ylw_slt.png","../images/ylw_pnk.png","../images/grn_red.png"],"mutagen_generator_assignment":[0,1],"goal":1,"start":2,"action_noise":0.1,"location_history":"[2,6,7,6,5,4,7,6,7,3,2,3,2,3,2,3,2,6,7,3,2,3,0,1]","action_history":"[1,1,1,0,0,0,0,1,1,1,0,0,0,0,0,1,1,1,1,1,0,0,0]","mutagen_history":"[1,1,1,0,0,0,0,1,1,1,0,0,0,0,0,1,1,1,1,1,0,0,0]","location_rts":"[33,114,109,36,194,161,23,218,16,34,162,150,183,245,227,257,207,135,171,105,143,170,208]","trial_type":"fractal-mutation","trial_index":93,"time_elapsed":1708579,"internal_node_id":"0.0-5.0-39.0"},{"group":"square cycles (cube, non-group)","fractal_assignment":["../images/org_blu.png","../images/cyn_red.png","../images/blu_wht.png","../images/pnk_blu.png","../images/gry_blk.png","../images/ylw_slt.png","../images/ylw_pnk.png","../images/grn_red.png"],"mutagen_generator_assignment":[0,1],"goal":3,"start":1,"action_noise":0.1,"location_history":"[1,2,3]","action_history":"[0,0]","mutagen_history":"[0,0]","location_rts":"[742,117]","trial_type":"fractal-mutation","trial_index":94,"time_elapsed":1715065,"internal_node_id":"0.0-5.0-40.0"},{"group":"square cycles (cube, non-group)","fractal_assignment":["../images/org_blu.png","../images/cyn_red.png","../images/blu_wht.png","../images/pnk_blu.png","../images/gry_blk.png","../images/ylw_slt.png","../images/ylw_pnk.png","../images/grn_red.png"],"mutagen_generator_assignment":[0,1],"goal":4,"start":3,"action_noise":0.1,"location_history":"[3,0,1,2,3,0,4]","action_history":"[0,0,0,0,0,1]","mutagen_history":"[0,0,0,0,0,1]","location_rts":"[760,146,164,236,171,247]","trial_type":"fractal-mutation","trial_index":95,"time_elapsed":1726666,"internal_node_id":"0.0-5.0-41.0"},{"group":"square cycles (cube, non-group)","fractal_assignment":["../images/org_blu.png","../images/cyn_red.png","../images/blu_wht.png","../images/pnk_blu.png","../images/gry_blk.png","../images/ylw_slt.png","../images/ylw_pnk.png","../images/grn_red.png"],"mutagen_generator_assignment":[0,1],"goal":2,"start":4,"action_noise":0.1,"location_history":"[4,5,1,0,4,5,1,0,1,2]","action_history":"[1,1,1,1,1,1,1,0,0]","mutagen_history":"[1,1,1,1,1,1,1,0,0]","location_rts":"[96,40,81,90,371,220,29,237,214]","trial_type":"fractal-mutation","trial_index":96,"time_elapsed":1741102,"internal_node_id":"0.0-5.0-42.0"},{"group":"square cycles (cube, non-group)","fractal_assignment":["../images/org_blu.png","../images/cyn_red.png","../images/blu_wht.png","../images/pnk_blu.png","../images/gry_blk.png","../images/ylw_slt.png","../images/ylw_pnk.png","../images/grn_red.png"],"mutagen_generator_assignment":[0,1],"goal":5,"start":2,"action_noise":0.1,"location_history":"[2,3,0,4,5]","action_history":"[0,0,0,0]","mutagen_history":"[0,0,0,0]","location_rts":"[240,212,7,173]","trial_type":"fractal-mutation","trial_index":97,"time_elapsed":1749493,"internal_node_id":"0.0-5.0-43.0"},{"group":"square cycles (cube, non-group)","fractal_assignment":["../images/org_blu.png","../images/cyn_red.png","../images/blu_wht.png","../images/pnk_blu.png","../images/gry_blk.png","../images/ylw_slt.png","../images/ylw_pnk.png","../images/grn_red.png"],"mutagen_generator_assignment":[0,1],"goal":0,"start":5,"action_noise":0.1,"location_history":"[5,4,7,6,5,4,7,6,5,4,7,6,5,4,7,6,5,1,0]","action_history":"[0,0,0,0,0,0,0,0,0,0,0,0,0,0,0,0,1,1]","mutagen_history":"[0,0,0,0,0,0,0,0,0,0,0,0,0,0,0,0,1,1]","location_rts":"[76,21,243,211,244,183,1,253,0,272,306,221,80,121,239,303,49,60]","trial_type":"fractal-mutation","trial_index":98,"time_elapsed":1774991,"internal_node_id":"0.0-5.0-44.0"},{"group":"square cycles (cube, non-group)","fractal_assignment":["../images/org_blu.png","../images/cyn_red.png","../images/blu_wht.png","../images/pnk_blu.png","../images/gry_blk.png","../images/ylw_slt.png","../images/ylw_pnk.png","../images/grn_red.png"],"mutagen_generator_assignment":[0,1],"goal":7,"start":0,"action_noise":0.1,"location_history":"[0,4,5,1,0,4,5,1,0,4,5,4,7]","action_history":"[1,1,1,1,1,1,1,1,1,1,0,0]","mutagen_history":"[1,1,1,1,1,1,1,1,1,1,0,0]","location_rts":"[71,108,16,75,264,49,338,116,1578,75,134,106]","trial_type":"fractal-mutation","trial_index":99,"time_elapsed":1794172,"internal_node_id":"0.0-5.0-45.0"},{"group":"square cycles (cube, non-group)","fractal_assignment":["../images/org_blu.png","../images/cyn_red.png","../images/blu_wht.png","../images/pnk_blu.png","../images/gry_blk.png","../images/ylw_slt.png","../images/ylw_pnk.png","../images/grn_red.png"],"mutagen_generator_assignment":[0,1],"goal":6,"start":7,"action_noise":0.1,"location_history":"[7,6]","action_history":"[0]","mutagen_history":"[0]","location_rts":"[67]","trial_type":"fractal-mutation","trial_index":100,"time_elapsed":1798805,"internal_node_id":"0.0-5.0-46.0"},{"group":"square cycles (cube, non-group)","fractal_assignment":["../images/org_blu.png","../images/cyn_red.png","../images/blu_wht.png","../images/pnk_blu.png","../images/gry_blk.png","../images/ylw_slt.png","../images/ylw_pnk.png","../images/grn_red.png"],"mutagen_generator_assignment":[0,1],"goal":2,"start":6,"action_noise":0.1,"location_history":"[6,5,4,7,6,5,4,7,6,5,1,0,4,5,4,5,1,2]","action_history":"[0,0,0,0,0,0,0,0,0,1,1,1,1,1,1,1,0]","mutagen_history":"[0,0,0,0,0,0,0,0,0,1,1,1,1,1,1,1,0]","location_rts":"[137,144,170,228,181,140,133,27,15,238,95,76,210,248,22,160,190]","trial_type":"fractal-mutation","trial_index":101,"time_elapsed":1822750,"internal_node_id":"0.0-5.0-47.0"},{"group":"square cycles (cube, non-group)","fractal_assignment":["../images/org_blu.png","../images/cyn_red.png","../images/blu_wht.png","../images/pnk_blu.png","../images/gry_blk.png","../images/ylw_slt.png","../images/ylw_pnk.png","../images/grn_red.png"],"mutagen_generator_assignment":[0,1],"goal":5,"start":2,"action_noise":0.1,"location_history":"[2,3,2,3,2,3,0,4,5]","action_history":"[0,0,0,0,0,0,0,1]","mutagen_history":"[0,0,0,0,0,0,0,1]","location_rts":"[470,4585,161,6,404,145,181,149]","trial_type":"fractal-mutation","trial_index":102,"time_elapsed":1840855,"internal_node_id":"0.0-5.0-48.0"},{"group":"square cycles (cube, non-group)","fractal_assignment":["../images/org_blu.png","../images/cyn_red.png","../images/blu_wht.png","../images/pnk_blu.png","../images/gry_blk.png","../images/ylw_slt.png","../images/ylw_pnk.png","../images/grn_red.png"],"mutagen_generator_assignment":[0,1],"goal":3,"start":5,"action_noise":0.1,"location_history":"[5,1,0,4,5,4,5,4,7,3]","action_history":"[1,1,1,1,0,0,0,0,1]","mutagen_history":"[1,1,1,1,0,0,0,0,1]","location_rts":"[250,93,53,118,45,154,144,73,199]","trial_type":"fractal-mutation","trial_index":103,"time_elapsed":1855039,"internal_node_id":"0.0-5.0-49.0"},{"view_history":"[{\"page_index\":0,\"viewing_time\":6800}]","rt":6800,"trial_type":"instructions","trial_index":104,"time_elapsed":1862841,"internal_node_id":"0.0-6.0"},{"rt":46490,"responses":"{\"Q0\":\"How people make decisions.\"}","trial_type":"survey-text","trial_index":105,"time_elapsed":1910335,"internal_node_id":"0.0-7.0-0.0"},{"rt":32194,"responses":"{\"Q0\":\"How visual patterns affect ones perception.\"}","trial_type":"survey-text","trial_index":106,"time_elapsed":1943531,"internal_node_id":"0.0-7.0-1.0"},{"rt":18047,"responses":"{\"Q0\":\"<img src='../images/diagrams/square_cycles.png'>\"}","trial_type":"survey-multi-choice","trial_index":107,"time_elapsed":1962586,"internal_node_id":"0.0-7.0-2.0"},{"rt":40791,"assignments":["../images/ylw_slt.png","../images/gry_blk.png","../images/pnk_blu.png","../images/ylw_pnk.png","../images/blu_wht.png","../images/cyn_red.png","../images/org_blu.png","../images/grn_red.png"],"trial_type":"drag-drop-on-image","trial_index":108,"time_elapsed":2004381,"internal_node_id":"0.0-7.0-3.0"},{"rt":11150,"responses":"{\"Q0\":\"1\"}","trial_type":"survey-likert","trial_index":109,"time_elapsed":2016536,"internal_node_id":"0.0-7.0-4.0"},{"rt":26049,"responses":"{\"Q0\":\"The both involves related colors and algorithms.\"}","trial_type":"survey-text","trial_index":110,"time_elapsed":2043591,"internal_node_id":"0.0-7.0-5.0"},{"rt":8025,"responses":"{\"Q0\":\"No\"}","trial_type":"survey-multi-choice","trial_index":111,"time_elapsed":2052622,"internal_node_id":"0.0-7.0-6.0"},{"rt":6251,"responses":"{\"Q0\":\"Did not notice\"}","trial_type":"survey-multi-choice","trial_index":112,"time_elapsed":2059880,"internal_node_id":"0.0-7.0-7.0"},{"rt":6177,"responses":"{\"Q0\":\"\"}","trial_type":"survey-text","trial_index":113,"time_elapsed":2067060,"internal_node_id":"0.0-7.0-8.0"},{"rt":6122,"responses":"{\"Q0\":\"0\"}","trial_type":"survey-likert","trial_index":114,"time_elapsed":2074186,"internal_node_id":"0.0-7.0-9.0"},{"rt":12327,"responses":"{\"Q0\":\"Different structure\"}","trial_type":"survey-multi-choice","trial_index":115,"time_elapsed":2087520,"internal_node_id":"0.0-7.0-10.0"},{"rt":42763,"responses":"{\"Q0\":\"left (white) door = ray, (black) door = acid\",\"Q1\":\"Not at all confident\"}","trial_type":"survey-multi-choice","trial_index":116,"time_elapsed":2131293,"internal_node_id":"0.0-7.0-11.0"},{"rt":8365,"responses":"{\"Q0\":\"25-35\",\"Q1\":\"High school degree or GED\",\"Q2\":\"Male\",\"Q3\":\"Other\"}","trial_type":"survey-multi-choice","trial_index":117,"time_elapsed":2140666,"internal_node_id":"0.0-8.0"},{"rt":8976,"responses":"{\"Q0\":\"Great study.\"}","trial_type":"survey-text","trial_index":118,"time_elapsed":2150646,"internal_node_id":"0.0-9.0"}]