[{"view_history":"[{\"page_index\":0,\"viewing_time\":2872},{\"page_index\":1,\"viewing_time\":63690}]","rt":66564,"trial_type":"instructions","trial_index":0,"time_elapsed":66566,"internal_node_id":"0.0-0.0"},{"view_history":"[{\"page_index\":0,\"viewing_time\":1775},{\"page_index\":1,\"viewing_time\":3384}]","rt":5159,"trial_type":"instructions","trial_index":1,"time_elapsed":72727,"internal_node_id":"0.0-1.0"},{"group":"tri cycles (cube, non-group)","room_assignment":["yellow","pink","brown","green","purple","grey","red","blue"],"door_color_assignment":["white","black"],"door_generator_assignment":[1,0],"goal":5,"start":7,"action_noise":0.1,"location_history":"[7,3,4,7,6,4,7,3,4,0,3,7,3,4,0,2,1,0,2,1,5]","action_history":"[1,1,0,0,0,0,1,1,1,1,1,1,1,1,0,0,0,0,0,1]","door_history":"[0,0,1,1,1,1,0,0,0,0,0,0,0,0,1,1,1,1,1,0]","location_rts":"[2597,546,707,330,332,1268,954,484,429,882,483,419,361,443,676,577,772,1124,372,561]","trial_type":"two-door-navigation","trial_index":2,"time_elapsed":111037,"internal_node_id":"0.0-2.0-0.0"},{"group":"tri cycles (cube, non-group)","room_assignment":["yellow","pink","brown","green","purple","grey","red","blue"],"door_color_assignment":["white","black"],"door_generator_assignment":[1,0],"goal":2,"start":5,"action_noise":0.1,"location_history":"[5,1,0,3,4,0,3,4,0,2]","action_history":"[0,0,0,1,1,1,1,1,0]","door_history":"[1,1,1,0,0,0,0,0,1]","location_rts":"[1779,291,1046,1208,417,450,431,443,1006]","trial_type":"two-door-navigation","trial_index":3,"time_elapsed":130871,"internal_node_id":"0.0-2.0-1.0"},{"group":"tri cycles (cube, non-group)","room_assignment":["yellow","pink","brown","green","purple","grey","red","blue"],"door_color_assignment":["white","black"],"door_generator_assignment":[1,0],"goal":0,"start":2,"action_noise":0.1,"location_history":"[2,1,0]","action_history":"[0,0]","door_history":"[1,1]","location_rts":"[553,722]","trial_type":"two-door-navigation","trial_index":4,"time_elapsed":137701,"internal_node_id":"0.0-2.0-2.0"},{"group":"tri cycles (cube, non-group)","room_assignment":["yellow","pink","brown","green","purple","grey","red","blue"],"door_color_assignment":["white","black"],"door_generator_assignment":[1,0],"goal":1,"start":0,"action_noise":0.1,"location_history":"[0,2,1]","action_history":"[0,0]","door_history":"[1,1]","location_rts":"[251,2128]","trial_type":"two-door-navigation","trial_index":5,"time_elapsed":145630,"internal_node_id":"0.0-2.0-3.0"},{"group":"tri cycles (cube, non-group)","room_assignment":["yellow","pink","brown","green","purple","grey","red","blue"],"door_color_assignment":["white","black"],"door_generator_assignment":[1,0],"goal":6,"start":1,"action_noise":0.1,"location_history":"[1,5,1,0,3,4,0,3,7,6]","action_history":"[0,0,0,1,1,1,1,0,0]","door_history":"[1,1,1,0,0,0,0,1,1]","location_rts":"[629,600,431,361,375,369,418,927,507]","trial_type":"two-door-navigation","trial_index":6,"time_elapsed":162955,"internal_node_id":"0.0-2.0-4.0"},{"group":"tri cycles (cube, non-group)","room_assignment":["yellow","pink","brown","green","purple","grey","red","blue"],"door_color_assignment":["white","black"],"door_generator_assignment":[1,0],"goal":3,"start":6,"action_noise":0.1,"location_history":"[6,4,7,3]","action_history":"[0,0,1]","door_history":"[1,1,0]","location_rts":"[1178,927,4650]","trial_type":"two-door-navigation","trial_index":7,"time_elapsed":176287,"internal_node_id":"0.0-2.0-5.0"},{"group":"tri cycles (cube, non-group)","room_assignment":["yellow","pink","brown","green","purple","grey","red","blue"],"door_color_assignment":["white","black"],"door_generator_assignment":[1,0],"goal":4,"start":3,"action_noise":0.1,"location_history":"[3,4]","action_history":"[1]","door_history":"[0]","location_rts":"[4682]","trial_type":"two-door-navigation","trial_index":8,"time_elapsed":185499,"internal_node_id":"0.0-2.0-6.0"},{"group":"tri cycles (cube, non-group)","room_assignment":["yellow","pink","brown","green","purple","grey","red","blue"],"door_color_assignment":["white","black"],"door_generator_assignment":[1,0],"goal":1,"start":4,"action_noise":0.1,"location_history":"[4,0,3,4,0,2,1]","action_history":"[0,1,1,1,0,0]","door_history":"[1,0,0,0,1,1]","location_rts":"[3876,3436,10181,434,1212,337]","trial_type":"two-door-navigation","trial_index":9,"time_elapsed":214622,"internal_node_id":"0.0-2.0-7.0"},{"group":"tri cycles (cube, non-group)","room_assignment":["yellow","pink","brown","green","purple","grey","red","blue"],"door_color_assignment":["white","black"],"door_generator_assignment":[1,0],"goal":4,"start":1,"action_noise":0.1,"location_history":"[1,5,2,6,5,1,0,2,1,0,3,7,3,4]","action_history":"[0,1,1,1,0,0,0,0,0,1,1,1,1]","door_history":"[1,0,0,0,1,1,1,1,1,0,0,0,0]","location_rts":"[2364,2315,407,424,854,521,325,532,717,261,423,648,412]","trial_type":"two-door-navigation","trial_index":10,"time_elapsed":241658,"internal_node_id":"0.0-2.0-8.0"},{"group":"tri cycles (cube, non-group)","room_assignment":["yellow","pink","brown","green","purple","grey","red","blue"],"door_color_assignment":["white","black"],"door_generator_assignment":[1,0],"goal":5,"start":4,"action_noise":0.1,"location_history":"[4,7,6,4,7,3,4,0,2,1,0,2,1,5]","action_history":"[0,0,0,0,1,1,1,0,0,0,0,0,1]","door_history":"[1,1,1,1,0,0,0,1,1,1,1,1,0]","location_rts":"[862,1003,422,743,1278,361,386,1568,392,243,452,345,800]","trial_type":"two-door-navigation","trial_index":11,"time_elapsed":267341,"internal_node_id":"0.0-2.0-9.0"},{"group":"tri cycles (cube, non-group)","room_assignment":["yellow","pink","brown","green","purple","grey","red","blue"],"door_color_assignment":["white","black"],"door_generator_assignment":[1,0],"goal":3,"start":5,"action_noise":0.1,"location_history":"[5,2,1,5,1,5,1,5,2,6,5,2,6,4,7,6,4,7,3]","action_history":"[1,1,1,0,0,0,1,1,1,1,1,1,0,0,0,0,0,1]","door_history":"[0,0,0,1,1,1,0,0,0,0,0,0,1,1,1,1,1,0]","location_rts":"[969,634,878,204,525,443,972,467,592,773,392,293,849,522,1508,527,692,909]","trial_type":"two-door-navigation","trial_index":12,"time_elapsed":301425,"internal_node_id":"0.0-2.0-10.0"},{"group":"tri cycles (cube, non-group)","room_assignment":["yellow","pink","brown","green","purple","grey","red","blue"],"door_color_assignment":["white","black"],"door_generator_assignment":[1,0],"goal":6,"start":3,"action_noise":0.1,"location_history":"[3,4,0,2,6]","action_history":"[1,1,0,1]","door_history":"[0,0,1,0]","location_rts":"[1035,624,1296,1129]","trial_type":"two-door-navigation","trial_index":13,"time_elapsed":313110,"internal_node_id":"0.0-2.0-11.0"},{"group":"tri cycles (cube, non-group)","room_assignment":["yellow","pink","brown","green","purple","grey","red","blue"],"door_color_assignment":["white","black"],"door_generator_assignment":[1,0],"goal":7,"start":6,"action_noise":0.1,"location_history":"[6,5,2,6,4,7]","action_history":"[1,1,1,0,0]","door_history":"[0,0,0,1,1]","location_rts":"[1089,1082,418,636,469]","trial_type":"two-door-navigation","trial_index":14,"time_elapsed":325431,"internal_node_id":"0.0-2.0-12.0"},{"group":"tri cycles (cube, non-group)","room_assignment":["yellow","pink","brown","green","purple","grey","red","blue"],"door_color_assignment":["white","black"],"door_generator_assignment":[1,0],"goal":0,"start":7,"action_noise":0.1,"location_history":"[7,6,4,7,6,5,2,6,4,0]","action_history":"[0,0,0,1,1,1,1,0,1]","door_history":"[1,1,1,0,0,0,0,1,0]","location_rts":"[6655,430,598,1075,433,422,656,810,1144]","trial_type":"two-door-navigation","trial_index":15,"time_elapsed":350398,"internal_node_id":"0.0-2.0-13.0"},{"group":"tri cycles (cube, non-group)","room_assignment":["yellow","pink","brown","green","purple","grey","red","blue"],"door_color_assignment":["white","black"],"door_generator_assignment":[1,0],"goal":2,"start":0,"action_noise":0.1,"location_history":"[0,3,4,0,3,7,3,7,6,4,7,3,4,0,3,4,0,2]","action_history":"[1,1,1,0,0,1,0,0,0,0,1,1,1,1,1,1,0]","door_history":"[0,0,0,1,1,0,1,1,1,1,0,0,0,0,0,0,1]","location_rts":"[1009,401,385,1081,483,1005,1009,401,829,408,271,394,331,667,660,396,276]","trial_type":"two-door-navigation","trial_index":16,"time_elapsed":381260,"internal_node_id":"0.0-2.0-14.0"},{"group":"tri cycles (cube, non-group)","room_assignment":["yellow","pink","brown","green","purple","grey","red","blue"],"door_color_assignment":["white","black"],"door_generator_assignment":[1,0],"goal":1,"start":2,"action_noise":0.1,"location_history":"[2,1]","action_history":"[0]","door_history":"[1]","location_rts":"[20128]","trial_type":"two-door-navigation","trial_index":17,"time_elapsed":405915,"internal_node_id":"0.0-2.0-15.0"},{"group":"tri cycles (cube, non-group)","room_assignment":["yellow","pink","brown","green","purple","grey","red","blue"],"door_color_assignment":["white","black"],"door_generator_assignment":[1,0],"goal":6,"start":1,"action_noise":0.1,"location_history":"[1,0,3,7,3,7,3,4,7,6]","action_history":"[1,1,1,1,0,1,1,0,0]","door_history":"[0,0,0,0,1,0,0,1,1]","location_rts":"[10538,294,648,608,231,371,410,493,416]","trial_type":"two-door-navigation","trial_index":18,"time_elapsed":432640,"internal_node_id":"0.0-2.0-16.0"},{"group":"tri cycles (cube, non-group)","room_assignment":["yellow","pink","brown","green","purple","grey","red","blue"],"door_color_assignment":["white","black"],"door_generator_assignment":[1,0],"goal":3,"start":6,"action_noise":0.1,"location_history":"[6,5,2,1,0,3]","action_history":"[1,1,0,0,1]","door_history":"[0,0,1,1,0]","location_rts":"[2017,470,2183,2880,1789]","trial_type":"two-door-navigation","trial_index":19,"time_elapsed":450621,"internal_node_id":"0.0-2.0-17.0"},{"group":"tri cycles (cube, non-group)","room_assignment":["yellow","pink","brown","green","purple","grey","red","blue"],"door_color_assignment":["white","black"],"door_generator_assignment":[1,0],"goal":4,"start":3,"action_noise":0.1,"location_history":"[3,4]","action_history":"[1]","door_history":"[0]","location_rts":"[1049]","trial_type":"two-door-navigation","trial_index":20,"time_elapsed":456192,"internal_node_id":"0.0-2.0-18.0"},{"group":"tri cycles (cube, non-group)","room_assignment":["yellow","pink","brown","green","purple","grey","red","blue"],"door_color_assignment":["white","black"],"door_generator_assignment":[1,0],"goal":5,"start":4,"action_noise":0.1,"location_history":"[4,7,6,5]","action_history":"[0,0,1]","door_history":"[1,1,0]","location_rts":"[24958,394,949]","trial_type":"two-door-navigation","trial_index":21,"time_elapsed":489062,"internal_node_id":"0.0-2.0-19.0"},{"group":"tri cycles (cube, non-group)","room_assignment":["yellow","pink","brown","green","purple","grey","red","blue"],"door_color_assignment":["white","black"],"door_generator_assignment":[1,0],"goal":7,"start":5,"action_noise":0.1,"location_history":"[5,2,1,5,2,6,4,0,2,1,0,3,4,0,2,6,4,7]","action_history":"[1,0,1,1,1,1,1,0,0,0,1,1,1,1,1,0,0]","door_history":"[0,1,0,0,0,0,0,1,1,1,0,0,0,0,0,1,1]","location_rts":"[2655,1394,1338,608,658,966,550,775,486,1030,731,421,366,511,1252,285,1196]","trial_type":"two-door-navigation","trial_index":22,"time_elapsed":525283,"internal_node_id":"0.0-2.0-20.0"},{"group":"tri cycles (cube, non-group)","room_assignment":["yellow","pink","brown","green","purple","grey","red","blue"],"door_color_assignment":["white","black"],"door_generator_assignment":[1,0],"goal":2,"start":7,"action_noise":0.1,"location_history":"[7,6,4,7,3,4,0,3,7,3,4,0,2]","action_history":"[0,0,0,0,1,1,1,1,1,0,1,0]","door_history":"[1,1,1,1,0,0,0,0,0,1,0,1]","location_rts":"[21503,448,751,4199,643,354,576,360,351,376,478,1095]","trial_type":"two-door-navigation","trial_index":23,"time_elapsed":572189,"internal_node_id":"0.0-2.0-21.0"},{"group":"tri cycles (cube, non-group)","room_assignment":["yellow","pink","brown","green","purple","grey","red","blue"],"door_color_assignment":["white","black"],"door_generator_assignment":[1,0],"goal":0,"start":2,"action_noise":0.1,"location_history":"[2,1,0]","action_history":"[0,0]","door_history":"[1,1]","location_rts":"[11239,477]","trial_type":"two-door-navigation","trial_index":24,"time_elapsed":589453,"internal_node_id":"0.0-2.0-22.0"},{"group":"tri cycles (cube, non-group)","room_assignment":["yellow","pink","brown","green","purple","grey","red","blue"],"door_color_assignment":["white","black"],"door_generator_assignment":[1,0],"goal":7,"start":0,"action_noise":0.1,"location_history":"[0,3,4,7]","action_history":"[0,1,0]","door_history":"[1,0,1]","location_rts":"[1479,956,1125]","trial_type":"two-door-navigation","trial_index":25,"time_elapsed":599582,"internal_node_id":"0.0-2.0-23.0"},{"group":"tri cycles (cube, non-group)","room_assignment":["yellow","pink","brown","green","purple","grey","red","blue"],"door_color_assignment":["white","black"],"door_generator_assignment":[1,0],"goal":5,"start":7,"action_noise":0.1,"location_history":"[7,6,4,7,6,4,0,2,1,5]","action_history":"[0,0,0,0,1,1,1,1,1]","door_history":"[1,1,1,1,0,0,0,0,0]","location_rts":"[3400,223,2948,385,418,363,402,400,1385]","trial_type":"two-door-navigation","trial_index":26,"time_elapsed":622217,"internal_node_id":"0.0-2.0-24.0"},{"group":"tri cycles (cube, non-group)","room_assignment":["yellow","pink","brown","green","purple","grey","red","blue"],"door_color_assignment":["white","black"],"door_generator_assignment":[1,0],"goal":0,"start":5,"action_noise":0.1,"location_history":"[5,1,0]","action_history":"[0,0]","door_history":"[1,1]","location_rts":"[4242,3065]","trial_type":"two-door-navigation","trial_index":27,"time_elapsed":635074,"internal_node_id":"0.0-2.0-25.0"},{"group":"tri cycles (cube, non-group)","room_assignment":["yellow","pink","brown","green","purple","grey","red","blue"],"door_color_assignment":["white","black"],"door_generator_assignment":[1,0],"goal":6,"start":0,"action_noise":0.1,"location_history":"[0,3,4,7,6]","action_history":"[1,1,1,0]","door_history":"[0,0,0,1]","location_rts":"[4941,6501,469,817]","trial_type":"two-door-navigation","trial_index":28,"time_elapsed":655413,"internal_node_id":"0.0-2.0-26.0"},{"group":"tri cycles (cube, non-group)","room_assignment":["yellow","pink","brown","green","purple","grey","red","blue"],"door_color_assignment":["white","black"],"door_generator_assignment":[1,0],"goal":4,"start":6,"action_noise":0.1,"location_history":"[6,5,2,1,0,3,7,6,5,2,1,0,3,4]","action_history":"[1,1,0,0,1,0,0,1,1,0,0,1,1]","door_history":"[0,0,1,1,0,1,1,0,0,1,1,0,0]","location_rts":"[1171,469,982,603,1601,873,879,892,1051,967,604,865,474]","trial_type":"two-door-navigation","trial_index":29,"time_elapsed":683664,"internal_node_id":"0.0-2.0-27.0"},{"group":"tri cycles (cube, non-group)","room_assignment":["yellow","pink","brown","green","purple","grey","red","blue"],"door_color_assignment":["white","black"],"door_generator_assignment":[1,0],"goal":2,"start":4,"action_noise":0.1,"location_history":"[4,7,6,4,0,3,4,0,2]","action_history":"[0,0,0,1,1,1,1,0]","door_history":"[1,1,1,0,0,0,0,1]","location_rts":"[1553,418,461,1203,443,544,478,1123]","trial_type":"two-door-navigation","trial_index":30,"time_elapsed":701588,"internal_node_id":"0.0-2.0-28.0"},{"group":"tri cycles (cube, non-group)","room_assignment":["yellow","pink","brown","green","purple","grey","red","blue"],"door_color_assignment":["white","black"],"door_generator_assignment":[1,0],"goal":3,"start":2,"action_noise":0.1,"location_history":"[2,1,0,3]","action_history":"[0,0,0]","door_history":"[1,1,1]","location_rts":"[634,1105,777]","trial_type":"two-door-navigation","trial_index":31,"time_elapsed":710691,"internal_node_id":"0.0-2.0-29.0"},{"group":"tri cycles (cube, non-group)","room_assignment":["yellow","pink","brown","green","purple","grey","red","blue"],"door_color_assignment":["white","black"],"door_generator_assignment":[1,0],"goal":1,"start":3,"action_noise":0.1,"location_history":"[3,4,0,2,6,4,7,6,4,0,3,4,7,6,4,0,2,6,5,2,6,5,1]","action_history":"[1,1,1,1,0,0,0,0,1,1,1,0,0,0,1,0,1,1,1,1,1,0]","door_history":"[0,0,0,0,1,1,1,1,0,0,0,1,1,1,0,1,0,0,0,0,0,1]","location_rts":"[1723,400,412,1447,3002,535,342,381,519,1270,860,2919,388,457,1245,2028,553,468,361,672,353,846]","trial_type":"two-door-navigation","trial_index":32,"time_elapsed":757913,"internal_node_id":"0.0-2.0-30.0"},{"group":"tri cycles (cube, non-group)","room_assignment":["yellow","pink","brown","green","purple","grey","red","blue"],"door_color_assignment":["white","black"],"door_generator_assignment":[1,0],"goal":4,"start":1,"action_noise":0.1,"location_history":"[1,5,2,6,5,2,6,4]","action_history":"[1,1,1,1,1,1,0]","door_history":"[0,0,0,0,0,0,1]","location_rts":"[6019,611,3047,378,823,581,1411]","trial_type":"two-door-navigation","trial_index":33,"time_elapsed":781443,"internal_node_id":"0.0-2.0-31.0"},{"group":"tri cycles (cube, non-group)","room_assignment":["yellow","pink","brown","green","purple","grey","red","blue"],"door_color_assignment":["white","black"],"door_generator_assignment":[1,0],"goal":3,"start":4,"action_noise":0.1,"location_history":"[4,0,3]","action_history":"[1,1]","door_history":"[0,0]","location_rts":"[5621,419]","trial_type":"two-door-navigation","trial_index":34,"time_elapsed":793029,"internal_node_id":"0.0-2.0-32.0"},{"group":"tri cycles (cube, non-group)","room_assignment":["yellow","pink","brown","green","purple","grey","red","blue"],"door_color_assignment":["white","black"],"door_generator_assignment":[1,0],"goal":6,"start":3,"action_noise":0.1,"location_history":"[3,4,0,2,1,0,3,4,0,3,7,6]","action_history":"[1,1,0,0,0,1,1,1,1,0,0]","door_history":"[0,0,1,1,1,0,0,0,0,1,1]","location_rts":"[3816,399,895,551,694,1111,512,423,811,765,493]","trial_type":"two-door-navigation","trial_index":35,"time_elapsed":818264,"internal_node_id":"0.0-2.0-33.0"},{"group":"tri cycles (cube, non-group)","room_assignment":["yellow","pink","brown","green","purple","grey","red","blue"],"door_color_assignment":["white","black"],"door_generator_assignment":[1,0],"goal":0,"start":6,"action_noise":0.1,"location_history":"[6,4,7,6,4,0]","action_history":"[0,0,0,0,1]","door_history":"[1,1,1,1,0]","location_rts":"[2378,14710,1486,726,667]","trial_type":"two-door-navigation","trial_index":36,"time_elapsed":846845,"internal_node_id":"0.0-2.0-34.0"},{"group":"tri cycles (cube, non-group)","room_assignment":["yellow","pink","brown","green","purple","grey","red","blue"],"door_color_assignment":["white","black"],"door_generator_assignment":[1,0],"goal":1,"start":0,"action_noise":0.1,"location_history":"[0,2,6,5,1]","action_history":"[1,1,1,0]","door_history":"[0,0,0,1]","location_rts":"[5678,510,402,1081]","trial_type":"two-door-navigation","trial_index":37,"time_elapsed":862115,"internal_node_id":"0.0-2.0-35.0"},{"group":"tri cycles (cube, non-group)","room_assignment":["yellow","pink","brown","green","purple","grey","red","blue"],"door_color_assignment":["white","black"],"door_generator_assignment":[1,0],"goal":5,"start":1,"action_noise":0.1,"location_history":"[1,0,3,4,0,3,4,0,3,4,0,2,1,0,2,1,5]","action_history":"[1,1,1,1,1,1,1,1,1,1,0,0,0,0,0,1]","door_history":"[0,0,0,0,0,0,0,0,0,0,1,1,1,1,1,0]","location_rts":"[1945,376,231,401,338,388,393,404,425,427,1105,396,1046,647,349,897]","trial_type":"two-door-navigation","trial_index":38,"time_elapsed":891747,"internal_node_id":"0.0-2.0-36.0"},{"group":"tri cycles (cube, non-group)","room_assignment":["yellow","pink","brown","green","purple","grey","red","blue"],"door_color_assignment":["white","black"],"door_generator_assignment":[1,0],"goal":7,"start":5,"action_noise":0.1,"location_history":"[5,1,0,2,6,5,2,6,4,7]","action_history":"[0,0,0,1,1,1,1,0,0]","door_history":"[1,1,1,0,0,0,0,1,1]","location_rts":"[3022,13306,360,434,368,441,499,355,690]","trial_type":"two-door-navigation","trial_index":39,"time_elapsed":923941,"internal_node_id":"0.0-2.0-37.0"},{"group":"tri cycles (cube, non-group)","room_assignment":["yellow","pink","brown","green","purple","grey","red","blue"],"door_color_assignment":["white","black"],"door_generator_assignment":[1,0],"goal":2,"start":7,"action_noise":0.1,"location_history":"[7,6,4,0,3,4,0,2]","action_history":"[0,0,1,1,1,1,0]","door_history":"[1,1,0,0,0,0,1]","location_rts":"[935,494,503,308,957,1213,2041]","trial_type":"two-door-navigation","trial_index":40,"time_elapsed":941047,"internal_node_id":"0.0-2.0-38.0"},{"group":"tri cycles (cube, non-group)","room_assignment":["yellow","pink","brown","green","purple","grey","red","blue"],"door_color_assignment":["white","black"],"door_generator_assignment":[1,0],"goal":1,"start":2,"action_noise":0.1,"location_history":"[2,1]","action_history":"[0]","door_history":"[1]","location_rts":"[1614]","trial_type":"two-door-navigation","trial_index":41,"time_elapsed":947190,"internal_node_id":"0.0-2.0-39.0"},{"group":"tri cycles (cube, non-group)","room_assignment":["yellow","pink","brown","green","purple","grey","red","blue"],"door_color_assignment":["white","black"],"door_generator_assignment":[1,0],"goal":3,"start":1,"action_noise":0.1,"location_history":"[1,5,2,1,0,3]","action_history":"[1,1,0,0,1]","door_history":"[0,0,1,1,0]","location_rts":"[1385,746,2273,1092,1887]","trial_type":"two-door-navigation","trial_index":42,"time_elapsed":963188,"internal_node_id":"0.0-2.0-40.0"},{"group":"tri cycles (cube, non-group)","room_assignment":["yellow","pink","brown","green","purple","grey","red","blue"],"door_color_assignment":["white","black"],"door_generator_assignment":[1,0],"goal":4,"start":3,"action_noise":0.1,"location_history":"[3,7,3,4]","action_history":"[0,1,1]","door_history":"[1,0,0]","location_rts":"[567,1873,534]","trial_type":"two-door-navigation","trial_index":43,"time_elapsed":972739,"internal_node_id":"0.0-2.0-41.0"},{"group":"tri cycles (cube, non-group)","room_assignment":["yellow","pink","brown","green","purple","grey","red","blue"],"door_color_assignment":["white","black"],"door_generator_assignment":[1,0],"goal":2,"start":4,"action_noise":0.1,"location_history":"[4,7,3,4,7,6,4,0,3,4,0,3,7,3,4,0,2]","action_history":"[0,1,1,0,0,0,1,1,1,1,0,0,1,1,1,0]","door_history":"[1,0,0,1,1,1,0,0,0,0,1,1,0,0,0,1]","location_rts":"[2975,1941,5282,754,7194,1247,3313,3705,1183,739,1083,847,7305,800,568,1042]","trial_type":"two-door-navigation","trial_index":44,"time_elapsed":1032576,"internal_node_id":"0.0-2.0-42.0"},{"group":"tri cycles (cube, non-group)","room_assignment":["yellow","pink","brown","green","purple","grey","red","blue"],"door_color_assignment":["white","black"],"door_generator_assignment":[1,0],"goal":5,"start":2,"action_noise":0.1,"location_history":"[2,1,5]","action_history":"[0,1]","door_history":"[1,0]","location_rts":"[1501,1030]","trial_type":"two-door-navigation","trial_index":45,"time_elapsed":1040651,"internal_node_id":"0.0-2.0-43.0"},{"group":"tri cycles (cube, non-group)","room_assignment":["yellow","pink","brown","green","purple","grey","red","blue"],"door_color_assignment":["white","black"],"door_generator_assignment":[1,0],"goal":0,"start":5,"action_noise":0.1,"location_history":"[5,2,6,5,2,1,0]","action_history":"[1,1,1,1,0,0]","door_history":"[0,0,0,0,1,1]","location_rts":"[1020,1120,371,400,604,824]","trial_type":"two-door-navigation","trial_index":46,"time_elapsed":1054636,"internal_node_id":"0.0-2.0-44.0"},{"group":"tri cycles (cube, non-group)","room_assignment":["yellow","pink","brown","green","purple","grey","red","blue"],"door_color_assignment":["white","black"],"door_generator_assignment":[1,0],"goal":7,"start":0,"action_noise":0.1,"location_history":"[0,2,6,5,2,1,0,2,1,0,3,4,0,2,1,5,2,1,5,2,1,0,3,4,7]","action_history":"[0,1,1,1,0,0,0,0,0,1,1,1,0,0,1,1,1,1,1,0,0,1,0,0]","door_history":"[1,0,0,0,1,1,1,1,1,0,0,0,1,1,0,0,0,0,0,1,1,0,1,1]","location_rts":"[3646,1470,625,575,253,431,1082,651,772,552,1122,765,1152,612,350,382,386,471,457,1197,517,1852,961,674]","trial_type":"two-door-navigation","trial_index":47,"time_elapsed":1103661,"internal_node_id":"0.0-2.0-45.0"},{"group":"tri cycles (cube, non-group)","room_assignment":["yellow","pink","brown","green","purple","grey","red","blue"],"door_color_assignment":["white","black"],"door_generator_assignment":[1,0],"goal":6,"start":7,"action_noise":0.1,"location_history":"[7,3,4,0,3,7,6]","action_history":"[1,1,1,1,0,0]","door_history":"[0,0,0,0,1,1]","location_rts":"[1042,459,386,674,460,479]","trial_type":"two-door-navigation","trial_index":48,"time_elapsed":1116800,"internal_node_id":"0.0-2.0-46.0"},{"group":"tri cycles (cube, non-group)","room_assignment":["yellow","pink","brown","green","purple","grey","red","blue"],"door_color_assignment":["white","black"],"door_generator_assignment":[1,0],"goal":2,"start":6,"action_noise":0.1,"location_history":"[6,4,7,3,7,3,4,7,6,4,7,3,4,0,2]","action_history":"[0,0,1,1,1,1,0,0,0,0,1,1,1,0]","door_history":"[1,1,0,0,0,0,1,1,1,1,0,0,0,1]","location_rts":"[1111,493,891,690,827,697,443,510,765,552,307,840,443,929]","trial_type":"two-door-navigation","trial_index":49,"time_elapsed":1144129,"internal_node_id":"0.0-2.0-47.0"},{"group":"tri cycles (cube, non-group)","room_assignment":["yellow","pink","brown","green","purple","grey","red","blue"],"door_color_assignment":["white","black"],"door_generator_assignment":[1,0],"goal":5,"start":2,"action_noise":0.1,"location_history":"[2,6,5]","action_history":"[1,1]","door_history":"[0,0]","location_rts":"[1310,542]","trial_type":"two-door-navigation","trial_index":50,"time_elapsed":1151527,"internal_node_id":"0.0-2.0-48.0"},{"group":"tri cycles (cube, non-group)","room_assignment":["yellow","pink","brown","green","purple","grey","red","blue"],"door_color_assignment":["white","black"],"door_generator_assignment":[1,0],"goal":3,"start":5,"action_noise":0.1,"location_history":"[5,1,5,2,6,5,2,6,4,7,6,4,7,3]","action_history":"[0,0,1,1,1,1,1,0,0,0,0,0,1]","door_history":"[1,1,0,0,0,0,0,1,1,1,1,1,0]","location_rts":"[1228,1320,1142,943,568,444,435,618,543,502,421,536,1489]","trial_type":"two-door-navigation","trial_index":51,"time_elapsed":1178545,"internal_node_id":"0.0-2.0-49.0"},{"view_history":"[{\"page_index\":0,\"viewing_time\":3004}]","rt":3004,"trial_type":"instructions","trial_index":52,"time_elapsed":1182550,"internal_node_id":"0.0-3.0"},{"view_history":"[{\"page_index\":0,\"viewing_time\":2677},{\"page_index\":1,\"viewing_time\":2426}]","rt":5104,"trial_type":"instructions","trial_index":53,"time_elapsed":1188660,"internal_node_id":"0.0-4.0"},{"group":"square cycles (cube, non-group)","fractal_assignment":["../images/grn_red.png","../images/ylw_slt.png","../images/org_blu.png","../images/gry_blk.png","../images/pnk_blu.png","../images/blu_wht.png","../images/ylw_pnk.png","../images/cyn_red.png"],"mutagen_generator_assignment":[1,0],"goal":5,"start":7,"action_noise":0.1,"location_history":"[7,6,5]","action_history":"[0,0]","mutagen_history":"[1,1]","location_rts":"[3711,445]","trial_type":"fractal-mutation","trial_index":54,"time_elapsed":1198426,"internal_node_id":"0.0-5.0-0.0"},{"group":"square cycles (cube, non-group)","fractal_assignment":["../images/grn_red.png","../images/ylw_slt.png","../images/org_blu.png","../images/gry_blk.png","../images/pnk_blu.png","../images/blu_wht.png","../images/ylw_pnk.png","../images/cyn_red.png"],"mutagen_generator_assignment":[1,0],"goal":2,"start":5,"action_noise":0.1,"location_history":"[5,1,0,4,5,1,2]","action_history":"[1,1,1,1,1,0]","mutagen_history":"[0,0,0,0,0,1]","location_rts":"[920,754,497,532,774,389]","trial_type":"fractal-mutation","trial_index":55,"time_elapsed":1212228,"internal_node_id":"0.0-5.0-1.0"},{"group":"square cycles (cube, non-group)","fractal_assignment":["../images/grn_red.png","../images/ylw_slt.png","../images/org_blu.png","../images/gry_blk.png","../images/pnk_blu.png","../images/blu_wht.png","../images/ylw_pnk.png","../images/cyn_red.png"],"mutagen_generator_assignment":[1,0],"goal":0,"start":2,"action_noise":0.1,"location_history":"[2,6,5,1,0]","action_history":"[0,0,1,1]","mutagen_history":"[1,1,0,0]","location_rts":"[499,695,744,584]","trial_type":"fractal-mutation","trial_index":56,"time_elapsed":1222458,"internal_node_id":"0.0-5.0-2.0"},{"group":"square cycles (cube, non-group)","fractal_assignment":["../images/grn_red.png","../images/ylw_slt.png","../images/org_blu.png","../images/gry_blk.png","../images/pnk_blu.png","../images/blu_wht.png","../images/ylw_pnk.png","../images/cyn_red.png"],"mutagen_generator_assignment":[1,0],"goal":1,"start":0,"action_noise":0.1,"location_history":"[0,4,7,6,5,4,7,3,2,6,5,4,7,3,2,3,0,1]","action_history":"[1,0,0,0,0,1,1,1,1,0,0,0,1,1,0,0,0]","mutagen_history":"[0,1,1,1,1,0,0,0,0,1,1,1,0,0,1,1,1]","location_rts":"[1335,1018,2781,1883,528,616,770,611,394,617,538,415,691,640,396,568,743]","trial_type":"fractal-mutation","trial_index":57,"time_elapsed":1258427,"internal_node_id":"0.0-5.0-3.0"},{"group":"square cycles (cube, non-group)","fractal_assignment":["../images/grn_red.png","../images/ylw_slt.png","../images/org_blu.png","../images/gry_blk.png","../images/pnk_blu.png","../images/blu_wht.png","../images/ylw_pnk.png","../images/cyn_red.png"],"mutagen_generator_assignment":[1,0],"goal":6,"start":1,"action_noise":0.1,"location_history":"[1,2,3,0,1,2,3,0,1,2,6]","action_history":"[0,1,0,0,0,0,0,0,0,1]","mutagen_history":"[1,0,1,1,1,1,1,1,1,0]","location_rts":"[893,837,838,305,430,572,751,396,858,1910]","trial_type":"fractal-mutation","trial_index":58,"time_elapsed":1280256,"internal_node_id":"0.0-5.0-4.0"},{"group":"square cycles (cube, non-group)","fractal_assignment":["../images/grn_red.png","../images/ylw_slt.png","../images/org_blu.png","../images/gry_blk.png","../images/pnk_blu.png","../images/blu_wht.png","../images/ylw_pnk.png","../images/cyn_red.png"],"mutagen_generator_assignment":[1,0],"goal":3,"start":6,"action_noise":0.1,"location_history":"[6,7,3]","action_history":"[1,1]","mutagen_history":"[0,0]","location_rts":"[840,697]","trial_type":"fractal-mutation","trial_index":59,"time_elapsed":1287394,"internal_node_id":"0.0-5.0-5.0"},{"group":"square cycles (cube, non-group)","fractal_assignment":["../images/grn_red.png","../images/ylw_slt.png","../images/org_blu.png","../images/gry_blk.png","../images/pnk_blu.png","../images/blu_wht.png","../images/ylw_pnk.png","../images/cyn_red.png"],"mutagen_generator_assignment":[1,0],"goal":4,"start":3,"action_noise":0.1,"location_history":"[3,0,1,0,1,2,3,2,6,7,3,0,1,0,4]","action_history":"[0,0,1,0,0,0,1,1,1,1,0,0,0,1]","mutagen_history":"[1,1,0,1,1,1,0,0,0,0,1,1,1,0]","location_rts":"[671,459,442,755,599,805,698,677,797,731,1200,418,610,662]","trial_type":"fractal-mutation","trial_index":60,"time_elapsed":1315053,"internal_node_id":"0.0-5.0-6.0"},{"group":"square cycles (cube, non-group)","fractal_assignment":["../images/grn_red.png","../images/ylw_slt.png","../images/org_blu.png","../images/gry_blk.png","../images/pnk_blu.png","../images/blu_wht.png","../images/ylw_pnk.png","../images/cyn_red.png"],"mutagen_generator_assignment":[1,0],"goal":1,"start":4,"action_noise":0.1,"location_history":"[4,5,4,5,4,7,6,5,4,7,6,7,3,2,3,2,6,7,3,2,3,0,1]","action_history":"[1,1,1,0,0,0,0,0,0,0,1,1,1,0,1,1,1,1,1,0,0,0]","mutagen_history":"[0,0,0,1,1,1,1,1,1,1,0,0,0,1,0,0,0,0,0,1,1,1]","location_rts":"[1218,658,397,369,1148,765,637,563,663,421,371,573,536,475,691,392,332,433,469,788,505,402]","trial_type":"fractal-mutation","trial_index":61,"time_elapsed":1354353,"internal_node_id":"0.0-5.0-7.0"},{"group":"square cycles (cube, non-group)","fractal_assignment":["../images/grn_red.png","../images/ylw_slt.png","../images/org_blu.png","../images/gry_blk.png","../images/pnk_blu.png","../images/blu_wht.png","../images/ylw_pnk.png","../images/cyn_red.png"],"mutagen_generator_assignment":[1,0],"goal":4,"start":1,"action_noise":0.1,"location_history":"[1,2,3,2,3,2,6,7,6,7,3,2,6,7,3,0,1,2,3,2,6,5,1,2,3,2,3,0,1,0,1,2,3,2,3,0,4]","action_history":"[0,0,0,0,1,1,1,1,1,1,1,1,1,0,0,0,0,1,1,1,0,0,0,0,1,0,0,0,1,0,0,0,0,0,1,1]","mutagen_history":"[1,1,1,1,0,0,0,0,0,0,0,0,0,1,1,1,1,0,0,0,1,1,1,1,0,1,1,1,0,1,1,1,1,1,0,0]","location_rts":"[446,349,1037,465,377,536,386,610,470,756,696,807,744,512,429,490,494,440,462,679,750,585,444,434,357,779,552,624,1204,632,749,423,492,524,366,441]","trial_type":"fractal-mutation","trial_index":62,"time_elapsed":1416034,"internal_node_id":"0.0-5.0-8.0"},{"group":"square cycles (cube, non-group)","fractal_assignment":["../images/grn_red.png","../images/ylw_slt.png","../images/org_blu.png","../images/gry_blk.png","../images/pnk_blu.png","../images/blu_wht.png","../images/ylw_pnk.png","../images/cyn_red.png"],"mutagen_generator_assignment":[1,0],"goal":5,"start":4,"action_noise":0.1,"location_history":"[4,7,6,7,3,2,6,7,6,5]","action_history":"[0,0,1,1,1,1,1,0,0]","mutagen_history":"[1,1,0,0,0,0,0,1,1]","location_rts":"[379,383,516,342,348,530,344,511,355]","trial_type":"fractal-mutation","trial_index":63,"time_elapsed":1432661,"internal_node_id":"0.0-5.0-9.0"},{"group":"square cycles (cube, non-group)","fractal_assignment":["../images/grn_red.png","../images/ylw_slt.png","../images/org_blu.png","../images/gry_blk.png","../images/pnk_blu.png","../images/blu_wht.png","../images/ylw_pnk.png","../images/cyn_red.png"],"mutagen_generator_assignment":[1,0],"goal":3,"start":5,"action_noise":0.1,"location_history":"[5,4,7,6,7,3]","action_history":"[0,0,0,1,1]","mutagen_history":"[1,1,1,0,0]","location_rts":"[624,381,431,341,551]","trial_type":"fractal-mutation","trial_index":64,"time_elapsed":1443731,"internal_node_id":"0.0-5.0-10.0"},{"group":"square cycles (cube, non-group)","fractal_assignment":["../images/grn_red.png","../images/ylw_slt.png","../images/org_blu.png","../images/gry_blk.png","../images/pnk_blu.png","../images/blu_wht.png","../images/ylw_pnk.png","../images/cyn_red.png"],"mutagen_generator_assignment":[1,0],"goal":6,"start":3,"action_noise":0.1,"location_history":"[3,2,3,2,3,0,1,0,4,5,1,2,6]","action_history":"[1,1,1,0,0,0,1,1,1,1,0,0]","mutagen_history":"[0,0,0,1,1,1,0,0,0,0,1,1]","location_rts":"[577,783,464,641,569,570,603,464,437,446,595,451]","trial_type":"fractal-mutation","trial_index":65,"time_elapsed":1466342,"internal_node_id":"0.0-5.0-11.0"},{"group":"square cycles (cube, non-group)","fractal_assignment":["../images/grn_red.png","../images/ylw_slt.png","../images/org_blu.png","../images/gry_blk.png","../images/pnk_blu.png","../images/blu_wht.png","../images/ylw_pnk.png","../images/cyn_red.png"],"mutagen_generator_assignment":[1,0],"goal":7,"start":6,"action_noise":0.1,"location_history":"[6,7]","action_history":"[1]","mutagen_history":"[0]","location_rts":"[2993]","trial_type":"fractal-mutation","trial_index":66,"time_elapsed":1473866,"internal_node_id":"0.0-5.0-12.0"},{"group":"square cycles (cube, non-group)","fractal_assignment":["../images/grn_red.png","../images/ylw_slt.png","../images/org_blu.png","../images/gry_blk.png","../images/pnk_blu.png","../images/blu_wht.png","../images/ylw_pnk.png","../images/cyn_red.png"],"mutagen_generator_assignment":[1,0],"goal":0,"start":7,"action_noise":0.1,"location_history":"[7,6,5,1,0]","action_history":"[0,0,0,1]","mutagen_history":"[1,1,1,0]","location_rts":"[1962,458,484,5036]","trial_type":"fractal-mutation","trial_index":67,"time_elapsed":1489495,"internal_node_id":"0.0-5.0-13.0"},{"group":"square cycles (cube, non-group)","fractal_assignment":["../images/grn_red.png","../images/ylw_slt.png","../images/org_blu.png","../images/gry_blk.png","../images/pnk_blu.png","../images/blu_wht.png","../images/ylw_pnk.png","../images/cyn_red.png"],"mutagen_generator_assignment":[1,0],"goal":2,"start":0,"action_noise":0.1,"location_history":"[0,4,5,1,2]","action_history":"[1,1,1,0]","mutagen_history":"[0,0,0,1]","location_rts":"[506,356,441,408]","trial_type":"fractal-mutation","trial_index":68,"time_elapsed":1498916,"internal_node_id":"0.0-5.0-14.0"},{"group":"square cycles (cube, non-group)","fractal_assignment":["../images/grn_red.png","../images/ylw_slt.png","../images/org_blu.png","../images/gry_blk.png","../images/pnk_blu.png","../images/blu_wht.png","../images/ylw_pnk.png","../images/cyn_red.png"],"mutagen_generator_assignment":[1,0],"goal":1,"start":2,"action_noise":0.1,"location_history":"[2,6,7,3,0,1]","action_history":"[1,1,1,0,0]","mutagen_history":"[0,0,0,1,1]","location_rts":"[2313,461,574,427,420]","trial_type":"fractal-mutation","trial_index":69,"time_elapsed":1511842,"internal_node_id":"0.0-5.0-15.0"},{"group":"square cycles (cube, non-group)","fractal_assignment":["../images/grn_red.png","../images/ylw_slt.png","../images/org_blu.png","../images/gry_blk.png","../images/pnk_blu.png","../images/blu_wht.png","../images/ylw_pnk.png","../images/cyn_red.png"],"mutagen_generator_assignment":[1,0],"goal":6,"start":1,"action_noise":0.1,"location_history":"[1,2,6]","action_history":"[0,1]","mutagen_history":"[1,0]","location_rts":"[731,761]","trial_type":"fractal-mutation","trial_index":70,"time_elapsed":1518918,"internal_node_id":"0.0-5.0-16.0"},{"group":"square cycles (cube, non-group)","fractal_assignment":["../images/grn_red.png","../images/ylw_slt.png","../images/org_blu.png","../images/gry_blk.png","../images/pnk_blu.png","../images/blu_wht.png","../images/ylw_pnk.png","../images/cyn_red.png"],"mutagen_generator_assignment":[1,0],"goal":3,"start":6,"action_noise":0.1,"location_history":"[6,5,4,7,3]","action_history":"[0,0,0,1]","mutagen_history":"[1,1,1,0]","location_rts":"[457,531,566,426]","trial_type":"fractal-mutation","trial_index":71,"time_elapsed":1528601,"internal_node_id":"0.0-5.0-17.0"},{"group":"square cycles (cube, non-group)","fractal_assignment":["../images/grn_red.png","../images/ylw_slt.png","../images/org_blu.png","../images/gry_blk.png","../images/pnk_blu.png","../images/blu_wht.png","../images/ylw_pnk.png","../images/cyn_red.png"],"mutagen_generator_assignment":[1,0],"goal":4,"start":3,"action_noise":0.1,"location_history":"[3,0,1,2,6,7,6,5,4]","action_history":"[0,0,0,1,1,1,0,0]","mutagen_history":"[1,1,1,0,0,0,1,1]","location_rts":"[499,374,492,658,329,1761,497,1679]","trial_type":"fractal-mutation","trial_index":72,"time_elapsed":1546763,"internal_node_id":"0.0-5.0-18.0"},{"group":"square cycles (cube, non-group)","fractal_assignment":["../images/grn_red.png","../images/ylw_slt.png","../images/org_blu.png","../images/gry_blk.png","../images/pnk_blu.png","../images/blu_wht.png","../images/ylw_pnk.png","../images/cyn_red.png"],"mutagen_generator_assignment":[1,0],"goal":5,"start":4,"action_noise":0.1,"location_history":"[4,5]","action_history":"[1]","mutagen_history":"[0]","location_rts":"[2162]","trial_type":"fractal-mutation","trial_index":73,"time_elapsed":1553456,"internal_node_id":"0.0-5.0-19.0"},{"group":"square cycles (cube, non-group)","fractal_assignment":["../images/grn_red.png","../images/ylw_slt.png","../images/org_blu.png","../images/gry_blk.png","../images/pnk_blu.png","../images/blu_wht.png","../images/ylw_pnk.png","../images/cyn_red.png"],"mutagen_generator_assignment":[1,0],"goal":7,"start":5,"action_noise":0.1,"location_history":"[5,4,5,4,7]","action_history":"[0,1,0,0]","mutagen_history":"[1,0,1,1]","location_rts":"[156,780,913,880]","trial_type":"fractal-mutation","trial_index":74,"time_elapsed":1563859,"internal_node_id":"0.0-5.0-20.0"},{"group":"square cycles (cube, non-group)","fractal_assignment":["../images/grn_red.png","../images/ylw_slt.png","../images/org_blu.png","../images/gry_blk.png","../images/pnk_blu.png","../images/blu_wht.png","../images/ylw_pnk.png","../images/cyn_red.png"],"mutagen_generator_assignment":[1,0],"goal":2,"start":7,"action_noise":0.1,"location_history":"[7,3,0,4,7,3,2]","action_history":"[0,0,0,1,1,1]","mutagen_history":"[1,1,1,0,0,0]","location_rts":"[575,635,729,557,459,666]","trial_type":"fractal-mutation","trial_index":75,"time_elapsed":1577254,"internal_node_id":"0.0-5.0-21.0"},{"group":"square cycles (cube, non-group)","fractal_assignment":["../images/grn_red.png","../images/ylw_slt.png","../images/org_blu.png","../images/gry_blk.png","../images/pnk_blu.png","../images/blu_wht.png","../images/ylw_pnk.png","../images/cyn_red.png"],"mutagen_generator_assignment":[1,0],"goal":0,"start":2,"action_noise":0.1,"location_history":"[2,6,5,1,0]","action_history":"[0,0,0,0]","mutagen_history":"[1,1,1,1]","location_rts":"[2096,1513,1251,534]","trial_type":"fractal-mutation","trial_index":76,"time_elapsed":1590369,"internal_node_id":"0.0-5.0-22.0"},{"group":"square cycles (cube, non-group)","fractal_assignment":["../images/grn_red.png","../images/ylw_slt.png","../images/org_blu.png","../images/gry_blk.png","../images/pnk_blu.png","../images/blu_wht.png","../images/ylw_pnk.png","../images/cyn_red.png"],"mutagen_generator_assignment":[1,0],"goal":7,"start":0,"action_noise":0.1,"location_history":"[0,4,5,1,2,3,0,1,0,4,5,4,7]","action_history":"[1,1,1,1,0,0,0,1,1,1,0,0]","mutagen_history":"[0,0,0,0,1,1,1,0,0,0,1,1]","location_rts":"[292,413,704,714,409,403,423,397,635,1337,591,435]","trial_type":"fractal-mutation","trial_index":77,"time_elapsed":1613144,"internal_node_id":"0.0-5.0-23.0"},{"group":"square cycles (cube, non-group)","fractal_assignment":["../images/grn_red.png","../images/ylw_slt.png","../images/org_blu.png","../images/gry_blk.png","../images/pnk_blu.png","../images/blu_wht.png","../images/ylw_pnk.png","../images/cyn_red.png"],"mutagen_generator_assignment":[1,0],"goal":5,"start":7,"action_noise":0.1,"location_history":"[7,6,5]","action_history":"[1,0]","mutagen_history":"[0,1]","location_rts":"[667,348]","trial_type":"fractal-mutation","trial_index":78,"time_elapsed":1619763,"internal_node_id":"0.0-5.0-24.0"},{"group":"square cycles (cube, non-group)","fractal_assignment":["../images/grn_red.png","../images/ylw_slt.png","../images/org_blu.png","../images/gry_blk.png","../images/pnk_blu.png","../images/blu_wht.png","../images/ylw_pnk.png","../images/cyn_red.png"],"mutagen_generator_assignment":[1,0],"goal":0,"start":5,"action_noise":0.1,"location_history":"[5,1,2,6,7,3,0]","action_history":"[1,1,1,0,0,0]","mutagen_history":"[0,0,0,1,1,1]","location_rts":"[494,1597,1551,500,554,1316]","trial_type":"fractal-mutation","trial_index":79,"time_elapsed":1635560,"internal_node_id":"0.0-5.0-25.0"},{"group":"square cycles (cube, non-group)","fractal_assignment":["../images/grn_red.png","../images/ylw_slt.png","../images/org_blu.png","../images/gry_blk.png","../images/pnk_blu.png","../images/blu_wht.png","../images/ylw_pnk.png","../images/cyn_red.png"],"mutagen_generator_assignment":[1,0],"goal":6,"start":0,"action_noise":0.1,"location_history":"[0,4,5,4,7,6]","action_history":"[1,1,0,0,0]","mutagen_history":"[0,0,1,1,1]","location_rts":"[2215,660,775,665,565]","trial_type":"fractal-mutation","trial_index":80,"time_elapsed":1649168,"internal_node_id":"0.0-5.0-26.0"},{"group":"square cycles (cube, non-group)","fractal_assignment":["../images/grn_red.png","../images/ylw_slt.png","../images/org_blu.png","../images/gry_blk.png","../images/pnk_blu.png","../images/blu_wht.png","../images/ylw_pnk.png","../images/cyn_red.png"],"mutagen_generator_assignment":[1,0],"goal":4,"start":6,"action_noise":0.1,"location_history":"[6,5,4]","action_history":"[0,0]","mutagen_history":"[1,1]","location_rts":"[876,566]","trial_type":"fractal-mutation","trial_index":81,"time_elapsed":1656222,"internal_node_id":"0.0-5.0-27.0"},{"group":"square cycles (cube, non-group)","fractal_assignment":["../images/grn_red.png","../images/ylw_slt.png","../images/org_blu.png","../images/gry_blk.png","../images/pnk_blu.png","../images/blu_wht.png","../images/ylw_pnk.png","../images/cyn_red.png"],"mutagen_generator_assignment":[1,0],"goal":2,"start":4,"action_noise":0.1,"location_history":"[4,5,1,0,1,2]","action_history":"[1,1,0,0,0]","mutagen_history":"[0,0,1,1,1]","location_rts":"[973,363,383,597,776]","trial_type":"fractal-mutation","trial_index":82,"time_elapsed":1668014,"internal_node_id":"0.0-5.0-28.0"},{"group":"square cycles (cube, non-group)","fractal_assignment":["../images/grn_red.png","../images/ylw_slt.png","../images/org_blu.png","../images/gry_blk.png","../images/pnk_blu.png","../images/blu_wht.png","../images/ylw_pnk.png","../images/cyn_red.png"],"mutagen_generator_assignment":[1,0],"goal":3,"start":2,"action_noise":0.1,"location_history":"[2,6,7,3]","action_history":"[1,1,0]","mutagen_history":"[0,0,1]","location_rts":"[1516,698,376]","trial_type":"fractal-mutation","trial_index":83,"time_elapsed":1677227,"internal_node_id":"0.0-5.0-29.0"},{"group":"square cycles (cube, non-group)","fractal_assignment":["../images/grn_red.png","../images/ylw_slt.png","../images/org_blu.png","../images/gry_blk.png","../images/pnk_blu.png","../images/blu_wht.png","../images/ylw_pnk.png","../images/cyn_red.png"],"mutagen_generator_assignment":[1,0],"goal":1,"start":3,"action_noise":0.1,"location_history":"[3,0,4,7,6,7,6,7,6,7,3,2,3,0,1]","action_history":"[0,1,0,0,0,1,1,0,1,1,1,0,0,0]","mutagen_history":"[1,0,1,1,1,0,0,1,0,0,0,1,1,1]","location_rts":"[1088,555,630,333,627,596,644,480,540,570,666,498,581,447]","trial_type":"fractal-mutation","trial_index":84,"time_elapsed":1703612,"internal_node_id":"0.0-5.0-30.0"},{"group":"square cycles (cube, non-group)","fractal_assignment":["../images/grn_red.png","../images/ylw_slt.png","../images/org_blu.png","../images/gry_blk.png","../images/pnk_blu.png","../images/blu_wht.png","../images/ylw_pnk.png","../images/cyn_red.png"],"mutagen_generator_assignment":[1,0],"goal":4,"start":1,"action_noise":0.1,"location_history":"[1,0,1,2,3,2,6,5,4]","action_history":"[1,0,0,0,1,1,0,0]","mutagen_history":"[0,1,1,1,0,0,1,1]","location_rts":"[3283,478,1045,491,472,745,1161,598]","trial_type":"fractal-mutation","trial_index":85,"time_elapsed":1723731,"internal_node_id":"0.0-5.0-31.0"},{"group":"square cycles (cube, non-group)","fractal_assignment":["../images/grn_red.png","../images/ylw_slt.png","../images/org_blu.png","../images/gry_blk.png","../images/pnk_blu.png","../images/blu_wht.png","../images/ylw_pnk.png","../images/cyn_red.png"],"mutagen_generator_assignment":[1,0],"goal":3,"start":4,"action_noise":0.1,"location_history":"[4,5,1,0,1,2,6,7,3]","action_history":"[1,1,1,0,0,1,1,1]","mutagen_history":"[0,0,0,1,1,0,0,0]","location_rts":"[1393,818,508,422,579,689,748,704]","trial_type":"fractal-mutation","trial_index":86,"time_elapsed":1741499,"internal_node_id":"0.0-5.0-32.0"},{"group":"square cycles (cube, non-group)","fractal_assignment":["../images/grn_red.png","../images/ylw_slt.png","../images/org_blu.png","../images/gry_blk.png","../images/pnk_blu.png","../images/blu_wht.png","../images/ylw_pnk.png","../images/cyn_red.png"],"mutagen_generator_assignment":[1,0],"goal":6,"start":3,"action_noise":0.1,"location_history":"[3,0,4,5,1,0,1,0,4,7,3,0,4,7,6]","action_history":"[0,1,1,1,0,0,0,1,0,1,1,0,0,0]","mutagen_history":"[1,0,0,0,1,1,1,0,1,0,0,1,1,1]","location_rts":"[834,483,354,388,266,285,274,556,385,444,507,549,552,294]","trial_type":"fractal-mutation","trial_index":87,"time_elapsed":1765728,"internal_node_id":"0.0-5.0-33.0"},{"group":"square cycles (cube, non-group)","fractal_assignment":["../images/grn_red.png","../images/ylw_slt.png","../images/org_blu.png","../images/gry_blk.png","../images/pnk_blu.png","../images/blu_wht.png","../images/ylw_pnk.png","../images/cyn_red.png"],"mutagen_generator_assignment":[1,0],"goal":0,"start":6,"action_noise":0.1,"location_history":"[6,5,4,5,4,5,1,0]","action_history":"[0,0,1,0,1,1,1]","mutagen_history":"[1,1,0,1,0,0,0]","location_rts":"[607,477,76,448,546,323,327]","trial_type":"fractal-mutation","trial_index":88,"time_elapsed":1779315,"internal_node_id":"0.0-5.0-34.0"},{"group":"square cycles (cube, non-group)","fractal_assignment":["../images/grn_red.png","../images/ylw_slt.png","../images/org_blu.png","../images/gry_blk.png","../images/pnk_blu.png","../images/blu_wht.png","../images/ylw_pnk.png","../images/cyn_red.png"],"mutagen_generator_assignment":[1,0],"goal":1,"start":0,"action_noise":0.1,"location_history":"[0,1]","action_history":"[0]","mutagen_history":"[1]","location_rts":"[1213]","trial_type":"fractal-mutation","trial_index":89,"time_elapsed":1785078,"internal_node_id":"0.0-5.0-35.0"},{"group":"square cycles (cube, non-group)","fractal_assignment":["../images/grn_red.png","../images/ylw_slt.png","../images/org_blu.png","../images/gry_blk.png","../images/pnk_blu.png","../images/blu_wht.png","../images/ylw_pnk.png","../images/cyn_red.png"],"mutagen_generator_assignment":[1,0],"goal":5,"start":1,"action_noise":0.1,"location_history":"[1,0,4,7,6,5]","action_history":"[1,1,1,0,0]","mutagen_history":"[0,0,0,1,1]","location_rts":"[587,682,951,647,599]","trial_type":"fractal-mutation","trial_index":90,"time_elapsed":1797315,"internal_node_id":"0.0-5.0-36.0"},{"group":"square cycles (cube, non-group)","fractal_assignment":["../images/grn_red.png","../images/ylw_slt.png","../images/org_blu.png","../images/gry_blk.png","../images/pnk_blu.png","../images/blu_wht.png","../images/ylw_pnk.png","../images/cyn_red.png"],"mutagen_generator_assignment":[1,0],"goal":7,"start":5,"action_noise":0.1,"location_history":"[5,4,7]","action_history":"[0,0]","mutagen_history":"[1,1]","location_rts":"[790,569]","trial_type":"fractal-mutation","trial_index":91,"time_elapsed":1804297,"internal_node_id":"0.0-5.0-37.0"},{"group":"square cycles (cube, non-group)","fractal_assignment":["../images/grn_red.png","../images/ylw_slt.png","../images/org_blu.png","../images/gry_blk.png","../images/pnk_blu.png","../images/blu_wht.png","../images/ylw_pnk.png","../images/cyn_red.png"],"mutagen_generator_assignment":[1,0],"goal":2,"start":7,"action_noise":0.1,"location_history":"[7,3,2]","action_history":"[1,1]","mutagen_history":"[0,0]","location_rts":"[374,422]","trial_type":"fractal-mutation","trial_index":92,"time_elapsed":1810751,"internal_node_id":"0.0-5.0-38.0"},{"group":"square cycles (cube, non-group)","fractal_assignment":["../images/grn_red.png","../images/ylw_slt.png","../images/org_blu.png","../images/gry_blk.png","../images/pnk_blu.png","../images/blu_wht.png","../images/ylw_pnk.png","../images/cyn_red.png"],"mutagen_generator_assignment":[1,0],"goal":1,"start":2,"action_noise":0.1,"location_history":"[2,6,7,3,0,1]","action_history":"[1,1,1,0,0]","mutagen_history":"[0,0,0,1,1]","location_rts":"[502,768,745,742,536]","trial_type":"fractal-mutation","trial_index":93,"time_elapsed":1822804,"internal_node_id":"0.0-5.0-39.0"},{"group":"square cycles (cube, non-group)","fractal_assignment":["../images/grn_red.png","../images/ylw_slt.png","../images/org_blu.png","../images/gry_blk.png","../images/pnk_blu.png","../images/blu_wht.png","../images/ylw_pnk.png","../images/cyn_red.png"],"mutagen_generator_assignment":[1,0],"goal":3,"start":1,"action_noise":0.1,"location_history":"[1,2,6,7,6,7,3]","action_history":"[0,1,1,0,1,1]","mutagen_history":"[1,0,0,1,0,0]","location_rts":"[2394,532,666,663,611,781]","trial_type":"fractal-mutation","trial_index":94,"time_elapsed":1838204,"internal_node_id":"0.0-5.0-40.0"},{"group":"square cycles (cube, non-group)","fractal_assignment":["../images/grn_red.png","../images/ylw_slt.png","../images/org_blu.png","../images/gry_blk.png","../images/pnk_blu.png","../images/blu_wht.png","../images/ylw_pnk.png","../images/cyn_red.png"],"mutagen_generator_assignment":[1,0],"goal":4,"start":3,"action_noise":0.1,"location_history":"[3,2,6,5,4]","action_history":"[1,1,0,0]","mutagen_history":"[0,0,1,1]","location_rts":"[447,563,353,315]","trial_type":"fractal-mutation","trial_index":95,"time_elapsed":1847579,"internal_node_id":"0.0-5.0-41.0"},{"group":"square cycles (cube, non-group)","fractal_assignment":["../images/grn_red.png","../images/ylw_slt.png","../images/org_blu.png","../images/gry_blk.png","../images/pnk_blu.png","../images/blu_wht.png","../images/ylw_pnk.png","../images/cyn_red.png"],"mutagen_generator_assignment":[1,0],"goal":2,"start":4,"action_noise":0.1,"location_history":"[4,5,1,0,1,2]","action_history":"[0,1,1,0,0]","mutagen_history":"[1,0,0,1,1]","location_rts":"[861,691,583,1053,602]","trial_type":"fractal-mutation","trial_index":96,"time_elapsed":1860121,"internal_node_id":"0.0-5.0-42.0"},{"group":"square cycles (cube, non-group)","fractal_assignment":["../images/grn_red.png","../images/ylw_slt.png","../images/org_blu.png","../images/gry_blk.png","../images/pnk_blu.png","../images/blu_wht.png","../images/ylw_pnk.png","../images/cyn_red.png"],"mutagen_generator_assignment":[1,0],"goal":5,"start":2,"action_noise":0.1,"location_history":"[2,6,7,3,0,4,5]","action_history":"[1,1,0,0,1,1]","mutagen_history":"[0,0,1,1,0,0]","location_rts":"[928,604,1738,1739,1425,521]","trial_type":"fractal-mutation","trial_index":97,"time_elapsed":1876797,"internal_node_id":"0.0-5.0-43.0"},{"group":"square cycles (cube, non-group)","fractal_assignment":["../images/grn_red.png","../images/ylw_slt.png","../images/org_blu.png","../images/gry_blk.png","../images/pnk_blu.png","../images/blu_wht.png","../images/ylw_pnk.png","../images/cyn_red.png"],"mutagen_generator_assignment":[1,0],"goal":0,"start":5,"action_noise":0.1,"location_history":"[5,4,5,4,7,6,7,3,0]","action_history":"[0,1,0,0,0,1,1,0]","mutagen_history":"[1,0,1,1,1,0,0,1]","location_rts":"[1395,768,444,606,456,451,501,368]","trial_type":"fractal-mutation","trial_index":98,"time_elapsed":1893703,"internal_node_id":"0.0-5.0-44.0"},{"group":"square cycles (cube, non-group)","fractal_assignment":["../images/grn_red.png","../images/ylw_slt.png","../images/org_blu.png","../images/gry_blk.png","../images/pnk_blu.png","../images/blu_wht.png","../images/ylw_pnk.png","../images/cyn_red.png"],"mutagen_generator_assignment":[1,0],"goal":7,"start":0,"action_noise":0.1,"location_history":"[0,4,5,4,7]","action_history":"[1,1,0,0]","mutagen_history":"[0,0,1,1]","location_rts":"[2117,485,1446,2364]","trial_type":"fractal-mutation","trial_index":99,"time_elapsed":1907790,"internal_node_id":"0.0-5.0-45.0"},{"group":"square cycles (cube, non-group)","fractal_assignment":["../images/grn_red.png","../images/ylw_slt.png","../images/org_blu.png","../images/gry_blk.png","../images/pnk_blu.png","../images/blu_wht.png","../images/ylw_pnk.png","../images/cyn_red.png"],"mutagen_generator_assignment":[1,0],"goal":6,"start":7,"action_noise":0.1,"location_history":"[7,3,2,6]","action_history":"[1,1,1]","mutagen_history":"[0,0,0]","location_rts":"[164,501,511]","trial_type":"fractal-mutation","trial_index":100,"time_elapsed":1915567,"internal_node_id":"0.0-5.0-46.0"},{"group":"square cycles (cube, non-group)","fractal_assignment":["../images/grn_red.png","../images/ylw_slt.png","../images/org_blu.png","../images/gry_blk.png","../images/pnk_blu.png","../images/blu_wht.png","../images/ylw_pnk.png","../images/cyn_red.png"],"mutagen_generator_assignment":[1,0],"goal":2,"start":6,"action_noise":0.1,"location_history":"[6,5,4,5,4,5,4,7,6,7,6,5,4,7,3,0,1,2]","action_history":"[0,1,1,1,1,0,0,0,1,0,0,0,0,1,0,0,0]","mutagen_history":"[1,0,0,0,0,1,1,1,0,1,1,1,1,0,1,1,1]","location_rts":"[586,576,201,1079,343,185,468,759,739,406,268,464,794,269,1218,698,593]","trial_type":"fractal-mutation","trial_index":101,"time_elapsed":1946455,"internal_node_id":"0.0-5.0-47.0"},{"group":"square cycles (cube, non-group)","fractal_assignment":["../images/grn_red.png","../images/ylw_slt.png","../images/org_blu.png","../images/gry_blk.png","../images/pnk_blu.png","../images/blu_wht.png","../images/ylw_pnk.png","../images/cyn_red.png"],"mutagen_generator_assignment":[1,0],"goal":5,"start":2,"action_noise":0.1,"location_history":"[2,6,7,3,0,4,7,6,7,6,7,6,7,3,2,6,5]","action_history":"[1,1,0,0,1,1,0,0,0,0,1,1,1,1,1,0]","mutagen_history":"[0,0,1,1,0,0,1,1,1,1,0,0,0,0,0,1]","location_rts":"[996,1020,1086,626,1007,1206,435,485,299,570,256,395,341,464,479,313]","trial_type":"fractal-mutation","trial_index":102,"time_elapsed":1976586,"internal_node_id":"0.0-5.0-48.0"},{"group":"square cycles (cube, non-group)","fractal_assignment":["../images/grn_red.png","../images/ylw_slt.png","../images/org_blu.png","../images/gry_blk.png","../images/pnk_blu.png","../images/blu_wht.png","../images/ylw_pnk.png","../images/cyn_red.png"],"mutagen_generator_assignment":[1,0],"goal":3,"start":5,"action_noise":0.1,"location_history":"[5,4,7,3]","action_history":"[0,0,1]","mutagen_history":"[1,1,0]","location_rts":"[513,562,307]","trial_type":"fractal-mutation","trial_index":103,"time_elapsed":1984591,"internal_node_id":"0.0-5.0-49.0"},{"view_history":"[{\"page_index\":0,\"viewing_time\":6203}]","rt":6204,"trial_type":"instructions","trial_index":104,"time_elapsed":1991795,"internal_node_id":"0.0-6.0"},{"rt":20389,"responses":"{\"Q0\":\"memory from repetition\"}","trial_type":"survey-text","trial_index":105,"time_elapsed":2013193,"internal_node_id":"0.0-7.0-0.0"},{"rt":77221,"responses":"{\"Q0\":\"same as the first, memory and repetition. I noticed the same patterns followed many times\"}","trial_type":"survey-text","trial_index":106,"time_elapsed":2091419,"internal_node_id":"0.0-7.0-1.0"},{"rt":36630,"responses":"{\"Q0\":\"<img src='../images/diagrams/tri_cycles.png'>\"}","trial_type":"survey-multi-choice","trial_index":107,"time_elapsed":2129068,"internal_node_id":"0.0-7.0-2.0"},{"rt":61144,"assignments":["../images/ylw_pnk.png","../images/org_blu.png","../images/pnk_blu.png","../images/ylw_slt.png","../images/cyn_red.png","../images/gry_blk.png","../images/grn_red.png","../images/blu_wht.png"],"trial_type":"drag-drop-on-image","trial_index":108,"time_elapsed":2191216,"internal_node_id":"0.0-7.0-3.0"},{"rt":11313,"responses":"{\"Q0\":\"2\"}","trial_type":"survey-likert","trial_index":109,"time_elapsed":2203537,"internal_node_id":"0.0-7.0-4.0"},{"rt":69003,"responses":"{\"Q0\":\"some of the same things or patterns followed others. In the first for instance gray and pink were always together and in the 2nd there were several patterns that always were together\"}","trial_type":"survey-text","trial_index":110,"time_elapsed":2273546,"internal_node_id":"0.0-7.0-5.0"},{"rt":7963,"responses":"{\"Q0\":\"Yes\"}","trial_type":"survey-multi-choice","trial_index":111,"time_elapsed":2282514,"internal_node_id":"0.0-7.0-6.0"},{"rt":15838,"responses":"{\"Q0\":\"During session 1\"}","trial_type":"survey-multi-choice","trial_index":112,"time_elapsed":2299361,"internal_node_id":"0.0-7.0-7.0"},{"rt":57299,"responses":"{\"Q0\":\"Yes, repetitions of the same colors and patterns that stayed together\"}","trial_type":"survey-text","trial_index":113,"time_elapsed":2357663,"internal_node_id":"0.0-7.0-8.0"},{"rt":7947,"responses":"{\"Q0\":\"2\"}","trial_type":"survey-likert","trial_index":114,"time_elapsed":2366615,"internal_node_id":"0.0-7.0-9.0"},{"rt":21279,"responses":"{\"Q0\":\"Different structure\"}","trial_type":"survey-multi-choice","trial_index":115,"time_elapsed":2388901,"internal_node_id":"0.0-7.0-10.0"},{"rt":50900,"responses":"{\"Q0\":\"left (white) door = ray, (black) door = acid\",\"Q1\":\"Slightly confident\"}","trial_type":"survey-multi-choice","trial_index":116,"time_elapsed":2440820,"internal_node_id":"0.0-7.0-11.0"},{"rt":17079,"responses":"{\"Q0\":\"25-35\",\"Q1\":\"High school degree or GED\",\"Q2\":\"Female\",\"Q3\":\"White\"}","trial_type":"survey-multi-choice","trial_index":117,"time_elapsed":2458936,"internal_node_id":"0.0-8.0"},{"rt":15020,"responses":"{\"Q0\":\"Thanks again :-)\"}","trial_type":"survey-text","trial_index":118,"time_elapsed":2474958,"internal_node_id":"0.0-9.0"}]