[{"view_history":"[{\"page_index\":0,\"viewing_time\":1699},{\"page_index\":1,\"viewing_time\":2359}]","rt":4062,"trial_type":"instructions","trial_index":0,"time_elapsed":4066,"internal_node_id":"0.0-0.0"},{"view_history":"[{\"page_index\":0,\"viewing_time\":1338},{\"page_index\":1,\"viewing_time\":1686}]","rt":3025,"trial_type":"instructions","trial_index":1,"time_elapsed":8096,"internal_node_id":"0.0-1.0"},{"group":"tri cycles (cube, non-group)","room_assignment":["green","red","brown","blue","yellow","grey","purple","pink"],"door_color_assignment":["black","white"],"door_generator_assignment":[0,1],"goal":5,"start":7,"action_noise":0.1,"location_history":"[7,3,7,3,4,0,3,7,6,4,7,6,4,7,3,4,0,3,4,0,2,1,0,2,1,0,3,7,6,4,0,3,4,0,3,7,3,7,6,4,7,6,4,7,6,4,7,3,7,3,4,0,2,6,5]","action_history":"[1,0,1,1,1,1,0,0,0,0,0,0,0,1,1,1,1,1,1,0,0,0,0,0,0,0,0,0,1,1,1,1,1,1,1,1,0,0,0,0,0,0,0,0,0,0,1,1,1,1,1,1,1,1]","door_history":"[1,0,1,1,1,1,0,0,0,0,0,0,0,1,1,1,1,1,1,0,0,0,0,0,0,0,0,0,1,1,1,1,1,1,1,1,0,0,0,0,0,0,0,0,0,0,1,1,1,1,1,1,1,1]","location_rts":"[1168,621,96,109,5,80,287,256,364,184,22,185,23,97,56,141,34,31,285,135,170,57,189,39,283,182,416,100,453,166,41,55,34,203,4,288,267,149,105,197,252,124,260,161,74,284,99,252,298,125,156,209,124,92]","trial_type":"two-door-navigation","trial_index":2,"time_elapsed":80164,"internal_node_id":"0.0-2.0-0.0"},{"group":"tri cycles (cube, non-group)","room_assignment":["green","red","brown","blue","yellow","grey","purple","pink"],"door_color_assignment":["black","white"],"door_generator_assignment":[0,1],"goal":2,"start":5,"action_noise":0.1,"location_history":"[5,2]","action_history":"[1]","door_history":"[1]","location_rts":"[476]","trial_type":"two-door-navigation","trial_index":3,"time_elapsed":85167,"internal_node_id":"0.0-2.0-1.0"},{"group":"tri cycles (cube, non-group)","room_assignment":["green","red","brown","blue","yellow","grey","purple","pink"],"door_color_assignment":["black","white"],"door_generator_assignment":[0,1],"goal":0,"start":2,"action_noise":0.1,"location_history":"[2,6,4,7,6,5,2,6,5,2,6,5,1,0]","action_history":"[0,0,0,1,1,1,1,1,1,1,1,0,0]","door_history":"[0,0,0,1,1,1,1,1,1,1,1,0,0]","location_rts":"[812,155,267,366,11,39,328,199,163,233,218,245,247]","trial_type":"two-door-navigation","trial_index":4,"time_elapsed":105394,"internal_node_id":"0.0-2.0-2.0"},{"group":"tri cycles (cube, non-group)","room_assignment":["green","red","brown","blue","yellow","grey","purple","pink"],"door_color_assignment":["black","white"],"door_generator_assignment":[0,1],"goal":1,"start":0,"action_noise":0.1,"location_history":"[0,2,1]","action_history":"[0,0]","door_history":"[0,0]","location_rts":"[501,141]","trial_type":"two-door-navigation","trial_index":5,"time_elapsed":111656,"internal_node_id":"0.0-2.0-3.0"},{"group":"tri cycles (cube, non-group)","room_assignment":["green","red","brown","blue","yellow","grey","purple","pink"],"door_color_assignment":["black","white"],"door_generator_assignment":[0,1],"goal":6,"start":1,"action_noise":0.1,"location_history":"[1,0,3,4,7,6]","action_history":"[0,0,0,0,0]","door_history":"[0,0,0,0,0]","location_rts":"[67,221,164,156,109]","trial_type":"two-door-navigation","trial_index":6,"time_elapsed":121125,"internal_node_id":"0.0-2.0-4.0"},{"group":"tri cycles (cube, non-group)","room_assignment":["green","red","brown","blue","yellow","grey","purple","pink"],"door_color_assignment":["black","white"],"door_generator_assignment":[0,1],"goal":3,"start":6,"action_noise":0.1,"location_history":"[6,4,7,6,4,0,3]","action_history":"[0,0,0,0,1,1]","door_history":"[0,0,0,0,1,1]","location_rts":"[483,38,269,213,994,28]","trial_type":"two-door-navigation","trial_index":7,"time_elapsed":132801,"internal_node_id":"0.0-2.0-5.0"},{"group":"tri cycles (cube, non-group)","room_assignment":["green","red","brown","blue","yellow","grey","purple","pink"],"door_color_assignment":["black","white"],"door_generator_assignment":[0,1],"goal":4,"start":3,"action_noise":0.1,"location_history":"[3,4]","action_history":"[1]","door_history":"[1]","location_rts":"[36]","trial_type":"two-door-navigation","trial_index":8,"time_elapsed":137362,"internal_node_id":"0.0-2.0-6.0"},{"group":"tri cycles (cube, non-group)","room_assignment":["green","red","brown","blue","yellow","grey","purple","pink"],"door_color_assignment":["black","white"],"door_generator_assignment":[0,1],"goal":1,"start":4,"action_noise":0.1,"location_history":"[4,0,3,4,0,3,7,6,4,7,6,4,0,3,4,0,3,4,0,3,4,7,6,4,7,6,4,7,6,5,2,6,4,0,3,4,0,3,7,6,4,7,6,4,7,3,7,6,4,0,3,4,0,3,4,0,3,7,6,4,7,6,4,7,3,4,0,3,4,0,3,4,0,3,7,6,4,7,6,4,7,3,4,0,2,6,5,2,6,5,2,1]","action_history":"[1,1,1,1,1,0,0,0,0,0,0,1,1,1,1,1,1,1,1,1,0,0,0,0,0,0,0,0,0,1,1,1,1,1,1,1,1,0,0,0,0,0,0,0,0,0,0,1,1,1,1,1,1,1,1,1,0,0,0,0,0,0,0,1,1,1,1,1,1,1,1,1,0,0,0,0,0,0,0,1,1,1,1,1,1,1,1,1,1,1,0]","door_history":"[1,1,1,1,1,0,0,0,0,0,0,1,1,1,1,1,1,1,1,1,0,0,0,0,0,0,0,0,0,1,1,1,1,1,1,1,1,0,0,0,0,0,0,0,0,0,0,1,1,1,1,1,1,1,1,1,0,0,0,0,0,0,0,1,1,1,1,1,1,1,1,1,0,0,0,0,0,0,0,1,1,1,1,1,1,1,1,1,1,1,0]","location_rts":"[108,156,88,94,71,893,172,252,30,194,266,191,104,150,182,116,34,133,266,144,196,210,303,106,158,42,98,101,347,138,214,221,127,181,330,184,81,489,201,230,304,12,70,202,292,39,67,65,151,346,86,398,74,315,267,207,267,223,17,206,247,264,104,675,100,12,232,177,113,343,267,274,837,300,5,109,247,62,51,340,72,216,5,64,74,33,227,74,178,159,118]","trial_type":"two-door-navigation","trial_index":9,"time_elapsed":252428,"internal_node_id":"0.0-2.0-7.0"},{"group":"tri cycles (cube, non-group)","room_assignment":["green","red","brown","blue","yellow","grey","purple","pink"],"door_color_assignment":["black","white"],"door_generator_assignment":[0,1],"goal":4,"start":1,"action_noise":0.1,"location_history":"[1,0,2,6,5,2,6,4]","action_history":"[0,0,1,1,1,1,1]","door_history":"[0,0,1,1,1,1,1]","location_rts":"[505,362,116,32,154,213,453]","trial_type":"two-door-navigation","trial_index":10,"time_elapsed":265072,"internal_node_id":"0.0-2.0-8.0"},{"group":"tri cycles (cube, non-group)","room_assignment":["green","red","brown","blue","yellow","grey","purple","pink"],"door_color_assignment":["black","white"],"door_generator_assignment":[0,1],"goal":5,"start":4,"action_noise":0.1,"location_history":"[4,7,3,4,0,3,4,0,3,4,0,3,4,7,3,7,6,5]","action_history":"[0,1,1,1,1,1,1,1,1,1,1,1,0,0,1,0,0]","door_history":"[0,1,1,1,1,1,1,1,1,1,1,1,0,0,1,0,0]","location_rts":"[363,442,22,133,39,263,175,263,185,29,105,268,131,131,441,47,314]","trial_type":"two-door-navigation","trial_index":11,"time_elapsed":289493,"internal_node_id":"0.0-2.0-9.0"},{"group":"tri cycles (cube, non-group)","room_assignment":["green","red","brown","blue","yellow","grey","purple","pink"],"door_color_assignment":["black","white"],"door_generator_assignment":[0,1],"goal":3,"start":5,"action_noise":0.1,"location_history":"[5,1,5,1,0,3]","action_history":"[0,0,0,0,1]","door_history":"[0,0,0,0,1]","location_rts":"[654,34,89,223,34]","trial_type":"two-door-navigation","trial_index":12,"time_elapsed":299236,"internal_node_id":"0.0-2.0-10.0"},{"group":"tri cycles (cube, non-group)","room_assignment":["green","red","brown","blue","yellow","grey","purple","pink"],"door_color_assignment":["black","white"],"door_generator_assignment":[0,1],"goal":6,"start":3,"action_noise":0.1,"location_history":"[3,4,7,3,4,7,6]","action_history":"[1,1,1,1,0,0]","door_history":"[1,1,1,1,0,0]","location_rts":"[121148,57,127,18,118,110]","trial_type":"two-door-navigation","trial_index":13,"time_elapsed":431248,"internal_node_id":"0.0-2.0-11.0"},{"group":"tri cycles (cube, non-group)","room_assignment":["green","red","brown","blue","yellow","grey","purple","pink"],"door_color_assignment":["black","white"],"door_generator_assignment":[0,1],"goal":7,"start":6,"action_noise":0.1,"location_history":"[6,4,7]","action_history":"[0,0]","door_history":"[0,0]","location_rts":"[288,184]","trial_type":"two-door-navigation","trial_index":14,"time_elapsed":437391,"internal_node_id":"0.0-2.0-12.0"},{"group":"tri cycles (cube, non-group)","room_assignment":["green","red","brown","blue","yellow","grey","purple","pink"],"door_color_assignment":["black","white"],"door_generator_assignment":[0,1],"goal":0,"start":7,"action_noise":0.1,"location_history":"[7,6,4,7,6,4,0]","action_history":"[0,0,0,0,0,1]","door_history":"[0,0,0,0,0,1]","location_rts":"[12,106,18,90,256,1446]","trial_type":"two-door-navigation","trial_index":15,"time_elapsed":449078,"internal_node_id":"0.0-2.0-13.0"},{"group":"tri cycles (cube, non-group)","room_assignment":["green","red","brown","blue","yellow","grey","purple","pink"],"door_color_assignment":["black","white"],"door_generator_assignment":[0,1],"goal":2,"start":0,"action_noise":0.1,"location_history":"[0,2]","action_history":"[0]","door_history":"[0]","location_rts":"[167]","trial_type":"two-door-navigation","trial_index":16,"time_elapsed":453906,"internal_node_id":"0.0-2.0-14.0"},{"group":"tri cycles (cube, non-group)","room_assignment":["green","red","brown","blue","yellow","grey","purple","pink"],"door_color_assignment":["black","white"],"door_generator_assignment":[0,1],"goal":1,"start":2,"action_noise":0.1,"location_history":"[2,1]","action_history":"[0]","door_history":"[0]","location_rts":"[931]","trial_type":"two-door-navigation","trial_index":17,"time_elapsed":459371,"internal_node_id":"0.0-2.0-15.0"},{"group":"tri cycles (cube, non-group)","room_assignment":["green","red","brown","blue","yellow","grey","purple","pink"],"door_color_assignment":["black","white"],"door_generator_assignment":[0,1],"goal":6,"start":1,"action_noise":0.1,"location_history":"[1,0,2,1,0,2,1,0,2,6]","action_history":"[0,0,0,0,0,0,0,0,1]","door_history":"[0,0,0,0,0,0,0,0,1]","location_rts":"[916,221,8,183,179,207,374,188,142]","trial_type":"two-door-navigation","trial_index":18,"time_elapsed":474589,"internal_node_id":"0.0-2.0-16.0"},{"group":"tri cycles (cube, non-group)","room_assignment":["green","red","brown","blue","yellow","grey","purple","pink"],"door_color_assignment":["black","white"],"door_generator_assignment":[0,1],"goal":3,"start":6,"action_noise":0.1,"location_history":"[6,5,2,6,5,2,6,4,7,6,5,2,6,5,2,1,0,2,1,0,2,6,5,2,1,5,2,1,0,2,1,5,1,5,2,1,0,3]","action_history":"[1,1,1,1,0,0,0,0,0,1,1,1,1,1,0,0,0,0,0,0,1,1,1,1,1,1,0,0,0,0,0,1,1,1,1,0,0]","door_history":"[1,1,1,1,0,0,0,0,0,1,1,1,1,1,0,0,0,0,0,0,1,1,1,1,1,1,0,0,0,0,0,1,1,1,1,0,0]","location_rts":"[455,24,263,106,48,251,9,96,224,2,408,220,134,127,34,186,104,211,289,255,206,165,159,173,75,143,83,213,99,44,173,422,10,126,150,189,73]","trial_type":"two-door-navigation","trial_index":19,"time_elapsed":523302,"internal_node_id":"0.0-2.0-17.0"},{"group":"tri cycles (cube, non-group)","room_assignment":["green","red","brown","blue","yellow","grey","purple","pink"],"door_color_assignment":["black","white"],"door_generator_assignment":[0,1],"goal":4,"start":3,"action_noise":0.1,"location_history":"[3,4]","action_history":"[1]","door_history":"[1]","location_rts":"[98169]","trial_type":"two-door-navigation","trial_index":20,"time_elapsed":627220,"internal_node_id":"0.0-2.0-18.0"},{"group":"tri cycles (cube, non-group)","room_assignment":["green","red","brown","blue","yellow","grey","purple","pink"],"door_color_assignment":["black","white"],"door_generator_assignment":[0,1],"goal":5,"start":4,"action_noise":0.1,"location_history":"[4,0,3,4,7,6,4,7,3,4,0,3,4,7,6,5]","action_history":"[1,1,1,0,0,0,0,1,1,1,1,1,0,0,0]","door_history":"[1,1,1,0,0,0,0,1,1,1,1,1,0,0,0]","location_rts":"[3137,106,110,120,211,58,204,741,156,55,143,35,234,51,156]","trial_type":"two-door-navigation","trial_index":21,"time_elapsed":651986,"internal_node_id":"0.0-2.0-19.0"},{"group":"tri cycles (cube, non-group)","room_assignment":["green","red","brown","blue","yellow","grey","purple","pink"],"door_color_assignment":["black","white"],"door_generator_assignment":[0,1],"goal":7,"start":5,"action_noise":0.1,"location_history":"[5,2,6,5,1,0,2,1,0,2,1,0,3,7]","action_history":"[1,1,1,1,0,0,0,0,0,0,0,1,1]","door_history":"[1,1,1,1,0,0,0,0,0,0,0,1,1]","location_rts":"[56608,395,277,1435,167,332,57,100,133,117,109,1296,70]","trial_type":"two-door-navigation","trial_index":22,"time_elapsed":730563,"internal_node_id":"0.0-2.0-20.0"},{"group":"tri cycles (cube, non-group)","room_assignment":["green","red","brown","blue","yellow","grey","purple","pink"],"door_color_assignment":["black","white"],"door_generator_assignment":[0,1],"goal":2,"start":7,"action_noise":0.1,"location_history":"[7,3,4,0,2]","action_history":"[1,1,1,0]","door_history":"[1,1,1,0]","location_rts":"[796,137,94,48]","trial_type":"two-door-navigation","trial_index":23,"time_elapsed":739366,"internal_node_id":"0.0-2.0-21.0"},{"group":"tri cycles (cube, non-group)","room_assignment":["green","red","brown","blue","yellow","grey","purple","pink"],"door_color_assignment":["black","white"],"door_generator_assignment":[0,1],"goal":0,"start":2,"action_noise":0.1,"location_history":"[2,1,0]","action_history":"[0,0]","door_history":"[0,0]","location_rts":"[891,280]","trial_type":"two-door-navigation","trial_index":24,"time_elapsed":746173,"internal_node_id":"0.0-2.0-22.0"},{"group":"tri cycles (cube, non-group)","room_assignment":["green","red","brown","blue","yellow","grey","purple","pink"],"door_color_assignment":["black","white"],"door_generator_assignment":[0,1],"goal":7,"start":0,"action_noise":0.1,"location_history":"[0,3,7]","action_history":"[1,1]","door_history":"[1,1]","location_rts":"[200128,193]","trial_type":"two-door-navigation","trial_index":25,"time_elapsed":952054,"internal_node_id":"0.0-2.0-23.0"},{"group":"tri cycles (cube, non-group)","room_assignment":["green","red","brown","blue","yellow","grey","purple","pink"],"door_color_assignment":["black","white"],"door_generator_assignment":[0,1],"goal":5,"start":7,"action_noise":0.1,"location_history":"[7,3,4,0,3,4,7,6,4,7,6,4,0,3,4,0,3,7,6,4,7,3,4,0,3,4,7,3,4,7,6,4,7,6,4,0,3,4,7,3,4,7,6,4,7,6,5]","action_history":"[1,1,1,1,1,0,0,0,0,0,0,1,1,1,1,1,0,0,0,0,1,1,1,1,1,1,1,1,0,0,0,0,0,0,1,1,1,1,1,1,0,0,0,0,0,0]","door_history":"[1,1,1,1,1,0,0,0,0,0,0,1,1,1,1,1,0,0,0,0,1,1,1,1,1,1,1,1,0,0,0,0,0,0,1,1,1,1,1,1,0,0,0,0,0,0]","location_rts":"[114,12,134,8,114,117,168,176,3,261,281,188,59,279,146,235,218,247,20,58,120,136,47,225,161,187,252,60,704,34,96,6,217,151,40,40,222,187,195,275,458,232,199,182,190,112]","trial_type":"two-door-navigation","trial_index":26,"time_elapsed":1010692,"internal_node_id":"0.0-2.0-24.0"},{"group":"tri cycles (cube, non-group)","room_assignment":["green","red","brown","blue","yellow","grey","purple","pink"],"door_color_assignment":["black","white"],"door_generator_assignment":[0,1],"goal":0,"start":5,"action_noise":0.1,"location_history":"[5,2,6,4,7,3,4,0]","action_history":"[1,1,0,0,1,1,1]","door_history":"[1,1,0,0,1,1,1]","location_rts":"[535,149,300,152,235452,106,128]","trial_type":"two-door-navigation","trial_index":27,"time_elapsed":1258597,"internal_node_id":"0.0-2.0-25.0"},{"group":"tri cycles (cube, non-group)","room_assignment":["green","red","brown","blue","yellow","grey","purple","pink"],"door_color_assignment":["black","white"],"door_generator_assignment":[0,1],"goal":6,"start":0,"action_noise":0.1,"location_history":"[0,3,4,0,3,7,6]","action_history":"[1,1,1,1,0,0]","door_history":"[1,1,1,1,0,0]","location_rts":"[23,202,67,281,496,190]","trial_type":"two-door-navigation","trial_index":28,"time_elapsed":1269655,"internal_node_id":"0.0-2.0-26.0"},{"group":"tri cycles (cube, non-group)","room_assignment":["green","red","brown","blue","yellow","grey","purple","pink"],"door_color_assignment":["black","white"],"door_generator_assignment":[0,1],"goal":4,"start":6,"action_noise":0.1,"location_history":"[6,4]","action_history":"[0]","door_history":"[0]","location_rts":"[517]","trial_type":"two-door-navigation","trial_index":29,"time_elapsed":1274705,"internal_node_id":"0.0-2.0-27.0"},{"group":"tri cycles (cube, non-group)","room_assignment":["green","red","brown","blue","yellow","grey","purple","pink"],"door_color_assignment":["black","white"],"door_generator_assignment":[0,1],"goal":2,"start":4,"action_noise":0.1,"location_history":"[4,0,2]","action_history":"[0,0]","door_history":"[0,0]","location_rts":"[322,386]","trial_type":"two-door-navigation","trial_index":30,"time_elapsed":1280969,"internal_node_id":"0.0-2.0-28.0"},{"group":"tri cycles (cube, non-group)","room_assignment":["green","red","brown","blue","yellow","grey","purple","pink"],"door_color_assignment":["black","white"],"door_generator_assignment":[0,1],"goal":3,"start":2,"action_noise":0.1,"location_history":"[2,1,0,3]","action_history":"[0,0,1]","door_history":"[0,0,1]","location_rts":"[365,110,728]","trial_type":"two-door-navigation","trial_index":31,"time_elapsed":1288806,"internal_node_id":"0.0-2.0-29.0"},{"group":"tri cycles (cube, non-group)","room_assignment":["green","red","brown","blue","yellow","grey","purple","pink"],"door_color_assignment":["black","white"],"door_generator_assignment":[0,1],"goal":1,"start":3,"action_noise":0.1,"location_history":"[3,4,0,2,6,4,7,6,4,0,3,4,7,3,4,7,6,4,7,6,4,0,3,7,3,4,7,6,4,0,2,6,5,2,6,5,2,1]","action_history":"[1,1,0,0,0,0,0,0,1,1,1,1,1,1,0,0,0,0,0,0,1,1,1,1,0,0,0,0,0,0,1,1,1,1,1,1,0]","door_history":"[1,1,0,0,0,0,0,0,1,1,1,1,1,1,0,0,0,0,0,0,1,1,1,1,0,0,0,0,0,0,1,1,1,1,1,1,0]","location_rts":"[551,27,79,91,259,106,134,63,149,15,115,240,186,243,651,179,60,93,85,105,243,202,13,253,507,190,127,277,197,92,282,106,170,17,183,152,891]","trial_type":"two-door-navigation","trial_index":32,"time_elapsed":1338953,"internal_node_id":"0.0-2.0-30.0"},{"group":"tri cycles (cube, non-group)","room_assignment":["green","red","brown","blue","yellow","grey","purple","pink"],"door_color_assignment":["black","white"],"door_generator_assignment":[0,1],"goal":4,"start":1,"action_noise":0.1,"location_history":"[1,0,2,1,5,2,6,5,2,1,0,2,1,5,1,5,2,6,5,2,6,5,2,1,0,2,6,5,2,6,4]","action_history":"[0,0,0,0,1,1,1,1,0,0,0,0,0,0,1,1,1,1,1,1,1,0,0,0,0,0,1,1,1,1]","door_history":"[0,0,0,0,1,1,1,1,0,0,0,0,0,0,1,1,1,1,1,1,1,0,0,0,0,0,1,1,1,1]","location_rts":"[364,79,41,322,19,23,30,176,725,61,126,151,229,215,110,82,199,98,52,136,189,196,10,261,80,339,123,180,129,118]","trial_type":"two-door-navigation","trial_index":33,"time_elapsed":1378567,"internal_node_id":"0.0-2.0-31.0"},{"group":"tri cycles (cube, non-group)","room_assignment":["green","red","brown","blue","yellow","grey","purple","pink"],"door_color_assignment":["black","white"],"door_generator_assignment":[0,1],"goal":3,"start":4,"action_noise":0.1,"location_history":"[4,7,3]","action_history":"[1,1]","door_history":"[1,1]","location_rts":"[726,79]","trial_type":"two-door-navigation","trial_index":34,"time_elapsed":1384930,"internal_node_id":"0.0-2.0-32.0"},{"group":"tri cycles (cube, non-group)","room_assignment":["green","red","brown","blue","yellow","grey","purple","pink"],"door_color_assignment":["black","white"],"door_generator_assignment":[0,1],"goal":6,"start":3,"action_noise":0.1,"location_history":"[3,4,7,3,4,7,6]","action_history":"[1,1,1,1,0,0]","door_history":"[1,1,1,1,0,0]","location_rts":"[474,63,185,218,445,300]","trial_type":"two-door-navigation","trial_index":35,"time_elapsed":1396464,"internal_node_id":"0.0-2.0-33.0"},{"group":"tri cycles (cube, non-group)","room_assignment":["green","red","brown","blue","yellow","grey","purple","pink"],"door_color_assignment":["black","white"],"door_generator_assignment":[0,1],"goal":0,"start":6,"action_noise":0.1,"location_history":"[6,5,1,5,2,6,5,2,1,5,2,6,5,1,5,1,5,2,1,5,1,0]","action_history":"[0,0,1,1,1,1,1,0,1,1,1,1,0,0,0,1,1,0,1,0,0]","door_history":"[0,0,1,1,1,1,1,0,1,1,1,1,0,0,0,1,1,0,1,0,0]","location_rts":"[436,183,161,73,27,202,138,245,402,196,89,43,240,89,30,1492,254,119,102,421,305]","trial_type":"two-door-navigation","trial_index":36,"time_elapsed":1426988,"internal_node_id":"0.0-2.0-34.0"},{"group":"tri cycles (cube, non-group)","room_assignment":["green","red","brown","blue","yellow","grey","purple","pink"],"door_color_assignment":["black","white"],"door_generator_assignment":[0,1],"goal":1,"start":0,"action_noise":0.1,"location_history":"[0,3,7,3,7,6,4,7,6,4,0,3,4,0,2,1]","action_history":"[1,1,1,0,0,0,0,0,0,1,1,1,1,0,0]","door_history":"[1,1,1,0,0,0,0,0,0,1,1,1,1,0,0]","location_rts":"[455,152,411,315,208,115,132,167,25,840,230,39,10,1104,103]","trial_type":"two-door-navigation","trial_index":37,"time_elapsed":1450428,"internal_node_id":"0.0-2.0-35.0"},{"group":"tri cycles (cube, non-group)","room_assignment":["green","red","brown","blue","yellow","grey","purple","pink"],"door_color_assignment":["black","white"],"door_generator_assignment":[0,1],"goal":5,"start":1,"action_noise":0.1,"location_history":"[1,0,3,4,0,2,6,5]","action_history":"[0,1,1,1,1,1,1]","door_history":"[0,1,1,1,1,1,1]","location_rts":"[515,416,31,94,105,43,146]","trial_type":"two-door-navigation","trial_index":38,"time_elapsed":1462509,"internal_node_id":"0.0-2.0-36.0"},{"group":"tri cycles (cube, non-group)","room_assignment":["green","red","brown","blue","yellow","grey","purple","pink"],"door_color_assignment":["black","white"],"door_generator_assignment":[0,1],"goal":7,"start":5,"action_noise":0.1,"location_history":"[5,2,6,4,7]","action_history":"[1,1,0,0]","door_history":"[1,1,0,0]","location_rts":"[491,178,134,121]","trial_type":"two-door-navigation","trial_index":39,"time_elapsed":1471121,"internal_node_id":"0.0-2.0-37.0"},{"group":"tri cycles (cube, non-group)","room_assignment":["green","red","brown","blue","yellow","grey","purple","pink"],"door_color_assignment":["black","white"],"door_generator_assignment":[0,1],"goal":2,"start":7,"action_noise":0.1,"location_history":"[7,6,5,2]","action_history":"[0,0,1]","door_history":"[0,0,1]","location_rts":"[394,69,324]","trial_type":"two-door-navigation","trial_index":40,"time_elapsed":1478473,"internal_node_id":"0.0-2.0-38.0"},{"group":"tri cycles (cube, non-group)","room_assignment":["green","red","brown","blue","yellow","grey","purple","pink"],"door_color_assignment":["black","white"],"door_generator_assignment":[0,1],"goal":1,"start":2,"action_noise":0.1,"location_history":"[2,6,5,2,6,5,2,1]","action_history":"[1,1,1,0,1,1,1]","door_history":"[1,1,1,0,1,1,1]","location_rts":"[865,17,192,56,72,52,311]","trial_type":"two-door-navigation","trial_index":41,"time_elapsed":1490916,"internal_node_id":"0.0-2.0-39.0"},{"group":"tri cycles (cube, non-group)","room_assignment":["green","red","brown","blue","yellow","grey","purple","pink"],"door_color_assignment":["black","white"],"door_generator_assignment":[0,1],"goal":3,"start":1,"action_noise":0.1,"location_history":"[1,5,2,1,0,3]","action_history":"[1,1,0,0,1]","door_history":"[1,1,0,0,1]","location_rts":"[758,97,112,235,246]","trial_type":"two-door-navigation","trial_index":42,"time_elapsed":1501189,"internal_node_id":"0.0-2.0-40.0"},{"group":"tri cycles (cube, non-group)","room_assignment":["green","red","brown","blue","yellow","grey","purple","pink"],"door_color_assignment":["black","white"],"door_generator_assignment":[0,1],"goal":4,"start":3,"action_noise":0.1,"location_history":"[3,4]","action_history":"[1]","door_history":"[1]","location_rts":"[730]","trial_type":"two-door-navigation","trial_index":43,"time_elapsed":1506445,"internal_node_id":"0.0-2.0-41.0"},{"group":"tri cycles (cube, non-group)","room_assignment":["green","red","brown","blue","yellow","grey","purple","pink"],"door_color_assignment":["black","white"],"door_generator_assignment":[0,1],"goal":2,"start":4,"action_noise":0.1,"location_history":"[4,7,3,4,7,6,4,0,3,4,0,3,4,0,2]","action_history":"[1,1,1,0,0,0,1,1,1,1,1,1,1,0]","door_history":"[1,1,1,0,0,0,1,1,1,1,1,1,1,0]","location_rts":"[359,211,49,53,50,100,448,310,134,223,189,53,72,174]","trial_type":"two-door-navigation","trial_index":44,"time_elapsed":1526991,"internal_node_id":"0.0-2.0-42.0"},{"group":"tri cycles (cube, non-group)","room_assignment":["green","red","brown","blue","yellow","grey","purple","pink"],"door_color_assignment":["black","white"],"door_generator_assignment":[0,1],"goal":5,"start":2,"action_noise":0.1,"location_history":"[2,6,5]","action_history":"[1,1]","door_history":"[1,1]","location_rts":"[763,79]","trial_type":"two-door-navigation","trial_index":45,"time_elapsed":1533378,"internal_node_id":"0.0-2.0-43.0"},{"group":"tri cycles (cube, non-group)","room_assignment":["green","red","brown","blue","yellow","grey","purple","pink"],"door_color_assignment":["black","white"],"door_generator_assignment":[0,1],"goal":0,"start":5,"action_noise":0.1,"location_history":"[5,2,6,4,0]","action_history":"[1,1,1,1]","door_history":"[1,1,1,1]","location_rts":"[1075,164,148,319]","trial_type":"two-door-navigation","trial_index":46,"time_elapsed":1542813,"internal_node_id":"0.0-2.0-44.0"},{"group":"tri cycles (cube, non-group)","room_assignment":["green","red","brown","blue","yellow","grey","purple","pink"],"door_color_assignment":["black","white"],"door_generator_assignment":[0,1],"goal":7,"start":0,"action_noise":0.1,"location_history":"[0,3,4,0,2,1,0,2,1,5,2,6,5,1,0,3,4,7]","action_history":"[1,1,1,0,0,0,0,1,1,1,1,1,0,0,1,1,1]","door_history":"[1,1,1,0,0,0,0,1,1,1,1,1,0,0,1,1,1]","location_rts":"[898,24,209,1039,1186,197,99,414,176,259,167,1675,475,770,181,89,116]","trial_type":"two-door-navigation","trial_index":47,"time_elapsed":1571919,"internal_node_id":"0.0-2.0-45.0"},{"group":"tri cycles (cube, non-group)","room_assignment":["green","red","brown","blue","yellow","grey","purple","pink"],"door_color_assignment":["black","white"],"door_generator_assignment":[0,1],"goal":6,"start":7,"action_noise":0.1,"location_history":"[7,3,4,7,6]","action_history":"[1,1,0,0]","door_history":"[1,1,0,0]","location_rts":"[942,72,76,55]","trial_type":"two-door-navigation","trial_index":48,"time_elapsed":1580664,"internal_node_id":"0.0-2.0-46.0"},{"group":"tri cycles (cube, non-group)","room_assignment":["green","red","brown","blue","yellow","grey","purple","pink"],"door_color_assignment":["black","white"],"door_generator_assignment":[0,1],"goal":2,"start":6,"action_noise":0.1,"location_history":"[6,4,7,6,4,7,3,4,0,3,7,6,4,7,6,4,7,3,4,7,6,5,1,0,2]","action_history":"[0,0,0,0,1,1,1,1,1,0,0,0,0,0,1,1,1,1,0,0,0,0,0,0]","door_history":"[0,0,0,0,1,1,1,1,1,0,0,0,0,0,1,1,1,1,0,0,0,0,0,0]","location_rts":"[547,430,194,267,495,70,518,33,89,150,17,268,281,185,361,67,94,144,275,206,43,273,14,134]","trial_type":"two-door-navigation","trial_index":49,"time_elapsed":1614677,"internal_node_id":"0.0-2.0-47.0"},{"group":"tri cycles (cube, non-group)","room_assignment":["green","red","brown","blue","yellow","grey","purple","pink"],"door_color_assignment":["black","white"],"door_generator_assignment":[0,1],"goal":5,"start":2,"action_noise":0.1,"location_history":"[2,6,5]","action_history":"[1,1]","door_history":"[1,1]","location_rts":"[1001,164]","trial_type":"two-door-navigation","trial_index":50,"time_elapsed":1621489,"internal_node_id":"0.0-2.0-48.0"},{"group":"tri cycles (cube, non-group)","room_assignment":["green","red","brown","blue","yellow","grey","purple","pink"],"door_color_assignment":["black","white"],"door_generator_assignment":[0,1],"goal":3,"start":5,"action_noise":0.1,"location_history":"[5,2,6,4,0,3]","action_history":"[1,1,0,1,1]","door_history":"[1,1,0,1,1]","location_rts":"[703,252,388,190,213]","trial_type":"two-door-navigation","trial_index":51,"time_elapsed":1632012,"internal_node_id":"0.0-2.0-49.0"},{"view_history":"[{\"page_index\":0,\"viewing_time\":1320}]","rt":1320,"trial_type":"instructions","trial_index":52,"time_elapsed":1634333,"internal_node_id":"0.0-3.0"},{"view_history":"[{\"page_index\":0,\"viewing_time\":967},{\"page_index\":1,\"viewing_time\":3114}]","rt":4082,"trial_type":"instructions","trial_index":53,"time_elapsed":1639415,"internal_node_id":"0.0-4.0"},{"group":"square cycles (cube, non-group)","fractal_assignment":["../images/ylw_pnk.png","../images/gry_blk.png","../images/cyn_red.png","../images/ylw_slt.png","../images/pnk_blu.png","../images/blu_wht.png","../images/org_blu.png","../images/grn_red.png"],"mutagen_generator_assignment":[0,1],"goal":5,"start":7,"action_noise":0.1,"location_history":"[7,6,7,6,5]","action_history":"[0,1,0,0]","mutagen_history":"[0,1,0,0]","location_rts":"[583,22,82,0]","trial_type":"fractal-mutation","trial_index":54,"time_elapsed":1647828,"internal_node_id":"0.0-5.0-0.0"},{"group":"square cycles (cube, non-group)","fractal_assignment":["../images/ylw_pnk.png","../images/gry_blk.png","../images/cyn_red.png","../images/ylw_slt.png","../images/pnk_blu.png","../images/blu_wht.png","../images/org_blu.png","../images/grn_red.png"],"mutagen_generator_assignment":[0,1],"goal":2,"start":5,"action_noise":0.1,"location_history":"[5,1,0,4,7,6,5,1,0,1,2]","action_history":"[0,1,1,0,0,0,1,0,0,0]","mutagen_history":"[0,1,1,0,0,0,1,0,0,0]","location_rts":"[133,136,119,130,134,131,133,234,317,214]","trial_type":"fractal-mutation","trial_index":55,"time_elapsed":1663714,"internal_node_id":"0.0-5.0-1.0"},{"group":"square cycles (cube, non-group)","fractal_assignment":["../images/ylw_pnk.png","../images/gry_blk.png","../images/cyn_red.png","../images/ylw_slt.png","../images/pnk_blu.png","../images/blu_wht.png","../images/org_blu.png","../images/grn_red.png"],"mutagen_generator_assignment":[0,1],"goal":0,"start":2,"action_noise":0.1,"location_history":"[2,6,7,3,2,3,2,3,0]","action_history":"[1,1,1,0,0,0,0,0]","mutagen_history":"[1,1,1,0,0,0,0,0]","location_rts":"[122,238,474,328,581,344,406,428]","trial_type":"fractal-mutation","trial_index":56,"time_elapsed":1678664,"internal_node_id":"0.0-5.0-2.0"},{"group":"square cycles (cube, non-group)","fractal_assignment":["../images/ylw_pnk.png","../images/gry_blk.png","../images/cyn_red.png","../images/ylw_slt.png","../images/pnk_blu.png","../images/blu_wht.png","../images/org_blu.png","../images/grn_red.png"],"mutagen_generator_assignment":[0,1],"goal":1,"start":0,"action_noise":0.1,"location_history":"[0,4,7,6,7,6,7,3,2,6,7,3,0,4,5,1]","action_history":"[1,0,0,1,1,1,1,1,1,1,1,0,0,1,1]","mutagen_history":"[1,0,0,1,1,1,1,1,1,1,1,0,0,1,1]","location_rts":"[65,125,9,154,494,205,152,41,350,48,213,42,391,224,169]","trial_type":"fractal-mutation","trial_index":57,"time_elapsed":1701340,"internal_node_id":"0.0-5.0-3.0"},{"group":"square cycles (cube, non-group)","fractal_assignment":["../images/ylw_pnk.png","../images/gry_blk.png","../images/cyn_red.png","../images/ylw_slt.png","../images/pnk_blu.png","../images/blu_wht.png","../images/org_blu.png","../images/grn_red.png"],"mutagen_generator_assignment":[0,1],"goal":6,"start":1,"action_noise":0.1,"location_history":"[1,2,6]","action_history":"[0,1]","mutagen_history":"[0,1]","location_rts":"[32826,646]","trial_type":"fractal-mutation","trial_index":58,"time_elapsed":1741555,"internal_node_id":"0.0-5.0-4.0"},{"group":"square cycles (cube, non-group)","fractal_assignment":["../images/ylw_pnk.png","../images/gry_blk.png","../images/cyn_red.png","../images/ylw_slt.png","../images/pnk_blu.png","../images/blu_wht.png","../images/org_blu.png","../images/grn_red.png"],"mutagen_generator_assignment":[0,1],"goal":3,"start":6,"action_noise":0.1,"location_history":"[6,7,6,5,4,7,3]","action_history":"[1,0,0,0,0,1]","mutagen_history":"[1,0,0,0,0,1]","location_rts":"[261,260,523,28,327,38]","trial_type":"fractal-mutation","trial_index":59,"time_elapsed":1753009,"internal_node_id":"0.0-5.0-5.0"},{"group":"square cycles (cube, non-group)","fractal_assignment":["../images/ylw_pnk.png","../images/gry_blk.png","../images/cyn_red.png","../images/ylw_slt.png","../images/pnk_blu.png","../images/blu_wht.png","../images/org_blu.png","../images/grn_red.png"],"mutagen_generator_assignment":[0,1],"goal":4,"start":3,"action_noise":0.1,"location_history":"[3,2,6,7,3,0,1,2,3,0,1,2,3,2,6,7,3,2,6,7,3,2,3,0,1,2,3,2,3,0,4]","action_history":"[1,1,1,1,0,0,0,0,0,0,0,0,1,1,1,1,1,1,1,1,1,0,0,0,0,0,0,0,0,1]","mutagen_history":"[1,1,1,1,0,0,0,0,0,0,0,0,1,1,1,1,1,1,1,1,1,0,0,0,0,0,0,0,0,1]","location_rts":"[12,215,84,59,178,45,130,154,148,405,344,841,861,410,76,138,268,47,27,416,150,241,87,268,327,233,305,103,312,200]","trial_type":"fractal-mutation","trial_index":60,"time_elapsed":1795548,"internal_node_id":"0.0-5.0-6.0"},{"group":"square cycles (cube, non-group)","fractal_assignment":["../images/ylw_pnk.png","../images/gry_blk.png","../images/cyn_red.png","../images/ylw_slt.png","../images/pnk_blu.png","../images/blu_wht.png","../images/org_blu.png","../images/grn_red.png"],"mutagen_generator_assignment":[0,1],"goal":1,"start":4,"action_noise":0.1,"location_history":"[4,5,4,5,1]","action_history":"[1,1,1,1]","mutagen_history":"[1,1,1,1]","location_rts":"[492,104,305,19]","trial_type":"fractal-mutation","trial_index":61,"time_elapsed":1804220,"internal_node_id":"0.0-5.0-7.0"},{"group":"square cycles (cube, non-group)","fractal_assignment":["../images/ylw_pnk.png","../images/gry_blk.png","../images/cyn_red.png","../images/ylw_slt.png","../images/pnk_blu.png","../images/blu_wht.png","../images/org_blu.png","../images/grn_red.png"],"mutagen_generator_assignment":[0,1],"goal":4,"start":1,"action_noise":0.1,"location_history":"[1,2,6,5,4]","action_history":"[0,1,0,0]","mutagen_history":"[0,1,0,0]","location_rts":"[140,341,102,233]","trial_type":"fractal-mutation","trial_index":62,"time_elapsed":1812803,"internal_node_id":"0.0-5.0-8.0"},{"group":"square cycles (cube, non-group)","fractal_assignment":["../images/ylw_pnk.png","../images/gry_blk.png","../images/cyn_red.png","../images/ylw_slt.png","../images/pnk_blu.png","../images/blu_wht.png","../images/org_blu.png","../images/grn_red.png"],"mutagen_generator_assignment":[0,1],"goal":5,"start":4,"action_noise":0.1,"location_history":"[4,7,3,2,6,7,3,2,6,7,6,5]","action_history":"[0,1,1,1,1,0,1,1,1,0,0]","mutagen_history":"[0,1,1,1,1,0,1,1,1,0,0]","location_rts":"[565,295,31,191,278,37,125,33,83,105,220]","trial_type":"fractal-mutation","trial_index":63,"time_elapsed":1831094,"internal_node_id":"0.0-5.0-9.0"},{"group":"square cycles (cube, non-group)","fractal_assignment":["../images/ylw_pnk.png","../images/gry_blk.png","../images/cyn_red.png","../images/ylw_slt.png","../images/pnk_blu.png","../images/blu_wht.png","../images/org_blu.png","../images/grn_red.png"],"mutagen_generator_assignment":[0,1],"goal":3,"start":5,"action_noise":0.1,"location_history":"[5,4,5,1,2,6,7,3]","action_history":"[0,1,1,1,1,1,1]","mutagen_history":"[0,1,1,1,1,1,1]","location_rts":"[353,181,226,145,179,268,123]","trial_type":"fractal-mutation","trial_index":64,"time_elapsed":1843500,"internal_node_id":"0.0-5.0-10.0"},{"group":"square cycles (cube, non-group)","fractal_assignment":["../images/ylw_pnk.png","../images/gry_blk.png","../images/cyn_red.png","../images/ylw_slt.png","../images/pnk_blu.png","../images/blu_wht.png","../images/org_blu.png","../images/grn_red.png"],"mutagen_generator_assignment":[0,1],"goal":6,"start":3,"action_noise":0.1,"location_history":"[3,2,6]","action_history":"[1,0]","mutagen_history":"[1,0]","location_rts":"[636,107]","trial_type":"fractal-mutation","trial_index":65,"time_elapsed":1849929,"internal_node_id":"0.0-5.0-11.0"},{"group":"square cycles (cube, non-group)","fractal_assignment":["../images/ylw_pnk.png","../images/gry_blk.png","../images/cyn_red.png","../images/ylw_slt.png","../images/pnk_blu.png","../images/blu_wht.png","../images/org_blu.png","../images/grn_red.png"],"mutagen_generator_assignment":[0,1],"goal":7,"start":6,"action_noise":0.1,"location_history":"[6,7]","action_history":"[1]","mutagen_history":"[1]","location_rts":"[669]","trial_type":"fractal-mutation","trial_index":66,"time_elapsed":1855225,"internal_node_id":"0.0-5.0-12.0"},{"group":"square cycles (cube, non-group)","fractal_assignment":["../images/ylw_pnk.png","../images/gry_blk.png","../images/cyn_red.png","../images/ylw_slt.png","../images/pnk_blu.png","../images/blu_wht.png","../images/org_blu.png","../images/grn_red.png"],"mutagen_generator_assignment":[0,1],"goal":0,"start":7,"action_noise":0.1,"location_history":"[7,3,0]","action_history":"[1,0]","mutagen_history":"[1,0]","location_rts":"[559,488]","trial_type":"fractal-mutation","trial_index":67,"time_elapsed":1861855,"internal_node_id":"0.0-5.0-13.0"},{"group":"square cycles (cube, non-group)","fractal_assignment":["../images/ylw_pnk.png","../images/gry_blk.png","../images/cyn_red.png","../images/ylw_slt.png","../images/pnk_blu.png","../images/blu_wht.png","../images/org_blu.png","../images/grn_red.png"],"mutagen_generator_assignment":[0,1],"goal":2,"start":0,"action_noise":0.1,"location_history":"[0,4,7,3,2]","action_history":"[1,1,1,1]","mutagen_history":"[1,1,1,1]","location_rts":"[854,42,379,30]","trial_type":"fractal-mutation","trial_index":68,"time_elapsed":1871165,"internal_node_id":"0.0-5.0-14.0"},{"group":"square cycles (cube, non-group)","fractal_assignment":["../images/ylw_pnk.png","../images/gry_blk.png","../images/cyn_red.png","../images/ylw_slt.png","../images/pnk_blu.png","../images/blu_wht.png","../images/org_blu.png","../images/grn_red.png"],"mutagen_generator_assignment":[0,1],"goal":1,"start":2,"action_noise":0.1,"location_history":"[2,3,2,6,7,3,2,6,5,4,5,4,5,4,5,1]","action_history":"[0,0,1,1,1,1,1,0,0,0,0,1,1,1,1]","mutagen_history":"[0,0,1,1,1,1,1,0,0,0,0,1,1,1,1]","location_rts":"[378,343,42,128,350,316,279,384,291,200,72,298,110,342,143]","trial_type":"fractal-mutation","trial_index":69,"time_elapsed":1894233,"internal_node_id":"0.0-5.0-15.0"},{"group":"square cycles (cube, non-group)","fractal_assignment":["../images/ylw_pnk.png","../images/gry_blk.png","../images/cyn_red.png","../images/ylw_slt.png","../images/pnk_blu.png","../images/blu_wht.png","../images/org_blu.png","../images/grn_red.png"],"mutagen_generator_assignment":[0,1],"goal":6,"start":1,"action_noise":0.1,"location_history":"[1,0,1,2,3,0,1,2,3,2,6]","action_history":"[1,0,0,0,0,0,0,0,1,1]","mutagen_history":"[1,0,0,0,0,0,0,0,1,1]","location_rts":"[94,27,197,343,321,376,226,465,343,23]","trial_type":"fractal-mutation","trial_index":70,"time_elapsed":1910654,"internal_node_id":"0.0-5.0-16.0"},{"group":"square cycles (cube, non-group)","fractal_assignment":["../images/ylw_pnk.png","../images/gry_blk.png","../images/cyn_red.png","../images/ylw_slt.png","../images/pnk_blu.png","../images/blu_wht.png","../images/org_blu.png","../images/grn_red.png"],"mutagen_generator_assignment":[0,1],"goal":3,"start":6,"action_noise":0.1,"location_history":"[6,7,3]","action_history":"[1,1]","mutagen_history":"[1,1]","location_rts":"[1302,1067]","trial_type":"fractal-mutation","trial_index":71,"time_elapsed":1918643,"internal_node_id":"0.0-5.0-17.0"},{"group":"square cycles (cube, non-group)","fractal_assignment":["../images/ylw_pnk.png","../images/gry_blk.png","../images/cyn_red.png","../images/ylw_slt.png","../images/pnk_blu.png","../images/blu_wht.png","../images/org_blu.png","../images/grn_red.png"],"mutagen_generator_assignment":[0,1],"goal":4,"start":3,"action_noise":0.1,"location_history":"[3,0,1,0,4]","action_history":"[0,0,1,1]","mutagen_history":"[0,0,1,1]","location_rts":"[374,481,309,254]","trial_type":"fractal-mutation","trial_index":72,"time_elapsed":1927742,"internal_node_id":"0.0-5.0-18.0"},{"group":"square cycles (cube, non-group)","fractal_assignment":["../images/ylw_pnk.png","../images/gry_blk.png","../images/cyn_red.png","../images/ylw_slt.png","../images/pnk_blu.png","../images/blu_wht.png","../images/org_blu.png","../images/grn_red.png"],"mutagen_generator_assignment":[0,1],"goal":5,"start":4,"action_noise":0.1,"location_history":"[4,5]","action_history":"[1]","mutagen_history":"[1]","location_rts":"[56]","trial_type":"fractal-mutation","trial_index":73,"time_elapsed":1932352,"internal_node_id":"0.0-5.0-19.0"},{"group":"square cycles (cube, non-group)","fractal_assignment":["../images/ylw_pnk.png","../images/gry_blk.png","../images/cyn_red.png","../images/ylw_slt.png","../images/pnk_blu.png","../images/blu_wht.png","../images/org_blu.png","../images/grn_red.png"],"mutagen_generator_assignment":[0,1],"goal":7,"start":5,"action_noise":0.1,"location_history":"[5,4,7]","action_history":"[1,0]","mutagen_history":"[1,0]","location_rts":"[583,201]","trial_type":"fractal-mutation","trial_index":74,"time_elapsed":1938753,"internal_node_id":"0.0-5.0-20.0"},{"group":"square cycles (cube, non-group)","fractal_assignment":["../images/ylw_pnk.png","../images/gry_blk.png","../images/cyn_red.png","../images/ylw_slt.png","../images/pnk_blu.png","../images/blu_wht.png","../images/org_blu.png","../images/grn_red.png"],"mutagen_generator_assignment":[0,1],"goal":2,"start":7,"action_noise":0.1,"location_history":"[7,6,7,3,2]","action_history":"[0,1,1,1]","mutagen_history":"[0,1,1,1]","location_rts":"[438,80,203,501]","trial_type":"fractal-mutation","trial_index":75,"time_elapsed":1948029,"internal_node_id":"0.0-5.0-21.0"},{"group":"square cycles (cube, non-group)","fractal_assignment":["../images/ylw_pnk.png","../images/gry_blk.png","../images/cyn_red.png","../images/ylw_slt.png","../images/pnk_blu.png","../images/blu_wht.png","../images/org_blu.png","../images/grn_red.png"],"mutagen_generator_assignment":[0,1],"goal":0,"start":2,"action_noise":0.1,"location_history":"[2,6,5,4,7,6,5,4,7,6,5,4,5,1,2,3,0]","action_history":"[1,0,0,0,0,0,0,0,0,0,1,1,1,0,0,0]","mutagen_history":"[1,0,0,0,0,0,0,0,0,0,1,1,1,0,0,0]","location_rts":"[75,35,77,220,351,466,527,278,407,263,179,248,89,303,191,174]","trial_type":"fractal-mutation","trial_index":76,"time_elapsed":1972896,"internal_node_id":"0.0-5.0-22.0"},{"group":"square cycles (cube, non-group)","fractal_assignment":["../images/ylw_pnk.png","../images/gry_blk.png","../images/cyn_red.png","../images/ylw_slt.png","../images/pnk_blu.png","../images/blu_wht.png","../images/org_blu.png","../images/grn_red.png"],"mutagen_generator_assignment":[0,1],"goal":7,"start":0,"action_noise":0.1,"location_history":"[0,1,2,3,0,1,2,3,0,1,2,3,2,6,7]","action_history":"[0,0,0,0,0,0,0,0,0,0,0,1,1,1]","mutagen_history":"[0,0,0,0,0,0,0,0,0,0,0,1,1,1]","location_rts":"[104,144,258,162,164,20,483,842,235,398,92,166,12,125]","trial_type":"fractal-mutation","trial_index":77,"time_elapsed":1994260,"internal_node_id":"0.0-5.0-23.0"},{"group":"square cycles (cube, non-group)","fractal_assignment":["../images/ylw_pnk.png","../images/gry_blk.png","../images/cyn_red.png","../images/ylw_slt.png","../images/pnk_blu.png","../images/blu_wht.png","../images/org_blu.png","../images/grn_red.png"],"mutagen_generator_assignment":[0,1],"goal":5,"start":7,"action_noise":0.1,"location_history":"[7,3,2,6,7,3,2,3,0,1,2,3,0,1,2,6,5]","action_history":"[1,1,1,1,1,1,0,0,0,0,0,0,1,1,1,1]","mutagen_history":"[1,1,1,1,1,1,0,0,0,0,0,0,1,1,1,1]","location_rts":"[482,269,12,903,92,559,27,152,341,106,486,404,169,409,104,317]","trial_type":"fractal-mutation","trial_index":78,"time_elapsed":2019604,"internal_node_id":"0.0-5.0-24.0"},{"group":"square cycles (cube, non-group)","fractal_assignment":["../images/ylw_pnk.png","../images/gry_blk.png","../images/cyn_red.png","../images/ylw_slt.png","../images/pnk_blu.png","../images/blu_wht.png","../images/org_blu.png","../images/grn_red.png"],"mutagen_generator_assignment":[0,1],"goal":0,"start":5,"action_noise":0.1,"location_history":"[5,1,2,3,0]","action_history":"[1,0,0,0]","mutagen_history":"[1,0,0,0]","location_rts":"[674,6,134,282]","trial_type":"fractal-mutation","trial_index":79,"time_elapsed":2028354,"internal_node_id":"0.0-5.0-25.0"},{"group":"square cycles (cube, non-group)","fractal_assignment":["../images/ylw_pnk.png","../images/gry_blk.png","../images/cyn_red.png","../images/ylw_slt.png","../images/pnk_blu.png","../images/blu_wht.png","../images/org_blu.png","../images/grn_red.png"],"mutagen_generator_assignment":[0,1],"goal":6,"start":0,"action_noise":0.1,"location_history":"[0,4,7,6]","action_history":"[1,0,0]","mutagen_history":"[1,0,0]","location_rts":"[500,13,109]","trial_type":"fractal-mutation","trial_index":80,"time_elapsed":2035602,"internal_node_id":"0.0-5.0-26.0"},{"group":"square cycles (cube, non-group)","fractal_assignment":["../images/ylw_pnk.png","../images/gry_blk.png","../images/cyn_red.png","../images/ylw_slt.png","../images/pnk_blu.png","../images/blu_wht.png","../images/org_blu.png","../images/grn_red.png"],"mutagen_generator_assignment":[0,1],"goal":4,"start":6,"action_noise":0.1,"location_history":"[6,7,6,7,3,2,3,0,1,0,4]","action_history":"[1,0,1,1,1,1,0,0,1,1]","mutagen_history":"[1,0,1,1,1,1,0,0,1,1]","location_rts":"[1251,221,584,361,429,95,57,28,196,268]","trial_type":"fractal-mutation","trial_index":81,"time_elapsed":2053396,"internal_node_id":"0.0-5.0-27.0"},{"group":"square cycles (cube, non-group)","fractal_assignment":["../images/ylw_pnk.png","../images/gry_blk.png","../images/cyn_red.png","../images/ylw_slt.png","../images/pnk_blu.png","../images/blu_wht.png","../images/org_blu.png","../images/grn_red.png"],"mutagen_generator_assignment":[0,1],"goal":2,"start":4,"action_noise":0.1,"location_history":"[4,5,4,7,3,0,1,0,4,5,1,0,1,2]","action_history":"[1,0,0,0,0,0,1,1,1,1,1,0,0]","mutagen_history":"[1,0,0,0,0,0,1,1,1,1,1,0,0]","location_rts":"[688,300,76,899,15,103,250,226,13,362,332,15,91]","trial_type":"fractal-mutation","trial_index":82,"time_elapsed":2076317,"internal_node_id":"0.0-5.0-28.0"},{"group":"square cycles (cube, non-group)","fractal_assignment":["../images/ylw_pnk.png","../images/gry_blk.png","../images/cyn_red.png","../images/ylw_slt.png","../images/pnk_blu.png","../images/blu_wht.png","../images/org_blu.png","../images/grn_red.png"],"mutagen_generator_assignment":[0,1],"goal":3,"start":2,"action_noise":0.1,"location_history":"[2,3]","action_history":"[0]","mutagen_history":"[0]","location_rts":"[599]","trial_type":"fractal-mutation","trial_index":83,"time_elapsed":2081472,"internal_node_id":"0.0-5.0-29.0"},{"group":"square cycles (cube, non-group)","fractal_assignment":["../images/ylw_pnk.png","../images/gry_blk.png","../images/cyn_red.png","../images/ylw_slt.png","../images/pnk_blu.png","../images/blu_wht.png","../images/org_blu.png","../images/grn_red.png"],"mutagen_generator_assignment":[0,1],"goal":1,"start":3,"action_noise":0.1,"location_history":"[3,2,3,0,1]","action_history":"[1,0,0,0]","mutagen_history":"[1,0,0,0]","location_rts":"[821,267,665,1514]","trial_type":"fractal-mutation","trial_index":84,"time_elapsed":2092701,"internal_node_id":"0.0-5.0-30.0"},{"group":"square cycles (cube, non-group)","fractal_assignment":["../images/ylw_pnk.png","../images/gry_blk.png","../images/cyn_red.png","../images/ylw_slt.png","../images/pnk_blu.png","../images/blu_wht.png","../images/org_blu.png","../images/grn_red.png"],"mutagen_generator_assignment":[0,1],"goal":4,"start":1,"action_noise":0.1,"location_history":"[1,2,6,7,3,0,1,0,4]","action_history":"[0,1,1,1,0,1,1,1]","mutagen_history":"[0,1,1,1,0,1,1,1]","location_rts":"[487,117,234,193,320,42,315,50]","trial_type":"fractal-mutation","trial_index":85,"time_elapsed":2107556,"internal_node_id":"0.0-5.0-31.0"},{"group":"square cycles (cube, non-group)","fractal_assignment":["../images/ylw_pnk.png","../images/gry_blk.png","../images/cyn_red.png","../images/ylw_slt.png","../images/pnk_blu.png","../images/blu_wht.png","../images/org_blu.png","../images/grn_red.png"],"mutagen_generator_assignment":[0,1],"goal":3,"start":4,"action_noise":0.1,"location_history":"[4,5,1,0,4,7,3]","action_history":"[1,1,1,1,1,1]","mutagen_history":"[1,1,1,1,1,1]","location_rts":"[529,36,524,107,553,228]","trial_type":"fractal-mutation","trial_index":86,"time_elapsed":2119902,"internal_node_id":"0.0-5.0-32.0"},{"group":"square cycles (cube, non-group)","fractal_assignment":["../images/ylw_pnk.png","../images/gry_blk.png","../images/cyn_red.png","../images/ylw_slt.png","../images/pnk_blu.png","../images/blu_wht.png","../images/org_blu.png","../images/grn_red.png"],"mutagen_generator_assignment":[0,1],"goal":6,"start":3,"action_noise":0.1,"location_history":"[3,2,3,0,1,2,3,0,4,5,1,2,3,0,1,0,1,0,1,0,4,5,4,7,6]","action_history":"[1,0,0,0,0,0,0,1,1,1,0,0,0,0,0,0,0,1,1,1,1,1,1,1]","mutagen_history":"[1,0,0,0,0,0,0,1,1,1,0,0,0,0,0,0,0,1,1,1,1,1,1,1]","location_rts":"[648,170,222,310,530,276,26,184,86,109,192,180,126,450,763,38,416,885,70,310,203,202,1173,325]","trial_type":"fractal-mutation","trial_index":87,"time_elapsed":2157032,"internal_node_id":"0.0-5.0-33.0"},{"group":"square cycles (cube, non-group)","fractal_assignment":["../images/ylw_pnk.png","../images/gry_blk.png","../images/cyn_red.png","../images/ylw_slt.png","../images/pnk_blu.png","../images/blu_wht.png","../images/org_blu.png","../images/grn_red.png"],"mutagen_generator_assignment":[0,1],"goal":0,"start":6,"action_noise":0.1,"location_history":"[6,7,3,2,3,0]","action_history":"[1,1,1,0,0]","mutagen_history":"[1,1,1,0,0]","location_rts":"[61,609,1573,316,200]","trial_type":"fractal-mutation","trial_index":88,"time_elapsed":2168662,"internal_node_id":"0.0-5.0-34.0"},{"group":"square cycles (cube, non-group)","fractal_assignment":["../images/ylw_pnk.png","../images/gry_blk.png","../images/cyn_red.png","../images/ylw_slt.png","../images/pnk_blu.png","../images/blu_wht.png","../images/org_blu.png","../images/grn_red.png"],"mutagen_generator_assignment":[0,1],"goal":1,"start":0,"action_noise":0.1,"location_history":"[0,4,5,1]","action_history":"[0,1,1]","mutagen_history":"[0,1,1]","location_rts":"[604,39,793]","trial_type":"fractal-mutation","trial_index":89,"time_elapsed":2176919,"internal_node_id":"0.0-5.0-35.0"},{"group":"square cycles (cube, non-group)","fractal_assignment":["../images/ylw_pnk.png","../images/gry_blk.png","../images/cyn_red.png","../images/ylw_slt.png","../images/pnk_blu.png","../images/blu_wht.png","../images/org_blu.png","../images/grn_red.png"],"mutagen_generator_assignment":[0,1],"goal":5,"start":1,"action_noise":0.1,"location_history":"[1,0,4,7,3,0,4,5]","action_history":"[1,1,1,1,0,1,1]","mutagen_history":"[1,1,1,1,0,1,1]","location_rts":"[561,236,141,136,235,105,79]","trial_type":"fractal-mutation","trial_index":90,"time_elapsed":2189407,"internal_node_id":"0.0-5.0-36.0"},{"group":"square cycles (cube, non-group)","fractal_assignment":["../images/ylw_pnk.png","../images/gry_blk.png","../images/cyn_red.png","../images/ylw_slt.png","../images/pnk_blu.png","../images/blu_wht.png","../images/org_blu.png","../images/grn_red.png"],"mutagen_generator_assignment":[0,1],"goal":7,"start":5,"action_noise":0.1,"location_history":"[5,1,2,3,0,4,7]","action_history":"[1,1,0,0,0,0]","mutagen_history":"[1,1,0,0,0,0]","location_rts":"[294,227,264,135,88,22]","trial_type":"fractal-mutation","trial_index":91,"time_elapsed":2200265,"internal_node_id":"0.0-5.0-37.0"},{"group":"square cycles (cube, non-group)","fractal_assignment":["../images/ylw_pnk.png","../images/gry_blk.png","../images/cyn_red.png","../images/ylw_slt.png","../images/pnk_blu.png","../images/blu_wht.png","../images/org_blu.png","../images/grn_red.png"],"mutagen_generator_assignment":[0,1],"goal":2,"start":7,"action_noise":0.1,"location_history":"[7,3,2]","action_history":"[1,1]","mutagen_history":"[1,1]","location_rts":"[1498,142]","trial_type":"fractal-mutation","trial_index":92,"time_elapsed":2207501,"internal_node_id":"0.0-5.0-38.0"},{"group":"square cycles (cube, non-group)","fractal_assignment":["../images/ylw_pnk.png","../images/gry_blk.png","../images/cyn_red.png","../images/ylw_slt.png","../images/pnk_blu.png","../images/blu_wht.png","../images/org_blu.png","../images/grn_red.png"],"mutagen_generator_assignment":[0,1],"goal":1,"start":2,"action_noise":0.1,"location_history":"[2,6,5,1]","action_history":"[1,1,1]","mutagen_history":"[1,1,1]","location_rts":"[82,526,170]","trial_type":"fractal-mutation","trial_index":93,"time_elapsed":2215061,"internal_node_id":"0.0-5.0-39.0"},{"group":"square cycles (cube, non-group)","fractal_assignment":["../images/ylw_pnk.png","../images/gry_blk.png","../images/cyn_red.png","../images/ylw_slt.png","../images/pnk_blu.png","../images/blu_wht.png","../images/org_blu.png","../images/grn_red.png"],"mutagen_generator_assignment":[0,1],"goal":3,"start":1,"action_noise":0.1,"location_history":"[1,0,1,2,6,7,3]","action_history":"[1,0,0,1,1,1]","mutagen_history":"[1,0,0,1,1,1]","location_rts":"[570,130,104,37,92,324]","trial_type":"fractal-mutation","trial_index":94,"time_elapsed":2226428,"internal_node_id":"0.0-5.0-40.0"},{"group":"square cycles (cube, non-group)","fractal_assignment":["../images/ylw_pnk.png","../images/gry_blk.png","../images/cyn_red.png","../images/ylw_slt.png","../images/pnk_blu.png","../images/blu_wht.png","../images/org_blu.png","../images/grn_red.png"],"mutagen_generator_assignment":[0,1],"goal":4,"start":3,"action_noise":0.1,"location_history":"[3,2,3,2,6,7,3,2,6,7,3,0,1,2,6,7,6,5,1,0,4]","action_history":"[1,0,1,1,1,1,1,1,1,1,0,0,0,1,1,1,1,1,1,1]","mutagen_history":"[1,0,1,1,1,1,1,1,1,1,0,0,0,1,1,1,1,1,1,1]","location_rts":"[631,236,9,313,327,12,113,604,56,372,1452,181,55,238,141,158,202,51,181,283]","trial_type":"fractal-mutation","trial_index":95,"time_elapsed":2256734,"internal_node_id":"0.0-5.0-41.0"},{"group":"square cycles (cube, non-group)","fractal_assignment":["../images/ylw_pnk.png","../images/gry_blk.png","../images/cyn_red.png","../images/ylw_slt.png","../images/pnk_blu.png","../images/blu_wht.png","../images/org_blu.png","../images/grn_red.png"],"mutagen_generator_assignment":[0,1],"goal":2,"start":4,"action_noise":0.1,"location_history":"[4,7,3,2]","action_history":"[0,1,1]","mutagen_history":"[0,1,1]","location_rts":"[197,22,81]","trial_type":"fractal-mutation","trial_index":96,"time_elapsed":2263756,"internal_node_id":"0.0-5.0-42.0"},{"group":"square cycles (cube, non-group)","fractal_assignment":["../images/ylw_pnk.png","../images/gry_blk.png","../images/cyn_red.png","../images/ylw_slt.png","../images/pnk_blu.png","../images/blu_wht.png","../images/org_blu.png","../images/grn_red.png"],"mutagen_generator_assignment":[0,1],"goal":5,"start":2,"action_noise":0.1,"location_history":"[2,6,5]","action_history":"[1,1]","mutagen_history":"[1,1]","location_rts":"[143,103]","trial_type":"fractal-mutation","trial_index":97,"time_elapsed":2269592,"internal_node_id":"0.0-5.0-43.0"},{"group":"square cycles (cube, non-group)","fractal_assignment":["../images/ylw_pnk.png","../images/gry_blk.png","../images/cyn_red.png","../images/ylw_slt.png","../images/pnk_blu.png","../images/blu_wht.png","../images/org_blu.png","../images/grn_red.png"],"mutagen_generator_assignment":[0,1],"goal":0,"start":5,"action_noise":0.1,"location_history":"[5,1,2,3,0]","action_history":"[1,0,0,0]","mutagen_history":"[1,0,0,0]","location_rts":"[475,318,182,246]","trial_type":"fractal-mutation","trial_index":98,"time_elapsed":2278606,"internal_node_id":"0.0-5.0-44.0"},{"group":"square cycles (cube, non-group)","fractal_assignment":["../images/ylw_pnk.png","../images/gry_blk.png","../images/cyn_red.png","../images/ylw_slt.png","../images/pnk_blu.png","../images/blu_wht.png","../images/org_blu.png","../images/grn_red.png"],"mutagen_generator_assignment":[0,1],"goal":7,"start":0,"action_noise":0.1,"location_history":"[0,1,2,6,7]","action_history":"[0,1,1,1]","mutagen_history":"[0,1,1,1]","location_rts":"[341,258,271,93]","trial_type":"fractal-mutation","trial_index":99,"time_elapsed":2287391,"internal_node_id":"0.0-5.0-45.0"},{"group":"square cycles (cube, non-group)","fractal_assignment":["../images/ylw_pnk.png","../images/gry_blk.png","../images/cyn_red.png","../images/ylw_slt.png","../images/pnk_blu.png","../images/blu_wht.png","../images/org_blu.png","../images/grn_red.png"],"mutagen_generator_assignment":[0,1],"goal":6,"start":7,"action_noise":0.1,"location_history":"[7,6]","action_history":"[1]","mutagen_history":"[1]","location_rts":"[69]","trial_type":"fractal-mutation","trial_index":100,"time_elapsed":2292128,"internal_node_id":"0.0-5.0-46.0"},{"group":"square cycles (cube, non-group)","fractal_assignment":["../images/ylw_pnk.png","../images/gry_blk.png","../images/cyn_red.png","../images/ylw_slt.png","../images/pnk_blu.png","../images/blu_wht.png","../images/org_blu.png","../images/grn_red.png"],"mutagen_generator_assignment":[0,1],"goal":2,"start":6,"action_noise":0.1,"location_history":"[6,5,1,0,4,7,6,7,3,0,4,5,4,7,6,7,6,5,1,0,1,2]","action_history":"[1,1,1,0,0,0,1,1,1,1,1,0,0,0,0,0,1,1,1,1,0]","mutagen_history":"[1,1,1,0,0,0,1,1,1,1,1,0,0,0,0,0,1,1,1,1,0]","location_rts":"[465,319,112,149,135,71,325,178,13,318,27,316,775,660,245,154,1737,125,124,734,335]","trial_type":"fractal-mutation","trial_index":101,"time_elapsed":2325110,"internal_node_id":"0.0-5.0-47.0"},{"group":"square cycles (cube, non-group)","fractal_assignment":["../images/ylw_pnk.png","../images/gry_blk.png","../images/cyn_red.png","../images/ylw_slt.png","../images/pnk_blu.png","../images/blu_wht.png","../images/org_blu.png","../images/grn_red.png"],"mutagen_generator_assignment":[0,1],"goal":5,"start":2,"action_noise":0.1,"location_history":"[2,6,7,3,2,6,5]","action_history":"[1,1,1,1,1,0]","mutagen_history":"[1,1,1,1,1,0]","location_rts":"[109,110,114,956,413,369]","trial_type":"fractal-mutation","trial_index":102,"time_elapsed":2337021,"internal_node_id":"0.0-5.0-48.0"},{"group":"square cycles (cube, non-group)","fractal_assignment":["../images/ylw_pnk.png","../images/gry_blk.png","../images/cyn_red.png","../images/ylw_slt.png","../images/pnk_blu.png","../images/blu_wht.png","../images/org_blu.png","../images/grn_red.png"],"mutagen_generator_assignment":[0,1],"goal":3,"start":5,"action_noise":0.1,"location_history":"[5,4,7,6,7,6,5,4,7,3]","action_history":"[0,0,0,1,0,0,0,0,1]","mutagen_history":"[0,0,0,1,0,0,0,0,1]","location_rts":"[517,616,201,890,1775,180,249,189,37]","trial_type":"fractal-mutation","trial_index":103,"time_elapsed":2354727,"internal_node_id":"0.0-5.0-49.0"},{"view_history":"[{\"page_index\":0,\"viewing_time\":4257}]","rt":4258,"trial_type":"instructions","trial_index":104,"time_elapsed":2359986,"internal_node_id":"0.0-6.0"},{"rt":9314,"responses":"{\"Q0\":\"memory\"}","trial_type":"survey-text","trial_index":105,"time_elapsed":2370306,"internal_node_id":"0.0-7.0-0.0"},{"rt":5132,"responses":"{\"Q0\":\"memory\"}","trial_type":"survey-text","trial_index":106,"time_elapsed":2376442,"internal_node_id":"0.0-7.0-1.0"},{"rt":4279,"responses":"{}","trial_type":"survey-multi-choice","trial_index":107,"time_elapsed":2381730,"internal_node_id":"0.0-7.0-2.0"},{"rt":41021,"assignments":["../images/ylw_pnk.png","../images/org_blu.png","../images/gry_blk.png","../images/cyn_red.png","../images/pnk_blu.png","../images/ylw_slt.png","../images/blu_wht.png","../images/grn_red.png"],"trial_type":"drag-drop-on-image","trial_index":108,"time_elapsed":2423755,"internal_node_id":"0.0-7.0-3.0"},{"rt":3883,"responses":"{\"Q0\":\"3\"}","trial_type":"survey-likert","trial_index":109,"time_elapsed":2428645,"internal_node_id":"0.0-7.0-4.0"},{"rt":7906,"responses":"{\"Q0\":\"not much\"}","trial_type":"survey-text","trial_index":110,"time_elapsed":2437555,"internal_node_id":"0.0-7.0-5.0"},{"rt":3989,"responses":"{\"Q0\":\"No\"}","trial_type":"survey-multi-choice","trial_index":111,"time_elapsed":2442551,"internal_node_id":"0.0-7.0-6.0"},{"rt":5672,"responses":"{\"Q0\":\"Did not notice\"}","trial_type":"survey-multi-choice","trial_index":112,"time_elapsed":2449232,"internal_node_id":"0.0-7.0-7.0"},{"rt":2494,"responses":"{\"Q0\":\"\"}","trial_type":"survey-text","trial_index":113,"time_elapsed":2452731,"internal_node_id":"0.0-7.0-8.0"},{"rt":3414,"responses":"{\"Q0\":\"3\"}","trial_type":"survey-likert","trial_index":114,"time_elapsed":2457149,"internal_node_id":"0.0-7.0-9.0"},{"rt":5264,"responses":"{\"Q0\":\"Different structure\"}","trial_type":"survey-multi-choice","trial_index":115,"time_elapsed":2463420,"internal_node_id":"0.0-7.0-10.0"},{"rt":7315,"responses":"{\"Q0\":\"left (black) door = acid, (white) door = ray\",\"Q1\":\"Pretty confident\"}","trial_type":"survey-multi-choice","trial_index":116,"time_elapsed":2471744,"internal_node_id":"0.0-7.0-11.0"},{"rt":10213,"responses":"{\"Q0\":\"25-35\",\"Q1\":\"Associates or other two-year degree\",\"Q2\":\"Female\",\"Q3\":\"White\"}","trial_type":"survey-multi-choice","trial_index":117,"time_elapsed":2482979,"internal_node_id":"0.0-8.0"},{"rt":2330,"responses":"{\"Q0\":\"\"}","trial_type":"survey-text","trial_index":118,"time_elapsed":2486311,"internal_node_id":"0.0-9.0"}]