[{"view_history":"[{\"page_index\":0,\"viewing_time\":2233},{\"page_index\":1,\"viewing_time\":8867}]","rt":11101,"trial_type":"instructions","trial_index":0,"time_elapsed":11101,"internal_node_id":"0.0-0.0"},{"view_history":"[{\"page_index\":0,\"viewing_time\":1714},{\"page_index\":1,\"viewing_time\":315510}]","rt":317226,"trial_type":"instructions","trial_index":1,"time_elapsed":329328,"internal_node_id":"0.0-1.0"},{"group":"square cycles (cube, non-group)","room_assignment":["pink","blue","purple","brown","green","grey","red","yellow"],"door_color_assignment":["white","black"],"door_generator_assignment":[1,0],"goal":5,"start":7,"action_noise":0.1,"location_history":"[7,6,5]","action_history":"[0,0]","door_history":"[1,1]","location_rts":"[2215,707]","trial_type":"two-door-navigation","trial_index":2,"time_elapsed":337762,"internal_node_id":"0.0-2.0-0.0"},{"group":"square cycles (cube, non-group)","room_assignment":["pink","blue","purple","brown","green","grey","red","yellow"],"door_color_assignment":["white","black"],"door_generator_assignment":[1,0],"goal":2,"start":5,"action_noise":0.1,"location_history":"[5,1,0,1,2]","action_history":"[1,1,0,0]","door_history":"[0,0,1,1]","location_rts":"[2060,429,971,1093]","trial_type":"two-door-navigation","trial_index":3,"time_elapsed":349833,"internal_node_id":"0.0-2.0-1.0"},{"group":"square cycles (cube, non-group)","room_assignment":["pink","blue","purple","brown","green","grey","red","yellow"],"door_color_assignment":["white","black"],"door_generator_assignment":[1,0],"goal":0,"start":2,"action_noise":0.1,"location_history":"[2,6,7,3,0]","action_history":"[1,1,1,0]","door_history":"[0,0,0,1]","location_rts":"[1735,721,814,1055]","trial_type":"two-door-navigation","trial_index":4,"time_elapsed":361672,"internal_node_id":"0.0-2.0-2.0"},{"group":"square cycles (cube, non-group)","room_assignment":["pink","blue","purple","brown","green","grey","red","yellow"],"door_color_assignment":["white","black"],"door_generator_assignment":[1,0],"goal":1,"start":0,"action_noise":0.1,"location_history":"[0,1]","action_history":"[0]","door_history":"[1]","location_rts":"[1646]","trial_type":"two-door-navigation","trial_index":5,"time_elapsed":367822,"internal_node_id":"0.0-2.0-3.0"},{"group":"square cycles (cube, non-group)","room_assignment":["pink","blue","purple","brown","green","grey","red","yellow"],"door_color_assignment":["white","black"],"door_generator_assignment":[1,0],"goal":6,"start":1,"action_noise":0.1,"location_history":"[1,2,3,2,3,0,1,2,6]","action_history":"[0,1,1,0,0,0,0,1]","door_history":"[1,0,0,1,1,1,1,0]","location_rts":"[2169,1565,871,1390,604,419,1458,1089]","trial_type":"two-door-navigation","trial_index":6,"time_elapsed":388920,"internal_node_id":"0.0-2.0-4.0"},{"group":"square cycles (cube, non-group)","room_assignment":["pink","blue","purple","brown","green","grey","red","yellow"],"door_color_assignment":["white","black"],"door_generator_assignment":[1,0],"goal":3,"start":6,"action_noise":0.1,"location_history":"[6,5,1,0,1,2,6,5,1,2,3]","action_history":"[0,1,1,0,0,1,0,1,0,0]","door_history":"[1,0,0,1,1,0,1,0,1,1]","location_rts":"[2118,1704,780,518,921,1486,1312,1002,884,617]","trial_type":"two-door-navigation","trial_index":7,"time_elapsed":413806,"internal_node_id":"0.0-2.0-5.0"},{"group":"square cycles (cube, non-group)","room_assignment":["pink","blue","purple","brown","green","grey","red","yellow"],"door_color_assignment":["white","black"],"door_generator_assignment":[1,0],"goal":4,"start":3,"action_noise":0.1,"location_history":"[3,0,1,2,6,5,4]","action_history":"[0,0,0,1,0,0]","door_history":"[1,1,1,0,1,1]","location_rts":"[1529,2593,1317,1564,1420,859]","trial_type":"two-door-navigation","trial_index":8,"time_elapsed":432614,"internal_node_id":"0.0-2.0-6.0"},{"group":"square cycles (cube, non-group)","room_assignment":["pink","blue","purple","brown","green","grey","red","yellow"],"door_color_assignment":["white","black"],"door_generator_assignment":[1,0],"goal":1,"start":4,"action_noise":0.1,"location_history":"[4,7,6,7,3,2,3,0,1]","action_history":"[0,0,1,1,1,0,0,0]","door_history":"[1,1,0,0,0,1,1,1]","location_rts":"[588,486,339,449,415,700,395,410]","trial_type":"two-door-navigation","trial_index":9,"time_elapsed":447923,"internal_node_id":"0.0-2.0-7.0"},{"group":"square cycles (cube, non-group)","room_assignment":["pink","blue","purple","brown","green","grey","red","yellow"],"door_color_assignment":["white","black"],"door_generator_assignment":[1,0],"goal":4,"start":1,"action_noise":0.1,"location_history":"[1,0,1,0,4]","action_history":"[1,0,1,1]","door_history":"[0,1,0,0]","location_rts":"[1247,1676,347,272]","trial_type":"two-door-navigation","trial_index":10,"time_elapsed":458986,"internal_node_id":"0.0-2.0-8.0"},{"group":"square cycles (cube, non-group)","room_assignment":["pink","blue","purple","brown","green","grey","red","yellow"],"door_color_assignment":["white","black"],"door_generator_assignment":[1,0],"goal":5,"start":4,"action_noise":0.1,"location_history":"[4,7,3,0,4,5]","action_history":"[0,0,0,1,1]","door_history":"[1,1,1,0,0]","location_rts":"[1240,678,719,449,456]","trial_type":"two-door-navigation","trial_index":11,"time_elapsed":471048,"internal_node_id":"0.0-2.0-9.0"},{"group":"square cycles (cube, non-group)","room_assignment":["pink","blue","purple","brown","green","grey","red","yellow"],"door_color_assignment":["white","black"],"door_generator_assignment":[1,0],"goal":3,"start":5,"action_noise":0.1,"location_history":"[5,1,2,3]","action_history":"[0,0,0]","door_history":"[1,1,1]","location_rts":"[1382,639,755]","trial_type":"two-door-navigation","trial_index":12,"time_elapsed":480336,"internal_node_id":"0.0-2.0-10.0"},{"group":"square cycles (cube, non-group)","room_assignment":["pink","blue","purple","brown","green","grey","red","yellow"],"door_color_assignment":["white","black"],"door_generator_assignment":[1,0],"goal":6,"start":3,"action_noise":0.1,"location_history":"[3,2,6]","action_history":"[1,1]","door_history":"[0,0]","location_rts":"[1059,729]","trial_type":"two-door-navigation","trial_index":13,"time_elapsed":487633,"internal_node_id":"0.0-2.0-11.0"},{"group":"square cycles (cube, non-group)","room_assignment":["pink","blue","purple","brown","green","grey","red","yellow"],"door_color_assignment":["white","black"],"door_generator_assignment":[1,0],"goal":7,"start":6,"action_noise":0.1,"location_history":"[6,5,1,2,6,5,1,0,1,0,1,2,3,2,6,5,1,0,4,7]","action_history":"[0,1,1,1,0,1,1,1,1,0,0,0,1,1,1,1,1,0,0]","door_history":"[1,0,0,0,1,0,0,0,0,1,1,1,0,0,0,0,0,1,1]","location_rts":"[6420,731,309,316,220,761,329,397,829,409,379,376,892,370,439,398,392,216,435]","trial_type":"two-door-navigation","trial_index":14,"time_elapsed":524811,"internal_node_id":"0.0-2.0-12.0"},{"group":"square cycles (cube, non-group)","room_assignment":["pink","blue","purple","brown","green","grey","red","yellow"],"door_color_assignment":["white","black"],"door_generator_assignment":[1,0],"goal":0,"start":7,"action_noise":0.1,"location_history":"[7,3,2,6,7,3,2,6,7,3,2,6,7,6,5,4,7,3,2,6,7,3,2,6,7,3,2,3,2,3,2,6,7,3,2,6,7,6,7,3,2,3,0]","action_history":"[1,1,1,1,1,1,1,1,1,1,1,1,0,0,0,0,1,1,0,0,1,1,1,1,0,0,0,0,0,1,1,1,1,0,1,1,0,1,1,1,0,0]","door_history":"[0,0,0,0,0,0,0,0,0,0,0,0,1,1,1,1,0,0,1,1,0,0,0,0,1,1,1,1,1,0,0,0,0,1,0,0,1,0,0,0,1,1]","location_rts":"[1639,408,633,488,575,367,427,416,549,1041,749,578,452,496,497,477,442,371,347,389,387,366,341,363,316,323,348,344,372,221,325,371,333,207,231,228,160,321,1267,359,552,434]","trial_type":"two-door-navigation","trial_index":15,"time_elapsed":589964,"internal_node_id":"0.0-2.0-13.0"},{"group":"square cycles (cube, non-group)","room_assignment":["pink","blue","purple","brown","green","grey","red","yellow"],"door_color_assignment":["white","black"],"door_generator_assignment":[1,0],"goal":2,"start":0,"action_noise":0.1,"location_history":"[0,1,0,1,2]","action_history":"[0,1,0,0]","door_history":"[1,0,1,1]","location_rts":"[1931,827,1406,395]","trial_type":"two-door-navigation","trial_index":16,"time_elapsed":602043,"internal_node_id":"0.0-2.0-14.0"},{"group":"square cycles (cube, non-group)","room_assignment":["pink","blue","purple","brown","green","grey","red","yellow"],"door_color_assignment":["white","black"],"door_generator_assignment":[1,0],"goal":1,"start":2,"action_noise":0.1,"location_history":"[2,3,0,4,5,1]","action_history":"[0,0,1,1,1]","door_history":"[1,1,0,0,0]","location_rts":"[1121,688,734,410,676]","trial_type":"two-door-navigation","trial_index":17,"time_elapsed":614198,"internal_node_id":"0.0-2.0-15.0"},{"group":"square cycles (cube, non-group)","room_assignment":["pink","blue","purple","brown","green","grey","red","yellow"],"door_color_assignment":["white","black"],"door_generator_assignment":[1,0],"goal":6,"start":1,"action_noise":0.1,"location_history":"[1,0,1,0,1,2,3,2,6]","action_history":"[1,1,1,0,0,0,1,1]","door_history":"[0,0,0,1,1,1,0,0]","location_rts":"[1351,1604,744,716,672,668,1184,414]","trial_type":"two-door-navigation","trial_index":18,"time_elapsed":633074,"internal_node_id":"0.0-2.0-16.0"},{"group":"square cycles (cube, non-group)","room_assignment":["pink","blue","purple","brown","green","grey","red","yellow"],"door_color_assignment":["white","black"],"door_generator_assignment":[1,0],"goal":3,"start":6,"action_noise":0.1,"location_history":"[6,7,6,7,3]","action_history":"[0,0,1,1]","door_history":"[1,1,0,0]","location_rts":"[2338,597,589,481]","trial_type":"two-door-navigation","trial_index":19,"time_elapsed":644588,"internal_node_id":"0.0-2.0-17.0"},{"group":"square cycles (cube, non-group)","room_assignment":["pink","blue","purple","brown","green","grey","red","yellow"],"door_color_assignment":["white","black"],"door_generator_assignment":[1,0],"goal":4,"start":3,"action_noise":0.1,"location_history":"[3,2,3,0,1,2,6,7,3,0,1,2,6,7,6,5,4]","action_history":"[1,0,0,0,0,1,1,1,0,0,0,1,1,1,0,0]","door_history":"[0,1,1,1,1,0,0,0,1,1,1,0,0,0,1,1]","location_rts":"[1927,567,554,417,396,268,371,557,395,385,444,344,269,393,255,296]","trial_type":"two-door-navigation","trial_index":20,"time_elapsed":672002,"internal_node_id":"0.0-2.0-18.0"},{"group":"square cycles (cube, non-group)","room_assignment":["pink","blue","purple","brown","green","grey","red","yellow"],"door_color_assignment":["white","black"],"door_generator_assignment":[1,0],"goal":5,"start":4,"action_noise":0.1,"location_history":"[4,7,6,5]","action_history":"[0,0,0]","door_history":"[1,1,1]","location_rts":"[1819,356,412]","trial_type":"two-door-navigation","trial_index":21,"time_elapsed":681099,"internal_node_id":"0.0-2.0-19.0"},{"group":"square cycles (cube, non-group)","room_assignment":["pink","blue","purple","brown","green","grey","red","yellow"],"door_color_assignment":["white","black"],"door_generator_assignment":[1,0],"goal":7,"start":5,"action_noise":0.1,"location_history":"[5,1,2,3,0,4,7]","action_history":"[1,0,0,0,1,1]","door_history":"[0,1,1,1,0,0]","location_rts":"[1553,985,381,597,643,342]","trial_type":"two-door-navigation","trial_index":22,"time_elapsed":695115,"internal_node_id":"0.0-2.0-20.0"},{"group":"square cycles (cube, non-group)","room_assignment":["pink","blue","purple","brown","green","grey","red","yellow"],"door_color_assignment":["white","black"],"door_generator_assignment":[1,0],"goal":2,"start":7,"action_noise":0.1,"location_history":"[7,6,5,4,7,3,0,4,5,4,7,6,7,3,0,1,2]","action_history":"[0,0,0,0,1,0,1,1,0,0,0,1,1,0,0,0]","door_history":"[1,1,1,1,0,1,0,0,1,1,1,0,0,1,1,1]","location_rts":"[1308,522,1361,2249,675,621,915,490,797,376,598,453,600,627,309,282]","trial_type":"two-door-navigation","trial_index":23,"time_elapsed":726855,"internal_node_id":"0.0-2.0-21.0"},{"group":"square cycles (cube, non-group)","room_assignment":["pink","blue","purple","brown","green","grey","red","yellow"],"door_color_assignment":["white","black"],"door_generator_assignment":[1,0],"goal":0,"start":2,"action_noise":0.1,"location_history":"[2,3,2,3,0]","action_history":"[1,1,0,0]","door_history":"[0,0,1,1]","location_rts":"[1139,766,947,418]","trial_type":"two-door-navigation","trial_index":24,"time_elapsed":737638,"internal_node_id":"0.0-2.0-22.0"},{"group":"square cycles (cube, non-group)","room_assignment":["pink","blue","purple","brown","green","grey","red","yellow"],"door_color_assignment":["white","black"],"door_generator_assignment":[1,0],"goal":7,"start":0,"action_noise":0.1,"location_history":"[0,4,5,4,7]","action_history":"[1,1,0,0]","door_history":"[0,0,1,1]","location_rts":"[1028,727,371,419]","trial_type":"two-door-navigation","trial_index":25,"time_elapsed":747698,"internal_node_id":"0.0-2.0-23.0"},{"group":"square cycles (cube, non-group)","room_assignment":["pink","blue","purple","brown","green","grey","red","yellow"],"door_color_assignment":["white","black"],"door_generator_assignment":[1,0],"goal":5,"start":7,"action_noise":0.1,"location_history":"[7,3,2,3,0,1,0,4,5]","action_history":"[1,1,0,0,0,1,1,1]","door_history":"[0,0,1,1,1,0,0,0]","location_rts":"[3026,375,588,356,404,615,302,311]","trial_type":"two-door-navigation","trial_index":26,"time_elapsed":765204,"internal_node_id":"0.0-2.0-24.0"},{"group":"square cycles (cube, non-group)","room_assignment":["pink","blue","purple","brown","green","grey","red","yellow"],"door_color_assignment":["white","black"],"door_generator_assignment":[1,0],"goal":0,"start":5,"action_noise":0.1,"location_history":"[5,4,7,3,2,6,5,1,2,6,7,6,5,1,0]","action_history":"[0,0,1,1,0,0,1,1,1,1,0,0,1,1]","door_history":"[1,1,0,0,1,1,0,0,0,0,1,1,0,0]","location_rts":"[468,339,681,402,262,1315,367,437,341,413,352,465,324,301]","trial_type":"two-door-navigation","trial_index":27,"time_elapsed":789227,"internal_node_id":"0.0-2.0-25.0"},{"group":"square cycles (cube, non-group)","room_assignment":["pink","blue","purple","brown","green","grey","red","yellow"],"door_color_assignment":["white","black"],"door_generator_assignment":[1,0],"goal":6,"start":0,"action_noise":0.1,"location_history":"[0,4,7,6]","action_history":"[1,0,0]","door_history":"[0,1,1]","location_rts":"[1117,773,403]","trial_type":"two-door-navigation","trial_index":28,"time_elapsed":798032,"internal_node_id":"0.0-2.0-26.0"},{"group":"square cycles (cube, non-group)","room_assignment":["pink","blue","purple","brown","green","grey","red","yellow"],"door_color_assignment":["white","black"],"door_generator_assignment":[1,0],"goal":4,"start":6,"action_noise":0.1,"location_history":"[6,7,3,0,1,0,4]","action_history":"[1,1,0,0,1,1]","door_history":"[0,0,1,1,0,0]","location_rts":"[2760,597,1103,823,455,839]","trial_type":"two-door-navigation","trial_index":29,"time_elapsed":814126,"internal_node_id":"0.0-2.0-27.0"},{"group":"square cycles (cube, non-group)","room_assignment":["pink","blue","purple","brown","green","grey","red","yellow"],"door_color_assignment":["white","black"],"door_generator_assignment":[1,0],"goal":2,"start":4,"action_noise":0.1,"location_history":"[4,5,4,7,6,5,4,5,1,0,1,2]","action_history":"[1,0,0,0,0,0,1,1,1,0,0]","door_history":"[0,1,1,1,1,1,0,0,0,1,1]","location_rts":"[1134,427,659,474,445,458,387,493,605,480,465]","trial_type":"two-door-navigation","trial_index":30,"time_elapsed":834683,"internal_node_id":"0.0-2.0-28.0"},{"group":"square cycles (cube, non-group)","room_assignment":["pink","blue","purple","brown","green","grey","red","yellow"],"door_color_assignment":["white","black"],"door_generator_assignment":[1,0],"goal":3,"start":2,"action_noise":0.1,"location_history":"[2,3]","action_history":"[0]","door_history":"[1]","location_rts":"[1405]","trial_type":"two-door-navigation","trial_index":31,"time_elapsed":840591,"internal_node_id":"0.0-2.0-29.0"},{"group":"square cycles (cube, non-group)","room_assignment":["pink","blue","purple","brown","green","grey","red","yellow"],"door_color_assignment":["white","black"],"door_generator_assignment":[1,0],"goal":1,"start":3,"action_noise":0.1,"location_history":"[3,2,6,5,1]","action_history":"[1,1,0,1]","door_history":"[0,0,1,0]","location_rts":"[1185,692,2773,906]","trial_type":"two-door-navigation","trial_index":32,"time_elapsed":853658,"internal_node_id":"0.0-2.0-30.0"},{"group":"square cycles (cube, non-group)","room_assignment":["pink","blue","purple","brown","green","grey","red","yellow"],"door_color_assignment":["white","black"],"door_generator_assignment":[1,0],"goal":4,"start":1,"action_noise":0.1,"location_history":"[1,0,1,2,3,0,1,0,4]","action_history":"[1,0,0,0,0,0,1,1]","door_history":"[0,1,1,1,1,1,0,0]","location_rts":"[969,440,315,420,456,390,756,400]","trial_type":"two-door-navigation","trial_index":33,"time_elapsed":869329,"internal_node_id":"0.0-2.0-31.0"},{"group":"square cycles (cube, non-group)","room_assignment":["pink","blue","purple","brown","green","grey","red","yellow"],"door_color_assignment":["white","black"],"door_generator_assignment":[1,0],"goal":3,"start":4,"action_noise":0.1,"location_history":"[4,7,6,5,1,2,6,7,6,5,4,5,4,7,3]","action_history":"[0,0,0,0,0,1,1,1,0,0,1,0,0,1]","door_history":"[1,1,1,1,1,0,0,0,1,1,0,1,1,0]","location_rts":"[1768,434,371,410,396,323,344,366,489,301,810,785,369,959]","trial_type":"two-door-navigation","trial_index":34,"time_elapsed":894997,"internal_node_id":"0.0-2.0-32.0"},{"group":"square cycles (cube, non-group)","room_assignment":["pink","blue","purple","brown","green","grey","red","yellow"],"door_color_assignment":["white","black"],"door_generator_assignment":[1,0],"goal":6,"start":3,"action_noise":0.1,"location_history":"[3,2,3,2,6]","action_history":"[1,0,1,1]","door_history":"[0,1,0,0]","location_rts":"[973,924,985,400]","trial_type":"two-door-navigation","trial_index":35,"time_elapsed":905793,"internal_node_id":"0.0-2.0-33.0"},{"group":"square cycles (cube, non-group)","room_assignment":["pink","blue","purple","brown","green","grey","red","yellow"],"door_color_assignment":["white","black"],"door_generator_assignment":[1,0],"goal":0,"start":6,"action_noise":0.1,"location_history":"[6,7,3,2,3,2,6,5,1,2,3,2,6,7,3,0]","action_history":"[1,1,0,0,0,1,0,1,0,0,1,1,1,1,0]","door_history":"[0,0,1,1,1,0,1,0,1,1,0,0,0,0,1]","location_rts":"[996,1050,601,374,742,416,1353,671,847,478,886,307,359,470,539]","trial_type":"two-door-navigation","trial_index":36,"time_elapsed":934446,"internal_node_id":"0.0-2.0-34.0"},{"group":"square cycles (cube, non-group)","room_assignment":["pink","blue","purple","brown","green","grey","red","yellow"],"door_color_assignment":["white","black"],"door_generator_assignment":[1,0],"goal":1,"start":0,"action_noise":0.1,"location_history":"[0,4,7,6,5,1]","action_history":"[1,0,0,0,1]","door_history":"[0,1,1,1,0]","location_rts":"[1157,862,425,405,332]","trial_type":"two-door-navigation","trial_index":37,"time_elapsed":946145,"internal_node_id":"0.0-2.0-35.0"},{"group":"square cycles (cube, non-group)","room_assignment":["pink","blue","purple","brown","green","grey","red","yellow"],"door_color_assignment":["white","black"],"door_generator_assignment":[1,0],"goal":5,"start":1,"action_noise":0.1,"location_history":"[1,2,3,0,1,0,1,0,1,2,6,5]","action_history":"[0,0,0,0,1,1,1,0,0,0,0]","door_history":"[1,1,1,1,0,0,0,1,1,1,1]","location_rts":"[1121,415,322,884,359,489,1522,1121,566,723,1210]","trial_type":"two-door-navigation","trial_index":38,"time_elapsed":969423,"internal_node_id":"0.0-2.0-36.0"},{"group":"square cycles (cube, non-group)","room_assignment":["pink","blue","purple","brown","green","grey","red","yellow"],"door_color_assignment":["white","black"],"door_generator_assignment":[1,0],"goal":7,"start":5,"action_noise":0.1,"location_history":"[5,1,0,4,7]","action_history":"[1,1,0,0]","door_history":"[0,0,1,1]","location_rts":"[1108,370,577,891]","trial_type":"two-door-navigation","trial_index":39,"time_elapsed":979887,"internal_node_id":"0.0-2.0-37.0"},{"group":"square cycles (cube, non-group)","room_assignment":["pink","blue","purple","brown","green","grey","red","yellow"],"door_color_assignment":["white","black"],"door_generator_assignment":[1,0],"goal":2,"start":7,"action_noise":0.1,"location_history":"[7,3,0,1,2]","action_history":"[1,0,0,0]","door_history":"[0,1,1,1]","location_rts":"[985,368,476,394]","trial_type":"two-door-navigation","trial_index":40,"time_elapsed":989625,"internal_node_id":"0.0-2.0-38.0"},{"group":"square cycles (cube, non-group)","room_assignment":["pink","blue","purple","brown","green","grey","red","yellow"],"door_color_assignment":["white","black"],"door_generator_assignment":[1,0],"goal":1,"start":2,"action_noise":0.1,"location_history":"[2,3,0,4,5,1]","action_history":"[0,0,1,1,1]","door_history":"[1,1,0,0,0]","location_rts":"[1077,501,346,294,408]","trial_type":"two-door-navigation","trial_index":41,"time_elapsed":1000767,"internal_node_id":"0.0-2.0-39.0"},{"group":"square cycles (cube, non-group)","room_assignment":["pink","blue","purple","brown","green","grey","red","yellow"],"door_color_assignment":["white","black"],"door_generator_assignment":[1,0],"goal":3,"start":1,"action_noise":0.1,"location_history":"[1,2,3]","action_history":"[0,0]","door_history":"[1,1]","location_rts":"[956,359]","trial_type":"two-door-navigation","trial_index":42,"time_elapsed":1007596,"internal_node_id":"0.0-2.0-40.0"},{"group":"square cycles (cube, non-group)","room_assignment":["pink","blue","purple","brown","green","grey","red","yellow"],"door_color_assignment":["white","black"],"door_generator_assignment":[1,0],"goal":4,"start":3,"action_noise":0.1,"location_history":"[3,2,6,5,4]","action_history":"[1,1,0,0]","door_history":"[0,0,1,1]","location_rts":"[915,446,399,380]","trial_type":"two-door-navigation","trial_index":43,"time_elapsed":1017257,"internal_node_id":"0.0-2.0-41.0"},{"group":"square cycles (cube, non-group)","room_assignment":["pink","blue","purple","brown","green","grey","red","yellow"],"door_color_assignment":["white","black"],"door_generator_assignment":[1,0],"goal":2,"start":4,"action_noise":0.1,"location_history":"[4,5,1,0,1,2]","action_history":"[0,1,1,0,0]","door_history":"[1,0,0,1,1]","location_rts":"[1026,383,747,379,319]","trial_type":"two-door-navigation","trial_index":44,"time_elapsed":1028626,"internal_node_id":"0.0-2.0-42.0"},{"group":"square cycles (cube, non-group)","room_assignment":["pink","blue","purple","brown","green","grey","red","yellow"],"door_color_assignment":["white","black"],"door_generator_assignment":[1,0],"goal":5,"start":2,"action_noise":0.1,"location_history":"[2,3,2,3,2,3,0,1,0,4,7,6,5]","action_history":"[0,1,1,1,0,0,0,1,1,0,0,0]","door_history":"[1,0,0,0,1,1,1,0,0,1,1,1]","location_rts":"[610,378,258,329,588,265,382,710,1269,991,432,349]","trial_type":"two-door-navigation","trial_index":45,"time_elapsed":1050738,"internal_node_id":"0.0-2.0-43.0"},{"group":"square cycles (cube, non-group)","room_assignment":["pink","blue","purple","brown","green","grey","red","yellow"],"door_color_assignment":["white","black"],"door_generator_assignment":[1,0],"goal":0,"start":5,"action_noise":0.1,"location_history":"[5,4,7,3,2,6,7,6,5,1,0]","action_history":"[1,0,0,1,1,1,0,0,1,1]","door_history":"[0,1,1,0,0,0,1,1,0,0]","location_rts":"[1013,430,461,344,478,410,559,384,978,374]","trial_type":"two-door-navigation","trial_index":46,"time_elapsed":1069714,"internal_node_id":"0.0-2.0-44.0"},{"group":"square cycles (cube, non-group)","room_assignment":["pink","blue","purple","brown","green","grey","red","yellow"],"door_color_assignment":["white","black"],"door_generator_assignment":[1,0],"goal":7,"start":0,"action_noise":0.1,"location_history":"[0,1,2,6,7]","action_history":"[0,0,0,1]","door_history":"[1,1,1,0]","location_rts":"[827,364,638,869]","trial_type":"two-door-navigation","trial_index":47,"time_elapsed":1079930,"internal_node_id":"0.0-2.0-45.0"},{"group":"square cycles (cube, non-group)","room_assignment":["pink","blue","purple","brown","green","grey","red","yellow"],"door_color_assignment":["white","black"],"door_generator_assignment":[1,0],"goal":6,"start":7,"action_noise":0.1,"location_history":"[7,3,2,6]","action_history":"[0,1,1]","door_history":"[1,0,0]","location_rts":"[1036,442,569]","trial_type":"two-door-navigation","trial_index":48,"time_elapsed":1088488,"internal_node_id":"0.0-2.0-46.0"},{"group":"square cycles (cube, non-group)","room_assignment":["pink","blue","purple","brown","green","grey","red","yellow"],"door_color_assignment":["white","black"],"door_generator_assignment":[1,0],"goal":2,"start":6,"action_noise":0.1,"location_history":"[6,7,6,5,4,7,3,2]","action_history":"[1,0,0,0,0,1,1]","door_history":"[0,1,1,1,1,0,0]","location_rts":"[981,1588,379,347,268,385,399]","trial_type":"two-door-navigation","trial_index":49,"time_elapsed":1103359,"internal_node_id":"0.0-2.0-47.0"},{"group":"square cycles (cube, non-group)","room_assignment":["pink","blue","purple","brown","green","grey","red","yellow"],"door_color_assignment":["white","black"],"door_generator_assignment":[1,0],"goal":5,"start":2,"action_noise":0.1,"location_history":"[2,3,2,6,7,6,5]","action_history":"[0,1,1,1,0,0]","door_history":"[1,0,0,0,1,1]","location_rts":"[1168,432,253,327,242,236]","trial_type":"two-door-navigation","trial_index":50,"time_elapsed":1115536,"internal_node_id":"0.0-2.0-48.0"},{"group":"square cycles (cube, non-group)","room_assignment":["pink","blue","purple","brown","green","grey","red","yellow"],"door_color_assignment":["white","black"],"door_generator_assignment":[1,0],"goal":3,"start":5,"action_noise":0.1,"location_history":"[5,4,7,3]","action_history":"[0,0,0]","door_history":"[1,1,1]","location_rts":"[905,416,536]","trial_type":"two-door-navigation","trial_index":51,"time_elapsed":1123909,"internal_node_id":"0.0-2.0-49.0"},{"view_history":"[{\"page_index\":0,\"viewing_time\":1745}]","rt":1745,"trial_type":"instructions","trial_index":52,"time_elapsed":1126653,"internal_node_id":"0.0-3.0"},{"view_history":"[{\"page_index\":0,\"viewing_time\":56210},{\"page_index\":1,\"viewing_time\":1195}]","rt":57405,"trial_type":"instructions","trial_index":53,"time_elapsed":1185058,"internal_node_id":"0.0-4.0"},{"group":"tri cycles (cube, non-group)","fractal_assignment":["../images/grn_red.png","../images/pnk_blu.png","../images/gry_blk.png","../images/ylw_pnk.png","../images/ylw_slt.png","../images/cyn_red.png","../images/blu_wht.png","../images/org_blu.png"],"mutagen_generator_assignment":[0,1],"goal":5,"start":7,"action_noise":0.1,"location_history":"[7,3,4,7,6,4,7,3,4,0,3,4,7,3,4,7,6,5]","action_history":"[1,1,0,0,0,0,1,1,0,1,1,0,0,1,0,0,1]","mutagen_history":"[1,1,0,0,0,0,1,1,0,1,1,0,0,1,0,0,1]","location_rts":"[5344,255,843,489,548,1086,754,625,873,1115,1010,1196,373,621,987,489,877]","trial_type":"fractal-mutation","trial_index":54,"time_elapsed":1223947,"internal_node_id":"0.0-5.0-0.0"},{"group":"tri cycles (cube, non-group)","fractal_assignment":["../images/grn_red.png","../images/pnk_blu.png","../images/gry_blk.png","../images/ylw_pnk.png","../images/ylw_slt.png","../images/cyn_red.png","../images/blu_wht.png","../images/org_blu.png"],"mutagen_generator_assignment":[0,1],"goal":2,"start":5,"action_noise":0.1,"location_history":"[5,1,0,3,7,3,4,7,3,4,7,6,5,2]","action_history":"[0,0,1,0,1,1,0,1,1,1,0,1,1]","mutagen_history":"[0,0,1,0,1,1,0,1,1,1,0,1,1]","location_rts":"[1569,1162,557,501,686,683,843,634,755,975,566,684,862]","trial_type":"fractal-mutation","trial_index":55,"time_elapsed":1251657,"internal_node_id":"0.0-5.0-1.0"},{"group":"tri cycles (cube, non-group)","fractal_assignment":["../images/grn_red.png","../images/pnk_blu.png","../images/gry_blk.png","../images/ylw_pnk.png","../images/ylw_slt.png","../images/cyn_red.png","../images/blu_wht.png","../images/org_blu.png"],"mutagen_generator_assignment":[0,1],"goal":0,"start":2,"action_noise":0.1,"location_history":"[2,1,5,1,0]","action_history":"[0,1,0,0]","mutagen_history":"[0,1,0,0]","location_rts":"[1336,1193,729,1136]","trial_type":"fractal-mutation","trial_index":56,"time_elapsed":1263741,"internal_node_id":"0.0-5.0-2.0"},{"group":"tri cycles (cube, non-group)","fractal_assignment":["../images/grn_red.png","../images/pnk_blu.png","../images/gry_blk.png","../images/ylw_pnk.png","../images/ylw_slt.png","../images/cyn_red.png","../images/blu_wht.png","../images/org_blu.png"],"mutagen_generator_assignment":[0,1],"goal":1,"start":0,"action_noise":0.1,"location_history":"[0,3,7,6,5,1]","action_history":"[1,0,0,1,0]","mutagen_history":"[1,0,0,1,0]","location_rts":"[1750,1335,317,701,807]","trial_type":"fractal-mutation","trial_index":57,"time_elapsed":1277389,"internal_node_id":"0.0-5.0-3.0"},{"group":"tri cycles (cube, non-group)","fractal_assignment":["../images/grn_red.png","../images/pnk_blu.png","../images/gry_blk.png","../images/ylw_pnk.png","../images/ylw_slt.png","../images/cyn_red.png","../images/blu_wht.png","../images/org_blu.png"],"mutagen_generator_assignment":[0,1],"goal":6,"start":1,"action_noise":0.1,"location_history":"[1,0,3,4,7,3,4,0,3,7,6]","action_history":"[0,1,1,0,1,1,1,1,0,0]","mutagen_history":"[0,1,1,0,1,1,1,1,0,0]","location_rts":"[1625,1309,806,885,531,506,894,944,606,495]","trial_type":"fractal-mutation","trial_index":58,"time_elapsed":1300031,"internal_node_id":"0.0-5.0-4.0"},{"group":"tri cycles (cube, non-group)","fractal_assignment":["../images/grn_red.png","../images/pnk_blu.png","../images/gry_blk.png","../images/ylw_pnk.png","../images/ylw_slt.png","../images/cyn_red.png","../images/blu_wht.png","../images/org_blu.png"],"mutagen_generator_assignment":[0,1],"goal":3,"start":6,"action_noise":0.1,"location_history":"[6,5,1,0,3]","action_history":"[1,0,0,1]","mutagen_history":"[1,0,0,1]","location_rts":"[703,441,380,577]","trial_type":"fractal-mutation","trial_index":59,"time_elapsed":1309845,"internal_node_id":"0.0-5.0-5.0"},{"group":"tri cycles (cube, non-group)","fractal_assignment":["../images/grn_red.png","../images/pnk_blu.png","../images/gry_blk.png","../images/ylw_pnk.png","../images/ylw_slt.png","../images/cyn_red.png","../images/blu_wht.png","../images/org_blu.png"],"mutagen_generator_assignment":[0,1],"goal":4,"start":3,"action_noise":0.1,"location_history":"[3,4]","action_history":"[1]","mutagen_history":"[1]","location_rts":"[1109]","trial_type":"fractal-mutation","trial_index":60,"time_elapsed":1315521,"internal_node_id":"0.0-5.0-6.0"},{"group":"tri cycles (cube, non-group)","fractal_assignment":["../images/grn_red.png","../images/pnk_blu.png","../images/gry_blk.png","../images/ylw_pnk.png","../images/ylw_slt.png","../images/cyn_red.png","../images/blu_wht.png","../images/org_blu.png"],"mutagen_generator_assignment":[0,1],"goal":1,"start":4,"action_noise":0.1,"location_history":"[4,0,3,7,6,5,1]","action_history":"[1,1,0,0,1,0]","mutagen_history":"[1,1,0,0,1,0]","location_rts":"[2913,740,1121,770,704,773]","trial_type":"fractal-mutation","trial_index":61,"time_elapsed":1332346,"internal_node_id":"0.0-5.0-7.0"},{"group":"tri cycles (cube, non-group)","fractal_assignment":["../images/grn_red.png","../images/pnk_blu.png","../images/gry_blk.png","../images/ylw_pnk.png","../images/ylw_slt.png","../images/cyn_red.png","../images/blu_wht.png","../images/org_blu.png"],"mutagen_generator_assignment":[0,1],"goal":4,"start":1,"action_noise":0.1,"location_history":"[1,0,2,6,4]","action_history":"[0,1,1,1]","mutagen_history":"[0,1,1,1]","location_rts":"[1386,499,1245,1027]","trial_type":"fractal-mutation","trial_index":62,"time_elapsed":1344251,"internal_node_id":"0.0-5.0-8.0"},{"group":"tri cycles (cube, non-group)","fractal_assignment":["../images/grn_red.png","../images/pnk_blu.png","../images/gry_blk.png","../images/ylw_pnk.png","../images/ylw_slt.png","../images/cyn_red.png","../images/blu_wht.png","../images/org_blu.png"],"mutagen_generator_assignment":[0,1],"goal":5,"start":4,"action_noise":0.1,"location_history":"[4,0,3,7,6,4,0,3,7,3,4,7,6,5]","action_history":"[1,1,0,0,0,1,1,0,1,1,0,0,0]","mutagen_history":"[1,1,0,0,0,1,1,0,1,1,0,0,0]","location_rts":"[5555,883,991,928,1300,1274,1130,1395,417,475,1077,741,889]","trial_type":"fractal-mutation","trial_index":63,"time_elapsed":1378474,"internal_node_id":"0.0-5.0-9.0"},{"group":"tri cycles (cube, non-group)","fractal_assignment":["../images/grn_red.png","../images/pnk_blu.png","../images/gry_blk.png","../images/ylw_pnk.png","../images/ylw_slt.png","../images/cyn_red.png","../images/blu_wht.png","../images/org_blu.png"],"mutagen_generator_assignment":[0,1],"goal":3,"start":5,"action_noise":0.1,"location_history":"[5,1,5,2,1,5,2,6,5,2,1,0,3]","action_history":"[0,1,1,0,1,1,1,1,1,0,0,1]","mutagen_history":"[0,1,1,0,1,1,1,1,1,0,0,1]","location_rts":"[2398,778,2497,828,648,729,742,1157,1441,736,1168,1198]","trial_type":"fractal-mutation","trial_index":64,"time_elapsed":1408979,"internal_node_id":"0.0-5.0-10.0"},{"group":"tri cycles (cube, non-group)","fractal_assignment":["../images/grn_red.png","../images/pnk_blu.png","../images/gry_blk.png","../images/ylw_pnk.png","../images/ylw_slt.png","../images/cyn_red.png","../images/blu_wht.png","../images/org_blu.png"],"mutagen_generator_assignment":[0,1],"goal":6,"start":3,"action_noise":0.1,"location_history":"[3,4,7,6]","action_history":"[1,1,0]","mutagen_history":"[1,1,0]","location_rts":"[2578,2638,965]","trial_type":"fractal-mutation","trial_index":65,"time_elapsed":1421824,"internal_node_id":"0.0-5.0-11.0"},{"group":"tri cycles (cube, non-group)","fractal_assignment":["../images/grn_red.png","../images/pnk_blu.png","../images/gry_blk.png","../images/ylw_pnk.png","../images/ylw_slt.png","../images/cyn_red.png","../images/blu_wht.png","../images/org_blu.png"],"mutagen_generator_assignment":[0,1],"goal":7,"start":6,"action_noise":0.1,"location_history":"[6,4,7]","action_history":"[0,0]","mutagen_history":"[0,0]","location_rts":"[3149,1251]","trial_type":"fractal-mutation","trial_index":66,"time_elapsed":1431803,"internal_node_id":"0.0-5.0-12.0"},{"group":"tri cycles (cube, non-group)","fractal_assignment":["../images/grn_red.png","../images/pnk_blu.png","../images/gry_blk.png","../images/ylw_pnk.png","../images/ylw_slt.png","../images/cyn_red.png","../images/blu_wht.png","../images/org_blu.png"],"mutagen_generator_assignment":[0,1],"goal":0,"start":7,"action_noise":0.1,"location_history":"[7,3,7,6,4,0]","action_history":"[1,0,0,1,1]","mutagen_history":"[1,0,0,1,1]","location_rts":"[2564,1270,998,1305,888]","trial_type":"fractal-mutation","trial_index":67,"time_elapsed":1447599,"internal_node_id":"0.0-5.0-13.0"},{"group":"tri cycles (cube, non-group)","fractal_assignment":["../images/grn_red.png","../images/pnk_blu.png","../images/gry_blk.png","../images/ylw_pnk.png","../images/ylw_slt.png","../images/cyn_red.png","../images/blu_wht.png","../images/org_blu.png"],"mutagen_generator_assignment":[0,1],"goal":2,"start":0,"action_noise":0.1,"location_history":"[0,3,7,6,4,7,3,7,3,4,0,2]","action_history":"[1,0,0,0,0,1,0,1,1,1,0]","mutagen_history":"[1,0,0,0,0,1,0,1,1,1,0]","location_rts":"[3427,837,859,849,1211,588,1262,625,198,810,861]","trial_type":"fractal-mutation","trial_index":68,"time_elapsed":1474177,"internal_node_id":"0.0-5.0-14.0"},{"group":"tri cycles (cube, non-group)","fractal_assignment":["../images/grn_red.png","../images/pnk_blu.png","../images/gry_blk.png","../images/ylw_pnk.png","../images/ylw_slt.png","../images/cyn_red.png","../images/blu_wht.png","../images/org_blu.png"],"mutagen_generator_assignment":[0,1],"goal":1,"start":2,"action_noise":0.1,"location_history":"[2,1]","action_history":"[0]","mutagen_history":"[0]","location_rts":"[1722]","trial_type":"fractal-mutation","trial_index":69,"time_elapsed":1480438,"internal_node_id":"0.0-5.0-15.0"},{"group":"tri cycles (cube, non-group)","fractal_assignment":["../images/grn_red.png","../images/pnk_blu.png","../images/gry_blk.png","../images/ylw_pnk.png","../images/ylw_slt.png","../images/cyn_red.png","../images/blu_wht.png","../images/org_blu.png"],"mutagen_generator_assignment":[0,1],"goal":6,"start":1,"action_noise":0.1,"location_history":"[1,5,2,6]","action_history":"[1,1,1]","mutagen_history":"[1,1,1]","location_rts":"[2758,309,747]","trial_type":"fractal-mutation","trial_index":70,"time_elapsed":1490942,"internal_node_id":"0.0-5.0-16.0"},{"group":"tri cycles (cube, non-group)","fractal_assignment":["../images/grn_red.png","../images/pnk_blu.png","../images/gry_blk.png","../images/ylw_pnk.png","../images/ylw_slt.png","../images/cyn_red.png","../images/blu_wht.png","../images/org_blu.png"],"mutagen_generator_assignment":[0,1],"goal":3,"start":6,"action_noise":0.1,"location_history":"[6,5,2,6,4,0,2,1,5,2,6,5,1,0,3]","action_history":"[1,1,1,0,1,0,0,1,1,1,1,0,0,1]","mutagen_history":"[1,1,1,0,1,0,0,1,1,1,1,0,0,1]","location_rts":"[2752,1932,1016,908,662,1259,710,998,621,687,801,968,506,1125]","trial_type":"fractal-mutation","trial_index":71,"time_elapsed":1524142,"internal_node_id":"0.0-5.0-17.0"},{"group":"tri cycles (cube, non-group)","fractal_assignment":["../images/grn_red.png","../images/pnk_blu.png","../images/gry_blk.png","../images/ylw_pnk.png","../images/ylw_slt.png","../images/cyn_red.png","../images/blu_wht.png","../images/org_blu.png"],"mutagen_generator_assignment":[0,1],"goal":4,"start":3,"action_noise":0.1,"location_history":"[3,4]","action_history":"[1]","mutagen_history":"[1]","location_rts":"[2660]","trial_type":"fractal-mutation","trial_index":72,"time_elapsed":1531371,"internal_node_id":"0.0-5.0-18.0"},{"group":"tri cycles (cube, non-group)","fractal_assignment":["../images/grn_red.png","../images/pnk_blu.png","../images/gry_blk.png","../images/ylw_pnk.png","../images/ylw_slt.png","../images/cyn_red.png","../images/blu_wht.png","../images/org_blu.png"],"mutagen_generator_assignment":[0,1],"goal":5,"start":4,"action_noise":0.1,"location_history":"[4,0,2,1,5]","action_history":"[1,0,0,1]","mutagen_history":"[1,0,0,1]","location_rts":"[2705,3705,1061,791]","trial_type":"fractal-mutation","trial_index":73,"time_elapsed":1547341,"internal_node_id":"0.0-5.0-19.0"},{"group":"tri cycles (cube, non-group)","fractal_assignment":["../images/grn_red.png","../images/pnk_blu.png","../images/gry_blk.png","../images/ylw_pnk.png","../images/ylw_slt.png","../images/cyn_red.png","../images/blu_wht.png","../images/org_blu.png"],"mutagen_generator_assignment":[0,1],"goal":7,"start":5,"action_noise":0.1,"location_history":"[5,2,6,4,7]","action_history":"[1,1,0,0]","mutagen_history":"[1,1,0,0]","location_rts":"[4384,1233,742,748]","trial_type":"fractal-mutation","trial_index":74,"time_elapsed":1562155,"internal_node_id":"0.0-5.0-20.0"},{"group":"tri cycles (cube, non-group)","fractal_assignment":["../images/grn_red.png","../images/pnk_blu.png","../images/gry_blk.png","../images/ylw_pnk.png","../images/ylw_slt.png","../images/cyn_red.png","../images/blu_wht.png","../images/org_blu.png"],"mutagen_generator_assignment":[0,1],"goal":2,"start":7,"action_noise":0.1,"location_history":"[7,6,5,1,5,2]","action_history":"[0,0,0,1,1]","mutagen_history":"[0,0,0,1,1]","location_rts":"[4158,1417,1015,1323,488]","trial_type":"fractal-mutation","trial_index":75,"time_elapsed":1579300,"internal_node_id":"0.0-5.0-21.0"},{"group":"tri cycles (cube, non-group)","fractal_assignment":["../images/grn_red.png","../images/pnk_blu.png","../images/gry_blk.png","../images/ylw_pnk.png","../images/ylw_slt.png","../images/cyn_red.png","../images/blu_wht.png","../images/org_blu.png"],"mutagen_generator_assignment":[0,1],"goal":0,"start":2,"action_noise":0.1,"location_history":"[2,1,0]","action_history":"[0,0]","mutagen_history":"[0,0]","location_rts":"[2239,1984]","trial_type":"fractal-mutation","trial_index":76,"time_elapsed":1589101,"internal_node_id":"0.0-5.0-22.0"},{"group":"tri cycles (cube, non-group)","fractal_assignment":["../images/grn_red.png","../images/pnk_blu.png","../images/gry_blk.png","../images/ylw_pnk.png","../images/ylw_slt.png","../images/cyn_red.png","../images/blu_wht.png","../images/org_blu.png"],"mutagen_generator_assignment":[0,1],"goal":7,"start":0,"action_noise":0.1,"location_history":"[0,2,6,4,7]","action_history":"[0,1,0,0]","mutagen_history":"[0,1,0,0]","location_rts":"[6302,781,646,866]","trial_type":"fractal-mutation","trial_index":77,"time_elapsed":1605382,"internal_node_id":"0.0-5.0-23.0"},{"group":"tri cycles (cube, non-group)","fractal_assignment":["../images/grn_red.png","../images/pnk_blu.png","../images/gry_blk.png","../images/ylw_pnk.png","../images/ylw_slt.png","../images/cyn_red.png","../images/blu_wht.png","../images/org_blu.png"],"mutagen_generator_assignment":[0,1],"goal":5,"start":7,"action_noise":0.1,"location_history":"[7,6,5]","action_history":"[0,1]","mutagen_history":"[0,1]","location_rts":"[3863,2081]","trial_type":"fractal-mutation","trial_index":78,"time_elapsed":1616932,"internal_node_id":"0.0-5.0-24.0"},{"group":"tri cycles (cube, non-group)","fractal_assignment":["../images/grn_red.png","../images/pnk_blu.png","../images/gry_blk.png","../images/ylw_pnk.png","../images/ylw_slt.png","../images/cyn_red.png","../images/blu_wht.png","../images/org_blu.png"],"mutagen_generator_assignment":[0,1],"goal":0,"start":5,"action_noise":0.1,"location_history":"[5,2,6,4,0]","action_history":"[1,1,1,1]","mutagen_history":"[1,1,1,1]","location_rts":"[2289,885,628,632]","trial_type":"fractal-mutation","trial_index":79,"time_elapsed":1629134,"internal_node_id":"0.0-5.0-25.0"},{"group":"tri cycles (cube, non-group)","fractal_assignment":["../images/grn_red.png","../images/pnk_blu.png","../images/gry_blk.png","../images/ylw_pnk.png","../images/ylw_slt.png","../images/cyn_red.png","../images/blu_wht.png","../images/org_blu.png"],"mutagen_generator_assignment":[0,1],"goal":6,"start":0,"action_noise":0.1,"location_history":"[0,3,4,7,3,7,6]","action_history":"[1,1,0,1,0,0]","mutagen_history":"[1,1,0,1,0,0]","location_rts":"[3586,1163,1011,146,627,317]","trial_type":"fractal-mutation","trial_index":80,"time_elapsed":1645802,"internal_node_id":"0.0-5.0-26.0"},{"group":"tri cycles (cube, non-group)","fractal_assignment":["../images/grn_red.png","../images/pnk_blu.png","../images/gry_blk.png","../images/ylw_pnk.png","../images/ylw_slt.png","../images/cyn_red.png","../images/blu_wht.png","../images/org_blu.png"],"mutagen_generator_assignment":[0,1],"goal":4,"start":6,"action_noise":0.1,"location_history":"[6,5,2,6,4]","action_history":"[1,1,1,0]","mutagen_history":"[1,1,1,0]","location_rts":"[1056,1395,549,734]","trial_type":"fractal-mutation","trial_index":81,"time_elapsed":1657274,"internal_node_id":"0.0-5.0-27.0"},{"group":"tri cycles (cube, non-group)","fractal_assignment":["../images/grn_red.png","../images/pnk_blu.png","../images/gry_blk.png","../images/ylw_pnk.png","../images/ylw_slt.png","../images/cyn_red.png","../images/blu_wht.png","../images/org_blu.png"],"mutagen_generator_assignment":[0,1],"goal":2,"start":4,"action_noise":0.1,"location_history":"[4,0,2]","action_history":"[1,1]","mutagen_history":"[1,1]","location_rts":"[2880,635]","trial_type":"fractal-mutation","trial_index":82,"time_elapsed":1666419,"internal_node_id":"0.0-5.0-28.0"},{"group":"tri cycles (cube, non-group)","fractal_assignment":["../images/grn_red.png","../images/pnk_blu.png","../images/gry_blk.png","../images/ylw_pnk.png","../images/ylw_slt.png","../images/cyn_red.png","../images/blu_wht.png","../images/org_blu.png"],"mutagen_generator_assignment":[0,1],"goal":3,"start":2,"action_noise":0.1,"location_history":"[2,6,5,2,6,4,7,6,4,0,2,1,5,1,0,3]","action_history":"[1,1,1,1,0,0,0,0,1,0,0,1,1,0,1]","mutagen_history":"[1,1,1,1,0,0,0,0,1,0,0,1,1,0,1]","location_rts":"[2087,615,1831,670,806,749,1424,915,651,1217,877,1109,971,1274,792]","trial_type":"fractal-mutation","trial_index":83,"time_elapsed":1701703,"internal_node_id":"0.0-5.0-29.0"},{"group":"tri cycles (cube, non-group)","fractal_assignment":["../images/grn_red.png","../images/pnk_blu.png","../images/gry_blk.png","../images/ylw_pnk.png","../images/ylw_slt.png","../images/cyn_red.png","../images/blu_wht.png","../images/org_blu.png"],"mutagen_generator_assignment":[0,1],"goal":1,"start":3,"action_noise":0.1,"location_history":"[3,4,0,2,1]","action_history":"[1,1,0,0]","mutagen_history":"[1,1,0,0]","location_rts":"[1491,669,710,627]","trial_type":"fractal-mutation","trial_index":84,"time_elapsed":1712907,"internal_node_id":"0.0-5.0-30.0"},{"group":"tri cycles (cube, non-group)","fractal_assignment":["../images/grn_red.png","../images/pnk_blu.png","../images/gry_blk.png","../images/ylw_pnk.png","../images/ylw_slt.png","../images/cyn_red.png","../images/blu_wht.png","../images/org_blu.png"],"mutagen_generator_assignment":[0,1],"goal":4,"start":1,"action_noise":0.1,"location_history":"[1,0,2,1,5,2,1,0,3,4]","action_history":"[0,0,0,1,1,0,0,1,1]","mutagen_history":"[0,0,0,1,1,0,0,1,1]","location_rts":"[4557,535,535,907,591,498,727,740,233]","trial_type":"fractal-mutation","trial_index":85,"time_elapsed":1735177,"internal_node_id":"0.0-5.0-31.0"},{"group":"tri cycles (cube, non-group)","fractal_assignment":["../images/grn_red.png","../images/pnk_blu.png","../images/gry_blk.png","../images/ylw_pnk.png","../images/ylw_slt.png","../images/cyn_red.png","../images/blu_wht.png","../images/org_blu.png"],"mutagen_generator_assignment":[0,1],"goal":3,"start":4,"action_noise":0.1,"location_history":"[4,0,2,1,0,3]","action_history":"[1,0,0,0,1]","mutagen_history":"[1,0,0,0,1]","location_rts":"[4900,1133,578,1367,688]","trial_type":"fractal-mutation","trial_index":86,"time_elapsed":1752585,"internal_node_id":"0.0-5.0-32.0"},{"group":"tri cycles (cube, non-group)","fractal_assignment":["../images/grn_red.png","../images/pnk_blu.png","../images/gry_blk.png","../images/ylw_pnk.png","../images/ylw_slt.png","../images/cyn_red.png","../images/blu_wht.png","../images/org_blu.png"],"mutagen_generator_assignment":[0,1],"goal":6,"start":3,"action_noise":0.1,"location_history":"[3,4,0,2,1,0,3,4,0,3,7,6]","action_history":"[1,1,0,0,0,1,1,1,1,0,0]","mutagen_history":"[1,1,0,0,0,1,1,1,1,0,0]","location_rts":"[2294,845,1124,617,1271,629,607,533,991,999,355]","trial_type":"fractal-mutation","trial_index":87,"time_elapsed":1777928,"internal_node_id":"0.0-5.0-33.0"},{"group":"tri cycles (cube, non-group)","fractal_assignment":["../images/grn_red.png","../images/pnk_blu.png","../images/gry_blk.png","../images/ylw_pnk.png","../images/ylw_slt.png","../images/cyn_red.png","../images/blu_wht.png","../images/org_blu.png"],"mutagen_generator_assignment":[0,1],"goal":0,"start":6,"action_noise":0.1,"location_history":"[6,4,7,3,7,3,4,7,6,4,0]","action_history":"[0,0,1,0,1,1,1,0,0,1]","mutagen_history":"[0,0,1,0,1,1,1,0,0,1]","location_rts":"[1177,673,965,1258,983,237,648,799,747,903]","trial_type":"fractal-mutation","trial_index":88,"time_elapsed":1800327,"internal_node_id":"0.0-5.0-34.0"},{"group":"tri cycles (cube, non-group)","fractal_assignment":["../images/grn_red.png","../images/pnk_blu.png","../images/gry_blk.png","../images/ylw_pnk.png","../images/ylw_slt.png","../images/cyn_red.png","../images/blu_wht.png","../images/org_blu.png"],"mutagen_generator_assignment":[0,1],"goal":1,"start":0,"action_noise":0.1,"location_history":"[0,2,6,5,2,1]","action_history":"[0,1,1,0,0]","mutagen_history":"[0,1,1,0,0]","location_rts":"[1743,1640,829,1346,1321]","trial_type":"fractal-mutation","trial_index":89,"time_elapsed":1815947,"internal_node_id":"0.0-5.0-35.0"},{"group":"tri cycles (cube, non-group)","fractal_assignment":["../images/grn_red.png","../images/pnk_blu.png","../images/gry_blk.png","../images/ylw_pnk.png","../images/ylw_slt.png","../images/cyn_red.png","../images/blu_wht.png","../images/org_blu.png"],"mutagen_generator_assignment":[0,1],"goal":5,"start":1,"action_noise":0.1,"location_history":"[1,0,3,4,0,2,1,5]","action_history":"[1,1,1,1,0,0,1]","mutagen_history":"[1,1,1,1,0,0,1]","location_rts":"[1365,936,568,593,1018,619,1140]","trial_type":"fractal-mutation","trial_index":90,"time_elapsed":1833077,"internal_node_id":"0.0-5.0-36.0"},{"group":"tri cycles (cube, non-group)","fractal_assignment":["../images/grn_red.png","../images/pnk_blu.png","../images/gry_blk.png","../images/ylw_pnk.png","../images/ylw_slt.png","../images/cyn_red.png","../images/blu_wht.png","../images/org_blu.png"],"mutagen_generator_assignment":[0,1],"goal":7,"start":5,"action_noise":0.1,"location_history":"[5,2,1,0,2,6,4,7]","action_history":"[1,0,0,0,1,0,0]","mutagen_history":"[1,0,0,0,1,0,0]","location_rts":"[1819,542,869,958,849,815,651]","trial_type":"fractal-mutation","trial_index":91,"time_elapsed":1850398,"internal_node_id":"0.0-5.0-37.0"},{"group":"tri cycles (cube, non-group)","fractal_assignment":["../images/grn_red.png","../images/pnk_blu.png","../images/gry_blk.png","../images/ylw_pnk.png","../images/ylw_slt.png","../images/cyn_red.png","../images/blu_wht.png","../images/org_blu.png"],"mutagen_generator_assignment":[0,1],"goal":2,"start":7,"action_noise":0.1,"location_history":"[7,3,4,7,6,4,0,3,4,7,6,4,7,3,4,7,6,5,1,5,2]","action_history":"[1,1,0,0,0,1,1,1,1,0,0,0,1,1,0,0,1,0,1,1]","mutagen_history":"[1,1,0,0,0,1,1,1,1,0,0,0,1,1,0,0,1,0,1,1]","location_rts":"[2630,928,653,525,996,341,462,437,919,107,353,467,644,407,391,468,307,632,779,680]","trial_type":"fractal-mutation","trial_index":92,"time_elapsed":1888069,"internal_node_id":"0.0-5.0-38.0"},{"group":"tri cycles (cube, non-group)","fractal_assignment":["../images/grn_red.png","../images/pnk_blu.png","../images/gry_blk.png","../images/ylw_pnk.png","../images/ylw_slt.png","../images/cyn_red.png","../images/blu_wht.png","../images/org_blu.png"],"mutagen_generator_assignment":[0,1],"goal":1,"start":2,"action_noise":0.1,"location_history":"[2,6,5,1]","action_history":"[0,1,0]","mutagen_history":"[0,1,0]","location_rts":"[1778,761,904]","trial_type":"fractal-mutation","trial_index":93,"time_elapsed":1898143,"internal_node_id":"0.0-5.0-39.0"},{"group":"tri cycles (cube, non-group)","fractal_assignment":["../images/grn_red.png","../images/pnk_blu.png","../images/gry_blk.png","../images/ylw_pnk.png","../images/ylw_slt.png","../images/cyn_red.png","../images/blu_wht.png","../images/org_blu.png"],"mutagen_generator_assignment":[0,1],"goal":3,"start":1,"action_noise":0.1,"location_history":"[1,0,2,6,5,1,0,3]","action_history":"[0,1,1,1,0,0,1]","mutagen_history":"[0,1,1,1,0,0,1]","location_rts":"[2198,872,717,548,720,685,552]","trial_type":"fractal-mutation","trial_index":94,"time_elapsed":1915320,"internal_node_id":"0.0-5.0-40.0"},{"group":"tri cycles (cube, non-group)","fractal_assignment":["../images/grn_red.png","../images/pnk_blu.png","../images/gry_blk.png","../images/ylw_pnk.png","../images/ylw_slt.png","../images/cyn_red.png","../images/blu_wht.png","../images/org_blu.png"],"mutagen_generator_assignment":[0,1],"goal":4,"start":3,"action_noise":0.1,"location_history":"[3,7,6,5,2,1,5,1,5,1,0,2,1,0,3,7,3,4]","action_history":"[0,0,1,1,0,1,1,1,1,0,0,0,0,1,0,1,1]","mutagen_history":"[0,0,1,1,0,1,1,1,1,0,0,0,0,1,0,1,1]","location_rts":"[1200,759,660,733,474,691,454,517,1502,656,490,980,677,833,865,568,512]","trial_type":"fractal-mutation","trial_index":95,"time_elapsed":1949274,"internal_node_id":"0.0-5.0-41.0"},{"group":"tri cycles (cube, non-group)","fractal_assignment":["../images/grn_red.png","../images/pnk_blu.png","../images/gry_blk.png","../images/ylw_pnk.png","../images/ylw_slt.png","../images/cyn_red.png","../images/blu_wht.png","../images/org_blu.png"],"mutagen_generator_assignment":[0,1],"goal":2,"start":4,"action_noise":0.1,"location_history":"[4,7,3,7,6,4,0,3,7,6,4,0,3,4,0,3,4,7,6,5,2]","action_history":"[0,1,1,0,0,1,1,0,0,0,1,1,1,0,1,1,0,0,1,1]","mutagen_history":"[0,1,1,0,0,1,1,0,0,0,1,1,1,0,1,1,0,0,1,1]","location_rts":"[939,526,432,470,457,471,478,1062,459,444,384,354,521,806,317,115,131,265,689,688]","trial_type":"fractal-mutation","trial_index":96,"time_elapsed":1983834,"internal_node_id":"0.0-5.0-42.0"},{"group":"tri cycles (cube, non-group)","fractal_assignment":["../images/grn_red.png","../images/pnk_blu.png","../images/gry_blk.png","../images/ylw_pnk.png","../images/ylw_slt.png","../images/cyn_red.png","../images/blu_wht.png","../images/org_blu.png"],"mutagen_generator_assignment":[0,1],"goal":5,"start":2,"action_noise":0.1,"location_history":"[2,1,5]","action_history":"[0,1]","mutagen_history":"[0,1]","location_rts":"[1408,645]","trial_type":"fractal-mutation","trial_index":97,"time_elapsed":1991485,"internal_node_id":"0.0-5.0-43.0"},{"group":"tri cycles (cube, non-group)","fractal_assignment":["../images/grn_red.png","../images/pnk_blu.png","../images/gry_blk.png","../images/ylw_pnk.png","../images/ylw_slt.png","../images/cyn_red.png","../images/blu_wht.png","../images/org_blu.png"],"mutagen_generator_assignment":[0,1],"goal":0,"start":5,"action_noise":0.1,"location_history":"[5,1,0]","action_history":"[0,0]","mutagen_history":"[0,0]","location_rts":"[1237,1526]","trial_type":"fractal-mutation","trial_index":98,"time_elapsed":1999821,"internal_node_id":"0.0-5.0-44.0"},{"group":"tri cycles (cube, non-group)","fractal_assignment":["../images/grn_red.png","../images/pnk_blu.png","../images/gry_blk.png","../images/ylw_pnk.png","../images/ylw_slt.png","../images/cyn_red.png","../images/blu_wht.png","../images/org_blu.png"],"mutagen_generator_assignment":[0,1],"goal":7,"start":0,"action_noise":0.1,"location_history":"[0,2,6,5,1,0,3,7]","action_history":"[0,1,1,0,0,1,1]","mutagen_history":"[0,1,1,0,0,1,1]","location_rts":"[2374,710,968,667,441,625,262]","trial_type":"fractal-mutation","trial_index":99,"time_elapsed":2016746,"internal_node_id":"0.0-5.0-45.0"},{"group":"tri cycles (cube, non-group)","fractal_assignment":["../images/grn_red.png","../images/pnk_blu.png","../images/gry_blk.png","../images/ylw_pnk.png","../images/ylw_slt.png","../images/cyn_red.png","../images/blu_wht.png","../images/org_blu.png"],"mutagen_generator_assignment":[0,1],"goal":6,"start":7,"action_noise":0.1,"location_history":"[7,3,7,6]","action_history":"[1,0,0]","mutagen_history":"[1,0,0]","location_rts":"[1764,534,391]","trial_type":"fractal-mutation","trial_index":100,"time_elapsed":2026086,"internal_node_id":"0.0-5.0-46.0"},{"group":"tri cycles (cube, non-group)","fractal_assignment":["../images/grn_red.png","../images/pnk_blu.png","../images/gry_blk.png","../images/ylw_pnk.png","../images/ylw_slt.png","../images/cyn_red.png","../images/blu_wht.png","../images/org_blu.png"],"mutagen_generator_assignment":[0,1],"goal":2,"start":6,"action_noise":0.1,"location_history":"[6,4,0,3,4,0,2]","action_history":"[0,1,1,1,1,0]","mutagen_history":"[0,1,1,1,1,0]","location_rts":"[1646,284,414,427,1309,1135]","trial_type":"fractal-mutation","trial_index":101,"time_elapsed":2041135,"internal_node_id":"0.0-5.0-47.0"},{"group":"tri cycles (cube, non-group)","fractal_assignment":["../images/grn_red.png","../images/pnk_blu.png","../images/gry_blk.png","../images/ylw_pnk.png","../images/ylw_slt.png","../images/cyn_red.png","../images/blu_wht.png","../images/org_blu.png"],"mutagen_generator_assignment":[0,1],"goal":5,"start":2,"action_noise":0.1,"location_history":"[2,1,5]","action_history":"[0,1]","mutagen_history":"[0,1]","location_rts":"[1257,992]","trial_type":"fractal-mutation","trial_index":102,"time_elapsed":2048990,"internal_node_id":"0.0-5.0-48.0"},{"group":"tri cycles (cube, non-group)","fractal_assignment":["../images/grn_red.png","../images/pnk_blu.png","../images/gry_blk.png","../images/ylw_pnk.png","../images/ylw_slt.png","../images/cyn_red.png","../images/blu_wht.png","../images/org_blu.png"],"mutagen_generator_assignment":[0,1],"goal":3,"start":5,"action_noise":0.1,"location_history":"[5,1,0,3]","action_history":"[0,0,1]","mutagen_history":"[0,0,1]","location_rts":"[4658,1148,2104]","trial_type":"fractal-mutation","trial_index":103,"time_elapsed":2063542,"internal_node_id":"0.0-5.0-49.0"},{"view_history":"[{\"page_index\":0,\"viewing_time\":4032}]","rt":4032,"trial_type":"instructions","trial_index":104,"time_elapsed":2068573,"internal_node_id":"0.0-6.0"},{"rt":22629,"responses":"{\"Q0\":\"How you see patterns and learn from them.\"}","trial_type":"survey-text","trial_index":105,"time_elapsed":2092205,"internal_node_id":"0.0-7.0-0.0"},{"rt":96171,"responses":"{\"Q0\":\"How visual patterns make it easier to find the answer. \"}","trial_type":"survey-text","trial_index":106,"time_elapsed":2189376,"internal_node_id":"0.0-7.0-1.0"},{"rt":55902,"responses":"{\"Q0\":\"<img src='../images/diagrams/square_cycles.png'>\"}","trial_type":"survey-multi-choice","trial_index":107,"time_elapsed":2246283,"internal_node_id":"0.0-7.0-2.0"},{"rt":120061,"assignments":["../images/ylw_slt.png","../images/pnk_blu.png","../images/ylw_pnk.png","../images/gry_blk.png","../images/org_blu.png","../images/cyn_red.png","../images/grn_red.png","../images/blu_wht.png"],"trial_type":"drag-drop-on-image","trial_index":108,"time_elapsed":2367344,"internal_node_id":"0.0-7.0-3.0"},{"rt":4138,"responses":"{\"Q0\":\"1\"}","trial_type":"survey-likert","trial_index":109,"time_elapsed":2372485,"internal_node_id":"0.0-7.0-4.0"},{"rt":23404,"responses":"{\"Q0\":\"There was certain patterns that you could find the answers with both. \"}","trial_type":"survey-text","trial_index":110,"time_elapsed":2396890,"internal_node_id":"0.0-7.0-5.0"},{"rt":3394,"responses":"{\"Q0\":\"No\"}","trial_type":"survey-multi-choice","trial_index":111,"time_elapsed":2401285,"internal_node_id":"0.0-7.0-6.0"},{"rt":4608,"responses":"{\"Q0\":\"Did not notice\"}","trial_type":"survey-multi-choice","trial_index":112,"time_elapsed":2406897,"internal_node_id":"0.0-7.0-7.0"},{"rt":8441,"responses":"{\"Q0\":\"\"}","trial_type":"survey-text","trial_index":113,"time_elapsed":2416338,"internal_node_id":"0.0-7.0-8.0"},{"rt":4531,"responses":"{\"Q0\":\"0\"}","trial_type":"survey-likert","trial_index":114,"time_elapsed":2421871,"internal_node_id":"0.0-7.0-9.0"},{"rt":7513,"responses":"{\"Q0\":\"Different structure\"}","trial_type":"survey-multi-choice","trial_index":115,"time_elapsed":2430388,"internal_node_id":"0.0-7.0-10.0"},{"rt":19622,"responses":"{\"Q0\":\"left (white) door = acid, (black) door = ray\",\"Q1\":\"Moderately confident\"}","trial_type":"survey-multi-choice","trial_index":116,"time_elapsed":2451013,"internal_node_id":"0.0-7.0-11.0"},{"rt":7506,"responses":"{\"Q0\":\"25-35\",\"Q1\":\"Bachelor's degree\",\"Q3\":\"White\"}","trial_type":"survey-multi-choice","trial_index":117,"time_elapsed":2459526,"internal_node_id":"0.0-8.0"},{"rt":5632,"responses":"{\"Q0\":\"Thanks\"}","trial_type":"survey-text","trial_index":118,"time_elapsed":2466159,"internal_node_id":"0.0-9.0"}]