[{"view_history":"[{\"page_index\":0,\"viewing_time\":140049},{\"page_index\":1,\"viewing_time\":3992}]","rt":144042,"trial_type":"instructions","trial_index":0,"time_elapsed":144042,"internal_node_id":"0.0-0.0"},{"view_history":"[{\"page_index\":0,\"viewing_time\":3016},{\"page_index\":1,\"viewing_time\":330269}]","rt":333286,"trial_type":"instructions","trial_index":1,"time_elapsed":478329,"internal_node_id":"0.0-1.0"},{"group":"tri cycles (cube, non-group)","room_assignment":["red","blue","brown","yellow","purple","pink","grey","green"],"door_color_assignment":["black","white"],"door_generator_assignment":[1,0],"goal":5,"start":7,"action_noise":0.1,"location_history":"[7,3,4,7,6,5]","action_history":"[1,0,0,0,1]","door_history":"[0,1,1,1,0]","location_rts":"[10754,1812,13703,9866,2741]","trial_type":"two-door-navigation","trial_index":2,"time_elapsed":525813,"internal_node_id":"0.0-2.0-0.0"},{"group":"tri cycles (cube, non-group)","room_assignment":["red","blue","brown","yellow","purple","pink","grey","green"],"door_color_assignment":["black","white"],"door_generator_assignment":[1,0],"goal":2,"start":5,"action_noise":0.1,"location_history":"[5,2]","action_history":"[1]","door_history":"[0]","location_rts":"[1312]","trial_type":"two-door-navigation","trial_index":3,"time_elapsed":531650,"internal_node_id":"0.0-2.0-1.0"},{"group":"tri cycles (cube, non-group)","room_assignment":["red","blue","brown","yellow","purple","pink","grey","green"],"door_color_assignment":["black","white"],"door_generator_assignment":[1,0],"goal":0,"start":2,"action_noise":0.1,"location_history":"[2,1,5,1,5,1,0]","action_history":"[0,1,0,1,0,0]","door_history":"[1,0,1,0,1,1]","location_rts":"[5651,1665,974,4787,989,4800]","trial_type":"two-door-navigation","trial_index":4,"time_elapsed":560138,"internal_node_id":"0.0-2.0-2.0"},{"group":"tri cycles (cube, non-group)","room_assignment":["red","blue","brown","yellow","purple","pink","grey","green"],"door_color_assignment":["black","white"],"door_generator_assignment":[1,0],"goal":1,"start":0,"action_noise":0.1,"location_history":"[0,3,4,7,6,5,2,1]","action_history":"[1,1,0,0,1,1,0]","door_history":"[0,0,1,1,0,0,1]","location_rts":"[10063,4578,4680,5886,1141,1543,239]","trial_type":"two-door-navigation","trial_index":5,"time_elapsed":598900,"internal_node_id":"0.0-2.0-3.0"},{"group":"tri cycles (cube, non-group)","room_assignment":["red","blue","brown","yellow","purple","pink","grey","green"],"door_color_assignment":["black","white"],"door_generator_assignment":[1,0],"goal":6,"start":1,"action_noise":0.1,"location_history":"[1,5,2,6]","action_history":"[1,1,1]","door_history":"[0,0,0]","location_rts":"[4957,383,309]","trial_type":"two-door-navigation","trial_index":6,"time_elapsed":611107,"internal_node_id":"0.0-2.0-4.0"},{"group":"tri cycles (cube, non-group)","room_assignment":["red","blue","brown","yellow","purple","pink","grey","green"],"door_color_assignment":["black","white"],"door_generator_assignment":[1,0],"goal":3,"start":6,"action_noise":0.1,"location_history":"[6,4,7,3]","action_history":"[0,0,1]","door_history":"[1,1,0]","location_rts":"[6762,386,761]","trial_type":"two-door-navigation","trial_index":7,"time_elapsed":625573,"internal_node_id":"0.0-2.0-5.0"},{"group":"tri cycles (cube, non-group)","room_assignment":["red","blue","brown","yellow","purple","pink","grey","green"],"door_color_assignment":["black","white"],"door_generator_assignment":[1,0],"goal":4,"start":3,"action_noise":0.1,"location_history":"[3,4]","action_history":"[1]","door_history":"[0]","location_rts":"[5830]","trial_type":"two-door-navigation","trial_index":8,"time_elapsed":635924,"internal_node_id":"0.0-2.0-6.0"},{"group":"tri cycles (cube, non-group)","room_assignment":["red","blue","brown","yellow","purple","pink","grey","green"],"door_color_assignment":["black","white"],"door_generator_assignment":[1,0],"goal":1,"start":4,"action_noise":0.1,"location_history":"[4,0,3,4,0,2,1]","action_history":"[1,1,1,1,0,0]","door_history":"[0,0,0,0,1,1]","location_rts":"[12254,417,586,611,364,634]","trial_type":"two-door-navigation","trial_index":9,"time_elapsed":660410,"internal_node_id":"0.0-2.0-7.0"},{"group":"tri cycles (cube, non-group)","room_assignment":["red","blue","brown","yellow","purple","pink","grey","green"],"door_color_assignment":["black","white"],"door_generator_assignment":[1,0],"goal":4,"start":1,"action_noise":0.1,"location_history":"[1,0,3,4]","action_history":"[0,1,1]","door_history":"[1,0,0]","location_rts":"[1623,653,610]","trial_type":"two-door-navigation","trial_index":10,"time_elapsed":669863,"internal_node_id":"0.0-2.0-8.0"},{"group":"tri cycles (cube, non-group)","room_assignment":["red","blue","brown","yellow","purple","pink","grey","green"],"door_color_assignment":["black","white"],"door_generator_assignment":[1,0],"goal":5,"start":4,"action_noise":0.1,"location_history":"[4,0,2,6,5]","action_history":"[1,0,1,1]","door_history":"[0,1,0,0]","location_rts":"[9955,790,1493,460]","trial_type":"two-door-navigation","trial_index":11,"time_elapsed":690135,"internal_node_id":"0.0-2.0-9.0"},{"group":"tri cycles (cube, non-group)","room_assignment":["red","blue","brown","yellow","purple","pink","grey","green"],"door_color_assignment":["black","white"],"door_generator_assignment":[1,0],"goal":3,"start":5,"action_noise":0.1,"location_history":"[5,1,0,3]","action_history":"[0,0,1]","door_history":"[1,1,0]","location_rts":"[4187,1233,2569]","trial_type":"two-door-navigation","trial_index":12,"time_elapsed":704689,"internal_node_id":"0.0-2.0-10.0"},{"group":"tri cycles (cube, non-group)","room_assignment":["red","blue","brown","yellow","purple","pink","grey","green"],"door_color_assignment":["black","white"],"door_generator_assignment":[1,0],"goal":6,"start":3,"action_noise":0.1,"location_history":"[3,4,0,2,6]","action_history":"[1,1,0,1]","door_history":"[0,0,1,0]","location_rts":"[3899,853,1189,578]","trial_type":"two-door-navigation","trial_index":13,"time_elapsed":718870,"internal_node_id":"0.0-2.0-11.0"},{"group":"tri cycles (cube, non-group)","room_assignment":["red","blue","brown","yellow","purple","pink","grey","green"],"door_color_assignment":["black","white"],"door_generator_assignment":[1,0],"goal":7,"start":6,"action_noise":0.1,"location_history":"[6,5,1,5,1,0,3,7]","action_history":"[0,0,1,0,0,1,1]","door_history":"[1,1,0,1,1,0,0]","location_rts":"[11799,646,535,956,438,1764,673]","trial_type":"two-door-navigation","trial_index":14,"time_elapsed":747306,"internal_node_id":"0.0-2.0-12.0"},{"group":"tri cycles (cube, non-group)","room_assignment":["red","blue","brown","yellow","purple","pink","grey","green"],"door_color_assignment":["black","white"],"door_generator_assignment":[1,0],"goal":0,"start":7,"action_noise":0.1,"location_history":"[7,6,4,0]","action_history":"[0,0,1]","door_history":"[1,1,0]","location_rts":"[12484,325,1937]","trial_type":"two-door-navigation","trial_index":15,"time_elapsed":768615,"internal_node_id":"0.0-2.0-13.0"},{"group":"tri cycles (cube, non-group)","room_assignment":["red","blue","brown","yellow","purple","pink","grey","green"],"door_color_assignment":["black","white"],"door_generator_assignment":[1,0],"goal":2,"start":0,"action_noise":0.1,"location_history":"[0,3,7,6,5,2]","action_history":"[1,0,0,1,1]","door_history":"[0,1,1,0,0]","location_rts":"[2767,389,567,671,397]","trial_type":"two-door-navigation","trial_index":16,"time_elapsed":781994,"internal_node_id":"0.0-2.0-14.0"},{"group":"tri cycles (cube, non-group)","room_assignment":["red","blue","brown","yellow","purple","pink","grey","green"],"door_color_assignment":["black","white"],"door_generator_assignment":[1,0],"goal":1,"start":2,"action_noise":0.1,"location_history":"[2,6,4,7,6,5,1]","action_history":"[0,0,0,0,1,0]","door_history":"[1,1,1,1,0,1]","location_rts":"[3602,623,418,761,927,254]","trial_type":"two-door-navigation","trial_index":17,"time_elapsed":798186,"internal_node_id":"0.0-2.0-15.0"},{"group":"tri cycles (cube, non-group)","room_assignment":["red","blue","brown","yellow","purple","pink","grey","green"],"door_color_assignment":["black","white"],"door_generator_assignment":[1,0],"goal":6,"start":1,"action_noise":0.1,"location_history":"[1,0,3,4,7,6]","action_history":"[0,0,0,0,0]","door_history":"[1,1,1,1,1]","location_rts":"[15545,863,701,461,676]","trial_type":"two-door-navigation","trial_index":18,"time_elapsed":825026,"internal_node_id":"0.0-2.0-16.0"},{"group":"tri cycles (cube, non-group)","room_assignment":["red","blue","brown","yellow","purple","pink","grey","green"],"door_color_assignment":["black","white"],"door_generator_assignment":[1,0],"goal":3,"start":6,"action_noise":0.1,"location_history":"[6,5,1,0,2,1,0,2,1,0,3]","action_history":"[0,0,0,0,0,0,0,0,0,1]","door_history":"[1,1,1,1,1,1,1,1,1,0]","location_rts":"[2378,279,287,305,306,356,315,577,1247,2721]","trial_type":"two-door-navigation","trial_index":19,"time_elapsed":847472,"internal_node_id":"0.0-2.0-17.0"},{"group":"tri cycles (cube, non-group)","room_assignment":["red","blue","brown","yellow","purple","pink","grey","green"],"door_color_assignment":["black","white"],"door_generator_assignment":[1,0],"goal":4,"start":3,"action_noise":0.1,"location_history":"[3,4]","action_history":"[1]","door_history":"[0]","location_rts":"[17791]","trial_type":"two-door-navigation","trial_index":20,"time_elapsed":869787,"internal_node_id":"0.0-2.0-18.0"},{"group":"tri cycles (cube, non-group)","room_assignment":["red","blue","brown","yellow","purple","pink","grey","green"],"door_color_assignment":["black","white"],"door_generator_assignment":[1,0],"goal":5,"start":4,"action_noise":0.1,"location_history":"[4,7,3,4,0,3,4,7,6,5]","action_history":"[0,0,1,1,1,0,0,0,1]","door_history":"[1,1,0,0,0,1,1,1,0]","location_rts":"[9985,718,847,548,846,674,210,737,1360]","trial_type":"two-door-navigation","trial_index":21,"time_elapsed":898378,"internal_node_id":"0.0-2.0-19.0"},{"group":"tri cycles (cube, non-group)","room_assignment":["red","blue","brown","yellow","purple","pink","grey","green"],"door_color_assignment":["black","white"],"door_generator_assignment":[1,0],"goal":7,"start":5,"action_noise":0.1,"location_history":"[5,1,0,2,1,5,2,1,5,2,6,4,7]","action_history":"[0,0,0,0,1,1,0,1,1,1,1,0]","door_history":"[1,1,1,1,0,0,1,0,0,0,0,1]","location_rts":"[1734,1486,7442,998,1805,1327,453,415,328,12,425,1154]","trial_type":"two-door-navigation","trial_index":22,"time_elapsed":931683,"internal_node_id":"0.0-2.0-20.0"},{"group":"tri cycles (cube, non-group)","room_assignment":["red","blue","brown","yellow","purple","pink","grey","green"],"door_color_assignment":["black","white"],"door_generator_assignment":[1,0],"goal":2,"start":7,"action_noise":0.1,"location_history":"[7,6,4,0,3,4,0,2]","action_history":"[0,1,1,1,1,1,0]","door_history":"[1,0,0,0,0,0,1]","location_rts":"[1835,598,366,367,806,782,537]","trial_type":"two-door-navigation","trial_index":23,"time_elapsed":947607,"internal_node_id":"0.0-2.0-21.0"},{"group":"tri cycles (cube, non-group)","room_assignment":["red","blue","brown","yellow","purple","pink","grey","green"],"door_color_assignment":["black","white"],"door_generator_assignment":[1,0],"goal":0,"start":2,"action_noise":0.1,"location_history":"[2,1,0]","action_history":"[0,0]","door_history":"[1,1]","location_rts":"[1673,326]","trial_type":"two-door-navigation","trial_index":24,"time_elapsed":955152,"internal_node_id":"0.0-2.0-22.0"},{"group":"tri cycles (cube, non-group)","room_assignment":["red","blue","brown","yellow","purple","pink","grey","green"],"door_color_assignment":["black","white"],"door_generator_assignment":[1,0],"goal":7,"start":0,"action_noise":0.1,"location_history":"[0,2,6,4,7]","action_history":"[0,0,0,1]","door_history":"[1,1,1,0]","location_rts":"[1267,203,303,944]","trial_type":"two-door-navigation","trial_index":25,"time_elapsed":965447,"internal_node_id":"0.0-2.0-23.0"},{"group":"tri cycles (cube, non-group)","room_assignment":["red","blue","brown","yellow","purple","pink","grey","green"],"door_color_assignment":["black","white"],"door_generator_assignment":[1,0],"goal":5,"start":7,"action_noise":0.1,"location_history":"[7,6,5]","action_history":"[0,1]","door_history":"[1,0]","location_rts":"[1527,848]","trial_type":"two-door-navigation","trial_index":26,"time_elapsed":973361,"internal_node_id":"0.0-2.0-24.0"},{"group":"tri cycles (cube, non-group)","room_assignment":["red","blue","brown","yellow","purple","pink","grey","green"],"door_color_assignment":["black","white"],"door_generator_assignment":[1,0],"goal":0,"start":5,"action_noise":0.1,"location_history":"[5,1,0]","action_history":"[0,0]","door_history":"[1,1]","location_rts":"[1250,693]","trial_type":"two-door-navigation","trial_index":27,"time_elapsed":980843,"internal_node_id":"0.0-2.0-25.0"},{"group":"tri cycles (cube, non-group)","room_assignment":["red","blue","brown","yellow","purple","pink","grey","green"],"door_color_assignment":["black","white"],"door_generator_assignment":[1,0],"goal":6,"start":0,"action_noise":0.1,"location_history":"[0,2,6]","action_history":"[0,1]","door_history":"[1,0]","location_rts":"[12767,678]","trial_type":"two-door-navigation","trial_index":28,"time_elapsed":999830,"internal_node_id":"0.0-2.0-26.0"},{"group":"tri cycles (cube, non-group)","room_assignment":["red","blue","brown","yellow","purple","pink","grey","green"],"door_color_assignment":["black","white"],"door_generator_assignment":[1,0],"goal":4,"start":6,"action_noise":0.1,"location_history":"[6,5,2,6,4]","action_history":"[1,1,1,0]","door_history":"[0,0,0,1]","location_rts":"[1776,1260,2432,571]","trial_type":"two-door-navigation","trial_index":29,"time_elapsed":1013444,"internal_node_id":"0.0-2.0-27.0"},{"group":"tri cycles (cube, non-group)","room_assignment":["red","blue","brown","yellow","purple","pink","grey","green"],"door_color_assignment":["black","white"],"door_generator_assignment":[1,0],"goal":2,"start":4,"action_noise":0.1,"location_history":"[4,0,3,7,6,5,2]","action_history":"[1,1,0,0,1,1]","door_history":"[0,0,1,1,0,0]","location_rts":"[2592,520,845,483,679,311]","trial_type":"two-door-navigation","trial_index":30,"time_elapsed":1028490,"internal_node_id":"0.0-2.0-28.0"},{"group":"tri cycles (cube, non-group)","room_assignment":["red","blue","brown","yellow","purple","pink","grey","green"],"door_color_assignment":["black","white"],"door_generator_assignment":[1,0],"goal":3,"start":2,"action_noise":0.1,"location_history":"[2,1,5,1,0,2,1,5,2,1,5,1,5,2,1,0,2,1,0,3]","action_history":"[0,1,0,0,0,0,1,1,0,1,0,1,1,1,0,0,0,0,1]","door_history":"[1,0,1,1,1,1,0,0,1,0,1,0,0,0,1,1,1,1,0]","location_rts":"[7807,1602,1504,1139,683,347,4871,2314,1414,900,724,523,252,230,376,1213,976,262,403]","trial_type":"two-door-navigation","trial_index":31,"time_elapsed":1078887,"internal_node_id":"0.0-2.0-29.0"},{"group":"tri cycles (cube, non-group)","room_assignment":["red","blue","brown","yellow","purple","pink","grey","green"],"door_color_assignment":["black","white"],"door_generator_assignment":[1,0],"goal":1,"start":3,"action_noise":0.1,"location_history":"[3,7,6,4,0,2,6,4,0,3,4,0,2,6,4,7,3,7,6,4,0,2,1]","action_history":"[0,0,0,1,0,1,0,1,1,0,1,0,0,0,0,1,1,0,1,1,0,0]","door_history":"[1,1,1,0,1,0,1,0,0,1,0,1,1,1,1,0,0,1,0,0,1,1]","location_rts":"[12059,887,1075,796,384,719,653,1009,594,885,402,843,312,462,632,4961,1670,591,1359,487,1129,1018]","trial_type":"two-door-navigation","trial_index":32,"time_elapsed":1137723,"internal_node_id":"0.0-2.0-30.0"},{"group":"tri cycles (cube, non-group)","room_assignment":["red","blue","brown","yellow","purple","pink","grey","green"],"door_color_assignment":["black","white"],"door_generator_assignment":[1,0],"goal":4,"start":1,"action_noise":0.1,"location_history":"[1,0,2,1,5,2,6,5,2,6,4]","action_history":"[0,0,1,1,1,1,1,1,1,0]","door_history":"[1,1,0,0,0,0,0,0,0,1]","location_rts":"[13420,1821,1742,377,950,1372,1643,2714,276,333]","trial_type":"two-door-navigation","trial_index":33,"time_elapsed":1176053,"internal_node_id":"0.0-2.0-31.0"},{"group":"tri cycles (cube, non-group)","room_assignment":["red","blue","brown","yellow","purple","pink","grey","green"],"door_color_assignment":["black","white"],"door_generator_assignment":[1,0],"goal":3,"start":4,"action_noise":0.1,"location_history":"[4,0,2,1,5,2,1,0,3]","action_history":"[1,0,0,1,0,0,0,1]","door_history":"[0,1,1,0,1,1,1,0]","location_rts":"[4190,980,7241,1538,1919,4077,5803,932]","trial_type":"two-door-navigation","trial_index":34,"time_elapsed":1214375,"internal_node_id":"0.0-2.0-32.0"},{"group":"tri cycles (cube, non-group)","room_assignment":["red","blue","brown","yellow","purple","pink","grey","green"],"door_color_assignment":["black","white"],"door_generator_assignment":[1,0],"goal":6,"start":3,"action_noise":0.1,"location_history":"[3,7,6]","action_history":"[0,0]","door_history":"[1,1]","location_rts":"[31054,351]","trial_type":"two-door-navigation","trial_index":35,"time_elapsed":1251318,"internal_node_id":"0.0-2.0-33.0"},{"group":"tri cycles (cube, non-group)","room_assignment":["red","blue","brown","yellow","purple","pink","grey","green"],"door_color_assignment":["black","white"],"door_generator_assignment":[1,0],"goal":0,"start":6,"action_noise":0.1,"location_history":"[6,4,7,3,4,7,3,7,6,5,1,0]","action_history":"[0,0,1,1,0,1,1,0,1,0,1]","door_history":"[1,1,0,0,1,0,0,1,0,1,0]","location_rts":"[13756,2352,6952,624,882,3467,705,1090,238,3556,16713]","trial_type":"two-door-navigation","trial_index":36,"time_elapsed":1316341,"internal_node_id":"0.0-2.0-34.0"},{"group":"tri cycles (cube, non-group)","room_assignment":["red","blue","brown","yellow","purple","pink","grey","green"],"door_color_assignment":["black","white"],"door_generator_assignment":[1,0],"goal":1,"start":0,"action_noise":0.1,"location_history":"[0,3,4,7,6,4,7,6,5,1]","action_history":"[1,1,0,0,0,0,0,1,0]","door_history":"[0,0,1,1,1,1,1,0,1]","location_rts":"[13853,725,566,306,1526,490,313,434,410]","trial_type":"two-door-navigation","trial_index":37,"time_elapsed":1347623,"internal_node_id":"0.0-2.0-35.0"},{"group":"tri cycles (cube, non-group)","room_assignment":["red","blue","brown","yellow","purple","pink","grey","green"],"door_color_assignment":["black","white"],"door_generator_assignment":[1,0],"goal":5,"start":1,"action_noise":0.1,"location_history":"[1,5]","action_history":"[0]","door_history":"[1]","location_rts":"[7015]","trial_type":"two-door-navigation","trial_index":38,"time_elapsed":1359160,"internal_node_id":"0.0-2.0-36.0"},{"group":"tri cycles (cube, non-group)","room_assignment":["red","blue","brown","yellow","purple","pink","grey","green"],"door_color_assignment":["black","white"],"door_generator_assignment":[1,0],"goal":7,"start":5,"action_noise":0.1,"location_history":"[5,2,6,5,2,1,0,3,7]","action_history":"[1,1,1,1,0,0,1,0]","door_history":"[0,0,0,0,1,1,0,1]","location_rts":"[6501,3343,980,489,519,8321,1633,3280]","trial_type":"two-door-navigation","trial_index":39,"time_elapsed":1395871,"internal_node_id":"0.0-2.0-37.0"},{"group":"tri cycles (cube, non-group)","room_assignment":["red","blue","brown","yellow","purple","pink","grey","green"],"door_color_assignment":["black","white"],"door_generator_assignment":[1,0],"goal":2,"start":7,"action_noise":0.1,"location_history":"[7,6,5,2]","action_history":"[0,1,1]","door_history":"[1,0,0]","location_rts":"[1664,970,218]","trial_type":"two-door-navigation","trial_index":40,"time_elapsed":1405279,"internal_node_id":"0.0-2.0-38.0"},{"group":"tri cycles (cube, non-group)","room_assignment":["red","blue","brown","yellow","purple","pink","grey","green"],"door_color_assignment":["black","white"],"door_generator_assignment":[1,0],"goal":1,"start":2,"action_noise":0.1,"location_history":"[2,1]","action_history":"[0]","door_history":"[1]","location_rts":"[4782]","trial_type":"two-door-navigation","trial_index":41,"time_elapsed":1414582,"internal_node_id":"0.0-2.0-39.0"},{"group":"tri cycles (cube, non-group)","room_assignment":["red","blue","brown","yellow","purple","pink","grey","green"],"door_color_assignment":["black","white"],"door_generator_assignment":[1,0],"goal":3,"start":1,"action_noise":0.1,"location_history":"[1,0,2,1,5,1,0,3]","action_history":"[0,0,0,1,0,0,1]","door_history":"[1,1,1,0,1,1,0]","location_rts":"[10473,707,211,564,10521,473,1785]","trial_type":"two-door-navigation","trial_index":42,"time_elapsed":1449941,"internal_node_id":"0.0-2.0-40.0"},{"group":"tri cycles (cube, non-group)","room_assignment":["red","blue","brown","yellow","purple","pink","grey","green"],"door_color_assignment":["black","white"],"door_generator_assignment":[1,0],"goal":4,"start":3,"action_noise":0.1,"location_history":"[3,7,6,4]","action_history":"[0,0,0]","door_history":"[1,1,1]","location_rts":"[19960,14586,341]","trial_type":"two-door-navigation","trial_index":43,"time_elapsed":1491390,"internal_node_id":"0.0-2.0-41.0"},{"group":"tri cycles (cube, non-group)","room_assignment":["red","blue","brown","yellow","purple","pink","grey","green"],"door_color_assignment":["black","white"],"door_generator_assignment":[1,0],"goal":2,"start":4,"action_noise":0.1,"location_history":"[4,0,2]","action_history":"[0,0]","door_history":"[1,1]","location_rts":"[38075,4667]","trial_type":"two-door-navigation","trial_index":44,"time_elapsed":1539667,"internal_node_id":"0.0-2.0-42.0"},{"group":"tri cycles (cube, non-group)","room_assignment":["red","blue","brown","yellow","purple","pink","grey","green"],"door_color_assignment":["black","white"],"door_generator_assignment":[1,0],"goal":5,"start":2,"action_noise":0.1,"location_history":"[2,6,5]","action_history":"[1,1]","door_history":"[0,0]","location_rts":"[1375,275]","trial_type":"two-door-navigation","trial_index":45,"time_elapsed":1546858,"internal_node_id":"0.0-2.0-43.0"},{"group":"tri cycles (cube, non-group)","room_assignment":["red","blue","brown","yellow","purple","pink","grey","green"],"door_color_assignment":["black","white"],"door_generator_assignment":[1,0],"goal":0,"start":5,"action_noise":0.1,"location_history":"[5,1,5,2,1,0]","action_history":"[0,1,1,0,1]","door_history":"[1,0,0,1,0]","location_rts":"[4232,308,5300,559,3113]","trial_type":"two-door-navigation","trial_index":46,"time_elapsed":1568965,"internal_node_id":"0.0-2.0-44.0"},{"group":"tri cycles (cube, non-group)","room_assignment":["red","blue","brown","yellow","purple","pink","grey","green"],"door_color_assignment":["black","white"],"door_generator_assignment":[1,0],"goal":7,"start":0,"action_noise":0.1,"location_history":"[0,3,7]","action_history":"[1,0]","door_history":"[0,1]","location_rts":"[8686,794]","trial_type":"two-door-navigation","trial_index":47,"time_elapsed":1583992,"internal_node_id":"0.0-2.0-45.0"},{"group":"tri cycles (cube, non-group)","room_assignment":["red","blue","brown","yellow","purple","pink","grey","green"],"door_color_assignment":["black","white"],"door_generator_assignment":[1,0],"goal":6,"start":7,"action_noise":0.1,"location_history":"[7,3,7,3,7,3,4,7,3,4,0,2,6]","action_history":"[0,0,0,0,1,1,0,1,1,1,0,1]","door_history":"[1,1,1,1,0,0,1,0,0,0,1,0]","location_rts":"[3544,6019,1601,2319,9490,12536,9910,803,214,294,1365,766]","trial_type":"two-door-navigation","trial_index":48,"time_elapsed":1648577,"internal_node_id":"0.0-2.0-46.0"},{"group":"tri cycles (cube, non-group)","room_assignment":["red","blue","brown","yellow","purple","pink","grey","green"],"door_color_assignment":["black","white"],"door_generator_assignment":[1,0],"goal":2,"start":6,"action_noise":0.1,"location_history":"[6,5,2]","action_history":"[1,1]","door_history":"[0,0]","location_rts":"[973,385]","trial_type":"two-door-navigation","trial_index":49,"time_elapsed":1655471,"internal_node_id":"0.0-2.0-47.0"},{"group":"tri cycles (cube, non-group)","room_assignment":["red","blue","brown","yellow","purple","pink","grey","green"],"door_color_assignment":["black","white"],"door_generator_assignment":[1,0],"goal":5,"start":2,"action_noise":0.1,"location_history":"[2,6,5]","action_history":"[1,1]","door_history":"[0,0]","location_rts":"[1171,306]","trial_type":"two-door-navigation","trial_index":50,"time_elapsed":1662483,"internal_node_id":"0.0-2.0-48.0"},{"group":"tri cycles (cube, non-group)","room_assignment":["red","blue","brown","yellow","purple","pink","grey","green"],"door_color_assignment":["black","white"],"door_generator_assignment":[1,0],"goal":3,"start":5,"action_noise":0.1,"location_history":"[5,1,0,2,1,0,2,1,5,2,1,5,2,1,0,2,1,0,3]","action_history":"[0,0,1,0,0,0,0,1,1,0,1,0,0,0,0,0,0,1]","door_history":"[1,1,0,1,1,1,1,0,0,1,0,1,1,1,1,1,1,0]","location_rts":"[2750,1199,5634,1158,439,557,5033,2401,948,435,540,846,185,394,3792,330,243,380]","trial_type":"two-door-navigation","trial_index":51,"time_elapsed":1711556,"internal_node_id":"0.0-2.0-49.0"},{"view_history":"[{\"page_index\":0,\"viewing_time\":759373}]","rt":759374,"trial_type":"instructions","trial_index":52,"time_elapsed":2471930,"internal_node_id":"0.0-3.0"},{"view_history":"[{\"page_index\":0,\"viewing_time\":3030},{\"page_index\":1,\"viewing_time\":344947}]","rt":347978,"trial_type":"instructions","trial_index":53,"time_elapsed":2820910,"internal_node_id":"0.0-4.0"},{"group":"tri cycles (cube, non-group)","fractal_assignment":["../images/gry_blk.png","../images/blu_wht.png","../images/ylw_slt.png","../images/cyn_red.png","../images/org_blu.png","../images/pnk_blu.png","../images/ylw_pnk.png","../images/grn_red.png"],"mutagen_generator_assignment":[0,1],"goal":5,"start":7,"action_noise":0.1,"location_history":"[7,6,4,0,2,1,5]","action_history":"[0,0,1,0,0,0]","mutagen_history":"[0,0,1,0,0,0]","location_rts":"[3787,661,807,388,512,839]","trial_type":"fractal-mutation","trial_index":54,"time_elapsed":2837895,"internal_node_id":"0.0-5.0-0.0"},{"group":"tri cycles (cube, non-group)","fractal_assignment":["../images/gry_blk.png","../images/blu_wht.png","../images/ylw_slt.png","../images/cyn_red.png","../images/org_blu.png","../images/pnk_blu.png","../images/ylw_pnk.png","../images/grn_red.png"],"mutagen_generator_assignment":[0,1],"goal":2,"start":5,"action_noise":0.1,"location_history":"[5,2]","action_history":"[1]","mutagen_history":"[1]","location_rts":"[1806]","trial_type":"fractal-mutation","trial_index":55,"time_elapsed":2844301,"internal_node_id":"0.0-5.0-1.0"},{"group":"tri cycles (cube, non-group)","fractal_assignment":["../images/gry_blk.png","../images/blu_wht.png","../images/ylw_slt.png","../images/cyn_red.png","../images/org_blu.png","../images/pnk_blu.png","../images/ylw_pnk.png","../images/grn_red.png"],"mutagen_generator_assignment":[0,1],"goal":0,"start":2,"action_noise":0.1,"location_history":"[2,6,5,1,0]","action_history":"[1,1,1,0]","mutagen_history":"[1,1,1,0]","location_rts":"[1379,497,853,428]","trial_type":"fractal-mutation","trial_index":56,"time_elapsed":2855382,"internal_node_id":"0.0-5.0-2.0"},{"group":"tri cycles (cube, non-group)","fractal_assignment":["../images/gry_blk.png","../images/blu_wht.png","../images/ylw_slt.png","../images/cyn_red.png","../images/org_blu.png","../images/pnk_blu.png","../images/ylw_pnk.png","../images/grn_red.png"],"mutagen_generator_assignment":[0,1],"goal":1,"start":0,"action_noise":0.1,"location_history":"[0,2,1]","action_history":"[0,0]","mutagen_history":"[0,0]","location_rts":"[1190,436]","trial_type":"fractal-mutation","trial_index":57,"time_elapsed":2862637,"internal_node_id":"0.0-5.0-3.0"},{"group":"tri cycles (cube, non-group)","fractal_assignment":["../images/gry_blk.png","../images/blu_wht.png","../images/ylw_slt.png","../images/cyn_red.png","../images/org_blu.png","../images/pnk_blu.png","../images/ylw_pnk.png","../images/grn_red.png"],"mutagen_generator_assignment":[0,1],"goal":6,"start":1,"action_noise":0.1,"location_history":"[1,0,3,7,6]","action_history":"[1,1,0,0]","mutagen_history":"[1,1,0,0]","location_rts":"[1629,902,848,452]","trial_type":"fractal-mutation","trial_index":58,"time_elapsed":2874298,"internal_node_id":"0.0-5.0-4.0"},{"group":"tri cycles (cube, non-group)","fractal_assignment":["../images/gry_blk.png","../images/blu_wht.png","../images/ylw_slt.png","../images/cyn_red.png","../images/org_blu.png","../images/pnk_blu.png","../images/ylw_pnk.png","../images/grn_red.png"],"mutagen_generator_assignment":[0,1],"goal":3,"start":6,"action_noise":0.1,"location_history":"[6,5,2,6,5,2,6,4,7,3]","action_history":"[1,1,1,0,1,1,0,0,1]","mutagen_history":"[1,1,1,0,1,1,0,0,1]","location_rts":"[1621,472,547,611,707,783,261,231,1628]","trial_type":"fractal-mutation","trial_index":59,"time_elapsed":2894567,"internal_node_id":"0.0-5.0-5.0"},{"group":"tri cycles (cube, non-group)","fractal_assignment":["../images/gry_blk.png","../images/blu_wht.png","../images/ylw_slt.png","../images/cyn_red.png","../images/org_blu.png","../images/pnk_blu.png","../images/ylw_pnk.png","../images/grn_red.png"],"mutagen_generator_assignment":[0,1],"goal":4,"start":3,"action_noise":0.1,"location_history":"[3,4]","action_history":"[1]","mutagen_history":"[1]","location_rts":"[6550]","trial_type":"fractal-mutation","trial_index":60,"time_elapsed":2905704,"internal_node_id":"0.0-5.0-6.0"},{"group":"tri cycles (cube, non-group)","fractal_assignment":["../images/gry_blk.png","../images/blu_wht.png","../images/ylw_slt.png","../images/cyn_red.png","../images/org_blu.png","../images/pnk_blu.png","../images/ylw_pnk.png","../images/grn_red.png"],"mutagen_generator_assignment":[0,1],"goal":1,"start":4,"action_noise":0.1,"location_history":"[4,0,2,1]","action_history":"[1,0,0]","mutagen_history":"[1,0,0]","location_rts":"[1373,435,527]","trial_type":"fractal-mutation","trial_index":61,"time_elapsed":2914747,"internal_node_id":"0.0-5.0-7.0"},{"group":"tri cycles (cube, non-group)","fractal_assignment":["../images/gry_blk.png","../images/blu_wht.png","../images/ylw_slt.png","../images/cyn_red.png","../images/org_blu.png","../images/pnk_blu.png","../images/ylw_pnk.png","../images/grn_red.png"],"mutagen_generator_assignment":[0,1],"goal":4,"start":1,"action_noise":0.1,"location_history":"[1,0,3,4]","action_history":"[1,1,1]","mutagen_history":"[1,1,1]","location_rts":"[4670,666,429]","trial_type":"fractal-mutation","trial_index":62,"time_elapsed":2927341,"internal_node_id":"0.0-5.0-8.0"},{"group":"tri cycles (cube, non-group)","fractal_assignment":["../images/gry_blk.png","../images/blu_wht.png","../images/ylw_slt.png","../images/cyn_red.png","../images/org_blu.png","../images/pnk_blu.png","../images/ylw_pnk.png","../images/grn_red.png"],"mutagen_generator_assignment":[0,1],"goal":5,"start":4,"action_noise":0.1,"location_history":"[4,0,2,6,5]","action_history":"[1,0,1,1]","mutagen_history":"[1,0,1,1]","location_rts":"[1337,348,579,540]","trial_type":"fractal-mutation","trial_index":63,"time_elapsed":2938122,"internal_node_id":"0.0-5.0-9.0"},{"group":"tri cycles (cube, non-group)","fractal_assignment":["../images/gry_blk.png","../images/blu_wht.png","../images/ylw_slt.png","../images/cyn_red.png","../images/org_blu.png","../images/pnk_blu.png","../images/ylw_pnk.png","../images/grn_red.png"],"mutagen_generator_assignment":[0,1],"goal":3,"start":5,"action_noise":0.1,"location_history":"[5,2,6,4,7,3]","action_history":"[1,1,0,1,1]","mutagen_history":"[1,1,0,1,1]","location_rts":"[1524,1369,743,570,596]","trial_type":"fractal-mutation","trial_index":64,"time_elapsed":2951944,"internal_node_id":"0.0-5.0-10.0"},{"group":"tri cycles (cube, non-group)","fractal_assignment":["../images/gry_blk.png","../images/blu_wht.png","../images/ylw_slt.png","../images/cyn_red.png","../images/org_blu.png","../images/pnk_blu.png","../images/ylw_pnk.png","../images/grn_red.png"],"mutagen_generator_assignment":[0,1],"goal":6,"start":3,"action_noise":0.1,"location_history":"[3,7,6]","action_history":"[0,0]","mutagen_history":"[0,0]","location_rts":"[2201,244]","trial_type":"fractal-mutation","trial_index":65,"time_elapsed":2960042,"internal_node_id":"0.0-5.0-11.0"},{"group":"tri cycles (cube, non-group)","fractal_assignment":["../images/gry_blk.png","../images/blu_wht.png","../images/ylw_slt.png","../images/cyn_red.png","../images/org_blu.png","../images/pnk_blu.png","../images/ylw_pnk.png","../images/grn_red.png"],"mutagen_generator_assignment":[0,1],"goal":7,"start":6,"action_noise":0.1,"location_history":"[6,5,1,0,3,7]","action_history":"[1,0,0,1,1]","mutagen_history":"[1,0,0,1,1]","location_rts":"[1274,503,1601,663,808]","trial_type":"fractal-mutation","trial_index":66,"time_elapsed":2973836,"internal_node_id":"0.0-5.0-12.0"},{"group":"tri cycles (cube, non-group)","fractal_assignment":["../images/gry_blk.png","../images/blu_wht.png","../images/ylw_slt.png","../images/cyn_red.png","../images/org_blu.png","../images/pnk_blu.png","../images/ylw_pnk.png","../images/grn_red.png"],"mutagen_generator_assignment":[0,1],"goal":0,"start":7,"action_noise":0.1,"location_history":"[7,3,4,0]","action_history":"[1,1,1]","mutagen_history":"[1,1,1]","location_rts":"[1367,491,378]","trial_type":"fractal-mutation","trial_index":67,"time_elapsed":2982863,"internal_node_id":"0.0-5.0-13.0"},{"group":"tri cycles (cube, non-group)","fractal_assignment":["../images/gry_blk.png","../images/blu_wht.png","../images/ylw_slt.png","../images/cyn_red.png","../images/org_blu.png","../images/pnk_blu.png","../images/ylw_pnk.png","../images/grn_red.png"],"mutagen_generator_assignment":[0,1],"goal":2,"start":0,"action_noise":0.1,"location_history":"[0,2]","action_history":"[0]","mutagen_history":"[0]","location_rts":"[1470]","trial_type":"fractal-mutation","trial_index":68,"time_elapsed":2988912,"internal_node_id":"0.0-5.0-14.0"},{"group":"tri cycles (cube, non-group)","fractal_assignment":["../images/gry_blk.png","../images/blu_wht.png","../images/ylw_slt.png","../images/cyn_red.png","../images/org_blu.png","../images/pnk_blu.png","../images/ylw_pnk.png","../images/grn_red.png"],"mutagen_generator_assignment":[0,1],"goal":1,"start":2,"action_noise":0.1,"location_history":"[2,1]","action_history":"[0]","mutagen_history":"[0]","location_rts":"[1082]","trial_type":"fractal-mutation","trial_index":69,"time_elapsed":2994572,"internal_node_id":"0.0-5.0-15.0"},{"group":"tri cycles (cube, non-group)","fractal_assignment":["../images/gry_blk.png","../images/blu_wht.png","../images/ylw_slt.png","../images/cyn_red.png","../images/org_blu.png","../images/pnk_blu.png","../images/ylw_pnk.png","../images/grn_red.png"],"mutagen_generator_assignment":[0,1],"goal":6,"start":1,"action_noise":0.1,"location_history":"[1,0,2,6]","action_history":"[0,1,1]","mutagen_history":"[0,1,1]","location_rts":"[1542,694,596]","trial_type":"fractal-mutation","trial_index":70,"time_elapsed":3004157,"internal_node_id":"0.0-5.0-16.0"},{"group":"tri cycles (cube, non-group)","fractal_assignment":["../images/gry_blk.png","../images/blu_wht.png","../images/ylw_slt.png","../images/cyn_red.png","../images/org_blu.png","../images/pnk_blu.png","../images/ylw_pnk.png","../images/grn_red.png"],"mutagen_generator_assignment":[0,1],"goal":3,"start":6,"action_noise":0.1,"location_history":"[6,5,1,0,3]","action_history":"[1,1,0,1]","mutagen_history":"[1,1,0,1]","location_rts":"[1492,657,594,440]","trial_type":"fractal-mutation","trial_index":71,"time_elapsed":3015243,"internal_node_id":"0.0-5.0-17.0"},{"group":"tri cycles (cube, non-group)","fractal_assignment":["../images/gry_blk.png","../images/blu_wht.png","../images/ylw_slt.png","../images/cyn_red.png","../images/org_blu.png","../images/pnk_blu.png","../images/ylw_pnk.png","../images/grn_red.png"],"mutagen_generator_assignment":[0,1],"goal":4,"start":3,"action_noise":0.1,"location_history":"[3,4]","action_history":"[1]","mutagen_history":"[1]","location_rts":"[1936]","trial_type":"fractal-mutation","trial_index":72,"time_elapsed":3021781,"internal_node_id":"0.0-5.0-18.0"},{"group":"tri cycles (cube, non-group)","fractal_assignment":["../images/gry_blk.png","../images/blu_wht.png","../images/ylw_slt.png","../images/cyn_red.png","../images/org_blu.png","../images/pnk_blu.png","../images/ylw_pnk.png","../images/grn_red.png"],"mutagen_generator_assignment":[0,1],"goal":5,"start":4,"action_noise":0.1,"location_history":"[4,0,2,6,5]","action_history":"[1,0,1,1]","mutagen_history":"[1,0,1,1]","location_rts":"[1524,449,426,534]","trial_type":"fractal-mutation","trial_index":73,"time_elapsed":3032697,"internal_node_id":"0.0-5.0-19.0"},{"group":"tri cycles (cube, non-group)","fractal_assignment":["../images/gry_blk.png","../images/blu_wht.png","../images/ylw_slt.png","../images/cyn_red.png","../images/org_blu.png","../images/pnk_blu.png","../images/ylw_pnk.png","../images/grn_red.png"],"mutagen_generator_assignment":[0,1],"goal":7,"start":5,"action_noise":0.1,"location_history":"[5,2,1,5,1,5,1,0,2,6,4,0,3,4,0,2,6,4,7]","action_history":"[1,0,0,0,1,0,0,1,1,0,1,1,1,1,1,1,1,0]","mutagen_history":"[1,0,0,0,1,0,0,1,1,0,1,1,1,1,1,1,1,0]","location_rts":"[2033,660,424,694,606,775,412,721,1211,1762,787,625,767,429,203,798,932,788]","trial_type":"fractal-mutation","trial_index":74,"time_elapsed":3070596,"internal_node_id":"0.0-5.0-20.0"},{"group":"tri cycles (cube, non-group)","fractal_assignment":["../images/gry_blk.png","../images/blu_wht.png","../images/ylw_slt.png","../images/cyn_red.png","../images/org_blu.png","../images/pnk_blu.png","../images/ylw_pnk.png","../images/grn_red.png"],"mutagen_generator_assignment":[0,1],"goal":2,"start":7,"action_noise":0.1,"location_history":"[7,3,4,0,2]","action_history":"[1,1,1,0]","mutagen_history":"[1,1,1,0]","location_rts":"[3137,882,549,451]","trial_type":"fractal-mutation","trial_index":75,"time_elapsed":3083569,"internal_node_id":"0.0-5.0-21.0"},{"group":"tri cycles (cube, non-group)","fractal_assignment":["../images/gry_blk.png","../images/blu_wht.png","../images/ylw_slt.png","../images/cyn_red.png","../images/org_blu.png","../images/pnk_blu.png","../images/ylw_pnk.png","../images/grn_red.png"],"mutagen_generator_assignment":[0,1],"goal":0,"start":2,"action_noise":0.1,"location_history":"[2,6,4,0]","action_history":"[1,0,1]","mutagen_history":"[1,0,1]","location_rts":"[2780,629,508]","trial_type":"fractal-mutation","trial_index":76,"time_elapsed":3094273,"internal_node_id":"0.0-5.0-22.0"},{"group":"tri cycles (cube, non-group)","fractal_assignment":["../images/gry_blk.png","../images/blu_wht.png","../images/ylw_slt.png","../images/cyn_red.png","../images/org_blu.png","../images/pnk_blu.png","../images/ylw_pnk.png","../images/grn_red.png"],"mutagen_generator_assignment":[0,1],"goal":7,"start":0,"action_noise":0.1,"location_history":"[0,3,4,0,3,4,0,3,4,7]","action_history":"[1,1,1,1,0,1,1,0,0]","mutagen_history":"[1,1,1,1,0,1,1,0,0]","location_rts":"[1183,930,375,574,246,2613,702,204,548]","trial_type":"fractal-mutation","trial_index":77,"time_elapsed":3114943,"internal_node_id":"0.0-5.0-23.0"},{"group":"tri cycles (cube, non-group)","fractal_assignment":["../images/gry_blk.png","../images/blu_wht.png","../images/ylw_slt.png","../images/cyn_red.png","../images/org_blu.png","../images/pnk_blu.png","../images/ylw_pnk.png","../images/grn_red.png"],"mutagen_generator_assignment":[0,1],"goal":5,"start":7,"action_noise":0.1,"location_history":"[7,6,5]","action_history":"[0,1]","mutagen_history":"[0,1]","location_rts":"[2881,1351]","trial_type":"fractal-mutation","trial_index":78,"time_elapsed":3124846,"internal_node_id":"0.0-5.0-24.0"},{"group":"tri cycles (cube, non-group)","fractal_assignment":["../images/gry_blk.png","../images/blu_wht.png","../images/ylw_slt.png","../images/cyn_red.png","../images/org_blu.png","../images/pnk_blu.png","../images/ylw_pnk.png","../images/grn_red.png"],"mutagen_generator_assignment":[0,1],"goal":0,"start":5,"action_noise":0.1,"location_history":"[5,1,5,2,6,4,0]","action_history":"[0,1,1,1,0,1]","mutagen_history":"[0,1,1,1,0,1]","location_rts":"[2229,1351,664,983,272,833]","trial_type":"fractal-mutation","trial_index":79,"time_elapsed":3141246,"internal_node_id":"0.0-5.0-25.0"},{"group":"tri cycles (cube, non-group)","fractal_assignment":["../images/gry_blk.png","../images/blu_wht.png","../images/ylw_slt.png","../images/cyn_red.png","../images/org_blu.png","../images/pnk_blu.png","../images/ylw_pnk.png","../images/grn_red.png"],"mutagen_generator_assignment":[0,1],"goal":6,"start":0,"action_noise":0.1,"location_history":"[0,3,7,6]","action_history":"[1,0,0]","mutagen_history":"[1,0,0]","location_rts":"[4132,1587,476]","trial_type":"fractal-mutation","trial_index":80,"time_elapsed":3154185,"internal_node_id":"0.0-5.0-26.0"},{"group":"tri cycles (cube, non-group)","fractal_assignment":["../images/gry_blk.png","../images/blu_wht.png","../images/ylw_slt.png","../images/cyn_red.png","../images/org_blu.png","../images/pnk_blu.png","../images/ylw_pnk.png","../images/grn_red.png"],"mutagen_generator_assignment":[0,1],"goal":4,"start":6,"action_noise":0.1,"location_history":"[6,4]","action_history":"[1]","mutagen_history":"[1]","location_rts":"[1734]","trial_type":"fractal-mutation","trial_index":81,"time_elapsed":3160509,"internal_node_id":"0.0-5.0-27.0"},{"group":"tri cycles (cube, non-group)","fractal_assignment":["../images/gry_blk.png","../images/blu_wht.png","../images/ylw_slt.png","../images/cyn_red.png","../images/org_blu.png","../images/pnk_blu.png","../images/ylw_pnk.png","../images/grn_red.png"],"mutagen_generator_assignment":[0,1],"goal":2,"start":4,"action_noise":0.1,"location_history":"[4,0,2]","action_history":"[1,0]","mutagen_history":"[1,0]","location_rts":"[1906,427]","trial_type":"fractal-mutation","trial_index":82,"time_elapsed":3168513,"internal_node_id":"0.0-5.0-28.0"},{"group":"tri cycles (cube, non-group)","fractal_assignment":["../images/gry_blk.png","../images/blu_wht.png","../images/ylw_slt.png","../images/cyn_red.png","../images/org_blu.png","../images/pnk_blu.png","../images/ylw_pnk.png","../images/grn_red.png"],"mutagen_generator_assignment":[0,1],"goal":3,"start":2,"action_noise":0.1,"location_history":"[2,1,0,3]","action_history":"[0,0,1]","mutagen_history":"[0,0,1]","location_rts":"[1870,378,516]","trial_type":"fractal-mutation","trial_index":83,"time_elapsed":3178032,"internal_node_id":"0.0-5.0-29.0"},{"group":"tri cycles (cube, non-group)","fractal_assignment":["../images/gry_blk.png","../images/blu_wht.png","../images/ylw_slt.png","../images/cyn_red.png","../images/org_blu.png","../images/pnk_blu.png","../images/ylw_pnk.png","../images/grn_red.png"],"mutagen_generator_assignment":[0,1],"goal":1,"start":3,"action_noise":0.1,"location_history":"[3,4,0,2,6,5,2,1]","action_history":"[1,1,0,1,1,1,0]","mutagen_history":"[1,1,0,1,1,1,0]","location_rts":"[1684,411,263,671,552,597,631]","trial_type":"fractal-mutation","trial_index":84,"time_elapsed":3193997,"internal_node_id":"0.0-5.0-30.0"},{"group":"tri cycles (cube, non-group)","fractal_assignment":["../images/gry_blk.png","../images/blu_wht.png","../images/ylw_slt.png","../images/cyn_red.png","../images/org_blu.png","../images/pnk_blu.png","../images/ylw_pnk.png","../images/grn_red.png"],"mutagen_generator_assignment":[0,1],"goal":4,"start":1,"action_noise":0.1,"location_history":"[1,5,1,0,3,7,3,7,6,4]","action_history":"[1,0,0,1,1,1,1,0,0]","mutagen_history":"[1,0,0,1,1,1,1,0,0]","location_rts":"[2423,632,558,894,546,1017,913,656,332]","trial_type":"fractal-mutation","trial_index":85,"time_elapsed":3215309,"internal_node_id":"0.0-5.0-31.0"},{"group":"tri cycles (cube, non-group)","fractal_assignment":["../images/gry_blk.png","../images/blu_wht.png","../images/ylw_slt.png","../images/cyn_red.png","../images/org_blu.png","../images/pnk_blu.png","../images/ylw_pnk.png","../images/grn_red.png"],"mutagen_generator_assignment":[0,1],"goal":3,"start":4,"action_noise":0.1,"location_history":"[4,0,3]","action_history":"[1,1]","mutagen_history":"[1,1]","location_rts":"[1565,333]","trial_type":"fractal-mutation","trial_index":86,"time_elapsed":3222922,"internal_node_id":"0.0-5.0-32.0"},{"group":"tri cycles (cube, non-group)","fractal_assignment":["../images/gry_blk.png","../images/blu_wht.png","../images/ylw_slt.png","../images/cyn_red.png","../images/org_blu.png","../images/pnk_blu.png","../images/ylw_pnk.png","../images/grn_red.png"],"mutagen_generator_assignment":[0,1],"goal":6,"start":3,"action_noise":0.1,"location_history":"[3,4,7,6]","action_history":"[1,0,0]","mutagen_history":"[1,0,0]","location_rts":"[1445,992,1171]","trial_type":"fractal-mutation","trial_index":87,"time_elapsed":3233291,"internal_node_id":"0.0-5.0-33.0"},{"group":"tri cycles (cube, non-group)","fractal_assignment":["../images/gry_blk.png","../images/blu_wht.png","../images/ylw_slt.png","../images/cyn_red.png","../images/org_blu.png","../images/pnk_blu.png","../images/ylw_pnk.png","../images/grn_red.png"],"mutagen_generator_assignment":[0,1],"goal":0,"start":6,"action_noise":0.1,"location_history":"[6,5,1,0]","action_history":"[1,0,0]","mutagen_history":"[1,0,0]","location_rts":"[1240,195,554]","trial_type":"fractal-mutation","trial_index":88,"time_elapsed":3242003,"internal_node_id":"0.0-5.0-34.0"},{"group":"tri cycles (cube, non-group)","fractal_assignment":["../images/gry_blk.png","../images/blu_wht.png","../images/ylw_slt.png","../images/cyn_red.png","../images/org_blu.png","../images/pnk_blu.png","../images/ylw_pnk.png","../images/grn_red.png"],"mutagen_generator_assignment":[0,1],"goal":1,"start":0,"action_noise":0.1,"location_history":"[0,2,1]","action_history":"[0,0]","mutagen_history":"[0,0]","location_rts":"[2458,1864]","trial_type":"fractal-mutation","trial_index":89,"time_elapsed":3251948,"internal_node_id":"0.0-5.0-35.0"},{"group":"tri cycles (cube, non-group)","fractal_assignment":["../images/gry_blk.png","../images/blu_wht.png","../images/ylw_slt.png","../images/cyn_red.png","../images/org_blu.png","../images/pnk_blu.png","../images/ylw_pnk.png","../images/grn_red.png"],"mutagen_generator_assignment":[0,1],"goal":5,"start":1,"action_noise":0.1,"location_history":"[1,5]","action_history":"[1]","mutagen_history":"[1]","location_rts":"[1522]","trial_type":"fractal-mutation","trial_index":90,"time_elapsed":3258073,"internal_node_id":"0.0-5.0-36.0"},{"group":"tri cycles (cube, non-group)","fractal_assignment":["../images/gry_blk.png","../images/blu_wht.png","../images/ylw_slt.png","../images/cyn_red.png","../images/org_blu.png","../images/pnk_blu.png","../images/ylw_pnk.png","../images/grn_red.png"],"mutagen_generator_assignment":[0,1],"goal":7,"start":5,"action_noise":0.1,"location_history":"[5,2,1,0,3,7]","action_history":"[1,0,0,1,0]","mutagen_history":"[1,0,0,1,0]","location_rts":"[1773,728,566,439,512]","trial_type":"fractal-mutation","trial_index":91,"time_elapsed":3270945,"internal_node_id":"0.0-5.0-37.0"},{"group":"tri cycles (cube, non-group)","fractal_assignment":["../images/gry_blk.png","../images/blu_wht.png","../images/ylw_slt.png","../images/cyn_red.png","../images/org_blu.png","../images/pnk_blu.png","../images/ylw_pnk.png","../images/grn_red.png"],"mutagen_generator_assignment":[0,1],"goal":2,"start":7,"action_noise":0.1,"location_history":"[7,6,4,0,2]","action_history":"[1,0,1,0]","mutagen_history":"[1,0,1,0]","location_rts":"[1220,383,1297,492]","trial_type":"fractal-mutation","trial_index":92,"time_elapsed":3282225,"internal_node_id":"0.0-5.0-38.0"},{"group":"tri cycles (cube, non-group)","fractal_assignment":["../images/gry_blk.png","../images/blu_wht.png","../images/ylw_slt.png","../images/cyn_red.png","../images/org_blu.png","../images/pnk_blu.png","../images/ylw_pnk.png","../images/grn_red.png"],"mutagen_generator_assignment":[0,1],"goal":1,"start":2,"action_noise":0.1,"location_history":"[2,1]","action_history":"[0]","mutagen_history":"[0]","location_rts":"[1545]","trial_type":"fractal-mutation","trial_index":93,"time_elapsed":3288345,"internal_node_id":"0.0-5.0-39.0"},{"group":"tri cycles (cube, non-group)","fractal_assignment":["../images/gry_blk.png","../images/blu_wht.png","../images/ylw_slt.png","../images/cyn_red.png","../images/org_blu.png","../images/pnk_blu.png","../images/ylw_pnk.png","../images/grn_red.png"],"mutagen_generator_assignment":[0,1],"goal":3,"start":1,"action_noise":0.1,"location_history":"[1,0,3]","action_history":"[0,1]","mutagen_history":"[0,1]","location_rts":"[1995,608]","trial_type":"fractal-mutation","trial_index":94,"time_elapsed":3296614,"internal_node_id":"0.0-5.0-40.0"},{"group":"tri cycles (cube, non-group)","fractal_assignment":["../images/gry_blk.png","../images/blu_wht.png","../images/ylw_slt.png","../images/cyn_red.png","../images/org_blu.png","../images/pnk_blu.png","../images/ylw_pnk.png","../images/grn_red.png"],"mutagen_generator_assignment":[0,1],"goal":4,"start":3,"action_noise":0.1,"location_history":"[3,4]","action_history":"[1]","mutagen_history":"[1]","location_rts":"[981]","trial_type":"fractal-mutation","trial_index":95,"time_elapsed":3302215,"internal_node_id":"0.0-5.0-41.0"},{"group":"tri cycles (cube, non-group)","fractal_assignment":["../images/gry_blk.png","../images/blu_wht.png","../images/ylw_slt.png","../images/cyn_red.png","../images/org_blu.png","../images/pnk_blu.png","../images/ylw_pnk.png","../images/grn_red.png"],"mutagen_generator_assignment":[0,1],"goal":2,"start":4,"action_noise":0.1,"location_history":"[4,0,2]","action_history":"[1,0]","mutagen_history":"[1,0]","location_rts":"[2253,455]","trial_type":"fractal-mutation","trial_index":96,"time_elapsed":3310607,"internal_node_id":"0.0-5.0-42.0"},{"group":"tri cycles (cube, non-group)","fractal_assignment":["../images/gry_blk.png","../images/blu_wht.png","../images/ylw_slt.png","../images/cyn_red.png","../images/org_blu.png","../images/pnk_blu.png","../images/ylw_pnk.png","../images/grn_red.png"],"mutagen_generator_assignment":[0,1],"goal":5,"start":2,"action_noise":0.1,"location_history":"[2,6,5]","action_history":"[1,1]","mutagen_history":"[1,1]","location_rts":"[1332,350]","trial_type":"fractal-mutation","trial_index":97,"time_elapsed":3318057,"internal_node_id":"0.0-5.0-43.0"},{"group":"tri cycles (cube, non-group)","fractal_assignment":["../images/gry_blk.png","../images/blu_wht.png","../images/ylw_slt.png","../images/cyn_red.png","../images/org_blu.png","../images/pnk_blu.png","../images/ylw_pnk.png","../images/grn_red.png"],"mutagen_generator_assignment":[0,1],"goal":0,"start":5,"action_noise":0.1,"location_history":"[5,2,1,0]","action_history":"[1,0,0]","mutagen_history":"[1,0,0]","location_rts":"[1791,1127,236]","trial_type":"fractal-mutation","trial_index":98,"time_elapsed":3327980,"internal_node_id":"0.0-5.0-44.0"},{"group":"tri cycles (cube, non-group)","fractal_assignment":["../images/gry_blk.png","../images/blu_wht.png","../images/ylw_slt.png","../images/cyn_red.png","../images/org_blu.png","../images/pnk_blu.png","../images/ylw_pnk.png","../images/grn_red.png"],"mutagen_generator_assignment":[0,1],"goal":7,"start":0,"action_noise":0.1,"location_history":"[0,2,1,0,3,7]","action_history":"[0,0,0,1,0]","mutagen_history":"[0,0,0,1,0]","location_rts":"[1225,2090,462,310,278]","trial_type":"fractal-mutation","trial_index":99,"time_elapsed":3341259,"internal_node_id":"0.0-5.0-45.0"},{"group":"tri cycles (cube, non-group)","fractal_assignment":["../images/gry_blk.png","../images/blu_wht.png","../images/ylw_slt.png","../images/cyn_red.png","../images/org_blu.png","../images/pnk_blu.png","../images/ylw_pnk.png","../images/grn_red.png"],"mutagen_generator_assignment":[0,1],"goal":6,"start":7,"action_noise":0.1,"location_history":"[7,6]","action_history":"[0]","mutagen_history":"[0]","location_rts":"[1312]","trial_type":"fractal-mutation","trial_index":100,"time_elapsed":3347155,"internal_node_id":"0.0-5.0-46.0"},{"group":"tri cycles (cube, non-group)","fractal_assignment":["../images/gry_blk.png","../images/blu_wht.png","../images/ylw_slt.png","../images/cyn_red.png","../images/org_blu.png","../images/pnk_blu.png","../images/ylw_pnk.png","../images/grn_red.png"],"mutagen_generator_assignment":[0,1],"goal":2,"start":6,"action_noise":0.1,"location_history":"[6,5,1,0,2]","action_history":"[1,0,0,0]","mutagen_history":"[1,0,0,0]","location_rts":"[1034,455,526,880]","trial_type":"fractal-mutation","trial_index":101,"time_elapsed":3357890,"internal_node_id":"0.0-5.0-47.0"},{"group":"tri cycles (cube, non-group)","fractal_assignment":["../images/gry_blk.png","../images/blu_wht.png","../images/ylw_slt.png","../images/cyn_red.png","../images/org_blu.png","../images/pnk_blu.png","../images/ylw_pnk.png","../images/grn_red.png"],"mutagen_generator_assignment":[0,1],"goal":5,"start":2,"action_noise":0.1,"location_history":"[2,6,5]","action_history":"[1,1]","mutagen_history":"[1,1]","location_rts":"[1696,400]","trial_type":"fractal-mutation","trial_index":102,"time_elapsed":3365685,"internal_node_id":"0.0-5.0-48.0"},{"group":"tri cycles (cube, non-group)","fractal_assignment":["../images/gry_blk.png","../images/blu_wht.png","../images/ylw_slt.png","../images/cyn_red.png","../images/org_blu.png","../images/pnk_blu.png","../images/ylw_pnk.png","../images/grn_red.png"],"mutagen_generator_assignment":[0,1],"goal":3,"start":5,"action_noise":0.1,"location_history":"[5,2,1,0,3]","action_history":"[0,0,0,1]","mutagen_history":"[0,0,0,1]","location_rts":"[1466,625,529,366]","trial_type":"fractal-mutation","trial_index":103,"time_elapsed":3376488,"internal_node_id":"0.0-5.0-49.0"},{"view_history":"[{\"page_index\":0,\"viewing_time\":2897}]","rt":2897,"trial_type":"instructions","trial_index":104,"time_elapsed":3380386,"internal_node_id":"0.0-6.0"},{"rt":35348,"responses":"{\"Q0\":\"I suppose to see how we map out the rooms and if we can remember how to navigate to certain sections based on very similar patterns.\"}","trial_type":"survey-text","trial_index":105,"time_elapsed":3416738,"internal_node_id":"0.0-7.0-0.0"},{"rt":63086,"responses":"{\"Q0\":\"A simplified version of the first one? To see how effectively we can map out patterns?\"}","trial_type":"survey-text","trial_index":106,"time_elapsed":3480827,"internal_node_id":"0.0-7.0-1.0"},{"rt":125277,"responses":"{\"Q0\":\"<img src='../images/diagrams/tri_cycles.png'>\"}","trial_type":"survey-multi-choice","trial_index":107,"time_elapsed":3607110,"internal_node_id":"0.0-7.0-2.0"},{"rt":102974,"assignments":["../images/pnk_blu.png","../images/grn_red.png","../images/ylw_slt.png","../images/cyn_red.png","../images/blu_wht.png","../images/ylw_pnk.png","../images/gry_blk.png","../images/org_blu.png"],"trial_type":"drag-drop-on-image","trial_index":108,"time_elapsed":3711086,"internal_node_id":"0.0-7.0-3.0"},{"rt":9378,"responses":"{\"Q0\":\"3\"}","trial_type":"survey-likert","trial_index":109,"time_elapsed":3721468,"internal_node_id":"0.0-7.0-4.0"},{"rt":44642,"responses":"{\"Q0\":\"I noticed certain patterns that always worked like a leads to b leads to c leads to a. \"}","trial_type":"survey-text","trial_index":110,"time_elapsed":3767110,"internal_node_id":"0.0-7.0-5.0"},{"rt":13853,"responses":"{\"Q0\":\"No\"}","trial_type":"survey-multi-choice","trial_index":111,"time_elapsed":3781967,"internal_node_id":"0.0-7.0-6.0"},{"rt":11120,"responses":"{\"Q0\":\"During session 1\"}","trial_type":"survey-multi-choice","trial_index":112,"time_elapsed":3794093,"internal_node_id":"0.0-7.0-7.0"},{"rt":19508,"responses":"{\"Q0\":\"Well, other than the pattern thing I mentioned earlier, then no.\"}","trial_type":"survey-text","trial_index":113,"time_elapsed":3814605,"internal_node_id":"0.0-7.0-8.0"},{"rt":6609,"responses":"{\"Q0\":\"1\"}","trial_type":"survey-likert","trial_index":114,"time_elapsed":3822217,"internal_node_id":"0.0-7.0-9.0"},{"rt":11587,"responses":"{\"Q0\":\"Different structure\"}","trial_type":"survey-multi-choice","trial_index":115,"time_elapsed":3834810,"internal_node_id":"0.0-7.0-10.0"},{"rt":56703,"responses":"{\"Q0\":\"left (black) door = ray, (white) door = acid\",\"Q1\":\"Slightly confident\"}","trial_type":"survey-multi-choice","trial_index":116,"time_elapsed":3892518,"internal_node_id":"0.0-7.0-11.0"},{"rt":8739,"responses":"{\"Q0\":\"25-35\",\"Q1\":\"Associates or other two-year degree\",\"Q2\":\"Male\",\"Q3\":\"White\"}","trial_type":"survey-multi-choice","trial_index":117,"time_elapsed":3902270,"internal_node_id":"0.0-8.0"},{"rt":3968,"responses":"{\"Q0\":\"\"}","trial_type":"survey-text","trial_index":118,"time_elapsed":3907241,"internal_node_id":"0.0-9.0"}]