[{"view_history":"[{\"page_index\":0,\"viewing_time\":3920},{\"page_index\":1,\"viewing_time\":13123}]","rt":17044,"trial_type":"instructions","trial_index":0,"time_elapsed":17048,"internal_node_id":"0.0-0.0"},{"view_history":"[{\"page_index\":0,\"viewing_time\":16951},{\"page_index\":1,\"viewing_time\":3323}]","rt":20275,"trial_type":"instructions","trial_index":1,"time_elapsed":38328,"internal_node_id":"0.0-1.0"},{"group":"square cycles (cube, non-group)","room_assignment":["brown","yellow","green","pink","red","purple","blue","grey"],"door_color_assignment":["black","white"],"door_generator_assignment":[1,0],"goal":5,"start":7,"action_noise":0.1,"location_history":"[7,6,7,3,2,3,0,1,2,3,0,1,2,3,0,1,2,3,0,4,5]","action_history":"[1,1,1,1,0,0,0,0,1,1,0,0,0,0,0,0,0,0,1,1]","door_history":"[0,0,0,0,1,1,1,1,0,0,1,1,1,1,1,1,1,1,0,0]","location_rts":"[14774,881,445,581,1280,566,499,477,934,504,613,576,537,519,341,436,427,472,976,505]","trial_type":"two-door-navigation","trial_index":2,"time_elapsed":88271,"internal_node_id":"0.0-2.0-0.0"},{"group":"square cycles (cube, non-group)","room_assignment":["brown","yellow","green","pink","red","purple","blue","grey"],"door_color_assignment":["black","white"],"door_generator_assignment":[1,0],"goal":2,"start":5,"action_noise":0.1,"location_history":"[5,4,5,4,7,6,5,1,2]","action_history":"[0,0,0,0,0,0,1,1]","door_history":"[1,1,1,1,1,1,0,0]","location_rts":"[4140,429,607,754,798,663,976,486]","trial_type":"two-door-navigation","trial_index":3,"time_elapsed":108667,"internal_node_id":"0.0-2.0-1.0"},{"group":"square cycles (cube, non-group)","room_assignment":["brown","yellow","green","pink","red","purple","blue","grey"],"door_color_assignment":["black","white"],"door_generator_assignment":[1,0],"goal":0,"start":2,"action_noise":0.1,"location_history":"[2,3,0]","action_history":"[0,0]","door_history":"[1,1]","location_rts":"[8048,660]","trial_type":"two-door-navigation","trial_index":4,"time_elapsed":122887,"internal_node_id":"0.0-2.0-2.0"},{"group":"square cycles (cube, non-group)","room_assignment":["brown","yellow","green","pink","red","purple","blue","grey"],"door_color_assignment":["black","white"],"door_generator_assignment":[1,0],"goal":1,"start":0,"action_noise":0.1,"location_history":"[0,1]","action_history":"[0]","door_history":"[1]","location_rts":"[1676]","trial_type":"two-door-navigation","trial_index":5,"time_elapsed":129067,"internal_node_id":"0.0-2.0-3.0"},{"group":"square cycles (cube, non-group)","room_assignment":["brown","yellow","green","pink","red","purple","blue","grey"],"door_color_assignment":["black","white"],"door_generator_assignment":[1,0],"goal":6,"start":1,"action_noise":0.1,"location_history":"[1,0,4,5,4,7,6]","action_history":"[1,1,1,1,0,0]","door_history":"[0,0,0,0,1,1]","location_rts":"[2263,533,566,526,1331,454]","trial_type":"two-door-navigation","trial_index":6,"time_elapsed":144264,"internal_node_id":"0.0-2.0-4.0"},{"group":"square cycles (cube, non-group)","room_assignment":["brown","yellow","green","pink","red","purple","blue","grey"],"door_color_assignment":["black","white"],"door_generator_assignment":[1,0],"goal":3,"start":6,"action_noise":0.1,"location_history":"[6,5,4,7,6,5,1,0,4,5,1,0,1,2,3]","action_history":"[0,0,0,0,0,1,1,1,1,1,1,0,0,0]","door_history":"[1,1,1,1,1,0,0,0,0,0,0,1,1,1]","location_rts":"[1996,734,447,891,632,1088,557,496,1264,479,696,864,371,389]","trial_type":"two-door-navigation","trial_index":7,"time_elapsed":172724,"internal_node_id":"0.0-2.0-5.0"},{"group":"square cycles (cube, non-group)","room_assignment":["brown","yellow","green","pink","red","purple","blue","grey"],"door_color_assignment":["black","white"],"door_generator_assignment":[1,0],"goal":4,"start":3,"action_noise":0.1,"location_history":"[3,0,1,2,3,2,6,7,3,2,6,5,1,2,3,0,1,2,3,0,1,2,6,7,3,2,3,2,6,5,4]","action_history":"[0,0,0,0,1,1,1,1,1,1,1,1,0,0,0,0,0,0,0,0,0,1,1,1,1,1,1,1,0,0]","door_history":"[1,1,1,1,0,0,0,0,0,0,0,0,1,1,1,1,1,1,1,1,1,0,0,0,0,0,0,0,1,1]","location_rts":"[2591,476,584,745,1193,377,615,406,415,435,528,1304,1328,384,471,415,510,494,528,384,532,1005,431,351,455,424,424,384,887,518]","trial_type":"two-door-navigation","trial_index":8,"time_elapsed":225909,"internal_node_id":"0.0-2.0-6.0"},{"group":"square cycles (cube, non-group)","room_assignment":["brown","yellow","green","pink","red","purple","blue","grey"],"door_color_assignment":["black","white"],"door_generator_assignment":[1,0],"goal":1,"start":4,"action_noise":0.1,"location_history":"[4,7,6,5,1]","action_history":"[0,0,0,0]","door_history":"[1,1,1,1]","location_rts":"[2519,447,415,407]","trial_type":"two-door-navigation","trial_index":9,"time_elapsed":237203,"internal_node_id":"0.0-2.0-7.0"},{"group":"square cycles (cube, non-group)","room_assignment":["brown","yellow","green","pink","red","purple","blue","grey"],"door_color_assignment":["black","white"],"door_generator_assignment":[1,0],"goal":4,"start":1,"action_noise":0.1,"location_history":"[1,2,3,2,3,0,1,0,4]","action_history":"[0,0,0,0,0,0,1,1]","door_history":"[1,1,1,1,1,1,0,0]","location_rts":"[1391,599,600,440,840,784,1101,438]","trial_type":"two-door-navigation","trial_index":10,"time_elapsed":254921,"internal_node_id":"0.0-2.0-8.0"},{"group":"square cycles (cube, non-group)","room_assignment":["brown","yellow","green","pink","red","purple","blue","grey"],"door_color_assignment":["black","white"],"door_generator_assignment":[1,0],"goal":5,"start":4,"action_noise":0.1,"location_history":"[4,5]","action_history":"[1]","door_history":"[0]","location_rts":"[1435]","trial_type":"two-door-navigation","trial_index":11,"time_elapsed":260859,"internal_node_id":"0.0-2.0-9.0"},{"group":"square cycles (cube, non-group)","room_assignment":["brown","yellow","green","pink","red","purple","blue","grey"],"door_color_assignment":["black","white"],"door_generator_assignment":[1,0],"goal":3,"start":5,"action_noise":0.1,"location_history":"[5,4,7,6,7,3]","action_history":"[0,0,0,1,1]","door_history":"[1,1,1,0,0]","location_rts":"[2705,473,465,1560,432]","trial_type":"two-door-navigation","trial_index":12,"time_elapsed":275002,"internal_node_id":"0.0-2.0-10.0"},{"group":"square cycles (cube, non-group)","room_assignment":["brown","yellow","green","pink","red","purple","blue","grey"],"door_color_assignment":["black","white"],"door_generator_assignment":[1,0],"goal":6,"start":3,"action_noise":0.1,"location_history":"[3,0,1,0,4,5,1,0,4,7,3,0,1,2,3,0,1,0,1,0,4,5,4,5,1,2,3,0,1,2,3,2,6]","action_history":"[0,0,0,1,1,1,1,1,1,1,0,0,0,0,0,0,0,0,1,1,1,1,1,1,0,0,0,0,0,0,1,1]","door_history":"[1,1,1,0,0,0,0,0,0,0,1,1,1,1,1,1,1,1,0,0,0,0,0,0,1,1,1,1,1,1,0,0]","location_rts":"[2225,562,623,1015,432,464,519,432,485,1119,1182,342,472,385,497,417,675,662,1151,476,420,397,459,791,1210,478,472,456,615,495,1324,422]","trial_type":"two-door-navigation","trial_index":13,"time_elapsed":332264,"internal_node_id":"0.0-2.0-11.0"},{"group":"square cycles (cube, non-group)","room_assignment":["brown","yellow","green","pink","red","purple","blue","grey"],"door_color_assignment":["black","white"],"door_generator_assignment":[1,0],"goal":7,"start":6,"action_noise":0.1,"location_history":"[6,7]","action_history":"[1]","door_history":"[0]","location_rts":"[3476]","trial_type":"two-door-navigation","trial_index":14,"time_elapsed":340243,"internal_node_id":"0.0-2.0-12.0"},{"group":"square cycles (cube, non-group)","room_assignment":["brown","yellow","green","pink","red","purple","blue","grey"],"door_color_assignment":["black","white"],"door_generator_assignment":[1,0],"goal":0,"start":7,"action_noise":0.1,"location_history":"[7,3,2,6,7,3,0]","action_history":"[1,1,1,1,1,0]","door_history":"[0,0,0,0,0,1]","location_rts":"[1440,632,452,437,1059,1362]","trial_type":"two-door-navigation","trial_index":15,"time_elapsed":355153,"internal_node_id":"0.0-2.0-13.0"},{"group":"square cycles (cube, non-group)","room_assignment":["brown","yellow","green","pink","red","purple","blue","grey"],"door_color_assignment":["black","white"],"door_generator_assignment":[1,0],"goal":2,"start":0,"action_noise":0.1,"location_history":"[0,4,5,1,0,4,7,6,5,4,7,6,5,1,0,4,5,1,2]","action_history":"[1,1,1,1,1,0,0,0,0,0,0,0,1,1,1,1,1,0]","door_history":"[0,0,0,0,0,1,1,1,1,1,1,1,0,0,0,0,0,1]","location_rts":"[3212,429,454,682,421,1216,460,377,454,632,523,693,1118,453,540,480,445,1241]","trial_type":"two-door-navigation","trial_index":16,"time_elapsed":390537,"internal_node_id":"0.0-2.0-14.0"},{"group":"square cycles (cube, non-group)","room_assignment":["brown","yellow","green","pink","red","purple","blue","grey"],"door_color_assignment":["black","white"],"door_generator_assignment":[1,0],"goal":1,"start":2,"action_noise":0.1,"location_history":"[2,3,0,4,5,1]","action_history":"[0,0,1,1,1]","door_history":"[1,1,0,0,0]","location_rts":"[1346,662,1088,422,342]","trial_type":"two-door-navigation","trial_index":17,"time_elapsed":402908,"internal_node_id":"0.0-2.0-15.0"},{"group":"square cycles (cube, non-group)","room_assignment":["brown","yellow","green","pink","red","purple","blue","grey"],"door_color_assignment":["black","white"],"door_generator_assignment":[1,0],"goal":6,"start":1,"action_noise":0.1,"location_history":"[1,0,4,5,1,0,4,7,6]","action_history":"[1,1,1,1,1,0,0,0]","door_history":"[0,0,0,0,0,1,1,1]","location_rts":"[3209,438,439,457,609,1558,397,496]","trial_type":"two-door-navigation","trial_index":18,"time_elapsed":422022,"internal_node_id":"0.0-2.0-16.0"},{"group":"square cycles (cube, non-group)","room_assignment":["brown","yellow","green","pink","red","purple","blue","grey"],"door_color_assignment":["black","white"],"door_generator_assignment":[1,0],"goal":3,"start":6,"action_noise":0.1,"location_history":"[6,5,4,7,6,7,3]","action_history":"[0,0,0,0,1,1]","door_history":"[1,1,1,1,0,0]","location_rts":"[1965,464,476,627,1399,430]","trial_type":"two-door-navigation","trial_index":19,"time_elapsed":436896,"internal_node_id":"0.0-2.0-17.0"},{"group":"square cycles (cube, non-group)","room_assignment":["brown","yellow","green","pink","red","purple","blue","grey"],"door_color_assignment":["black","white"],"door_generator_assignment":[1,0],"goal":4,"start":3,"action_noise":0.1,"location_history":"[3,2,6,7,6,5,1,2,6,7,3,2,6,7,3,2,3,0,1,2,3,0,1,2,6,7,3,0,4]","action_history":"[1,1,1,0,0,0,0,1,1,1,1,1,1,1,1,0,0,0,0,0,0,0,0,1,1,1,1,1]","door_history":"[0,0,0,1,1,1,1,0,0,0,0,0,0,0,0,1,1,1,1,1,1,1,1,0,0,0,0,0]","location_rts":"[1748,582,551,1985,423,512,520,1379,537,460,751,495,504,535,597,660,816,364,436,537,425,479,417,1038,375,390,399,453]","trial_type":"two-door-navigation","trial_index":20,"time_elapsed":486851,"internal_node_id":"0.0-2.0-18.0"},{"group":"square cycles (cube, non-group)","room_assignment":["brown","yellow","green","pink","red","purple","blue","grey"],"door_color_assignment":["black","white"],"door_generator_assignment":[1,0],"goal":5,"start":4,"action_noise":0.1,"location_history":"[4,5]","action_history":"[1]","door_history":"[0]","location_rts":"[1261]","trial_type":"two-door-navigation","trial_index":21,"time_elapsed":492615,"internal_node_id":"0.0-2.0-19.0"},{"group":"square cycles (cube, non-group)","room_assignment":["brown","yellow","green","pink","red","purple","blue","grey"],"door_color_assignment":["black","white"],"door_generator_assignment":[1,0],"goal":7,"start":5,"action_noise":0.1,"location_history":"[5,1,0,4,5,1,0,4,7]","action_history":"[1,1,1,1,1,1,1,0]","door_history":"[0,0,0,0,0,0,0,1]","location_rts":"[3029,470,454,502,441,438,911,1234]","trial_type":"two-door-navigation","trial_index":22,"time_elapsed":511608,"internal_node_id":"0.0-2.0-20.0"},{"group":"square cycles (cube, non-group)","room_assignment":["brown","yellow","green","pink","red","purple","blue","grey"],"door_color_assignment":["black","white"],"door_generator_assignment":[1,0],"goal":2,"start":7,"action_noise":0.1,"location_history":"[7,6,5,4,7,6,5,1,0,4,5,1,0,1,0,1,2]","action_history":"[0,0,0,0,0,0,1,1,1,1,1,1,1,1,0,0]","door_history":"[1,1,1,1,1,1,0,0,0,0,0,0,0,0,1,1]","location_rts":"[1538,462,400,407,436,486,1687,440,409,384,475,550,504,479,1159,499]","trial_type":"two-door-navigation","trial_index":23,"time_elapsed":541448,"internal_node_id":"0.0-2.0-21.0"},{"group":"square cycles (cube, non-group)","room_assignment":["brown","yellow","green","pink","red","purple","blue","grey"],"door_color_assignment":["black","white"],"door_generator_assignment":[1,0],"goal":0,"start":2,"action_noise":0.1,"location_history":"[2,6,5,4,7,6,5,1,0]","action_history":"[0,0,0,0,0,0,1,1]","door_history":"[1,1,1,1,1,1,0,0]","location_rts":"[1691,448,510,472,471,483,1206,456]","trial_type":"two-door-navigation","trial_index":24,"time_elapsed":558707,"internal_node_id":"0.0-2.0-22.0"},{"group":"square cycles (cube, non-group)","room_assignment":["brown","yellow","green","pink","red","purple","blue","grey"],"door_color_assignment":["black","white"],"door_generator_assignment":[1,0],"goal":7,"start":0,"action_noise":0.1,"location_history":"[0,4,5,1,0,4,5,4,7]","action_history":"[1,1,1,1,1,1,0,0]","door_history":"[0,0,0,0,0,0,1,1]","location_rts":"[15656,608,539,454,537,439,1119,399]","trial_type":"two-door-navigation","trial_index":25,"time_elapsed":589971,"internal_node_id":"0.0-2.0-23.0"},{"group":"square cycles (cube, non-group)","room_assignment":["brown","yellow","green","pink","red","purple","blue","grey"],"door_color_assignment":["black","white"],"door_generator_assignment":[1,0],"goal":5,"start":7,"action_noise":0.1,"location_history":"[7,3,2,6,7,3,2,3,0,1,0,1,0,4,7,3,0,4,5]","action_history":"[1,1,1,1,1,1,0,0,0,0,0,0,1,1,1,1,1,1]","door_history":"[0,0,0,0,0,0,1,1,1,1,1,1,0,0,0,0,0,0]","location_rts":"[3425,883,445,435,422,822,1272,587,408,477,446,464,1192,504,1022,536,455,439]","trial_type":"two-door-navigation","trial_index":26,"time_elapsed":625745,"internal_node_id":"0.0-2.0-24.0"},{"group":"square cycles (cube, non-group)","room_assignment":["brown","yellow","green","pink","red","purple","blue","grey"],"door_color_assignment":["black","white"],"door_generator_assignment":[1,0],"goal":0,"start":5,"action_noise":0.1,"location_history":"[5,4,7,6,7,3,0]","action_history":"[0,0,0,0,0,0]","door_history":"[1,1,1,1,1,1]","location_rts":"[2467,440,678,433,678,704]","trial_type":"two-door-navigation","trial_index":27,"time_elapsed":640649,"internal_node_id":"0.0-2.0-25.0"},{"group":"square cycles (cube, non-group)","room_assignment":["brown","yellow","green","pink","red","purple","blue","grey"],"door_color_assignment":["black","white"],"door_generator_assignment":[1,0],"goal":6,"start":0,"action_noise":0.1,"location_history":"[0,4,5,1,0,4,5,4,7,6]","action_history":"[1,1,1,1,1,1,1,0,0]","door_history":"[0,0,0,0,0,0,0,1,1]","location_rts":"[2049,430,413,399,422,470,918,960,439]","trial_type":"two-door-navigation","trial_index":28,"time_elapsed":659667,"internal_node_id":"0.0-2.0-26.0"},{"group":"square cycles (cube, non-group)","room_assignment":["brown","yellow","green","pink","red","purple","blue","grey"],"door_color_assignment":["black","white"],"door_generator_assignment":[1,0],"goal":4,"start":6,"action_noise":0.1,"location_history":"[6,7,3,2,6,7,3,0,1,2,3,0,4]","action_history":"[1,1,1,1,1,1,0,0,0,0,0,1]","door_history":"[0,0,0,0,0,0,1,1,1,1,1,0]","location_rts":"[28382,848,582,400,421,380,862,342,557,421,450,1169]","trial_type":"two-door-navigation","trial_index":29,"time_elapsed":710012,"internal_node_id":"0.0-2.0-27.0"},{"group":"square cycles (cube, non-group)","room_assignment":["brown","yellow","green","pink","red","purple","blue","grey"],"door_color_assignment":["black","white"],"door_generator_assignment":[1,0],"goal":2,"start":4,"action_noise":0.1,"location_history":"[4,5,1,2]","action_history":"[1,1,1]","door_history":"[0,0,0]","location_rts":"[1535,429,440]","trial_type":"two-door-navigation","trial_index":30,"time_elapsed":718920,"internal_node_id":"0.0-2.0-28.0"},{"group":"square cycles (cube, non-group)","room_assignment":["brown","yellow","green","pink","red","purple","blue","grey"],"door_color_assignment":["black","white"],"door_generator_assignment":[1,0],"goal":3,"start":2,"action_noise":0.1,"location_history":"[2,6,7,3]","action_history":"[1,1,1]","door_history":"[0,0,0]","location_rts":"[1467,462,478]","trial_type":"two-door-navigation","trial_index":31,"time_elapsed":727840,"internal_node_id":"0.0-2.0-29.0"},{"group":"square cycles (cube, non-group)","room_assignment":["brown","yellow","green","pink","red","purple","blue","grey"],"door_color_assignment":["black","white"],"door_generator_assignment":[1,0],"goal":1,"start":3,"action_noise":0.1,"location_history":"[3,2,3,2,3,0,4,7,6,5,4,7,6,5,1]","action_history":"[1,1,1,1,1,1,0,0,0,0,0,0,0,1]","door_history":"[0,0,0,0,0,0,1,1,1,1,1,1,1,0]","location_rts":"[1122,407,468,418,435,440,1319,466,1064,526,414,622,519,1182]","trial_type":"two-door-navigation","trial_index":32,"time_elapsed":754789,"internal_node_id":"0.0-2.0-30.0"},{"group":"square cycles (cube, non-group)","room_assignment":["brown","yellow","green","pink","red","purple","blue","grey"],"door_color_assignment":["black","white"],"door_generator_assignment":[1,0],"goal":4,"start":1,"action_noise":0.1,"location_history":"[1,0,4]","action_history":"[1,1]","door_history":"[0,0]","location_rts":"[11252,509]","trial_type":"two-door-navigation","trial_index":33,"time_elapsed":772057,"internal_node_id":"0.0-2.0-31.0"},{"group":"square cycles (cube, non-group)","room_assignment":["brown","yellow","green","pink","red","purple","blue","grey"],"door_color_assignment":["black","white"],"door_generator_assignment":[1,0],"goal":3,"start":4,"action_noise":0.1,"location_history":"[4,5,1,0,4,5,1,2,3]","action_history":"[1,1,1,1,1,1,0,0]","door_history":"[0,0,0,0,0,0,1,1]","location_rts":"[1699,447,394,422,445,423,775,410]","trial_type":"two-door-navigation","trial_index":34,"time_elapsed":788600,"internal_node_id":"0.0-2.0-32.0"},{"group":"square cycles (cube, non-group)","room_assignment":["brown","yellow","green","pink","red","purple","blue","grey"],"door_color_assignment":["black","white"],"door_generator_assignment":[1,0],"goal":6,"start":3,"action_noise":0.1,"location_history":"[3,2,6]","action_history":"[1,1]","door_history":"[0,0]","location_rts":"[2460,436]","trial_type":"two-door-navigation","trial_index":35,"time_elapsed":797001,"internal_node_id":"0.0-2.0-33.0"},{"group":"square cycles (cube, non-group)","room_assignment":["brown","yellow","green","pink","red","purple","blue","grey"],"door_color_assignment":["black","white"],"door_generator_assignment":[1,0],"goal":0,"start":6,"action_noise":0.1,"location_history":"[6,7,3,2,6,7,3,2,3,0]","action_history":"[1,1,1,1,1,1,1,0,0]","door_history":"[0,0,0,0,0,0,0,1,1]","location_rts":"[1371,726,392,397,440,651,464,1102,488]","trial_type":"two-door-navigation","trial_index":36,"time_elapsed":815557,"internal_node_id":"0.0-2.0-34.0"},{"group":"square cycles (cube, non-group)","room_assignment":["brown","yellow","green","pink","red","purple","blue","grey"],"door_color_assignment":["black","white"],"door_generator_assignment":[1,0],"goal":1,"start":0,"action_noise":0.1,"location_history":"[0,1]","action_history":"[0]","door_history":"[1]","location_rts":"[1614]","trial_type":"two-door-navigation","trial_index":37,"time_elapsed":821677,"internal_node_id":"0.0-2.0-35.0"},{"group":"square cycles (cube, non-group)","room_assignment":["brown","yellow","green","pink","red","purple","blue","grey"],"door_color_assignment":["black","white"],"door_generator_assignment":[1,0],"goal":5,"start":1,"action_noise":0.1,"location_history":"[1,2,3,2,3,0,4,5]","action_history":"[0,0,0,0,0,1,1]","door_history":"[1,1,1,1,1,0,0]","location_rts":"[2006,421,508,328,447,1351,590]","trial_type":"two-door-navigation","trial_index":38,"time_elapsed":837842,"internal_node_id":"0.0-2.0-36.0"},{"group":"square cycles (cube, non-group)","room_assignment":["brown","yellow","green","pink","red","purple","blue","grey"],"door_color_assignment":["black","white"],"door_generator_assignment":[1,0],"goal":7,"start":5,"action_noise":0.1,"location_history":"[5,4,7]","action_history":"[0,0]","door_history":"[1,1]","location_rts":"[2314,485]","trial_type":"two-door-navigation","trial_index":39,"time_elapsed":846146,"internal_node_id":"0.0-2.0-37.0"},{"group":"square cycles (cube, non-group)","room_assignment":["brown","yellow","green","pink","red","purple","blue","grey"],"door_color_assignment":["black","white"],"door_generator_assignment":[1,0],"goal":2,"start":7,"action_noise":0.1,"location_history":"[7,6,5,1,2]","action_history":"[0,0,0,0]","door_history":"[1,1,1,1]","location_rts":"[1865,423,320,494]","trial_type":"two-door-navigation","trial_index":40,"time_elapsed":856754,"internal_node_id":"0.0-2.0-38.0"},{"group":"square cycles (cube, non-group)","room_assignment":["brown","yellow","green","pink","red","purple","blue","grey"],"door_color_assignment":["black","white"],"door_generator_assignment":[1,0],"goal":1,"start":2,"action_noise":0.1,"location_history":"[2,3,0,1]","action_history":"[0,0,0]","door_history":"[1,1,1]","location_rts":"[12575,427,381]","trial_type":"two-door-navigation","trial_index":41,"time_elapsed":876654,"internal_node_id":"0.0-2.0-39.0"},{"group":"square cycles (cube, non-group)","room_assignment":["brown","yellow","green","pink","red","purple","blue","grey"],"door_color_assignment":["black","white"],"door_generator_assignment":[1,0],"goal":3,"start":1,"action_noise":0.1,"location_history":"[1,2,3]","action_history":"[0,0]","door_history":"[1,1]","location_rts":"[1702,359]","trial_type":"two-door-navigation","trial_index":42,"time_elapsed":884228,"internal_node_id":"0.0-2.0-40.0"},{"group":"square cycles (cube, non-group)","room_assignment":["brown","yellow","green","pink","red","purple","blue","grey"],"door_color_assignment":["black","white"],"door_generator_assignment":[1,0],"goal":4,"start":3,"action_noise":0.1,"location_history":"[3,2,6,7,3,2,3,0,1,2,3,0,4]","action_history":"[1,1,1,1,1,0,0,0,0,0,0,0]","door_history":"[0,0,0,0,0,1,1,1,1,1,1,1]","location_rts":"[2863,399,431,423,471,723,422,470,541,371,477,481]","trial_type":"two-door-navigation","trial_index":43,"time_elapsed":907824,"internal_node_id":"0.0-2.0-41.0"},{"group":"square cycles (cube, non-group)","room_assignment":["brown","yellow","green","pink","red","purple","blue","grey"],"door_color_assignment":["black","white"],"door_generator_assignment":[1,0],"goal":2,"start":4,"action_noise":0.1,"location_history":"[4,7,3,0,1,2]","action_history":"[0,0,0,0,0]","door_history":"[1,1,1,1,1]","location_rts":"[2619,439,336,350,488]","trial_type":"two-door-navigation","trial_index":44,"time_elapsed":920569,"internal_node_id":"0.0-2.0-42.0"},{"group":"square cycles (cube, non-group)","room_assignment":["brown","yellow","green","pink","red","purple","blue","grey"],"door_color_assignment":["black","white"],"door_generator_assignment":[1,0],"goal":5,"start":2,"action_noise":0.1,"location_history":"[2,6,7,6,7,3,2,3,0,1,2,3,0,1,2,6,5]","action_history":"[1,1,1,1,1,1,0,0,0,0,0,0,0,0,1,1]","door_history":"[0,0,0,0,0,0,1,1,1,1,1,1,1,1,0,0]","location_rts":"[9867,589,360,352,358,391,1039,366,373,373,391,548,501,487,1327,461]","trial_type":"two-door-navigation","trial_index":45,"time_elapsed":957894,"internal_node_id":"0.0-2.0-43.0"},{"group":"square cycles (cube, non-group)","room_assignment":["brown","yellow","green","pink","red","purple","blue","grey"],"door_color_assignment":["black","white"],"door_generator_assignment":[1,0],"goal":0,"start":5,"action_noise":0.1,"location_history":"[5,4,7,3,0]","action_history":"[0,0,0,0]","door_history":"[1,1,1,1]","location_rts":"[1916,514,401,389]","trial_type":"two-door-navigation","trial_index":46,"time_elapsed":968623,"internal_node_id":"0.0-2.0-44.0"},{"group":"square cycles (cube, non-group)","room_assignment":["brown","yellow","green","pink","red","purple","blue","grey"],"door_color_assignment":["black","white"],"door_generator_assignment":[1,0],"goal":7,"start":0,"action_noise":0.1,"location_history":"[0,1,2,3,0,1,2,3,0,4,5,1,0,4,5,1,0,4,7]","action_history":"[0,0,0,0,0,0,0,0,1,1,1,1,1,1,1,1,1,0]","door_history":"[1,1,1,1,1,1,1,1,0,0,0,0,0,0,0,0,0,1]","location_rts":"[2252,439,394,430,463,422,417,920,1014,385,373,432,405,434,1053,525,448,885]","trial_type":"two-door-navigation","trial_index":47,"time_elapsed":1001859,"internal_node_id":"0.0-2.0-45.0"},{"group":"square cycles (cube, non-group)","room_assignment":["brown","yellow","green","pink","red","purple","blue","grey"],"door_color_assignment":["black","white"],"door_generator_assignment":[1,0],"goal":6,"start":7,"action_noise":0.1,"location_history":"[7,3,2,6]","action_history":"[1,1,1]","door_history":"[0,0,0]","location_rts":"[9482,429,417]","trial_type":"two-door-navigation","trial_index":48,"time_elapsed":1018696,"internal_node_id":"0.0-2.0-46.0"},{"group":"square cycles (cube, non-group)","room_assignment":["brown","yellow","green","pink","red","purple","blue","grey"],"door_color_assignment":["black","white"],"door_generator_assignment":[1,0],"goal":2,"start":6,"action_noise":0.1,"location_history":"[6,7,3,2]","action_history":"[1,1,1]","door_history":"[0,0,0]","location_rts":"[1419,396,398]","trial_type":"two-door-navigation","trial_index":49,"time_elapsed":1027419,"internal_node_id":"0.0-2.0-47.0"},{"group":"square cycles (cube, non-group)","room_assignment":["brown","yellow","green","pink","red","purple","blue","grey"],"door_color_assignment":["black","white"],"door_generator_assignment":[1,0],"goal":5,"start":2,"action_noise":0.1,"location_history":"[2,3,0,1,2,3,0,4,5]","action_history":"[0,0,0,0,0,0,1,1]","door_history":"[1,1,1,1,1,1,0,0]","location_rts":"[2255,496,594,482,408,630,941,497]","trial_type":"two-door-navigation","trial_index":50,"time_elapsed":1045247,"internal_node_id":"0.0-2.0-48.0"},{"group":"square cycles (cube, non-group)","room_assignment":["brown","yellow","green","pink","red","purple","blue","grey"],"door_color_assignment":["black","white"],"door_generator_assignment":[1,0],"goal":3,"start":5,"action_noise":0.1,"location_history":"[5,1,0,4,7,3]","action_history":"[1,1,1,1,1]","door_history":"[0,0,0,0,0]","location_rts":"[1411,390,383,419,694]","trial_type":"two-door-navigation","trial_index":51,"time_elapsed":1057069,"internal_node_id":"0.0-2.0-49.0"},{"view_history":"[{\"page_index\":0,\"viewing_time\":14024}]","rt":14025,"trial_type":"instructions","trial_index":52,"time_elapsed":1072094,"internal_node_id":"0.0-3.0"},{"view_history":"[{\"page_index\":0,\"viewing_time\":3582},{\"page_index\":1,\"viewing_time\":20079}]","rt":23662,"trial_type":"instructions","trial_index":53,"time_elapsed":1096756,"internal_node_id":"0.0-4.0"},{"group":"square cycles (cube, non-group)","fractal_assignment":["../images/pnk_blu.png","../images/org_blu.png","../images/ylw_pnk.png","../images/blu_wht.png","../images/ylw_slt.png","../images/cyn_red.png","../images/gry_blk.png","../images/grn_red.png"],"mutagen_generator_assignment":[1,0],"goal":5,"start":7,"action_noise":0.1,"location_history":"[7,6,7,6,5]","action_history":"[1,1,0,0]","mutagen_history":"[0,0,1,1]","location_rts":"[3909,4333,2505,945]","trial_type":"fractal-mutation","trial_index":54,"time_elapsed":1116050,"internal_node_id":"0.0-5.0-0.0"},{"group":"square cycles (cube, non-group)","fractal_assignment":["../images/pnk_blu.png","../images/org_blu.png","../images/ylw_pnk.png","../images/blu_wht.png","../images/ylw_slt.png","../images/cyn_red.png","../images/gry_blk.png","../images/grn_red.png"],"mutagen_generator_assignment":[1,0],"goal":2,"start":5,"action_noise":0.1,"location_history":"[5,4,7,3,2]","action_history":"[0,0,1,1]","mutagen_history":"[1,1,0,0]","location_rts":"[1559,842,526,27577]","trial_type":"fractal-mutation","trial_index":55,"time_elapsed":1154131,"internal_node_id":"0.0-5.0-1.0"},{"group":"square cycles (cube, non-group)","fractal_assignment":["../images/pnk_blu.png","../images/org_blu.png","../images/ylw_pnk.png","../images/blu_wht.png","../images/ylw_slt.png","../images/cyn_red.png","../images/gry_blk.png","../images/grn_red.png"],"mutagen_generator_assignment":[1,0],"goal":0,"start":2,"action_noise":0.1,"location_history":"[2,3,0]","action_history":"[0,0]","mutagen_history":"[1,1]","location_rts":"[4016,797]","trial_type":"fractal-mutation","trial_index":56,"time_elapsed":1164501,"internal_node_id":"0.0-5.0-2.0"},{"group":"square cycles (cube, non-group)","fractal_assignment":["../images/pnk_blu.png","../images/org_blu.png","../images/ylw_pnk.png","../images/blu_wht.png","../images/ylw_slt.png","../images/cyn_red.png","../images/gry_blk.png","../images/grn_red.png"],"mutagen_generator_assignment":[1,0],"goal":1,"start":0,"action_noise":0.1,"location_history":"[0,1]","action_history":"[1]","mutagen_history":"[0]","location_rts":"[2433]","trial_type":"fractal-mutation","trial_index":57,"time_elapsed":1171454,"internal_node_id":"0.0-5.0-3.0"},{"group":"square cycles (cube, non-group)","fractal_assignment":["../images/pnk_blu.png","../images/org_blu.png","../images/ylw_pnk.png","../images/blu_wht.png","../images/ylw_slt.png","../images/cyn_red.png","../images/gry_blk.png","../images/grn_red.png"],"mutagen_generator_assignment":[1,0],"goal":6,"start":1,"action_noise":0.1,"location_history":"[1,0,4,7,6]","action_history":"[1,1,0,0]","mutagen_history":"[0,0,1,1]","location_rts":"[2668,1394,852,847]","trial_type":"fractal-mutation","trial_index":58,"time_elapsed":1184779,"internal_node_id":"0.0-5.0-4.0"},{"group":"square cycles (cube, non-group)","fractal_assignment":["../images/pnk_blu.png","../images/org_blu.png","../images/ylw_pnk.png","../images/blu_wht.png","../images/ylw_slt.png","../images/cyn_red.png","../images/gry_blk.png","../images/grn_red.png"],"mutagen_generator_assignment":[1,0],"goal":3,"start":6,"action_noise":0.1,"location_history":"[6,5,4,7,6,7,3]","action_history":"[0,0,0,0,1,1]","mutagen_history":"[1,1,1,1,0,0]","location_rts":"[31636,834,1030,1391,1415,962]","trial_type":"fractal-mutation","trial_index":59,"time_elapsed":1231660,"internal_node_id":"0.0-5.0-5.0"},{"group":"square cycles (cube, non-group)","fractal_assignment":["../images/pnk_blu.png","../images/org_blu.png","../images/ylw_pnk.png","../images/blu_wht.png","../images/ylw_slt.png","../images/cyn_red.png","../images/gry_blk.png","../images/grn_red.png"],"mutagen_generator_assignment":[1,0],"goal":4,"start":3,"action_noise":0.1,"location_history":"[3,0,1,2,6,7,3,0,1,0,1,2,3,2,3,0,1,2,3,2,6,7,6,7,3,0,4]","action_history":"[0,0,0,1,1,1,0,0,1,0,0,0,1,1,0,0,0,0,1,1,1,0,1,1,1,1]","mutagen_history":"[1,1,1,0,0,0,1,1,0,1,1,1,0,0,1,1,1,1,0,0,0,1,0,0,0,0]","location_rts":"[676,794,1195,462,433,606,1086,938,3273,1185,1254,844,1040,1001,676,489,545,548,512,322,423,656,518,599,613,1867]","trial_type":"fractal-mutation","trial_index":60,"time_elapsed":1284167,"internal_node_id":"0.0-5.0-6.0"},{"group":"square cycles (cube, non-group)","fractal_assignment":["../images/pnk_blu.png","../images/org_blu.png","../images/ylw_pnk.png","../images/blu_wht.png","../images/ylw_slt.png","../images/cyn_red.png","../images/gry_blk.png","../images/grn_red.png"],"mutagen_generator_assignment":[1,0],"goal":1,"start":4,"action_noise":0.1,"location_history":"[4,7,6,5,4,7,6,7,6,5,1]","action_history":"[0,0,0,0,0,0,1,0,0,1]","mutagen_history":"[1,1,1,1,1,1,0,1,1,0]","location_rts":"[2411,800,956,756,1194,671,664,442,342,454]","trial_type":"fractal-mutation","trial_index":61,"time_elapsed":1306617,"internal_node_id":"0.0-5.0-7.0"},{"group":"square cycles (cube, non-group)","fractal_assignment":["../images/pnk_blu.png","../images/org_blu.png","../images/ylw_pnk.png","../images/blu_wht.png","../images/ylw_slt.png","../images/cyn_red.png","../images/gry_blk.png","../images/grn_red.png"],"mutagen_generator_assignment":[1,0],"goal":4,"start":1,"action_noise":0.1,"location_history":"[1,0,4]","action_history":"[0,1]","mutagen_history":"[1,0]","location_rts":"[1602,5568]","trial_type":"fractal-mutation","trial_index":62,"time_elapsed":1319315,"internal_node_id":"0.0-5.0-8.0"},{"group":"square cycles (cube, non-group)","fractal_assignment":["../images/pnk_blu.png","../images/org_blu.png","../images/ylw_pnk.png","../images/blu_wht.png","../images/ylw_slt.png","../images/cyn_red.png","../images/gry_blk.png","../images/grn_red.png"],"mutagen_generator_assignment":[1,0],"goal":5,"start":4,"action_noise":0.1,"location_history":"[4,7,6,7,3,2,6,5]","action_history":"[0,0,1,1,1,1,0]","mutagen_history":"[1,1,0,0,0,0,1]","location_rts":"[2069,785,631,410,367,588,597]","trial_type":"fractal-mutation","trial_index":63,"time_elapsed":1335381,"internal_node_id":"0.0-5.0-9.0"},{"group":"square cycles (cube, non-group)","fractal_assignment":["../images/pnk_blu.png","../images/org_blu.png","../images/ylw_pnk.png","../images/blu_wht.png","../images/ylw_slt.png","../images/cyn_red.png","../images/gry_blk.png","../images/grn_red.png"],"mutagen_generator_assignment":[1,0],"goal":3,"start":5,"action_noise":0.1,"location_history":"[5,4,7,6,7,6,5,1,0,4,5,4,7,3]","action_history":"[0,0,0,1,0,0,1,1,1,1,0,0,1]","mutagen_history":"[1,1,1,0,1,1,0,0,0,0,1,1,0]","location_rts":"[811,799,565,411,581,356,444,457,644,575,425,466,319]","trial_type":"fractal-mutation","trial_index":64,"time_elapsed":1358954,"internal_node_id":"0.0-5.0-10.0"},{"group":"square cycles (cube, non-group)","fractal_assignment":["../images/pnk_blu.png","../images/org_blu.png","../images/ylw_pnk.png","../images/blu_wht.png","../images/ylw_slt.png","../images/cyn_red.png","../images/gry_blk.png","../images/grn_red.png"],"mutagen_generator_assignment":[1,0],"goal":6,"start":3,"action_noise":0.1,"location_history":"[3,0,1,2,3,0,4,5,4,5,1,2,3,0,4,5,1,2,3,0,1,0,4,7,3,2,3,2,6]","action_history":"[0,0,0,0,0,1,1,0,1,1,0,0,0,1,1,1,0,0,0,0,1,1,0,1,1,1,1,0]","mutagen_history":"[1,1,1,1,1,0,0,1,0,0,1,1,1,0,0,0,1,1,1,1,0,0,1,0,0,0,0,1]","location_rts":"[1471,911,807,589,1093,816,425,471,412,303,608,431,517,446,409,417,413,466,361,453,542,454,400,311,272,324,378,406]","trial_type":"fractal-mutation","trial_index":65,"time_elapsed":1405865,"internal_node_id":"0.0-5.0-11.0"},{"group":"square cycles (cube, non-group)","fractal_assignment":["../images/pnk_blu.png","../images/org_blu.png","../images/ylw_pnk.png","../images/blu_wht.png","../images/ylw_slt.png","../images/cyn_red.png","../images/gry_blk.png","../images/grn_red.png"],"mutagen_generator_assignment":[1,0],"goal":7,"start":6,"action_noise":0.1,"location_history":"[6,5,4,7]","action_history":"[0,0,0]","mutagen_history":"[1,1,1]","location_rts":"[1945,1417,431]","trial_type":"fractal-mutation","trial_index":66,"time_elapsed":1416238,"internal_node_id":"0.0-5.0-12.0"},{"group":"square cycles (cube, non-group)","fractal_assignment":["../images/pnk_blu.png","../images/org_blu.png","../images/ylw_pnk.png","../images/blu_wht.png","../images/ylw_slt.png","../images/cyn_red.png","../images/gry_blk.png","../images/grn_red.png"],"mutagen_generator_assignment":[1,0],"goal":0,"start":7,"action_noise":0.1,"location_history":"[7,6,7,3,0]","action_history":"[0,1,1,0]","mutagen_history":"[1,0,0,1]","location_rts":"[1028,778,896,1126]","trial_type":"fractal-mutation","trial_index":67,"time_elapsed":1427653,"internal_node_id":"0.0-5.0-13.0"},{"group":"square cycles (cube, non-group)","fractal_assignment":["../images/pnk_blu.png","../images/org_blu.png","../images/ylw_pnk.png","../images/blu_wht.png","../images/ylw_slt.png","../images/cyn_red.png","../images/gry_blk.png","../images/grn_red.png"],"mutagen_generator_assignment":[1,0],"goal":2,"start":0,"action_noise":0.1,"location_history":"[0,1,2]","action_history":"[0,0]","mutagen_history":"[1,1]","location_rts":"[989,1071]","trial_type":"fractal-mutation","trial_index":68,"time_elapsed":1435270,"internal_node_id":"0.0-5.0-14.0"},{"group":"square cycles (cube, non-group)","fractal_assignment":["../images/pnk_blu.png","../images/org_blu.png","../images/ylw_pnk.png","../images/blu_wht.png","../images/ylw_slt.png","../images/cyn_red.png","../images/gry_blk.png","../images/grn_red.png"],"mutagen_generator_assignment":[1,0],"goal":1,"start":2,"action_noise":0.1,"location_history":"[2,3,0,4,5,1]","action_history":"[0,0,1,0,1]","mutagen_history":"[1,1,0,1,0]","location_rts":"[1339,1444,1121,961,471]","trial_type":"fractal-mutation","trial_index":69,"time_elapsed":1449198,"internal_node_id":"0.0-5.0-15.0"},{"group":"square cycles (cube, non-group)","fractal_assignment":["../images/pnk_blu.png","../images/org_blu.png","../images/ylw_pnk.png","../images/blu_wht.png","../images/ylw_slt.png","../images/cyn_red.png","../images/gry_blk.png","../images/grn_red.png"],"mutagen_generator_assignment":[1,0],"goal":6,"start":1,"action_noise":0.1,"location_history":"[1,0,4,7,6]","action_history":"[1,1,0,1]","mutagen_history":"[0,0,1,0]","location_rts":"[38956,780,1607,459]","trial_type":"fractal-mutation","trial_index":70,"time_elapsed":1498555,"internal_node_id":"0.0-5.0-16.0"},{"group":"square cycles (cube, non-group)","fractal_assignment":["../images/pnk_blu.png","../images/org_blu.png","../images/ylw_pnk.png","../images/blu_wht.png","../images/ylw_slt.png","../images/cyn_red.png","../images/gry_blk.png","../images/grn_red.png"],"mutagen_generator_assignment":[1,0],"goal":3,"start":6,"action_noise":0.1,"location_history":"[6,5,1,2,3]","action_history":"[0,1,0,0]","mutagen_history":"[1,0,1,1]","location_rts":"[4175,24814,1231,343]","trial_type":"fractal-mutation","trial_index":71,"time_elapsed":1536720,"internal_node_id":"0.0-5.0-17.0"},{"group":"square cycles (cube, non-group)","fractal_assignment":["../images/pnk_blu.png","../images/org_blu.png","../images/ylw_pnk.png","../images/blu_wht.png","../images/ylw_slt.png","../images/cyn_red.png","../images/gry_blk.png","../images/grn_red.png"],"mutagen_generator_assignment":[1,0],"goal":4,"start":3,"action_noise":0.1,"location_history":"[3,0,1,0,4]","action_history":"[0,0,1,1]","mutagen_history":"[1,1,0,0]","location_rts":"[930,571,490,424]","trial_type":"fractal-mutation","trial_index":72,"time_elapsed":1546722,"internal_node_id":"0.0-5.0-18.0"},{"group":"square cycles (cube, non-group)","fractal_assignment":["../images/pnk_blu.png","../images/org_blu.png","../images/ylw_pnk.png","../images/blu_wht.png","../images/ylw_slt.png","../images/cyn_red.png","../images/gry_blk.png","../images/grn_red.png"],"mutagen_generator_assignment":[1,0],"goal":5,"start":4,"action_noise":0.1,"location_history":"[4,5]","action_history":"[1]","mutagen_history":"[0]","location_rts":"[872]","trial_type":"fractal-mutation","trial_index":73,"time_elapsed":1552115,"internal_node_id":"0.0-5.0-19.0"},{"group":"square cycles (cube, non-group)","fractal_assignment":["../images/pnk_blu.png","../images/org_blu.png","../images/ylw_pnk.png","../images/blu_wht.png","../images/ylw_slt.png","../images/cyn_red.png","../images/gry_blk.png","../images/grn_red.png"],"mutagen_generator_assignment":[1,0],"goal":7,"start":5,"action_noise":0.1,"location_history":"[5,1,0,4,7]","action_history":"[1,1,1,0]","mutagen_history":"[0,0,0,1]","location_rts":"[711,1501,573,754]","trial_type":"fractal-mutation","trial_index":74,"time_elapsed":1563214,"internal_node_id":"0.0-5.0-20.0"},{"group":"square cycles (cube, non-group)","fractal_assignment":["../images/pnk_blu.png","../images/org_blu.png","../images/ylw_pnk.png","../images/blu_wht.png","../images/ylw_slt.png","../images/cyn_red.png","../images/gry_blk.png","../images/grn_red.png"],"mutagen_generator_assignment":[1,0],"goal":2,"start":7,"action_noise":0.1,"location_history":"[7,6,5,4,5,4,7,3,2]","action_history":"[0,0,0,1,0,0,1,1]","mutagen_history":"[1,1,1,0,1,1,0,0]","location_rts":"[685,454,454,411,428,379,448,441]","trial_type":"fractal-mutation","trial_index":75,"time_elapsed":1578578,"internal_node_id":"0.0-5.0-21.0"},{"group":"square cycles (cube, non-group)","fractal_assignment":["../images/pnk_blu.png","../images/org_blu.png","../images/ylw_pnk.png","../images/blu_wht.png","../images/ylw_slt.png","../images/cyn_red.png","../images/gry_blk.png","../images/grn_red.png"],"mutagen_generator_assignment":[1,0],"goal":0,"start":2,"action_noise":0.1,"location_history":"[2,6,5,4,5,1,0]","action_history":"[1,0,0,1,1,1]","mutagen_history":"[0,1,1,0,0,0]","location_rts":"[791,487,491,383,409,855]","trial_type":"fractal-mutation","trial_index":76,"time_elapsed":1591583,"internal_node_id":"0.0-5.0-22.0"},{"group":"square cycles (cube, non-group)","fractal_assignment":["../images/pnk_blu.png","../images/org_blu.png","../images/ylw_pnk.png","../images/blu_wht.png","../images/ylw_slt.png","../images/cyn_red.png","../images/gry_blk.png","../images/grn_red.png"],"mutagen_generator_assignment":[1,0],"goal":7,"start":0,"action_noise":0.1,"location_history":"[0,4,5,1,0,1,0,1,2,3,2,6,7]","action_history":"[1,1,1,1,0,1,0,0,0,1,1,1]","mutagen_history":"[0,0,0,0,1,0,1,1,1,0,0,0]","location_rts":"[787,434,637,790,486,707,446,693,438,523,468,584]","trial_type":"fractal-mutation","trial_index":77,"time_elapsed":1614252,"internal_node_id":"0.0-5.0-23.0"},{"group":"square cycles (cube, non-group)","fractal_assignment":["../images/pnk_blu.png","../images/org_blu.png","../images/ylw_pnk.png","../images/blu_wht.png","../images/ylw_slt.png","../images/cyn_red.png","../images/gry_blk.png","../images/grn_red.png"],"mutagen_generator_assignment":[1,0],"goal":5,"start":7,"action_noise":0.1,"location_history":"[7,6,5]","action_history":"[0,0]","mutagen_history":"[1,1]","location_rts":"[1397,306]","trial_type":"fractal-mutation","trial_index":78,"time_elapsed":1621513,"internal_node_id":"0.0-5.0-24.0"},{"group":"square cycles (cube, non-group)","fractal_assignment":["../images/pnk_blu.png","../images/org_blu.png","../images/ylw_pnk.png","../images/blu_wht.png","../images/ylw_slt.png","../images/cyn_red.png","../images/gry_blk.png","../images/grn_red.png"],"mutagen_generator_assignment":[1,0],"goal":0,"start":5,"action_noise":0.1,"location_history":"[5,4,7,6,7,6,5,1,0]","action_history":"[0,0,0,1,0,0,1,1]","mutagen_history":"[1,1,1,0,1,1,0,0]","location_rts":"[823,413,554,519,481,329,611,523]","trial_type":"fractal-mutation","trial_index":79,"time_elapsed":1637452,"internal_node_id":"0.0-5.0-25.0"},{"group":"square cycles (cube, non-group)","fractal_assignment":["../images/pnk_blu.png","../images/org_blu.png","../images/ylw_pnk.png","../images/blu_wht.png","../images/ylw_slt.png","../images/cyn_red.png","../images/gry_blk.png","../images/grn_red.png"],"mutagen_generator_assignment":[1,0],"goal":6,"start":0,"action_noise":0.1,"location_history":"[0,4,5,4,7,3,2,6]","action_history":"[1,1,0,1,1,1,0]","mutagen_history":"[0,0,1,0,0,0,1]","location_rts":"[635,735,753,479,367,535,450]","trial_type":"fractal-mutation","trial_index":80,"time_elapsed":1652003,"internal_node_id":"0.0-5.0-26.0"},{"group":"square cycles (cube, non-group)","fractal_assignment":["../images/pnk_blu.png","../images/org_blu.png","../images/ylw_pnk.png","../images/blu_wht.png","../images/ylw_slt.png","../images/cyn_red.png","../images/gry_blk.png","../images/grn_red.png"],"mutagen_generator_assignment":[1,0],"goal":4,"start":6,"action_noise":0.1,"location_history":"[6,5,4]","action_history":"[0,0]","mutagen_history":"[1,1]","location_rts":"[775,461]","trial_type":"fractal-mutation","trial_index":81,"time_elapsed":1658750,"internal_node_id":"0.0-5.0-27.0"},{"group":"square cycles (cube, non-group)","fractal_assignment":["../images/pnk_blu.png","../images/org_blu.png","../images/ylw_pnk.png","../images/blu_wht.png","../images/ylw_slt.png","../images/cyn_red.png","../images/gry_blk.png","../images/grn_red.png"],"mutagen_generator_assignment":[1,0],"goal":2,"start":4,"action_noise":0.1,"location_history":"[4,7,6,7,3,2]","action_history":"[0,0,1,1,1]","mutagen_history":"[1,1,0,0,0]","location_rts":"[1082,500,824,625,437]","trial_type":"fractal-mutation","trial_index":82,"time_elapsed":1670785,"internal_node_id":"0.0-5.0-28.0"},{"group":"square cycles (cube, non-group)","fractal_assignment":["../images/pnk_blu.png","../images/org_blu.png","../images/ylw_pnk.png","../images/blu_wht.png","../images/ylw_slt.png","../images/cyn_red.png","../images/gry_blk.png","../images/grn_red.png"],"mutagen_generator_assignment":[1,0],"goal":3,"start":2,"action_noise":0.1,"location_history":"[2,6,7,3]","action_history":"[1,1,1]","mutagen_history":"[0,0,0]","location_rts":"[722,517,733]","trial_type":"fractal-mutation","trial_index":83,"time_elapsed":1679287,"internal_node_id":"0.0-5.0-29.0"},{"group":"square cycles (cube, non-group)","fractal_assignment":["../images/pnk_blu.png","../images/org_blu.png","../images/ylw_pnk.png","../images/blu_wht.png","../images/ylw_slt.png","../images/cyn_red.png","../images/gry_blk.png","../images/grn_red.png"],"mutagen_generator_assignment":[1,0],"goal":1,"start":3,"action_noise":0.1,"location_history":"[3,2,6,7,3,2,3,2,6,7,3,0,4,5,4,7,6,7,3,2,3,0,1]","action_history":"[1,1,1,0,0,0,1,1,1,1,0,1,1,0,0,0,0,1,1,0,0,0]","mutagen_history":"[0,0,0,1,1,1,0,0,0,0,1,0,0,1,1,1,1,0,0,1,1,1]","location_rts":"[851,430,550,523,370,437,513,788,422,452,521,443,492,440,597,394,480,678,685,562,652,468]","trial_type":"fractal-mutation","trial_index":84,"time_elapsed":1716922,"internal_node_id":"0.0-5.0-30.0"},{"group":"square cycles (cube, non-group)","fractal_assignment":["../images/pnk_blu.png","../images/org_blu.png","../images/ylw_pnk.png","../images/blu_wht.png","../images/ylw_slt.png","../images/cyn_red.png","../images/gry_blk.png","../images/grn_red.png"],"mutagen_generator_assignment":[1,0],"goal":4,"start":1,"action_noise":0.1,"location_history":"[1,2,3,0,1,2,6,7,3,2,3,2,3,0,1,2,6,7,3,0,4]","action_history":"[0,0,0,1,0,1,1,1,1,0,1,1,0,0,0,1,1,1,0,1]","mutagen_history":"[1,1,1,0,1,0,0,0,0,1,0,0,1,1,1,0,0,0,1,0]","location_rts":"[370,377,463,567,837,769,384,454,391,393,434,387,317,429,264,622,456,510,385,387]","trial_type":"fractal-mutation","trial_index":85,"time_elapsed":1749970,"internal_node_id":"0.0-5.0-31.0"},{"group":"square cycles (cube, non-group)","fractal_assignment":["../images/pnk_blu.png","../images/org_blu.png","../images/ylw_pnk.png","../images/blu_wht.png","../images/ylw_slt.png","../images/cyn_red.png","../images/gry_blk.png","../images/grn_red.png"],"mutagen_generator_assignment":[1,0],"goal":3,"start":4,"action_noise":0.1,"location_history":"[4,7,6,5,1,0,4,7,6,5,4,7,6,7,6,7,3]","action_history":"[0,0,0,1,1,0,0,0,1,0,0,0,1,0,0,1]","mutagen_history":"[1,1,1,0,0,1,1,1,0,1,1,1,0,1,1,0]","location_rts":"[722,520,852,477,419,420,489,428,419,466,501,319,349,410,444,427]","trial_type":"fractal-mutation","trial_index":86,"time_elapsed":1777454,"internal_node_id":"0.0-5.0-32.0"},{"group":"square cycles (cube, non-group)","fractal_assignment":["../images/pnk_blu.png","../images/org_blu.png","../images/ylw_pnk.png","../images/blu_wht.png","../images/ylw_slt.png","../images/cyn_red.png","../images/gry_blk.png","../images/grn_red.png"],"mutagen_generator_assignment":[1,0],"goal":6,"start":3,"action_noise":0.1,"location_history":"[3,0,1,2,3,0,4,5,1,0,4,7,3,2,6]","action_history":"[0,0,0,0,0,1,1,1,1,1,0,1,1,1]","mutagen_history":"[1,1,1,1,1,0,0,0,0,0,1,0,0,0]","location_rts":"[711,603,701,595,777,612,460,570,503,428,581,425,370,422]","trial_type":"fractal-mutation","trial_index":87,"time_elapsed":1802975,"internal_node_id":"0.0-5.0-33.0"},{"group":"square cycles (cube, non-group)","fractal_assignment":["../images/pnk_blu.png","../images/org_blu.png","../images/ylw_pnk.png","../images/blu_wht.png","../images/ylw_slt.png","../images/cyn_red.png","../images/gry_blk.png","../images/grn_red.png"],"mutagen_generator_assignment":[1,0],"goal":0,"start":6,"action_noise":0.1,"location_history":"[6,5,4,7,6,7,6,5,4,5,4,5,1,2,6,5,4,5,4,7,6,5,1,0]","action_history":"[0,0,0,1,1,0,0,0,1,0,1,1,0,1,1,0,1,0,0,0,0,1,1]","mutagen_history":"[1,1,1,0,0,1,1,1,0,1,0,0,1,0,0,1,0,1,1,1,1,0,0]","location_rts":"[566,309,417,380,417,382,460,532,464,472,399,541,433,350,363,303,532,435,454,374,305,480,786]","trial_type":"fractal-mutation","trial_index":88,"time_elapsed":1840027,"internal_node_id":"0.0-5.0-34.0"},{"group":"square cycles (cube, non-group)","fractal_assignment":["../images/pnk_blu.png","../images/org_blu.png","../images/ylw_pnk.png","../images/blu_wht.png","../images/ylw_slt.png","../images/cyn_red.png","../images/gry_blk.png","../images/grn_red.png"],"mutagen_generator_assignment":[1,0],"goal":1,"start":0,"action_noise":0.1,"location_history":"[0,4,5,1]","action_history":"[1,1,1]","mutagen_history":"[0,0,0]","location_rts":"[1091,331,434]","trial_type":"fractal-mutation","trial_index":89,"time_elapsed":1848404,"internal_node_id":"0.0-5.0-35.0"},{"group":"square cycles (cube, non-group)","fractal_assignment":["../images/pnk_blu.png","../images/org_blu.png","../images/ylw_pnk.png","../images/blu_wht.png","../images/ylw_slt.png","../images/cyn_red.png","../images/gry_blk.png","../images/grn_red.png"],"mutagen_generator_assignment":[1,0],"goal":5,"start":1,"action_noise":0.1,"location_history":"[1,0,1,2,6,5]","action_history":"[1,0,0,0,0]","mutagen_history":"[0,1,1,1,1]","location_rts":"[450,643,354,445,534]","trial_type":"fractal-mutation","trial_index":90,"time_elapsed":1859439,"internal_node_id":"0.0-5.0-36.0"},{"group":"square cycles (cube, non-group)","fractal_assignment":["../images/pnk_blu.png","../images/org_blu.png","../images/ylw_pnk.png","../images/blu_wht.png","../images/ylw_slt.png","../images/cyn_red.png","../images/gry_blk.png","../images/grn_red.png"],"mutagen_generator_assignment":[1,0],"goal":7,"start":5,"action_noise":0.1,"location_history":"[5,4,7]","action_history":"[0,0]","mutagen_history":"[1,1]","location_rts":"[399,464]","trial_type":"fractal-mutation","trial_index":91,"time_elapsed":1865852,"internal_node_id":"0.0-5.0-37.0"},{"group":"square cycles (cube, non-group)","fractal_assignment":["../images/pnk_blu.png","../images/org_blu.png","../images/ylw_pnk.png","../images/blu_wht.png","../images/ylw_slt.png","../images/cyn_red.png","../images/gry_blk.png","../images/grn_red.png"],"mutagen_generator_assignment":[1,0],"goal":2,"start":7,"action_noise":0.1,"location_history":"[7,6,5,1,2]","action_history":"[0,0,1,0]","mutagen_history":"[1,1,0,1]","location_rts":"[481,556,509,532]","trial_type":"fractal-mutation","trial_index":92,"time_elapsed":1875519,"internal_node_id":"0.0-5.0-38.0"},{"group":"square cycles (cube, non-group)","fractal_assignment":["../images/pnk_blu.png","../images/org_blu.png","../images/ylw_pnk.png","../images/blu_wht.png","../images/ylw_slt.png","../images/cyn_red.png","../images/gry_blk.png","../images/grn_red.png"],"mutagen_generator_assignment":[1,0],"goal":1,"start":2,"action_noise":0.1,"location_history":"[2,3,0,1]","action_history":"[0,0,0]","mutagen_history":"[1,1,1]","location_rts":"[652,369,601]","trial_type":"fractal-mutation","trial_index":93,"time_elapsed":1883731,"internal_node_id":"0.0-5.0-39.0"},{"group":"square cycles (cube, non-group)","fractal_assignment":["../images/pnk_blu.png","../images/org_blu.png","../images/ylw_pnk.png","../images/blu_wht.png","../images/ylw_slt.png","../images/cyn_red.png","../images/gry_blk.png","../images/grn_red.png"],"mutagen_generator_assignment":[1,0],"goal":3,"start":1,"action_noise":0.1,"location_history":"[1,2,3]","action_history":"[0,0]","mutagen_history":"[1,1]","location_rts":"[883,469]","trial_type":"fractal-mutation","trial_index":94,"time_elapsed":1890636,"internal_node_id":"0.0-5.0-40.0"},{"group":"square cycles (cube, non-group)","fractal_assignment":["../images/pnk_blu.png","../images/org_blu.png","../images/ylw_pnk.png","../images/blu_wht.png","../images/ylw_slt.png","../images/cyn_red.png","../images/gry_blk.png","../images/grn_red.png"],"mutagen_generator_assignment":[1,0],"goal":4,"start":3,"action_noise":0.1,"location_history":"[3,0,1,0,1,2,6,5,4]","action_history":"[0,0,1,0,0,1,0,0]","mutagen_history":"[1,1,0,1,1,0,1,1]","location_rts":"[736,519,726,496,431,764,561,483]","trial_type":"fractal-mutation","trial_index":95,"time_elapsed":1906998,"internal_node_id":"0.0-5.0-41.0"},{"group":"square cycles (cube, non-group)","fractal_assignment":["../images/pnk_blu.png","../images/org_blu.png","../images/ylw_pnk.png","../images/blu_wht.png","../images/ylw_slt.png","../images/cyn_red.png","../images/gry_blk.png","../images/grn_red.png"],"mutagen_generator_assignment":[1,0],"goal":2,"start":4,"action_noise":0.1,"location_history":"[4,7,6,5,1,0,1,2]","action_history":"[0,0,0,1,1,0,0]","mutagen_history":"[1,1,1,0,0,1,1]","location_rts":"[841,405,494,476,851,458,729]","trial_type":"fractal-mutation","trial_index":96,"time_elapsed":1921894,"internal_node_id":"0.0-5.0-42.0"},{"group":"square cycles (cube, non-group)","fractal_assignment":["../images/pnk_blu.png","../images/org_blu.png","../images/ylw_pnk.png","../images/blu_wht.png","../images/ylw_slt.png","../images/cyn_red.png","../images/gry_blk.png","../images/grn_red.png"],"mutagen_generator_assignment":[1,0],"goal":5,"start":2,"action_noise":0.1,"location_history":"[2,3,0,4,7,6,7,6,7,6,5]","action_history":"[0,0,1,0,0,1,1,1,0,0]","mutagen_history":"[1,1,0,1,1,0,0,0,1,1]","location_rts":"[648,309,513,634,459,525,534,680,659,417]","trial_type":"fractal-mutation","trial_index":97,"time_elapsed":1940988,"internal_node_id":"0.0-5.0-43.0"},{"group":"square cycles (cube, non-group)","fractal_assignment":["../images/pnk_blu.png","../images/org_blu.png","../images/ylw_pnk.png","../images/blu_wht.png","../images/ylw_slt.png","../images/cyn_red.png","../images/gry_blk.png","../images/grn_red.png"],"mutagen_generator_assignment":[1,0],"goal":0,"start":5,"action_noise":0.1,"location_history":"[5,4,7,3,2,3,0]","action_history":"[0,0,1,0,0,0]","mutagen_history":"[1,1,0,1,1,1]","location_rts":"[609,327,564,448,362,491]","trial_type":"fractal-mutation","trial_index":98,"time_elapsed":1953464,"internal_node_id":"0.0-5.0-44.0"},{"group":"square cycles (cube, non-group)","fractal_assignment":["../images/pnk_blu.png","../images/org_blu.png","../images/ylw_pnk.png","../images/blu_wht.png","../images/ylw_slt.png","../images/cyn_red.png","../images/gry_blk.png","../images/grn_red.png"],"mutagen_generator_assignment":[1,0],"goal":7,"start":0,"action_noise":0.1,"location_history":"[0,1,2,6,7]","action_history":"[0,0,1,1]","mutagen_history":"[1,1,0,0]","location_rts":"[397,512,549,680]","trial_type":"fractal-mutation","trial_index":99,"time_elapsed":1963164,"internal_node_id":"0.0-5.0-45.0"},{"group":"square cycles (cube, non-group)","fractal_assignment":["../images/pnk_blu.png","../images/org_blu.png","../images/ylw_pnk.png","../images/blu_wht.png","../images/ylw_slt.png","../images/cyn_red.png","../images/gry_blk.png","../images/grn_red.png"],"mutagen_generator_assignment":[1,0],"goal":6,"start":7,"action_noise":0.1,"location_history":"[7,3,2,3,0,1,2,3,0,4,5,1,0,4,7,3,2,6]","action_history":"[1,1,0,0,0,1,0,0,1,1,1,1,1,0,0,1,1]","mutagen_history":"[0,0,1,1,1,0,1,1,0,0,0,0,0,1,1,0,0]","location_rts":"[673,568,633,609,689,470,572,285,461,487,456,522,501,417,329,526,411]","trial_type":"fractal-mutation","trial_index":100,"time_elapsed":1992548,"internal_node_id":"0.0-5.0-46.0"},{"group":"square cycles (cube, non-group)","fractal_assignment":["../images/pnk_blu.png","../images/org_blu.png","../images/ylw_pnk.png","../images/blu_wht.png","../images/ylw_slt.png","../images/cyn_red.png","../images/gry_blk.png","../images/grn_red.png"],"mutagen_generator_assignment":[1,0],"goal":2,"start":6,"action_noise":0.1,"location_history":"[6,5,1,2]","action_history":"[0,0,0]","mutagen_history":"[1,1,1]","location_rts":"[640,379,836]","trial_type":"fractal-mutation","trial_index":101,"time_elapsed":2000993,"internal_node_id":"0.0-5.0-47.0"},{"group":"square cycles (cube, non-group)","fractal_assignment":["../images/pnk_blu.png","../images/org_blu.png","../images/ylw_pnk.png","../images/blu_wht.png","../images/ylw_slt.png","../images/cyn_red.png","../images/gry_blk.png","../images/grn_red.png"],"mutagen_generator_assignment":[1,0],"goal":5,"start":2,"action_noise":0.1,"location_history":"[2,6,7,6,5]","action_history":"[1,1,0,0]","mutagen_history":"[0,0,1,1]","location_rts":"[1181,917,1282,751]","trial_type":"fractal-mutation","trial_index":102,"time_elapsed":2012709,"internal_node_id":"0.0-5.0-48.0"},{"group":"square cycles (cube, non-group)","fractal_assignment":["../images/pnk_blu.png","../images/org_blu.png","../images/ylw_pnk.png","../images/blu_wht.png","../images/ylw_slt.png","../images/cyn_red.png","../images/gry_blk.png","../images/grn_red.png"],"mutagen_generator_assignment":[1,0],"goal":3,"start":5,"action_noise":0.1,"location_history":"[5,4,7,3]","action_history":"[0,1,1]","mutagen_history":"[1,0,0]","location_rts":"[747,822,672]","trial_type":"fractal-mutation","trial_index":103,"time_elapsed":2021501,"internal_node_id":"0.0-5.0-49.0"},{"view_history":"[{\"page_index\":0,\"viewing_time\":3883}]","rt":3884,"trial_type":"instructions","trial_index":104,"time_elapsed":2026385,"internal_node_id":"0.0-6.0"},{"rt":48860,"responses":"{\"Q0\":\"short term memory\"}","trial_type":"survey-text","trial_index":105,"time_elapsed":2076255,"internal_node_id":"0.0-7.0-0.0"},{"rt":19214,"responses":"{\"Q0\":\"short term memory\"}","trial_type":"survey-text","trial_index":106,"time_elapsed":2096474,"internal_node_id":"0.0-7.0-1.0"},{"rt":47310,"responses":"{\"Q0\":\"<img src='../images/diagrams/square_cycles.png'>\"}","trial_type":"survey-multi-choice","trial_index":107,"time_elapsed":2144798,"internal_node_id":"0.0-7.0-2.0"},{"rt":69545,"assignments":["../images/org_blu.png","../images/ylw_pnk.png","../images/cyn_red.png","../images/blu_wht.png","../images/grn_red.png","../images/ylw_slt.png","../images/pnk_blu.png","../images/gry_blk.png"],"trial_type":"drag-drop-on-image","trial_index":108,"time_elapsed":2215346,"internal_node_id":"0.0-7.0-3.0"},{"rt":21421,"responses":"{\"Q0\":\"3\"}","trial_type":"survey-likert","trial_index":109,"time_elapsed":2237771,"internal_node_id":"0.0-7.0-4.0"},{"rt":159804,"responses":"{\"Q0\":\"there seemed to be a pattern in the colors that changed randomly\"}","trial_type":"survey-text","trial_index":110,"time_elapsed":2398578,"internal_node_id":"0.0-7.0-5.0"},{"rt":35410,"responses":"{\"Q0\":\"Yes\"}","trial_type":"survey-multi-choice","trial_index":111,"time_elapsed":2434993,"internal_node_id":"0.0-7.0-6.0"},{"rt":16959,"responses":"{\"Q0\":\"During session 1\"}","trial_type":"survey-multi-choice","trial_index":112,"time_elapsed":2452962,"internal_node_id":"0.0-7.0-7.0"},{"rt":51916,"responses":"{\"Q0\":\"they both seemed to be measuring short term memory\"}","trial_type":"survey-text","trial_index":113,"time_elapsed":2505882,"internal_node_id":"0.0-7.0-8.0"},{"rt":18884,"responses":"{\"Q0\":\"0\"}","trial_type":"survey-likert","trial_index":114,"time_elapsed":2525770,"internal_node_id":"0.0-7.0-9.0"},{"rt":15514,"responses":"{\"Q0\":\"Same structure\"}","trial_type":"survey-multi-choice","trial_index":115,"time_elapsed":2542289,"internal_node_id":"0.0-7.0-10.0"},{"rt":36411,"responses":"{\"Q0\":\"left (black) door = acid, (white) door = ray\",\"Q1\":\"Not at all confident\"}","trial_type":"survey-multi-choice","trial_index":116,"time_elapsed":2579718,"internal_node_id":"0.0-7.0-11.0"},{"rt":22648,"responses":"{\"Q0\":\"55-65\",\"Q1\":\"High school degree or GED\",\"Q2\":\"Male\",\"Q3\":\"White\"}","trial_type":"survey-multi-choice","trial_index":117,"time_elapsed":2603393,"internal_node_id":"0.0-8.0"},{"rt":8908,"responses":"{\"Q0\":\"\"}","trial_type":"survey-text","trial_index":118,"time_elapsed":2613303,"internal_node_id":"0.0-9.0"}]