[{"view_history":"[{\"page_index\":0,\"viewing_time\":2052},{\"page_index\":1,\"viewing_time\":3097}]","rt":5149,"trial_type":"instructions","trial_index":0,"time_elapsed":5149,"internal_node_id":"0.0-0.0"},{"view_history":"[{\"page_index\":0,\"viewing_time\":4304},{\"page_index\":1,\"viewing_time\":8202}]","rt":12506,"trial_type":"instructions","trial_index":1,"time_elapsed":18664,"internal_node_id":"0.0-1.0"},{"group":"square cycles (cube, non-group)","room_assignment":["red","green","grey","brown","blue","purple","yellow","pink"],"door_color_assignment":["white","black"],"door_generator_assignment":[1,0],"goal":5,"start":7,"action_noise":0.1,"location_history":"[7,3,2,3,0,1,0,4,7,3,2,6,5]","action_history":"[1,1,0,0,0,1,1,0,1,1,1,0]","door_history":"[0,0,1,1,1,0,0,1,0,0,0,1]","location_rts":"[1777,710,542,372,377,361,375,1135,453,328,310,1380]","trial_type":"two-door-navigation","trial_index":2,"time_elapsed":42341,"internal_node_id":"0.0-2.0-0.0"},{"group":"square cycles (cube, non-group)","room_assignment":["red","green","grey","brown","blue","purple","yellow","pink"],"door_color_assignment":["white","black"],"door_generator_assignment":[1,0],"goal":2,"start":5,"action_noise":0.1,"location_history":"[5,4,7,6,7,3,2]","action_history":"[0,0,0,1,1,1]","door_history":"[1,1,1,0,0,0]","location_rts":"[2787,1398,1231,326,361,407]","trial_type":"two-door-navigation","trial_index":3,"time_elapsed":58388,"internal_node_id":"0.0-2.0-1.0"},{"group":"square cycles (cube, non-group)","room_assignment":["red","green","grey","brown","blue","purple","yellow","pink"],"door_color_assignment":["white","black"],"door_generator_assignment":[1,0],"goal":0,"start":2,"action_noise":0.1,"location_history":"[2,6,7,3,2,3,2,3,2,3,0]","action_history":"[1,1,1,1,0,1,0,0,0,0]","door_history":"[0,0,0,0,1,0,1,1,1,1]","location_rts":"[546,402,629,405,1231,406,932,248,1381,647]","trial_type":"two-door-navigation","trial_index":4,"time_elapsed":78748,"internal_node_id":"0.0-2.0-2.0"},{"group":"square cycles (cube, non-group)","room_assignment":["red","green","grey","brown","blue","purple","yellow","pink"],"door_color_assignment":["white","black"],"door_generator_assignment":[1,0],"goal":1,"start":0,"action_noise":0.1,"location_history":"[0,4,5,4,5,4,7,6,7,3,0,1]","action_history":"[1,1,0,1,1,1,1,1,1,0,0]","door_history":"[0,0,1,0,0,0,0,0,0,1,1]","location_rts":"[513,424,1079,808,241,350,313,353,367,583,359]","trial_type":"two-door-navigation","trial_index":5,"time_elapsed":98643,"internal_node_id":"0.0-2.0-3.0"},{"group":"square cycles (cube, non-group)","room_assignment":["red","green","grey","brown","blue","purple","yellow","pink"],"door_color_assignment":["white","black"],"door_generator_assignment":[1,0],"goal":6,"start":1,"action_noise":0.1,"location_history":"[1,2,6]","action_history":"[0,0]","door_history":"[1,1]","location_rts":"[1283,478]","trial_type":"two-door-navigation","trial_index":6,"time_elapsed":105906,"internal_node_id":"0.0-2.0-4.0"},{"group":"square cycles (cube, non-group)","room_assignment":["red","green","grey","brown","blue","purple","yellow","pink"],"door_color_assignment":["white","black"],"door_generator_assignment":[1,0],"goal":3,"start":6,"action_noise":0.1,"location_history":"[6,7,3]","action_history":"[1,1]","door_history":"[0,0]","location_rts":"[2036,256]","trial_type":"two-door-navigation","trial_index":7,"time_elapsed":113700,"internal_node_id":"0.0-2.0-5.0"},{"group":"square cycles (cube, non-group)","room_assignment":["red","green","grey","brown","blue","purple","yellow","pink"],"door_color_assignment":["white","black"],"door_generator_assignment":[1,0],"goal":4,"start":3,"action_noise":0.1,"location_history":"[3,2,6,5,4]","action_history":"[1,1,0,0]","door_history":"[0,0,1,1]","location_rts":"[1834,1614,496,624]","trial_type":"two-door-navigation","trial_index":8,"time_elapsed":125771,"internal_node_id":"0.0-2.0-6.0"},{"group":"square cycles (cube, non-group)","room_assignment":["red","green","grey","brown","blue","purple","yellow","pink"],"door_color_assignment":["white","black"],"door_generator_assignment":[1,0],"goal":1,"start":4,"action_noise":0.1,"location_history":"[4,7,6,7,6,7,3,2,3,2,3,0,1]","action_history":"[0,0,0,1,1,1,1,0,0,0,0,0]","door_history":"[1,1,1,0,0,0,0,1,1,1,1,1]","location_rts":"[923,348,421,278,271,295,382,329,226,287,328,465]","trial_type":"two-door-navigation","trial_index":9,"time_elapsed":145835,"internal_node_id":"0.0-2.0-7.0"},{"group":"square cycles (cube, non-group)","room_assignment":["red","green","grey","brown","blue","purple","yellow","pink"],"door_color_assignment":["white","black"],"door_generator_assignment":[1,0],"goal":4,"start":1,"action_noise":0.1,"location_history":"[1,0,4]","action_history":"[1,1]","door_history":"[0,0]","location_rts":"[641,385]","trial_type":"two-door-navigation","trial_index":10,"time_elapsed":152365,"internal_node_id":"0.0-2.0-8.0"},{"group":"square cycles (cube, non-group)","room_assignment":["red","green","grey","brown","blue","purple","yellow","pink"],"door_color_assignment":["white","black"],"door_generator_assignment":[1,0],"goal":5,"start":4,"action_noise":0.1,"location_history":"[4,5]","action_history":"[1]","door_history":"[0]","location_rts":"[560]","trial_type":"two-door-navigation","trial_index":11,"time_elapsed":157427,"internal_node_id":"0.0-2.0-9.0"},{"group":"square cycles (cube, non-group)","room_assignment":["red","green","grey","brown","blue","purple","yellow","pink"],"door_color_assignment":["white","black"],"door_generator_assignment":[1,0],"goal":3,"start":5,"action_noise":0.1,"location_history":"[5,1,0,1,2,3]","action_history":"[1,1,0,0,0]","door_history":"[0,0,1,1,1]","location_rts":"[2085,454,383,342,2096]","trial_type":"two-door-navigation","trial_index":12,"time_elapsed":171290,"internal_node_id":"0.0-2.0-10.0"},{"group":"square cycles (cube, non-group)","room_assignment":["red","green","grey","brown","blue","purple","yellow","pink"],"door_color_assignment":["white","black"],"door_generator_assignment":[1,0],"goal":6,"start":3,"action_noise":0.1,"location_history":"[3,2,3,0,4,5,1,0,1,2,6]","action_history":"[0,1,1,1,1,1,0,0,0,0]","door_history":"[1,0,0,0,0,0,1,1,1,1]","location_rts":"[1122,912,191,383,206,423,496,239,328,424]","trial_type":"two-door-navigation","trial_index":13,"time_elapsed":189523,"internal_node_id":"0.0-2.0-11.0"},{"group":"square cycles (cube, non-group)","room_assignment":["red","green","grey","brown","blue","purple","yellow","pink"],"door_color_assignment":["white","black"],"door_generator_assignment":[1,0],"goal":7,"start":6,"action_noise":0.1,"location_history":"[6,5,1,2,3,0,4,5,1,2,6,7]","action_history":"[0,0,0,0,0,1,1,1,1,1,1]","door_history":"[1,1,1,1,1,0,0,0,0,0,0]","location_rts":"[1460,775,443,1843,446,336,213,294,384,464,262]","trial_type":"two-door-navigation","trial_index":14,"time_elapsed":210955,"internal_node_id":"0.0-2.0-12.0"},{"group":"square cycles (cube, non-group)","room_assignment":["red","green","grey","brown","blue","purple","yellow","pink"],"door_color_assignment":["white","black"],"door_generator_assignment":[1,0],"goal":0,"start":7,"action_noise":0.1,"location_history":"[7,6,5,4,5,4,7,6,5,4,5,4,5,1,0]","action_history":"[0,0,0,1,0,0,0,0,0,0,0,1,1,1]","door_history":"[1,1,1,0,1,1,1,1,1,1,1,0,0,0]","location_rts":"[1906,223,367,449,263,285,335,382,276,368,1256,431,256,304]","trial_type":"two-door-navigation","trial_index":15,"time_elapsed":235573,"internal_node_id":"0.0-2.0-13.0"},{"group":"square cycles (cube, non-group)","room_assignment":["red","green","grey","brown","blue","purple","yellow","pink"],"door_color_assignment":["white","black"],"door_generator_assignment":[1,0],"goal":2,"start":0,"action_noise":0.1,"location_history":"[0,1,2]","action_history":"[0,0]","door_history":"[1,1]","location_rts":"[1456,345]","trial_type":"two-door-navigation","trial_index":16,"time_elapsed":242876,"internal_node_id":"0.0-2.0-14.0"},{"group":"square cycles (cube, non-group)","room_assignment":["red","green","grey","brown","blue","purple","yellow","pink"],"door_color_assignment":["white","black"],"door_generator_assignment":[1,0],"goal":1,"start":2,"action_noise":0.1,"location_history":"[2,3,2,3,0,1]","action_history":"[0,1,1,0,0]","door_history":"[1,0,0,1,1]","location_rts":"[1288,335,393,608,176]","trial_type":"two-door-navigation","trial_index":17,"time_elapsed":254179,"internal_node_id":"0.0-2.0-15.0"},{"group":"square cycles (cube, non-group)","room_assignment":["red","green","grey","brown","blue","purple","yellow","pink"],"door_color_assignment":["white","black"],"door_generator_assignment":[1,0],"goal":6,"start":1,"action_noise":0.1,"location_history":"[1,2,3,2,6]","action_history":"[0,0,1,1]","door_history":"[1,1,0,0]","location_rts":"[1050,215,303,161]","trial_type":"two-door-navigation","trial_index":18,"time_elapsed":263412,"internal_node_id":"0.0-2.0-16.0"},{"group":"square cycles (cube, non-group)","room_assignment":["red","green","grey","brown","blue","purple","yellow","pink"],"door_color_assignment":["white","black"],"door_generator_assignment":[1,0],"goal":3,"start":6,"action_noise":0.1,"location_history":"[6,7,6,7,3]","action_history":"[1,1,1,1]","door_history":"[0,0,0,0]","location_rts":"[665,288,360,407]","trial_type":"two-door-navigation","trial_index":19,"time_elapsed":272637,"internal_node_id":"0.0-2.0-17.0"},{"group":"square cycles (cube, non-group)","room_assignment":["red","green","grey","brown","blue","purple","yellow","pink"],"door_color_assignment":["white","black"],"door_generator_assignment":[1,0],"goal":4,"start":3,"action_noise":0.1,"location_history":"[3,0,1,0,4]","action_history":"[0,0,1,1]","door_history":"[1,1,0,0]","location_rts":"[960,470,488,360]","trial_type":"two-door-navigation","trial_index":20,"time_elapsed":282419,"internal_node_id":"0.0-2.0-18.0"},{"group":"square cycles (cube, non-group)","room_assignment":["red","green","grey","brown","blue","purple","yellow","pink"],"door_color_assignment":["white","black"],"door_generator_assignment":[1,0],"goal":5,"start":4,"action_noise":0.1,"location_history":"[4,7,6,5]","action_history":"[0,0,0]","door_history":"[1,1,1]","location_rts":"[1321,344,839]","trial_type":"two-door-navigation","trial_index":21,"time_elapsed":291428,"internal_node_id":"0.0-2.0-19.0"},{"group":"square cycles (cube, non-group)","room_assignment":["red","green","grey","brown","blue","purple","yellow","pink"],"door_color_assignment":["white","black"],"door_generator_assignment":[1,0],"goal":7,"start":5,"action_noise":0.1,"location_history":"[5,1,0,4,7]","action_history":"[1,1,1,1]","door_history":"[0,0,0,0]","location_rts":"[577,288,240,687]","trial_type":"two-door-navigation","trial_index":22,"time_elapsed":300725,"internal_node_id":"0.0-2.0-20.0"},{"group":"square cycles (cube, non-group)","room_assignment":["red","green","grey","brown","blue","purple","yellow","pink"],"door_color_assignment":["white","black"],"door_generator_assignment":[1,0],"goal":2,"start":7,"action_noise":0.1,"location_history":"[7,6,5,1,2]","action_history":"[0,0,0,0]","door_history":"[1,1,1,1]","location_rts":"[784,337,379,247]","trial_type":"two-door-navigation","trial_index":23,"time_elapsed":309982,"internal_node_id":"0.0-2.0-21.0"},{"group":"square cycles (cube, non-group)","room_assignment":["red","green","grey","brown","blue","purple","yellow","pink"],"door_color_assignment":["white","black"],"door_generator_assignment":[1,0],"goal":0,"start":2,"action_noise":0.1,"location_history":"[2,6,7,6,7,6,7,3,2,6,5,4,7,6,5,4,7,6,5,1,0]","action_history":"[1,1,1,1,0,1,1,1,1,0,0,0,0,0,0,0,0,0,1,1]","door_history":"[0,0,0,0,1,0,0,0,0,1,1,1,1,1,1,1,1,1,0,0]","location_rts":"[607,265,239,216,1571,475,392,399,303,295,215,167,288,303,639,400,374,537,558,288]","trial_type":"two-door-navigation","trial_index":24,"time_elapsed":342027,"internal_node_id":"0.0-2.0-22.0"},{"group":"square cycles (cube, non-group)","room_assignment":["red","green","grey","brown","blue","purple","yellow","pink"],"door_color_assignment":["white","black"],"door_generator_assignment":[1,0],"goal":7,"start":0,"action_noise":0.1,"location_history":"[0,4,5,1,2,3,0,4,5,4,7]","action_history":"[1,1,1,0,0,0,1,1,0,0]","door_history":"[0,0,0,1,1,1,0,0,1,1]","location_rts":"[1105,228,408,16,233,351,200,225,624,208]","trial_type":"two-door-navigation","trial_index":25,"time_elapsed":359133,"internal_node_id":"0.0-2.0-23.0"},{"group":"square cycles (cube, non-group)","room_assignment":["red","green","grey","brown","blue","purple","yellow","pink"],"door_color_assignment":["white","black"],"door_generator_assignment":[1,0],"goal":5,"start":7,"action_noise":0.1,"location_history":"[7,3,2,3,0,1,2,6,7,6,5]","action_history":"[1,1,0,0,0,0,1,1,0,0]","door_history":"[0,0,1,1,1,1,0,0,1,1]","location_rts":"[705,351,673,191,336,328,837,191,334,32]","trial_type":"two-door-navigation","trial_index":26,"time_elapsed":376621,"internal_node_id":"0.0-2.0-24.0"},{"group":"square cycles (cube, non-group)","room_assignment":["red","green","grey","brown","blue","purple","yellow","pink"],"door_color_assignment":["white","black"],"door_generator_assignment":[1,0],"goal":0,"start":5,"action_noise":0.1,"location_history":"[5,4,5,1,0]","action_history":"[0,0,1,1]","door_history":"[1,1,0,0]","location_rts":"[1993,343,502,183]","trial_type":"two-door-navigation","trial_index":27,"time_elapsed":387148,"internal_node_id":"0.0-2.0-25.0"},{"group":"square cycles (cube, non-group)","room_assignment":["red","green","grey","brown","blue","purple","yellow","pink"],"door_color_assignment":["white","black"],"door_generator_assignment":[1,0],"goal":6,"start":0,"action_noise":0.1,"location_history":"[0,4,7,6]","action_history":"[0,0,0]","door_history":"[1,1,1]","location_rts":"[418,231,86]","trial_type":"two-door-navigation","trial_index":28,"time_elapsed":394387,"internal_node_id":"0.0-2.0-26.0"},{"group":"square cycles (cube, non-group)","room_assignment":["red","green","grey","brown","blue","purple","yellow","pink"],"door_color_assignment":["white","black"],"door_generator_assignment":[1,0],"goal":4,"start":6,"action_noise":0.1,"location_history":"[6,7,3,2,6,7,6,5,4]","action_history":"[1,1,1,1,1,0,0,0]","door_history":"[0,0,0,0,0,1,1,1]","location_rts":"[482,183,296,305,385,168,304,81]","trial_type":"two-door-navigation","trial_index":29,"time_elapsed":408091,"internal_node_id":"0.0-2.0-27.0"},{"group":"square cycles (cube, non-group)","room_assignment":["red","green","grey","brown","blue","purple","yellow","pink"],"door_color_assignment":["white","black"],"door_generator_assignment":[1,0],"goal":2,"start":4,"action_noise":0.1,"location_history":"[4,5,1,2]","action_history":"[1,1,0]","door_history":"[0,0,1]","location_rts":"[3084,358,576]","trial_type":"two-door-navigation","trial_index":30,"time_elapsed":418612,"internal_node_id":"0.0-2.0-28.0"},{"group":"square cycles (cube, non-group)","room_assignment":["red","green","grey","brown","blue","purple","yellow","pink"],"door_color_assignment":["white","black"],"door_generator_assignment":[1,0],"goal":3,"start":2,"action_noise":0.1,"location_history":"[2,6,7,6,5,1,0,4,7,3]","action_history":"[1,1,0,0,1,1,1,0,0]","door_history":"[0,0,1,1,0,0,0,1,1]","location_rts":"[21331,230,71,414,106,222,286,439,168]","trial_type":"two-door-navigation","trial_index":31,"time_elapsed":455113,"internal_node_id":"0.0-2.0-29.0"},{"group":"square cycles (cube, non-group)","room_assignment":["red","green","grey","brown","blue","purple","yellow","pink"],"door_color_assignment":["white","black"],"door_generator_assignment":[1,0],"goal":1,"start":3,"action_noise":0.1,"location_history":"[3,0,4,7,6,7,6,5,4,7,3,0,4,5,4,5,4,7,6,5,1]","action_history":"[0,0,0,0,1,0,0,0,0,1,1,1,1,1,0,0,0,0,0,0]","door_history":"[1,1,1,1,0,1,1,1,1,0,0,0,0,0,1,1,1,1,1,1]","location_rts":"[26287,270,80,32,64,559,215,103,120,80,128,118,192,256,783,176,167,96,88,272]","trial_type":"two-door-navigation","trial_index":32,"time_elapsed":509706,"internal_node_id":"0.0-2.0-30.0"},{"group":"square cycles (cube, non-group)","room_assignment":["red","green","grey","brown","blue","purple","yellow","pink"],"door_color_assignment":["white","black"],"door_generator_assignment":[1,0],"goal":4,"start":1,"action_noise":0.1,"location_history":"[1,2,3,0,1,2,3,2,6,7,3,2,6,5,4]","action_history":"[0,0,0,0,0,0,1,1,1,1,1,1,0,0]","door_history":"[1,1,1,1,1,1,0,0,0,0,0,0,1,1]","location_rts":"[909,110,80,166,294,141,318,120,102,207,295,463,247,401]","trial_type":"two-door-navigation","trial_index":33,"time_elapsed":531075,"internal_node_id":"0.0-2.0-31.0"},{"group":"square cycles (cube, non-group)","room_assignment":["red","green","grey","brown","blue","purple","yellow","pink"],"door_color_assignment":["white","black"],"door_generator_assignment":[1,0],"goal":3,"start":4,"action_noise":0.1,"location_history":"[4,5,1,0,1,2,3]","action_history":"[1,1,1,0,0,0]","door_history":"[0,0,0,1,1,1]","location_rts":"[908,264,351,175,119,327]","trial_type":"two-door-navigation","trial_index":34,"time_elapsed":542731,"internal_node_id":"0.0-2.0-32.0"},{"group":"square cycles (cube, non-group)","room_assignment":["red","green","grey","brown","blue","purple","yellow","pink"],"door_color_assignment":["white","black"],"door_generator_assignment":[1,0],"goal":6,"start":3,"action_noise":0.1,"location_history":"[3,0,1,0,4,5,4,7,6]","action_history":"[0,0,1,1,1,0,0,0]","door_history":"[1,1,0,0,0,1,1,1]","location_rts":"[340,159,117,128,215,88,320,337]","trial_type":"two-door-navigation","trial_index":35,"time_elapsed":555940,"internal_node_id":"0.0-2.0-33.0"},{"group":"square cycles (cube, non-group)","room_assignment":["red","green","grey","brown","blue","purple","yellow","pink"],"door_color_assignment":["white","black"],"door_generator_assignment":[1,0],"goal":0,"start":6,"action_noise":0.1,"location_history":"[6,7,3,2,6,7,3,2,3,0]","action_history":"[1,1,1,1,1,1,0,0,0]","door_history":"[0,0,0,0,0,0,1,1,1]","location_rts":"[562,358,328,376,535,176,1096,5982,94]","trial_type":"two-door-navigation","trial_index":36,"time_elapsed":577956,"internal_node_id":"0.0-2.0-34.0"},{"group":"square cycles (cube, non-group)","room_assignment":["red","green","grey","brown","blue","purple","yellow","pink"],"door_color_assignment":["white","black"],"door_generator_assignment":[1,0],"goal":1,"start":0,"action_noise":0.1,"location_history":"[0,4,7,3,2,3,2,3,2,6,5,4,7,6,5,1]","action_history":"[1,1,1,0,0,0,0,1,1,0,0,0,0,0,0]","door_history":"[0,0,0,1,1,1,1,0,0,1,1,1,1,1,1]","location_rts":"[1434,599,213,127,299,235,225,504,88,63,64,191,361,176,312]","trial_type":"two-door-navigation","trial_index":37,"time_elapsed":601363,"internal_node_id":"0.0-2.0-35.0"},{"group":"square cycles (cube, non-group)","room_assignment":["red","green","grey","brown","blue","purple","yellow","pink"],"door_color_assignment":["white","black"],"door_generator_assignment":[1,0],"goal":5,"start":1,"action_noise":0.1,"location_history":"[1,0,4,5]","action_history":"[1,1,1]","door_history":"[0,0,0]","location_rts":"[1210,262,145]","trial_type":"two-door-navigation","trial_index":38,"time_elapsed":609490,"internal_node_id":"0.0-2.0-36.0"},{"group":"square cycles (cube, non-group)","room_assignment":["red","green","grey","brown","blue","purple","yellow","pink"],"door_color_assignment":["white","black"],"door_generator_assignment":[1,0],"goal":7,"start":5,"action_noise":0.1,"location_history":"[5,4,7]","action_history":"[0,0]","door_history":"[1,1]","location_rts":"[299,344]","trial_type":"two-door-navigation","trial_index":39,"time_elapsed":615635,"internal_node_id":"0.0-2.0-37.0"},{"group":"square cycles (cube, non-group)","room_assignment":["red","green","grey","brown","blue","purple","yellow","pink"],"door_color_assignment":["white","black"],"door_generator_assignment":[1,0],"goal":2,"start":7,"action_noise":0.1,"location_history":"[7,3,0,1,2]","action_history":"[1,0,0,0]","door_history":"[0,1,1,1]","location_rts":"[965,623,182,199]","trial_type":"two-door-navigation","trial_index":40,"time_elapsed":625107,"internal_node_id":"0.0-2.0-38.0"},{"group":"square cycles (cube, non-group)","room_assignment":["red","green","grey","brown","blue","purple","yellow","pink"],"door_color_assignment":["white","black"],"door_generator_assignment":[1,0],"goal":1,"start":2,"action_noise":0.1,"location_history":"[2,3,2,6,5,4,7,6,7,3,2,6,7,6,5,4,5,4,7,3,2,6,7,3,0,1]","action_history":"[1,1,1,0,0,0,0,1,1,1,1,1,0,0,0,1,0,0,1,1,1,1,1,0,0]","door_history":"[0,0,0,1,1,1,1,0,0,0,0,0,1,1,1,0,1,1,0,0,0,0,0,1,1]","location_rts":"[653,253,247,1039,175,95,137,272,229,319,286,1878,288,168,25,231,16,689,670,205,252,431,304,13,96]","trial_type":"two-door-navigation","trial_index":41,"time_elapsed":662612,"internal_node_id":"0.0-2.0-39.0"},{"group":"square cycles (cube, non-group)","room_assignment":["red","green","grey","brown","blue","purple","yellow","pink"],"door_color_assignment":["white","black"],"door_generator_assignment":[1,0],"goal":3,"start":1,"action_noise":0.1,"location_history":"[1,0,1,2,3]","action_history":"[0,0,0,1]","door_history":"[1,1,1,0]","location_rts":"[1322,147,23,241]","trial_type":"two-door-navigation","trial_index":42,"time_elapsed":671853,"internal_node_id":"0.0-2.0-40.0"},{"group":"square cycles (cube, non-group)","room_assignment":["red","green","grey","brown","blue","purple","yellow","pink"],"door_color_assignment":["white","black"],"door_generator_assignment":[1,0],"goal":4,"start":3,"action_noise":0.1,"location_history":"[3,0,1,0,1,2,3,0,4]","action_history":"[0,0,1,1,0,0,0,1]","door_history":"[1,1,0,0,1,1,1,0]","location_rts":"[704,237,935,6,104,126,95,455]","trial_type":"two-door-navigation","trial_index":43,"time_elapsed":686027,"internal_node_id":"0.0-2.0-41.0"},{"group":"square cycles (cube, non-group)","room_assignment":["red","green","grey","brown","blue","purple","yellow","pink"],"door_color_assignment":["white","black"],"door_generator_assignment":[1,0],"goal":2,"start":4,"action_noise":0.1,"location_history":"[4,7,3,2]","action_history":"[0,0,1]","door_history":"[1,1,0]","location_rts":"[732,92,78]","trial_type":"two-door-navigation","trial_index":44,"time_elapsed":693436,"internal_node_id":"0.0-2.0-42.0"},{"group":"square cycles (cube, non-group)","room_assignment":["red","green","grey","brown","blue","purple","yellow","pink"],"door_color_assignment":["white","black"],"door_generator_assignment":[1,0],"goal":5,"start":2,"action_noise":0.1,"location_history":"[2,6,5]","action_history":"[1,0]","door_history":"[0,1]","location_rts":"[889,136]","trial_type":"two-door-navigation","trial_index":45,"time_elapsed":699962,"internal_node_id":"0.0-2.0-43.0"},{"group":"square cycles (cube, non-group)","room_assignment":["red","green","grey","brown","blue","purple","yellow","pink"],"door_color_assignment":["white","black"],"door_generator_assignment":[1,0],"goal":0,"start":5,"action_noise":0.1,"location_history":"[5,1,0]","action_history":"[1,1]","door_history":"[0,0]","location_rts":"[1606,950]","trial_type":"two-door-navigation","trial_index":46,"time_elapsed":708020,"internal_node_id":"0.0-2.0-44.0"},{"group":"square cycles (cube, non-group)","room_assignment":["red","green","grey","brown","blue","purple","yellow","pink"],"door_color_assignment":["white","black"],"door_generator_assignment":[1,0],"goal":7,"start":0,"action_noise":0.1,"location_history":"[0,1,2,6,5,1,0,4,7]","action_history":"[0,0,1,1,1,1,1,0]","door_history":"[1,1,0,0,0,0,0,1]","location_rts":"[1523,207,193,151,360,391,413,352]","trial_type":"two-door-navigation","trial_index":47,"time_elapsed":723115,"internal_node_id":"0.0-2.0-45.0"},{"group":"square cycles (cube, non-group)","room_assignment":["red","green","grey","brown","blue","purple","yellow","pink"],"door_color_assignment":["white","black"],"door_generator_assignment":[1,0],"goal":6,"start":7,"action_noise":0.1,"location_history":"[7,6]","action_history":"[0]","door_history":"[1]","location_rts":"[1708]","trial_type":"two-door-navigation","trial_index":48,"time_elapsed":729323,"internal_node_id":"0.0-2.0-46.0"},{"group":"square cycles (cube, non-group)","room_assignment":["red","green","grey","brown","blue","purple","yellow","pink"],"door_color_assignment":["white","black"],"door_generator_assignment":[1,0],"goal":2,"start":6,"action_noise":0.1,"location_history":"[6,7,3,0,1,2]","action_history":"[1,1,0,0,0]","door_history":"[0,0,1,1,1]","location_rts":"[2289,992,280,227,401]","trial_type":"two-door-navigation","trial_index":49,"time_elapsed":742020,"internal_node_id":"0.0-2.0-47.0"},{"group":"square cycles (cube, non-group)","room_assignment":["red","green","grey","brown","blue","purple","yellow","pink"],"door_color_assignment":["white","black"],"door_generator_assignment":[1,0],"goal":5,"start":2,"action_noise":0.1,"location_history":"[2,6,7,3,2,6,5]","action_history":"[1,1,1,1,1,0]","door_history":"[0,0,0,0,0,1]","location_rts":"[1626,374,415,982,376,744]","trial_type":"two-door-navigation","trial_index":50,"time_elapsed":756043,"internal_node_id":"0.0-2.0-48.0"},{"group":"square cycles (cube, non-group)","room_assignment":["red","green","grey","brown","blue","purple","yellow","pink"],"door_color_assignment":["white","black"],"door_generator_assignment":[1,0],"goal":3,"start":5,"action_noise":0.1,"location_history":"[5,1,2,3]","action_history":"[1,0,0]","door_history":"[0,1,1]","location_rts":"[2059,296,192]","trial_type":"two-door-navigation","trial_index":51,"time_elapsed":765093,"internal_node_id":"0.0-2.0-49.0"},{"view_history":"[{\"page_index\":0,\"viewing_time\":3529}]","rt":3530,"trial_type":"instructions","trial_index":52,"time_elapsed":769623,"internal_node_id":"0.0-3.0"},{"view_history":"[{\"page_index\":0,\"viewing_time\":3256},{\"page_index\":1,\"viewing_time\":3745}]","rt":7001,"trial_type":"instructions","trial_index":53,"time_elapsed":777624,"internal_node_id":"0.0-4.0"},{"group":"square cycles (cube, non-group)","fractal_assignment":["../images/blu_wht.png","../images/org_blu.png","../images/cyn_red.png","../images/grn_red.png","../images/pnk_blu.png","../images/gry_blk.png","../images/ylw_pnk.png","../images/ylw_slt.png"],"mutagen_generator_assignment":[0,1],"goal":5,"start":7,"action_noise":0.1,"location_history":"[7,6,5]","action_history":"[1,0]","mutagen_history":"[1,0]","location_rts":"[3203,1485]","trial_type":"fractal-mutation","trial_index":54,"time_elapsed":787865,"internal_node_id":"0.0-5.0-0.0"},{"group":"square cycles (cube, non-group)","fractal_assignment":["../images/blu_wht.png","../images/org_blu.png","../images/cyn_red.png","../images/grn_red.png","../images/pnk_blu.png","../images/gry_blk.png","../images/ylw_pnk.png","../images/ylw_slt.png"],"mutagen_generator_assignment":[0,1],"goal":2,"start":5,"action_noise":0.1,"location_history":"[5,4,5,4,5,1,2]","action_history":"[0,0,0,1,1,0]","mutagen_history":"[0,0,0,1,1,0]","location_rts":"[1464,937,353,574,532,759]","trial_type":"fractal-mutation","trial_index":55,"time_elapsed":802127,"internal_node_id":"0.0-5.0-1.0"},{"group":"square cycles (cube, non-group)","fractal_assignment":["../images/blu_wht.png","../images/org_blu.png","../images/cyn_red.png","../images/grn_red.png","../images/pnk_blu.png","../images/gry_blk.png","../images/ylw_pnk.png","../images/ylw_slt.png"],"mutagen_generator_assignment":[0,1],"goal":0,"start":2,"action_noise":0.1,"location_history":"[2,3,2,6,7,3,2,6,7,3,2,3,0]","action_history":"[0,0,0,0,0,1,1,1,1,1,0,0]","mutagen_history":"[0,0,0,0,0,1,1,1,1,1,0,0]","location_rts":"[1946,422,493,690,532,419,485,213,5277,685,1310,617]","trial_type":"fractal-mutation","trial_index":56,"time_elapsed":830958,"internal_node_id":"0.0-5.0-2.0"},{"group":"square cycles (cube, non-group)","fractal_assignment":["../images/blu_wht.png","../images/org_blu.png","../images/cyn_red.png","../images/grn_red.png","../images/pnk_blu.png","../images/gry_blk.png","../images/ylw_pnk.png","../images/ylw_slt.png"],"mutagen_generator_assignment":[0,1],"goal":1,"start":0,"action_noise":0.1,"location_history":"[0,1]","action_history":"[0]","mutagen_history":"[0]","location_rts":"[957]","trial_type":"fractal-mutation","trial_index":57,"time_elapsed":836436,"internal_node_id":"0.0-5.0-3.0"},{"group":"square cycles (cube, non-group)","fractal_assignment":["../images/blu_wht.png","../images/org_blu.png","../images/cyn_red.png","../images/grn_red.png","../images/pnk_blu.png","../images/gry_blk.png","../images/ylw_pnk.png","../images/ylw_slt.png"],"mutagen_generator_assignment":[0,1],"goal":6,"start":1,"action_noise":0.1,"location_history":"[1,0,4,7,3,2,6]","action_history":"[1,1,0,1,1,1]","mutagen_history":"[1,1,0,1,1,1]","location_rts":"[1414,907,434,285,43,855]","trial_type":"fractal-mutation","trial_index":58,"time_elapsed":850015,"internal_node_id":"0.0-5.0-4.0"},{"group":"square cycles (cube, non-group)","fractal_assignment":["../images/blu_wht.png","../images/org_blu.png","../images/cyn_red.png","../images/grn_red.png","../images/pnk_blu.png","../images/gry_blk.png","../images/ylw_pnk.png","../images/ylw_slt.png"],"mutagen_generator_assignment":[0,1],"goal":3,"start":6,"action_noise":0.1,"location_history":"[6,7,3]","action_history":"[0,1]","mutagen_history":"[0,1]","location_rts":"[2602,950]","trial_type":"fractal-mutation","trial_index":59,"time_elapsed":859111,"internal_node_id":"0.0-5.0-5.0"},{"group":"square cycles (cube, non-group)","fractal_assignment":["../images/blu_wht.png","../images/org_blu.png","../images/cyn_red.png","../images/grn_red.png","../images/pnk_blu.png","../images/gry_blk.png","../images/ylw_pnk.png","../images/ylw_slt.png"],"mutagen_generator_assignment":[0,1],"goal":4,"start":3,"action_noise":0.1,"location_history":"[3,0,4]","action_history":"[0,1]","mutagen_history":"[0,1]","location_rts":"[1176,711]","trial_type":"fractal-mutation","trial_index":60,"time_elapsed":866526,"internal_node_id":"0.0-5.0-6.0"},{"group":"square cycles (cube, non-group)","fractal_assignment":["../images/blu_wht.png","../images/org_blu.png","../images/cyn_red.png","../images/grn_red.png","../images/pnk_blu.png","../images/gry_blk.png","../images/ylw_pnk.png","../images/ylw_slt.png"],"mutagen_generator_assignment":[0,1],"goal":1,"start":4,"action_noise":0.1,"location_history":"[4,5,1]","action_history":"[0,1]","mutagen_history":"[0,1]","location_rts":"[1203,828]","trial_type":"fractal-mutation","trial_index":61,"time_elapsed":874101,"internal_node_id":"0.0-5.0-7.0"},{"group":"square cycles (cube, non-group)","fractal_assignment":["../images/blu_wht.png","../images/org_blu.png","../images/cyn_red.png","../images/grn_red.png","../images/pnk_blu.png","../images/gry_blk.png","../images/ylw_pnk.png","../images/ylw_slt.png"],"mutagen_generator_assignment":[0,1],"goal":4,"start":1,"action_noise":0.1,"location_history":"[1,0,4]","action_history":"[1,1]","mutagen_history":"[1,1]","location_rts":"[1291,379]","trial_type":"fractal-mutation","trial_index":62,"time_elapsed":881323,"internal_node_id":"0.0-5.0-8.0"},{"group":"square cycles (cube, non-group)","fractal_assignment":["../images/blu_wht.png","../images/org_blu.png","../images/cyn_red.png","../images/grn_red.png","../images/pnk_blu.png","../images/gry_blk.png","../images/ylw_pnk.png","../images/ylw_slt.png"],"mutagen_generator_assignment":[0,1],"goal":5,"start":4,"action_noise":0.1,"location_history":"[4,7,6,7,3,0,4,7,6,7,3,2,3,0,4,7,3,0,1,0,4,7,6,7,6,7,3,2,3,0,1,2,3,2,6,5]","action_history":"[1,0,1,1,0,1,1,0,1,1,0,0,0,1,0,1,0,0,1,1,0,0,1,0,1,1,1,0,0,1,0,0,1,1,0]","mutagen_history":"[1,0,1,1,0,1,1,0,1,1,0,0,0,1,0,1,0,0,1,1,0,0,1,0,1,1,1,0,0,1,0,0,1,1,0]","location_rts":"[2662,711,521,244,463,588,619,1388,914,258,415,636,485,671,490,709,403,255,518,554,601,470,975,1449,282,257,1874,592,965,1130,2103,584,240,440,1417]","trial_type":"fractal-mutation","trial_index":63,"time_elapsed":947363,"internal_node_id":"0.0-5.0-9.0"},{"group":"square cycles (cube, non-group)","fractal_assignment":["../images/blu_wht.png","../images/org_blu.png","../images/cyn_red.png","../images/grn_red.png","../images/pnk_blu.png","../images/gry_blk.png","../images/ylw_pnk.png","../images/ylw_slt.png"],"mutagen_generator_assignment":[0,1],"goal":3,"start":5,"action_noise":0.1,"location_history":"[5,1,2,3]","action_history":"[1,0,0]","mutagen_history":"[1,0,0]","location_rts":"[1806,587,302]","trial_type":"fractal-mutation","trial_index":64,"time_elapsed":956600,"internal_node_id":"0.0-5.0-10.0"},{"group":"square cycles (cube, non-group)","fractal_assignment":["../images/blu_wht.png","../images/org_blu.png","../images/cyn_red.png","../images/grn_red.png","../images/pnk_blu.png","../images/gry_blk.png","../images/ylw_pnk.png","../images/ylw_slt.png"],"mutagen_generator_assignment":[0,1],"goal":6,"start":3,"action_noise":0.1,"location_history":"[3,2,3,0,1,0,1,2,3,2,6]","action_history":"[1,0,0,0,1,0,0,0,1,1]","mutagen_history":"[1,0,0,0,1,0,0,0,1,1]","location_rts":"[1815,609,385,1099,523,608,233,260,236,1067]","trial_type":"fractal-mutation","trial_index":65,"time_elapsed":977103,"internal_node_id":"0.0-5.0-11.0"},{"group":"square cycles (cube, non-group)","fractal_assignment":["../images/blu_wht.png","../images/org_blu.png","../images/cyn_red.png","../images/grn_red.png","../images/pnk_blu.png","../images/gry_blk.png","../images/ylw_pnk.png","../images/ylw_slt.png"],"mutagen_generator_assignment":[0,1],"goal":7,"start":6,"action_noise":0.1,"location_history":"[6,5,4,5,4,7]","action_history":"[0,0,1,0,0]","mutagen_history":"[0,0,1,0,0]","location_rts":"[1882,804,501,448,227]","trial_type":"fractal-mutation","trial_index":66,"time_elapsed":989557,"internal_node_id":"0.0-5.0-12.0"},{"group":"square cycles (cube, non-group)","fractal_assignment":["../images/blu_wht.png","../images/org_blu.png","../images/cyn_red.png","../images/grn_red.png","../images/pnk_blu.png","../images/gry_blk.png","../images/ylw_pnk.png","../images/ylw_slt.png"],"mutagen_generator_assignment":[0,1],"goal":0,"start":7,"action_noise":0.1,"location_history":"[7,3,2,3,0]","action_history":"[1,1,0,0]","mutagen_history":"[1,1,0,0]","location_rts":"[2725,1544,480,226]","trial_type":"fractal-mutation","trial_index":67,"time_elapsed":1002110,"internal_node_id":"0.0-5.0-13.0"},{"group":"square cycles (cube, non-group)","fractal_assignment":["../images/blu_wht.png","../images/org_blu.png","../images/cyn_red.png","../images/grn_red.png","../images/pnk_blu.png","../images/gry_blk.png","../images/ylw_pnk.png","../images/ylw_slt.png"],"mutagen_generator_assignment":[0,1],"goal":2,"start":0,"action_noise":0.1,"location_history":"[0,1,2]","action_history":"[0,0]","mutagen_history":"[0,0]","location_rts":"[2172,137]","trial_type":"fractal-mutation","trial_index":68,"time_elapsed":1009944,"internal_node_id":"0.0-5.0-14.0"},{"group":"square cycles (cube, non-group)","fractal_assignment":["../images/blu_wht.png","../images/org_blu.png","../images/cyn_red.png","../images/grn_red.png","../images/pnk_blu.png","../images/gry_blk.png","../images/ylw_pnk.png","../images/ylw_slt.png"],"mutagen_generator_assignment":[0,1],"goal":1,"start":2,"action_noise":0.1,"location_history":"[2,3,2,3,0,1]","action_history":"[0,1,0,0,0]","mutagen_history":"[0,1,0,0,0]","location_rts":"[1472,212,873,219,160]","trial_type":"fractal-mutation","trial_index":69,"time_elapsed":1021460,"internal_node_id":"0.0-5.0-15.0"},{"group":"square cycles (cube, non-group)","fractal_assignment":["../images/blu_wht.png","../images/org_blu.png","../images/cyn_red.png","../images/grn_red.png","../images/pnk_blu.png","../images/gry_blk.png","../images/ylw_pnk.png","../images/ylw_slt.png"],"mutagen_generator_assignment":[0,1],"goal":6,"start":1,"action_noise":0.1,"location_history":"[1,2,6]","action_history":"[0,1]","mutagen_history":"[0,1]","location_rts":"[2548,218]","trial_type":"fractal-mutation","trial_index":70,"time_elapsed":1029766,"internal_node_id":"0.0-5.0-16.0"},{"group":"square cycles (cube, non-group)","fractal_assignment":["../images/blu_wht.png","../images/org_blu.png","../images/cyn_red.png","../images/grn_red.png","../images/pnk_blu.png","../images/gry_blk.png","../images/ylw_pnk.png","../images/ylw_slt.png"],"mutagen_generator_assignment":[0,1],"goal":3,"start":6,"action_noise":0.1,"location_history":"[6,5,1,2,3]","action_history":"[0,1,0,0]","mutagen_history":"[0,1,0,0]","location_rts":"[2178,942,666,462]","trial_type":"fractal-mutation","trial_index":71,"time_elapsed":1041564,"internal_node_id":"0.0-5.0-17.0"},{"group":"square cycles (cube, non-group)","fractal_assignment":["../images/blu_wht.png","../images/org_blu.png","../images/cyn_red.png","../images/grn_red.png","../images/pnk_blu.png","../images/gry_blk.png","../images/ylw_pnk.png","../images/ylw_slt.png"],"mutagen_generator_assignment":[0,1],"goal":4,"start":3,"action_noise":0.1,"location_history":"[3,0,4]","action_history":"[0,1]","mutagen_history":"[0,1]","location_rts":"[1820,384]","trial_type":"fractal-mutation","trial_index":72,"time_elapsed":1049309,"internal_node_id":"0.0-5.0-18.0"},{"group":"square cycles (cube, non-group)","fractal_assignment":["../images/blu_wht.png","../images/org_blu.png","../images/cyn_red.png","../images/grn_red.png","../images/pnk_blu.png","../images/gry_blk.png","../images/ylw_pnk.png","../images/ylw_slt.png"],"mutagen_generator_assignment":[0,1],"goal":5,"start":4,"action_noise":0.1,"location_history":"[4,5]","action_history":"[1]","mutagen_history":"[1]","location_rts":"[1581]","trial_type":"fractal-mutation","trial_index":73,"time_elapsed":1055416,"internal_node_id":"0.0-5.0-19.0"},{"group":"square cycles (cube, non-group)","fractal_assignment":["../images/blu_wht.png","../images/org_blu.png","../images/cyn_red.png","../images/grn_red.png","../images/pnk_blu.png","../images/gry_blk.png","../images/ylw_pnk.png","../images/ylw_slt.png"],"mutagen_generator_assignment":[0,1],"goal":7,"start":5,"action_noise":0.1,"location_history":"[5,4,7]","action_history":"[0,0]","mutagen_history":"[0,0]","location_rts":"[1360,752]","trial_type":"fractal-mutation","trial_index":74,"time_elapsed":1063059,"internal_node_id":"0.0-5.0-20.0"},{"group":"square cycles (cube, non-group)","fractal_assignment":["../images/blu_wht.png","../images/org_blu.png","../images/cyn_red.png","../images/grn_red.png","../images/pnk_blu.png","../images/gry_blk.png","../images/ylw_pnk.png","../images/ylw_slt.png"],"mutagen_generator_assignment":[0,1],"goal":2,"start":7,"action_noise":0.1,"location_history":"[7,3,2]","action_history":"[1,1]","mutagen_history":"[1,1]","location_rts":"[1996,482]","trial_type":"fractal-mutation","trial_index":75,"time_elapsed":1071087,"internal_node_id":"0.0-5.0-21.0"},{"group":"square cycles (cube, non-group)","fractal_assignment":["../images/blu_wht.png","../images/org_blu.png","../images/cyn_red.png","../images/grn_red.png","../images/pnk_blu.png","../images/gry_blk.png","../images/ylw_pnk.png","../images/ylw_slt.png"],"mutagen_generator_assignment":[0,1],"goal":0,"start":2,"action_noise":0.1,"location_history":"[2,3,0]","action_history":"[0,0]","mutagen_history":"[0,0]","location_rts":"[1226,239]","trial_type":"fractal-mutation","trial_index":76,"time_elapsed":1078087,"internal_node_id":"0.0-5.0-22.0"},{"group":"square cycles (cube, non-group)","fractal_assignment":["../images/blu_wht.png","../images/org_blu.png","../images/cyn_red.png","../images/grn_red.png","../images/pnk_blu.png","../images/gry_blk.png","../images/ylw_pnk.png","../images/ylw_slt.png"],"mutagen_generator_assignment":[0,1],"goal":7,"start":0,"action_noise":0.1,"location_history":"[0,4,7]","action_history":"[1,0]","mutagen_history":"[1,0]","location_rts":"[1883,377]","trial_type":"fractal-mutation","trial_index":77,"time_elapsed":1085886,"internal_node_id":"0.0-5.0-23.0"},{"group":"square cycles (cube, non-group)","fractal_assignment":["../images/blu_wht.png","../images/org_blu.png","../images/cyn_red.png","../images/grn_red.png","../images/pnk_blu.png","../images/gry_blk.png","../images/ylw_pnk.png","../images/ylw_slt.png"],"mutagen_generator_assignment":[0,1],"goal":5,"start":7,"action_noise":0.1,"location_history":"[7,3,2,3,2,3,0,4,7,6,5]","action_history":"[1,1,0,1,0,0,1,1,0,1]","mutagen_history":"[1,1,0,1,0,0,1,1,0,1]","location_rts":"[1537,968,504,1503,415,288,451,539,882,584]","trial_type":"fractal-mutation","trial_index":78,"time_elapsed":1107255,"internal_node_id":"0.0-5.0-24.0"},{"group":"square cycles (cube, non-group)","fractal_assignment":["../images/blu_wht.png","../images/org_blu.png","../images/cyn_red.png","../images/grn_red.png","../images/pnk_blu.png","../images/gry_blk.png","../images/ylw_pnk.png","../images/ylw_slt.png"],"mutagen_generator_assignment":[0,1],"goal":0,"start":5,"action_noise":0.1,"location_history":"[5,1,0]","action_history":"[0,1]","mutagen_history":"[0,1]","location_rts":"[1770,876]","trial_type":"fractal-mutation","trial_index":79,"time_elapsed":1115437,"internal_node_id":"0.0-5.0-25.0"},{"group":"square cycles (cube, non-group)","fractal_assignment":["../images/blu_wht.png","../images/org_blu.png","../images/cyn_red.png","../images/grn_red.png","../images/pnk_blu.png","../images/gry_blk.png","../images/ylw_pnk.png","../images/ylw_slt.png"],"mutagen_generator_assignment":[0,1],"goal":6,"start":0,"action_noise":0.1,"location_history":"[0,4,7,6]","action_history":"[1,0,0]","mutagen_history":"[1,0,0]","location_rts":"[1973,349,472]","trial_type":"fractal-mutation","trial_index":80,"time_elapsed":1124786,"internal_node_id":"0.0-5.0-26.0"},{"group":"square cycles (cube, non-group)","fractal_assignment":["../images/blu_wht.png","../images/org_blu.png","../images/cyn_red.png","../images/grn_red.png","../images/pnk_blu.png","../images/gry_blk.png","../images/ylw_pnk.png","../images/ylw_slt.png"],"mutagen_generator_assignment":[0,1],"goal":4,"start":6,"action_noise":0.1,"location_history":"[6,7,3,0,4]","action_history":"[1,1,0,1]","mutagen_history":"[1,1,0,1]","location_rts":"[1326,801,777,444]","trial_type":"fractal-mutation","trial_index":81,"time_elapsed":1135720,"internal_node_id":"0.0-5.0-27.0"},{"group":"square cycles (cube, non-group)","fractal_assignment":["../images/blu_wht.png","../images/org_blu.png","../images/cyn_red.png","../images/grn_red.png","../images/pnk_blu.png","../images/gry_blk.png","../images/ylw_pnk.png","../images/ylw_slt.png"],"mutagen_generator_assignment":[0,1],"goal":2,"start":4,"action_noise":0.1,"location_history":"[4,7,6,5,1,2]","action_history":"[0,0,0,0,0]","mutagen_history":"[0,0,0,0,0]","location_rts":"[1417,243,1056,1228,680]","trial_type":"fractal-mutation","trial_index":82,"time_elapsed":1148905,"internal_node_id":"0.0-5.0-28.0"},{"group":"square cycles (cube, non-group)","fractal_assignment":["../images/blu_wht.png","../images/org_blu.png","../images/cyn_red.png","../images/grn_red.png","../images/pnk_blu.png","../images/gry_blk.png","../images/ylw_pnk.png","../images/ylw_slt.png"],"mutagen_generator_assignment":[0,1],"goal":3,"start":2,"action_noise":0.1,"location_history":"[2,3]","action_history":"[0]","mutagen_history":"[0]","location_rts":"[1200]","trial_type":"fractal-mutation","trial_index":83,"time_elapsed":1154618,"internal_node_id":"0.0-5.0-29.0"},{"group":"square cycles (cube, non-group)","fractal_assignment":["../images/blu_wht.png","../images/org_blu.png","../images/cyn_red.png","../images/grn_red.png","../images/pnk_blu.png","../images/gry_blk.png","../images/ylw_pnk.png","../images/ylw_slt.png"],"mutagen_generator_assignment":[0,1],"goal":1,"start":3,"action_noise":0.1,"location_history":"[3,2,6,5,4,7,6,7,3,2,3,0,1]","action_history":"[1,1,0,0,0,0,0,1,1,0,0,0]","mutagen_history":"[1,1,0,0,0,0,0,1,1,0,0,0]","location_rts":"[1911,711,835,204,543,282,330,562,784,460,461,412]","trial_type":"fractal-mutation","trial_index":84,"time_elapsed":1177826,"internal_node_id":"0.0-5.0-30.0"},{"group":"square cycles (cube, non-group)","fractal_assignment":["../images/blu_wht.png","../images/org_blu.png","../images/cyn_red.png","../images/grn_red.png","../images/pnk_blu.png","../images/gry_blk.png","../images/ylw_pnk.png","../images/ylw_slt.png"],"mutagen_generator_assignment":[0,1],"goal":4,"start":1,"action_noise":0.1,"location_history":"[1,0,4]","action_history":"[1,1]","mutagen_history":"[1,1]","location_rts":"[1181,355]","trial_type":"fractal-mutation","trial_index":85,"time_elapsed":1184920,"internal_node_id":"0.0-5.0-31.0"},{"group":"square cycles (cube, non-group)","fractal_assignment":["../images/blu_wht.png","../images/org_blu.png","../images/cyn_red.png","../images/grn_red.png","../images/pnk_blu.png","../images/gry_blk.png","../images/ylw_pnk.png","../images/ylw_slt.png"],"mutagen_generator_assignment":[0,1],"goal":3,"start":4,"action_noise":0.1,"location_history":"[4,7,6,7,3]","action_history":"[0,0,1,1]","mutagen_history":"[0,0,1,1]","location_rts":"[1122,199,340,72]","trial_type":"fractal-mutation","trial_index":86,"time_elapsed":1194228,"internal_node_id":"0.0-5.0-32.0"},{"group":"square cycles (cube, non-group)","fractal_assignment":["../images/blu_wht.png","../images/org_blu.png","../images/cyn_red.png","../images/grn_red.png","../images/pnk_blu.png","../images/gry_blk.png","../images/ylw_pnk.png","../images/ylw_slt.png"],"mutagen_generator_assignment":[0,1],"goal":6,"start":3,"action_noise":0.1,"location_history":"[3,0,1,0,1,2,6]","action_history":"[0,0,1,0,0,1]","mutagen_history":"[0,0,1,0,0,1]","location_rts":"[2038,1239,178,796,421,321]","trial_type":"fractal-mutation","trial_index":87,"time_elapsed":1208828,"internal_node_id":"0.0-5.0-33.0"},{"group":"square cycles (cube, non-group)","fractal_assignment":["../images/blu_wht.png","../images/org_blu.png","../images/cyn_red.png","../images/grn_red.png","../images/pnk_blu.png","../images/gry_blk.png","../images/ylw_pnk.png","../images/ylw_slt.png"],"mutagen_generator_assignment":[0,1],"goal":0,"start":6,"action_noise":0.1,"location_history":"[6,5,1,0]","action_history":"[0,1,1]","mutagen_history":"[0,1,1]","location_rts":"[2742,761,296]","trial_type":"fractal-mutation","trial_index":88,"time_elapsed":1219191,"internal_node_id":"0.0-5.0-34.0"},{"group":"square cycles (cube, non-group)","fractal_assignment":["../images/blu_wht.png","../images/org_blu.png","../images/cyn_red.png","../images/grn_red.png","../images/pnk_blu.png","../images/gry_blk.png","../images/ylw_pnk.png","../images/ylw_slt.png"],"mutagen_generator_assignment":[0,1],"goal":1,"start":0,"action_noise":0.1,"location_history":"[0,1]","action_history":"[0]","mutagen_history":"[0]","location_rts":"[1457]","trial_type":"fractal-mutation","trial_index":89,"time_elapsed":1225168,"internal_node_id":"0.0-5.0-35.0"},{"group":"square cycles (cube, non-group)","fractal_assignment":["../images/blu_wht.png","../images/org_blu.png","../images/cyn_red.png","../images/grn_red.png","../images/pnk_blu.png","../images/gry_blk.png","../images/ylw_pnk.png","../images/ylw_slt.png"],"mutagen_generator_assignment":[0,1],"goal":5,"start":1,"action_noise":0.1,"location_history":"[1,2,6,7,3,2,6,7,3,0,1,2,6,7,6,7,6,5]","action_history":"[0,1,1,0,1,1,1,1,0,0,0,1,1,0,0,0,1]","mutagen_history":"[0,1,1,0,1,1,1,1,0,0,0,1,1,0,0,0,1]","location_rts":"[2033,699,889,980,411,279,138,1091,862,1046,598,242,106,861,290,663,568]","trial_type":"fractal-mutation","trial_index":90,"time_elapsed":1257726,"internal_node_id":"0.0-5.0-36.0"},{"group":"square cycles (cube, non-group)","fractal_assignment":["../images/blu_wht.png","../images/org_blu.png","../images/cyn_red.png","../images/grn_red.png","../images/pnk_blu.png","../images/gry_blk.png","../images/ylw_pnk.png","../images/ylw_slt.png"],"mutagen_generator_assignment":[0,1],"goal":7,"start":5,"action_noise":0.1,"location_history":"[5,1,0,4,7]","action_history":"[1,1,1,0]","mutagen_history":"[1,1,1,0]","location_rts":"[2025,1044,296,221]","trial_type":"fractal-mutation","trial_index":91,"time_elapsed":1268891,"internal_node_id":"0.0-5.0-37.0"},{"group":"square cycles (cube, non-group)","fractal_assignment":["../images/blu_wht.png","../images/org_blu.png","../images/cyn_red.png","../images/grn_red.png","../images/pnk_blu.png","../images/gry_blk.png","../images/ylw_pnk.png","../images/ylw_slt.png"],"mutagen_generator_assignment":[0,1],"goal":2,"start":7,"action_noise":0.1,"location_history":"[7,3,2]","action_history":"[1,1]","mutagen_history":"[1,1]","location_rts":"[1829,1832]","trial_type":"fractal-mutation","trial_index":92,"time_elapsed":1278101,"internal_node_id":"0.0-5.0-38.0"},{"group":"square cycles (cube, non-group)","fractal_assignment":["../images/blu_wht.png","../images/org_blu.png","../images/cyn_red.png","../images/grn_red.png","../images/pnk_blu.png","../images/gry_blk.png","../images/ylw_pnk.png","../images/ylw_slt.png"],"mutagen_generator_assignment":[0,1],"goal":1,"start":2,"action_noise":0.1,"location_history":"[2,3,2,6,5,4,7,6,5,1]","action_history":"[0,1,1,0,0,0,0,0,1]","mutagen_history":"[0,1,1,0,0,0,0,0,1]","location_rts":"[1851,499,288,481,129,528,144,751,564]","trial_type":"fractal-mutation","trial_index":93,"time_elapsed":1295989,"internal_node_id":"0.0-5.0-39.0"},{"group":"square cycles (cube, non-group)","fractal_assignment":["../images/blu_wht.png","../images/org_blu.png","../images/cyn_red.png","../images/grn_red.png","../images/pnk_blu.png","../images/gry_blk.png","../images/ylw_pnk.png","../images/ylw_slt.png"],"mutagen_generator_assignment":[0,1],"goal":3,"start":1,"action_noise":0.1,"location_history":"[1,0,1,2,3]","action_history":"[0,0,0,0]","mutagen_history":"[0,0,0,0]","location_rts":"[1259,133,237,285]","trial_type":"fractal-mutation","trial_index":94,"time_elapsed":1305462,"internal_node_id":"0.0-5.0-40.0"},{"group":"square cycles (cube, non-group)","fractal_assignment":["../images/blu_wht.png","../images/org_blu.png","../images/cyn_red.png","../images/grn_red.png","../images/pnk_blu.png","../images/gry_blk.png","../images/ylw_pnk.png","../images/ylw_slt.png"],"mutagen_generator_assignment":[0,1],"goal":4,"start":3,"action_noise":0.1,"location_history":"[3,2,6,5,4]","action_history":"[0,1,0,0]","mutagen_history":"[0,1,0,0]","location_rts":"[2523,292,897,255]","trial_type":"fractal-mutation","trial_index":95,"time_elapsed":1316997,"internal_node_id":"0.0-5.0-41.0"},{"group":"square cycles (cube, non-group)","fractal_assignment":["../images/blu_wht.png","../images/org_blu.png","../images/cyn_red.png","../images/grn_red.png","../images/pnk_blu.png","../images/gry_blk.png","../images/ylw_pnk.png","../images/ylw_slt.png"],"mutagen_generator_assignment":[0,1],"goal":2,"start":4,"action_noise":0.1,"location_history":"[4,7,3,2]","action_history":"[0,1,1]","mutagen_history":"[0,1,1]","location_rts":"[2291,626,234]","trial_type":"fractal-mutation","trial_index":96,"time_elapsed":1326712,"internal_node_id":"0.0-5.0-42.0"},{"group":"square cycles (cube, non-group)","fractal_assignment":["../images/blu_wht.png","../images/org_blu.png","../images/cyn_red.png","../images/grn_red.png","../images/pnk_blu.png","../images/gry_blk.png","../images/ylw_pnk.png","../images/ylw_slt.png"],"mutagen_generator_assignment":[0,1],"goal":5,"start":2,"action_noise":0.1,"location_history":"[2,6,7,6,5]","action_history":"[1,1,0,0]","mutagen_history":"[1,1,0,0]","location_rts":"[1663,307,805,304]","trial_type":"fractal-mutation","trial_index":97,"time_elapsed":1337375,"internal_node_id":"0.0-5.0-43.0"},{"group":"square cycles (cube, non-group)","fractal_assignment":["../images/blu_wht.png","../images/org_blu.png","../images/cyn_red.png","../images/grn_red.png","../images/pnk_blu.png","../images/gry_blk.png","../images/ylw_pnk.png","../images/ylw_slt.png"],"mutagen_generator_assignment":[0,1],"goal":0,"start":5,"action_noise":0.1,"location_history":"[5,4,7,3,0]","action_history":"[0,0,1,1]","mutagen_history":"[0,0,1,1]","location_rts":"[1289,1043,546,480]","trial_type":"fractal-mutation","trial_index":98,"time_elapsed":1348319,"internal_node_id":"0.0-5.0-44.0"},{"group":"square cycles (cube, non-group)","fractal_assignment":["../images/blu_wht.png","../images/org_blu.png","../images/cyn_red.png","../images/grn_red.png","../images/pnk_blu.png","../images/gry_blk.png","../images/ylw_pnk.png","../images/ylw_slt.png"],"mutagen_generator_assignment":[0,1],"goal":7,"start":0,"action_noise":0.1,"location_history":"[0,1,0,1,2,6,7]","action_history":"[0,1,1,0,1,1]","mutagen_history":"[0,1,1,0,1,1]","location_rts":"[1473,209,184,283,765,526]","trial_type":"fractal-mutation","trial_index":99,"time_elapsed":1361368,"internal_node_id":"0.0-5.0-45.0"},{"group":"square cycles (cube, non-group)","fractal_assignment":["../images/blu_wht.png","../images/org_blu.png","../images/cyn_red.png","../images/grn_red.png","../images/pnk_blu.png","../images/gry_blk.png","../images/ylw_pnk.png","../images/ylw_slt.png"],"mutagen_generator_assignment":[0,1],"goal":6,"start":7,"action_noise":0.1,"location_history":"[7,3,2,3,2,6]","action_history":"[1,1,0,1,1]","mutagen_history":"[1,1,0,1,1]","location_rts":"[1706,1119,585,408,152]","trial_type":"fractal-mutation","trial_index":100,"time_elapsed":1373934,"internal_node_id":"0.0-5.0-46.0"},{"group":"square cycles (cube, non-group)","fractal_assignment":["../images/blu_wht.png","../images/org_blu.png","../images/cyn_red.png","../images/grn_red.png","../images/pnk_blu.png","../images/gry_blk.png","../images/ylw_pnk.png","../images/ylw_slt.png"],"mutagen_generator_assignment":[0,1],"goal":2,"start":6,"action_noise":0.1,"location_history":"[6,7,6,5,1,2]","action_history":"[1,0,0,1,0]","mutagen_history":"[1,0,0,1,0]","location_rts":"[1402,994,626,1010,934]","trial_type":"fractal-mutation","trial_index":101,"time_elapsed":1387487,"internal_node_id":"0.0-5.0-47.0"},{"group":"square cycles (cube, non-group)","fractal_assignment":["../images/blu_wht.png","../images/org_blu.png","../images/cyn_red.png","../images/grn_red.png","../images/pnk_blu.png","../images/gry_blk.png","../images/ylw_pnk.png","../images/ylw_slt.png"],"mutagen_generator_assignment":[0,1],"goal":5,"start":2,"action_noise":0.1,"location_history":"[2,6,7,6,5]","action_history":"[1,1,0,0]","mutagen_history":"[1,1,0,0]","location_rts":"[1410,174,580,631]","trial_type":"fractal-mutation","trial_index":102,"time_elapsed":1397850,"internal_node_id":"0.0-5.0-48.0"},{"group":"square cycles (cube, non-group)","fractal_assignment":["../images/blu_wht.png","../images/org_blu.png","../images/cyn_red.png","../images/grn_red.png","../images/pnk_blu.png","../images/gry_blk.png","../images/ylw_pnk.png","../images/ylw_slt.png"],"mutagen_generator_assignment":[0,1],"goal":3,"start":5,"action_noise":0.1,"location_history":"[5,1,0,1,2,3]","action_history":"[1,1,0,0,0]","mutagen_history":"[1,1,0,0,0]","location_rts":"[1008,972,797,141,166]","trial_type":"fractal-mutation","trial_index":103,"time_elapsed":1409523,"internal_node_id":"0.0-5.0-49.0"},{"view_history":"[{\"page_index\":0,\"viewing_time\":3773}]","rt":3773,"trial_type":"instructions","trial_index":104,"time_elapsed":1414296,"internal_node_id":"0.0-6.0"},{"rt":59045,"responses":"{\"Q0\":\"navigating in a spatial environment\"}","trial_type":"survey-text","trial_index":105,"time_elapsed":1474349,"internal_node_id":"0.0-7.0-0.0"},{"rt":15513,"responses":"{\"Q0\":\"pattern memorization and relationships\"}","trial_type":"survey-text","trial_index":106,"time_elapsed":1490865,"internal_node_id":"0.0-7.0-1.0"},{"rt":73587,"responses":"{\"Q0\":\"<img src='../images/diagrams/square_cycles.png'>\"}","trial_type":"survey-multi-choice","trial_index":107,"time_elapsed":1565460,"internal_node_id":"0.0-7.0-2.0"},{"rt":109658,"assignments":["../images/ylw_slt.png","../images/gry_blk.png","../images/grn_red.png","../images/cyn_red.png","../images/pnk_blu.png","../images/ylw_pnk.png","../images/blu_wht.png","../images/org_blu.png"],"trial_type":"drag-drop-on-image","trial_index":108,"time_elapsed":1676121,"internal_node_id":"0.0-7.0-3.0"},{"rt":12309,"responses":"{\"Q0\":\"1\"}","trial_type":"survey-likert","trial_index":109,"time_elapsed":1689434,"internal_node_id":"0.0-7.0-4.0"},{"rt":58476,"responses":"{\"Q0\":\"Only that there were patterns that could be predicted, but much more difficult to do so in the spatial navigation experiment.\"}","trial_type":"survey-text","trial_index":110,"time_elapsed":1748911,"internal_node_id":"0.0-7.0-5.0"},{"rt":5463,"responses":"{\"Q0\":\"Yes\"}","trial_type":"survey-multi-choice","trial_index":111,"time_elapsed":1755377,"internal_node_id":"0.0-7.0-6.0"},{"rt":25837,"responses":"{\"Q0\":\"Between sessions 1 and 2\"}","trial_type":"survey-multi-choice","trial_index":112,"time_elapsed":1782224,"internal_node_id":"0.0-7.0-7.0"},{"rt":40692,"responses":"{\"Q0\":\"Just that there were linear relationships, but tested different ways.\"}","trial_type":"survey-text","trial_index":113,"time_elapsed":1823920,"internal_node_id":"0.0-7.0-8.0"},{"rt":7901,"responses":"{\"Q0\":\"1\"}","trial_type":"survey-likert","trial_index":114,"time_elapsed":1832824,"internal_node_id":"0.0-7.0-9.0"},{"rt":22398,"responses":"{\"Q0\":\"Same structure\"}","trial_type":"survey-multi-choice","trial_index":115,"time_elapsed":1856226,"internal_node_id":"0.0-7.0-10.0"},{"rt":70497,"responses":"{\"Q0\":\"left (white) door = ray, (black) door = acid\",\"Q1\":\"Slightly confident\"}","trial_type":"survey-multi-choice","trial_index":116,"time_elapsed":1927731,"internal_node_id":"0.0-7.0-11.0"},{"rt":10427,"responses":"{\"Q0\":\"45-55\",\"Q1\":\"Some college\",\"Q2\":\"Male\",\"Q3\":\"White\"}","trial_type":"survey-multi-choice","trial_index":117,"time_elapsed":1939179,"internal_node_id":"0.0-8.0"},{"rt":7435,"responses":"{\"Q0\":\"no\"}","trial_type":"survey-text","trial_index":118,"time_elapsed":1947616,"internal_node_id":"0.0-9.0"}]