[{"view_history":"[{\"page_index\":0,\"viewing_time\":1720},{\"page_index\":1,\"viewing_time\":4429}]","rt":6150,"trial_type":"instructions","trial_index":0,"time_elapsed":6151,"internal_node_id":"0.0-0.0"},{"view_history":"[{\"page_index\":0,\"viewing_time\":4976},{\"page_index\":1,\"viewing_time\":2849}]","rt":7826,"trial_type":"instructions","trial_index":1,"time_elapsed":14978,"internal_node_id":"0.0-1.0"},{"group":"tri cycles (cube, non-group)","room_assignment":["purple","green","yellow","pink","blue","grey","brown","red"],"door_color_assignment":["black","white"],"door_generator_assignment":[1,0],"goal":5,"start":7,"action_noise":0.1,"location_history":"[7,6,4,0,2,1,5]","action_history":"[0,1,1,0,0,1]","door_history":"[1,0,0,1,1,0]","location_rts":"[27706,744,5479,2725,2341,802]","trial_type":"two-door-navigation","trial_index":2,"time_elapsed":64558,"internal_node_id":"0.0-2.0-0.0"},{"group":"tri cycles (cube, non-group)","room_assignment":["purple","green","yellow","pink","blue","grey","brown","red"],"door_color_assignment":["black","white"],"door_generator_assignment":[1,0],"goal":2,"start":5,"action_noise":0.1,"location_history":"[5,1,0,2]","action_history":"[1,0,0]","door_history":"[0,1,1]","location_rts":"[4761,3825,1820]","trial_type":"two-door-navigation","trial_index":3,"time_elapsed":81623,"internal_node_id":"0.0-2.0-1.0"},{"group":"tri cycles (cube, non-group)","room_assignment":["purple","green","yellow","pink","blue","grey","brown","red"],"door_color_assignment":["black","white"],"door_generator_assignment":[1,0],"goal":0,"start":2,"action_noise":0.1,"location_history":"[2,1,0]","action_history":"[0,0]","door_history":"[1,1]","location_rts":"[7565,589]","trial_type":"two-door-navigation","trial_index":4,"time_elapsed":95392,"internal_node_id":"0.0-2.0-2.0"},{"group":"tri cycles (cube, non-group)","room_assignment":["purple","green","yellow","pink","blue","grey","brown","red"],"door_color_assignment":["black","white"],"door_generator_assignment":[1,0],"goal":1,"start":0,"action_noise":0.1,"location_history":"[0,3,4,0,2,1]","action_history":"[0,0,1,0,0]","door_history":"[1,1,0,1,1]","location_rts":"[19964,2353,4915,1538,595]","trial_type":"two-door-navigation","trial_index":5,"time_elapsed":133472,"internal_node_id":"0.0-2.0-3.0"},{"group":"tri cycles (cube, non-group)","room_assignment":["purple","green","yellow","pink","blue","grey","brown","red"],"door_color_assignment":["black","white"],"door_generator_assignment":[1,0],"goal":6,"start":1,"action_noise":0.1,"location_history":"[1,0,3,7,3,7,6]","action_history":"[0,1,0,0,0,0]","door_history":"[1,0,1,1,1,1]","location_rts":"[9581,2424,3956,1039,1929,547]","trial_type":"two-door-navigation","trial_index":6,"time_elapsed":162693,"internal_node_id":"0.0-2.0-4.0"},{"group":"tri cycles (cube, non-group)","room_assignment":["purple","green","yellow","pink","blue","grey","brown","red"],"door_color_assignment":["black","white"],"door_generator_assignment":[1,0],"goal":3,"start":6,"action_noise":0.1,"location_history":"[6,4,7,3]","action_history":"[0,0,1]","door_history":"[1,1,0]","location_rts":"[3878,1280,2997]","trial_type":"two-door-navigation","trial_index":7,"time_elapsed":177495,"internal_node_id":"0.0-2.0-5.0"},{"group":"tri cycles (cube, non-group)","room_assignment":["purple","green","yellow","pink","blue","grey","brown","red"],"door_color_assignment":["black","white"],"door_generator_assignment":[1,0],"goal":4,"start":3,"action_noise":0.1,"location_history":"[3,4]","action_history":"[1]","door_history":"[0]","location_rts":"[38997]","trial_type":"two-door-navigation","trial_index":8,"time_elapsed":221037,"internal_node_id":"0.0-2.0-6.0"},{"group":"tri cycles (cube, non-group)","room_assignment":["purple","green","yellow","pink","blue","grey","brown","red"],"door_color_assignment":["black","white"],"door_generator_assignment":[1,0],"goal":1,"start":4,"action_noise":0.1,"location_history":"[4,0,2,6,5,1]","action_history":"[1,0,0,1,0]","door_history":"[0,1,1,0,1]","location_rts":"[4245,4699,436,4969,2310]","trial_type":"two-door-navigation","trial_index":9,"time_elapsed":246381,"internal_node_id":"0.0-2.0-7.0"},{"group":"tri cycles (cube, non-group)","room_assignment":["purple","green","yellow","pink","blue","grey","brown","red"],"door_color_assignment":["black","white"],"door_generator_assignment":[1,0],"goal":4,"start":1,"action_noise":0.1,"location_history":"[1,0,3,7,3,4]","action_history":"[0,1,1,1,1]","door_history":"[1,0,0,0,0]","location_rts":"[4089,2196,488,3812,425]","trial_type":"two-door-navigation","trial_index":10,"time_elapsed":266095,"internal_node_id":"0.0-2.0-8.0"},{"group":"tri cycles (cube, non-group)","room_assignment":["purple","green","yellow","pink","blue","grey","brown","red"],"door_color_assignment":["black","white"],"door_generator_assignment":[1,0],"goal":5,"start":4,"action_noise":0.1,"location_history":"[4,0,3,7,6,5]","action_history":"[1,1,0,0,1]","door_history":"[0,0,1,1,0]","location_rts":"[8557,4274,1660,2042,527]","trial_type":"two-door-navigation","trial_index":11,"time_elapsed":291827,"internal_node_id":"0.0-2.0-9.0"},{"group":"tri cycles (cube, non-group)","room_assignment":["purple","green","yellow","pink","blue","grey","brown","red"],"door_color_assignment":["black","white"],"door_generator_assignment":[1,0],"goal":3,"start":5,"action_noise":0.1,"location_history":"[5,2,6,4,0,3]","action_history":"[1,1,0,1,1]","door_history":"[0,0,1,0,0]","location_rts":"[4874,6762,2223,4997,852]","trial_type":"two-door-navigation","trial_index":12,"time_elapsed":320236,"internal_node_id":"0.0-2.0-10.0"},{"group":"tri cycles (cube, non-group)","room_assignment":["purple","green","yellow","pink","blue","grey","brown","red"],"door_color_assignment":["black","white"],"door_generator_assignment":[1,0],"goal":6,"start":3,"action_noise":0.1,"location_history":"[3,7,6]","action_history":"[0,0]","door_history":"[1,1]","location_rts":"[3333,1331]","trial_type":"two-door-navigation","trial_index":13,"time_elapsed":330483,"internal_node_id":"0.0-2.0-11.0"},{"group":"tri cycles (cube, non-group)","room_assignment":["purple","green","yellow","pink","blue","grey","brown","red"],"door_color_assignment":["black","white"],"door_generator_assignment":[1,0],"goal":7,"start":6,"action_noise":0.1,"location_history":"[6,4,0,2,6,4,7]","action_history":"[0,0,0,1,0,0]","door_history":"[1,1,1,0,1,1]","location_rts":"[3423,1208,924,4014,3015,856]","trial_type":"two-door-navigation","trial_index":14,"time_elapsed":353650,"internal_node_id":"0.0-2.0-12.0"},{"group":"tri cycles (cube, non-group)","room_assignment":["purple","green","yellow","pink","blue","grey","brown","red"],"door_color_assignment":["black","white"],"door_generator_assignment":[1,0],"goal":0,"start":7,"action_noise":0.1,"location_history":"[7,6,4,0]","action_history":"[0,0,1]","door_history":"[1,1,0]","location_rts":"[6735,3478,820]","trial_type":"two-door-navigation","trial_index":15,"time_elapsed":371325,"internal_node_id":"0.0-2.0-13.0"},{"group":"tri cycles (cube, non-group)","room_assignment":["purple","green","yellow","pink","blue","grey","brown","red"],"door_color_assignment":["black","white"],"door_generator_assignment":[1,0],"goal":2,"start":0,"action_noise":0.1,"location_history":"[0,2]","action_history":"[0]","door_history":"[1]","location_rts":"[2854]","trial_type":"two-door-navigation","trial_index":16,"time_elapsed":378720,"internal_node_id":"0.0-2.0-14.0"},{"group":"tri cycles (cube, non-group)","room_assignment":["purple","green","yellow","pink","blue","grey","brown","red"],"door_color_assignment":["black","white"],"door_generator_assignment":[1,0],"goal":1,"start":2,"action_noise":0.1,"location_history":"[2,6,5,2,1]","action_history":"[0,1,0,0]","door_history":"[1,0,1,1]","location_rts":"[4429,5694,2254,3441]","trial_type":"two-door-navigation","trial_index":17,"time_elapsed":402189,"internal_node_id":"0.0-2.0-15.0"},{"group":"tri cycles (cube, non-group)","room_assignment":["purple","green","yellow","pink","blue","grey","brown","red"],"door_color_assignment":["black","white"],"door_generator_assignment":[1,0],"goal":6,"start":1,"action_noise":0.1,"location_history":"[1,5,2,6]","action_history":"[1,1,1]","door_history":"[0,0,0]","location_rts":"[6153,2539,4318]","trial_type":"two-door-navigation","trial_index":18,"time_elapsed":421821,"internal_node_id":"0.0-2.0-16.0"},{"group":"tri cycles (cube, non-group)","room_assignment":["purple","green","yellow","pink","blue","grey","brown","red"],"door_color_assignment":["black","white"],"door_generator_assignment":[1,0],"goal":3,"start":6,"action_noise":0.1,"location_history":"[6,4,7,3]","action_history":"[0,0,1]","door_history":"[1,1,0]","location_rts":"[3339,2948,784]","trial_type":"two-door-navigation","trial_index":19,"time_elapsed":435513,"internal_node_id":"0.0-2.0-17.0"},{"group":"tri cycles (cube, non-group)","room_assignment":["purple","green","yellow","pink","blue","grey","brown","red"],"door_color_assignment":["black","white"],"door_generator_assignment":[1,0],"goal":4,"start":3,"action_noise":0.1,"location_history":"[3,7,3,7,6,4]","action_history":"[1,0,1,0,0]","door_history":"[0,1,0,1,1]","location_rts":"[10560,3564,3193,2184,3947]","trial_type":"two-door-navigation","trial_index":20,"time_elapsed":467679,"internal_node_id":"0.0-2.0-18.0"},{"group":"tri cycles (cube, non-group)","room_assignment":["purple","green","yellow","pink","blue","grey","brown","red"],"door_color_assignment":["black","white"],"door_generator_assignment":[1,0],"goal":5,"start":4,"action_noise":0.1,"location_history":"[4,0,3,7,6,4,7,6,5]","action_history":"[1,0,0,0,0,1,0,1]","door_history":"[0,1,1,1,1,0,1,0]","location_rts":"[4544,5205,2397,2891,1489,2769,3218,2881]","trial_type":"two-door-navigation","trial_index":21,"time_elapsed":504865,"internal_node_id":"0.0-2.0-19.0"},{"group":"tri cycles (cube, non-group)","room_assignment":["purple","green","yellow","pink","blue","grey","brown","red"],"door_color_assignment":["black","white"],"door_generator_assignment":[1,0],"goal":7,"start":5,"action_noise":0.1,"location_history":"[5,2,6,4,7]","action_history":"[1,1,0,0]","door_history":"[0,0,1,1]","location_rts":"[3798,2943,549,1390]","trial_type":"two-door-navigation","trial_index":22,"time_elapsed":521216,"internal_node_id":"0.0-2.0-20.0"},{"group":"tri cycles (cube, non-group)","room_assignment":["purple","green","yellow","pink","blue","grey","brown","red"],"door_color_assignment":["black","white"],"door_generator_assignment":[1,0],"goal":2,"start":7,"action_noise":0.1,"location_history":"[7,6,4,0,3,4,7,6,4,0,2]","action_history":"[0,0,1,1,1,0,0,0,1,0]","door_history":"[1,1,0,0,0,1,1,1,0,1]","location_rts":"[5833,3213,1783,1161,4627,1429,3643,2795,3076,784]","trial_type":"two-door-navigation","trial_index":23,"time_elapsed":563424,"internal_node_id":"0.0-2.0-21.0"},{"group":"tri cycles (cube, non-group)","room_assignment":["purple","green","yellow","pink","blue","grey","brown","red"],"door_color_assignment":["black","white"],"door_generator_assignment":[1,0],"goal":0,"start":2,"action_noise":0.1,"location_history":"[2,1,0]","action_history":"[0,0]","door_history":"[1,1]","location_rts":"[8017,828]","trial_type":"two-door-navigation","trial_index":24,"time_elapsed":577867,"internal_node_id":"0.0-2.0-22.0"},{"group":"tri cycles (cube, non-group)","room_assignment":["purple","green","yellow","pink","blue","grey","brown","red"],"door_color_assignment":["black","white"],"door_generator_assignment":[1,0],"goal":7,"start":0,"action_noise":0.1,"location_history":"[0,3,7]","action_history":"[1,0]","door_history":"[0,1]","location_rts":"[3819,491]","trial_type":"two-door-navigation","trial_index":25,"time_elapsed":587764,"internal_node_id":"0.0-2.0-23.0"},{"group":"tri cycles (cube, non-group)","room_assignment":["purple","green","yellow","pink","blue","grey","brown","red"],"door_color_assignment":["black","white"],"door_generator_assignment":[1,0],"goal":5,"start":7,"action_noise":0.1,"location_history":"[7,6,5]","action_history":"[0,1]","door_history":"[1,0]","location_rts":"[9714,2283]","trial_type":"two-door-navigation","trial_index":26,"time_elapsed":605382,"internal_node_id":"0.0-2.0-24.0"},{"group":"tri cycles (cube, non-group)","room_assignment":["purple","green","yellow","pink","blue","grey","brown","red"],"door_color_assignment":["black","white"],"door_generator_assignment":[1,0],"goal":0,"start":5,"action_noise":0.1,"location_history":"[5,1,0]","action_history":"[1,0]","door_history":"[0,1]","location_rts":"[4365,2383]","trial_type":"two-door-navigation","trial_index":27,"time_elapsed":617727,"internal_node_id":"0.0-2.0-25.0"},{"group":"tri cycles (cube, non-group)","room_assignment":["purple","green","yellow","pink","blue","grey","brown","red"],"door_color_assignment":["black","white"],"door_generator_assignment":[1,0],"goal":6,"start":0,"action_noise":0.1,"location_history":"[0,2,6]","action_history":"[0,1]","door_history":"[1,0]","location_rts":"[4174,3073]","trial_type":"two-door-navigation","trial_index":28,"time_elapsed":630564,"internal_node_id":"0.0-2.0-26.0"},{"group":"tri cycles (cube, non-group)","room_assignment":["purple","green","yellow","pink","blue","grey","brown","red"],"door_color_assignment":["black","white"],"door_generator_assignment":[1,0],"goal":4,"start":6,"action_noise":0.1,"location_history":"[6,4]","action_history":"[0]","door_history":"[1]","location_rts":"[5268]","trial_type":"two-door-navigation","trial_index":29,"time_elapsed":640384,"internal_node_id":"0.0-2.0-27.0"},{"group":"tri cycles (cube, non-group)","room_assignment":["purple","green","yellow","pink","blue","grey","brown","red"],"door_color_assignment":["black","white"],"door_generator_assignment":[1,0],"goal":2,"start":4,"action_noise":0.1,"location_history":"[4,0,3,7,6,5,1,0,3,4,7,6,4,0,2]","action_history":"[1,0,0,0,0,1,0,0,1,0,0,0,1,0]","door_history":"[0,1,1,1,1,0,1,1,0,1,1,1,0,1]","location_rts":"[3820,1129,3411,6447,2457,1907,1931,4300,2801,902,2895,2142,3221,1248]","trial_type":"two-door-navigation","trial_index":30,"time_elapsed":697017,"internal_node_id":"0.0-2.0-28.0"},{"group":"tri cycles (cube, non-group)","room_assignment":["purple","green","yellow","pink","blue","grey","brown","red"],"door_color_assignment":["black","white"],"door_generator_assignment":[1,0],"goal":3,"start":2,"action_noise":0.1,"location_history":"[2,1,0,3]","action_history":"[0,0,1]","door_history":"[1,1,0]","location_rts":"[5089,1005,1698]","trial_type":"two-door-navigation","trial_index":31,"time_elapsed":711425,"internal_node_id":"0.0-2.0-29.0"},{"group":"tri cycles (cube, non-group)","room_assignment":["purple","green","yellow","pink","blue","grey","brown","red"],"door_color_assignment":["black","white"],"door_generator_assignment":[1,0],"goal":1,"start":3,"action_noise":0.1,"location_history":"[3,7,6,5,2,1]","action_history":"[1,0,1,0,0]","door_history":"[0,1,0,1,1]","location_rts":"[4703,2551,2491,1255,2343]","trial_type":"two-door-navigation","trial_index":32,"time_elapsed":733484,"internal_node_id":"0.0-2.0-30.0"},{"group":"tri cycles (cube, non-group)","room_assignment":["purple","green","yellow","pink","blue","grey","brown","red"],"door_color_assignment":["black","white"],"door_generator_assignment":[1,0],"goal":4,"start":1,"action_noise":0.1,"location_history":"[1,0,3,4]","action_history":"[0,1,1]","door_history":"[1,0,0]","location_rts":"[2982,5638,484]","trial_type":"two-door-navigation","trial_index":33,"time_elapsed":749209,"internal_node_id":"0.0-2.0-31.0"},{"group":"tri cycles (cube, non-group)","room_assignment":["purple","green","yellow","pink","blue","grey","brown","red"],"door_color_assignment":["black","white"],"door_generator_assignment":[1,0],"goal":3,"start":4,"action_noise":0.1,"location_history":"[4,0,3]","action_history":"[1,1]","door_history":"[0,0]","location_rts":"[4852,320]","trial_type":"two-door-navigation","trial_index":34,"time_elapsed":759970,"internal_node_id":"0.0-2.0-32.0"},{"group":"tri cycles (cube, non-group)","room_assignment":["purple","green","yellow","pink","blue","grey","brown","red"],"door_color_assignment":["black","white"],"door_generator_assignment":[1,0],"goal":6,"start":3,"action_noise":0.1,"location_history":"[3,7,6]","action_history":"[0,0]","door_history":"[1,1]","location_rts":"[2778,632]","trial_type":"two-door-navigation","trial_index":35,"time_elapsed":768972,"internal_node_id":"0.0-2.0-33.0"},{"group":"tri cycles (cube, non-group)","room_assignment":["purple","green","yellow","pink","blue","grey","brown","red"],"door_color_assignment":["black","white"],"door_generator_assignment":[1,0],"goal":0,"start":6,"action_noise":0.1,"location_history":"[6,4,0]","action_history":"[0,1]","door_history":"[1,0]","location_rts":"[4157,748]","trial_type":"two-door-navigation","trial_index":36,"time_elapsed":779456,"internal_node_id":"0.0-2.0-34.0"},{"group":"tri cycles (cube, non-group)","room_assignment":["purple","green","yellow","pink","blue","grey","brown","red"],"door_color_assignment":["black","white"],"door_generator_assignment":[1,0],"goal":1,"start":0,"action_noise":0.1,"location_history":"[0,2,1]","action_history":"[0,0]","door_history":"[1,1]","location_rts":"[1689,1017]","trial_type":"two-door-navigation","trial_index":37,"time_elapsed":787735,"internal_node_id":"0.0-2.0-35.0"},{"group":"tri cycles (cube, non-group)","room_assignment":["purple","green","yellow","pink","blue","grey","brown","red"],"door_color_assignment":["black","white"],"door_generator_assignment":[1,0],"goal":5,"start":1,"action_noise":0.1,"location_history":"[1,5]","action_history":"[1]","door_history":"[0]","location_rts":"[3096]","trial_type":"two-door-navigation","trial_index":38,"time_elapsed":795362,"internal_node_id":"0.0-2.0-36.0"},{"group":"tri cycles (cube, non-group)","room_assignment":["purple","green","yellow","pink","blue","grey","brown","red"],"door_color_assignment":["black","white"],"door_generator_assignment":[1,0],"goal":7,"start":5,"action_noise":0.1,"location_history":"[5,1,0,2,1,5,2,6,4,7]","action_history":"[0,0,0,0,1,1,1,0,0]","door_history":"[1,1,1,1,0,0,0,1,1]","location_rts":"[3155,1492,938,5322,1985,881,2508,1282,743]","trial_type":"two-door-navigation","trial_index":39,"time_elapsed":826488,"internal_node_id":"0.0-2.0-37.0"},{"group":"tri cycles (cube, non-group)","room_assignment":["purple","green","yellow","pink","blue","grey","brown","red"],"door_color_assignment":["black","white"],"door_generator_assignment":[1,0],"goal":2,"start":7,"action_noise":0.1,"location_history":"[7,3,4,0,2]","action_history":"[1,1,1,0]","door_history":"[0,0,0,1]","location_rts":"[5723,1558,2624,446]","trial_type":"two-door-navigation","trial_index":40,"time_elapsed":844489,"internal_node_id":"0.0-2.0-38.0"},{"group":"tri cycles (cube, non-group)","room_assignment":["purple","green","yellow","pink","blue","grey","brown","red"],"door_color_assignment":["black","white"],"door_generator_assignment":[1,0],"goal":1,"start":2,"action_noise":0.1,"location_history":"[2,1]","action_history":"[0]","door_history":"[1]","location_rts":"[4465]","trial_type":"two-door-navigation","trial_index":41,"time_elapsed":853504,"internal_node_id":"0.0-2.0-39.0"},{"group":"tri cycles (cube, non-group)","room_assignment":["purple","green","yellow","pink","blue","grey","brown","red"],"door_color_assignment":["black","white"],"door_generator_assignment":[1,0],"goal":3,"start":1,"action_noise":0.1,"location_history":"[1,0,3]","action_history":"[0,1]","door_history":"[1,0]","location_rts":"[4658,576]","trial_type":"two-door-navigation","trial_index":42,"time_elapsed":864330,"internal_node_id":"0.0-2.0-40.0"},{"group":"tri cycles (cube, non-group)","room_assignment":["purple","green","yellow","pink","blue","grey","brown","red"],"door_color_assignment":["black","white"],"door_generator_assignment":[1,0],"goal":4,"start":3,"action_noise":0.1,"location_history":"[3,4]","action_history":"[1]","door_history":"[0]","location_rts":"[4568]","trial_type":"two-door-navigation","trial_index":43,"time_elapsed":873444,"internal_node_id":"0.0-2.0-41.0"},{"group":"tri cycles (cube, non-group)","room_assignment":["purple","green","yellow","pink","blue","grey","brown","red"],"door_color_assignment":["black","white"],"door_generator_assignment":[1,0],"goal":2,"start":4,"action_noise":0.1,"location_history":"[4,7,6,4,7,6,4,7,6,5,2]","action_history":"[0,1,0,1,0,0,0,0,1,1]","door_history":"[1,0,1,0,1,1,1,1,0,0]","location_rts":"[1818,1591,1755,4741,1733,1226,751,1830,791,3868]","trial_type":"two-door-navigation","trial_index":44,"time_elapsed":907414,"internal_node_id":"0.0-2.0-42.0"},{"group":"tri cycles (cube, non-group)","room_assignment":["purple","green","yellow","pink","blue","grey","brown","red"],"door_color_assignment":["black","white"],"door_generator_assignment":[1,0],"goal":5,"start":2,"action_noise":0.1,"location_history":"[2,1,5]","action_history":"[0,1]","door_history":"[1,0]","location_rts":"[5835,432]","trial_type":"two-door-navigation","trial_index":45,"time_elapsed":919260,"internal_node_id":"0.0-2.0-43.0"},{"group":"tri cycles (cube, non-group)","room_assignment":["purple","green","yellow","pink","blue","grey","brown","red"],"door_color_assignment":["black","white"],"door_generator_assignment":[1,0],"goal":0,"start":5,"action_noise":0.1,"location_history":"[5,2,6,5,2,1,0]","action_history":"[1,1,0,1,0,0]","door_history":"[0,0,1,0,1,1]","location_rts":"[5812,1802,1812,552,557,1117]","trial_type":"two-door-navigation","trial_index":46,"time_elapsed":941360,"internal_node_id":"0.0-2.0-44.0"},{"group":"tri cycles (cube, non-group)","room_assignment":["purple","green","yellow","pink","blue","grey","brown","red"],"door_color_assignment":["black","white"],"door_generator_assignment":[1,0],"goal":7,"start":0,"action_noise":0.1,"location_history":"[0,2,1,0,3,7]","action_history":"[0,0,0,1,0]","door_history":"[1,1,1,0,1]","location_rts":"[5089,557,1602,1088,660]","trial_type":"two-door-navigation","trial_index":47,"time_elapsed":959053,"internal_node_id":"0.0-2.0-45.0"},{"group":"tri cycles (cube, non-group)","room_assignment":["purple","green","yellow","pink","blue","grey","brown","red"],"door_color_assignment":["black","white"],"door_generator_assignment":[1,0],"goal":6,"start":7,"action_noise":0.1,"location_history":"[7,6]","action_history":"[0]","door_history":"[1]","location_rts":"[2714]","trial_type":"two-door-navigation","trial_index":48,"time_elapsed":966595,"internal_node_id":"0.0-2.0-46.0"},{"group":"tri cycles (cube, non-group)","room_assignment":["purple","green","yellow","pink","blue","grey","brown","red"],"door_color_assignment":["black","white"],"door_generator_assignment":[1,0],"goal":2,"start":6,"action_noise":0.1,"location_history":"[6,5,2]","action_history":"[0,1]","door_history":"[1,0]","location_rts":"[14911,3462]","trial_type":"two-door-navigation","trial_index":49,"time_elapsed":990548,"internal_node_id":"0.0-2.0-47.0"},{"group":"tri cycles (cube, non-group)","room_assignment":["purple","green","yellow","pink","blue","grey","brown","red"],"door_color_assignment":["black","white"],"door_generator_assignment":[1,0],"goal":5,"start":2,"action_noise":0.1,"location_history":"[2,1,5]","action_history":"[0,1]","door_history":"[1,0]","location_rts":"[4119,500]","trial_type":"two-door-navigation","trial_index":50,"time_elapsed":1000749,"internal_node_id":"0.0-2.0-48.0"},{"group":"tri cycles (cube, non-group)","room_assignment":["purple","green","yellow","pink","blue","grey","brown","red"],"door_color_assignment":["black","white"],"door_generator_assignment":[1,0],"goal":3,"start":5,"action_noise":0.1,"location_history":"[5,2,6,4,0,3]","action_history":"[1,1,0,1,1]","door_history":"[0,0,1,0,0]","location_rts":"[3444,1569,1227,2254,1138]","trial_type":"two-door-navigation","trial_index":51,"time_elapsed":1019075,"internal_node_id":"0.0-2.0-49.0"},{"view_history":"[{\"page_index\":0,\"viewing_time\":1264}]","rt":1265,"trial_type":"instructions","trial_index":52,"time_elapsed":1021343,"internal_node_id":"0.0-3.0"},{"view_history":"[{\"page_index\":0,\"viewing_time\":1549},{\"page_index\":1,\"viewing_time\":1768}]","rt":3318,"trial_type":"instructions","trial_index":53,"time_elapsed":1025662,"internal_node_id":"0.0-4.0"},{"group":"square cycles (cube, non-group)","fractal_assignment":["../images/pnk_blu.png","../images/grn_red.png","../images/gry_blk.png","../images/ylw_slt.png","../images/ylw_pnk.png","../images/blu_wht.png","../images/org_blu.png","../images/cyn_red.png"],"mutagen_generator_assignment":[1,0],"goal":5,"start":7,"action_noise":0.1,"location_history":"[7,6,5]","action_history":"[0,0]","mutagen_history":"[1,1]","location_rts":"[10478,936]","trial_type":"fractal-mutation","trial_index":54,"time_elapsed":1042876,"internal_node_id":"0.0-5.0-0.0"},{"group":"square cycles (cube, non-group)","fractal_assignment":["../images/pnk_blu.png","../images/grn_red.png","../images/gry_blk.png","../images/ylw_slt.png","../images/ylw_pnk.png","../images/blu_wht.png","../images/org_blu.png","../images/cyn_red.png"],"mutagen_generator_assignment":[1,0],"goal":2,"start":5,"action_noise":0.1,"location_history":"[5,1,2]","action_history":"[1,0]","mutagen_history":"[0,1]","location_rts":"[9845,634]","trial_type":"fractal-mutation","trial_index":55,"time_elapsed":1059094,"internal_node_id":"0.0-5.0-1.0"},{"group":"square cycles (cube, non-group)","fractal_assignment":["../images/pnk_blu.png","../images/grn_red.png","../images/gry_blk.png","../images/ylw_slt.png","../images/ylw_pnk.png","../images/blu_wht.png","../images/org_blu.png","../images/cyn_red.png"],"mutagen_generator_assignment":[1,0],"goal":0,"start":2,"action_noise":0.1,"location_history":"[2,6,7,3,0]","action_history":"[1,1,1,0]","mutagen_history":"[0,0,0,1]","location_rts":"[5516,818,3465,751]","trial_type":"fractal-mutation","trial_index":56,"time_elapsed":1077541,"internal_node_id":"0.0-5.0-2.0"},{"group":"square cycles (cube, non-group)","fractal_assignment":["../images/pnk_blu.png","../images/grn_red.png","../images/gry_blk.png","../images/ylw_slt.png","../images/ylw_pnk.png","../images/blu_wht.png","../images/org_blu.png","../images/cyn_red.png"],"mutagen_generator_assignment":[1,0],"goal":1,"start":0,"action_noise":0.1,"location_history":"[0,1]","action_history":"[0]","mutagen_history":"[1]","location_rts":"[3021]","trial_type":"fractal-mutation","trial_index":57,"time_elapsed":1085198,"internal_node_id":"0.0-5.0-3.0"},{"group":"square cycles (cube, non-group)","fractal_assignment":["../images/pnk_blu.png","../images/grn_red.png","../images/gry_blk.png","../images/ylw_slt.png","../images/ylw_pnk.png","../images/blu_wht.png","../images/org_blu.png","../images/cyn_red.png"],"mutagen_generator_assignment":[1,0],"goal":6,"start":1,"action_noise":0.1,"location_history":"[1,2,6]","action_history":"[0,1]","mutagen_history":"[1,0]","location_rts":"[2906,398]","trial_type":"fractal-mutation","trial_index":58,"time_elapsed":1094231,"internal_node_id":"0.0-5.0-4.0"},{"group":"square cycles (cube, non-group)","fractal_assignment":["../images/pnk_blu.png","../images/grn_red.png","../images/gry_blk.png","../images/ylw_slt.png","../images/ylw_pnk.png","../images/blu_wht.png","../images/org_blu.png","../images/cyn_red.png"],"mutagen_generator_assignment":[1,0],"goal":3,"start":6,"action_noise":0.1,"location_history":"[6,5,4,7,6,7,6,7,3]","action_history":"[0,0,0,1,1,0,1,1]","mutagen_history":"[1,1,1,0,0,1,0,0]","location_rts":"[3209,2327,1986,723,3315,759,908,833]","trial_type":"fractal-mutation","trial_index":59,"time_elapsed":1120793,"internal_node_id":"0.0-5.0-5.0"},{"group":"square cycles (cube, non-group)","fractal_assignment":["../images/pnk_blu.png","../images/grn_red.png","../images/gry_blk.png","../images/ylw_slt.png","../images/ylw_pnk.png","../images/blu_wht.png","../images/org_blu.png","../images/cyn_red.png"],"mutagen_generator_assignment":[1,0],"goal":4,"start":3,"action_noise":0.1,"location_history":"[3,0,4]","action_history":"[0,1]","mutagen_history":"[1,0]","location_rts":"[4163,710]","trial_type":"fractal-mutation","trial_index":60,"time_elapsed":1131411,"internal_node_id":"0.0-5.0-6.0"},{"group":"square cycles (cube, non-group)","fractal_assignment":["../images/pnk_blu.png","../images/grn_red.png","../images/gry_blk.png","../images/ylw_slt.png","../images/ylw_pnk.png","../images/blu_wht.png","../images/org_blu.png","../images/cyn_red.png"],"mutagen_generator_assignment":[1,0],"goal":1,"start":4,"action_noise":0.1,"location_history":"[4,5,4,5,1]","action_history":"[1,1,1,1]","mutagen_history":"[0,0,0,0]","location_rts":"[3940,3434,1334,631]","trial_type":"fractal-mutation","trial_index":61,"time_elapsed":1148632,"internal_node_id":"0.0-5.0-7.0"},{"group":"square cycles (cube, non-group)","fractal_assignment":["../images/pnk_blu.png","../images/grn_red.png","../images/gry_blk.png","../images/ylw_slt.png","../images/ylw_pnk.png","../images/blu_wht.png","../images/org_blu.png","../images/cyn_red.png"],"mutagen_generator_assignment":[1,0],"goal":4,"start":1,"action_noise":0.1,"location_history":"[1,0,4]","action_history":"[1,1]","mutagen_history":"[0,0]","location_rts":"[4604,752]","trial_type":"fractal-mutation","trial_index":62,"time_elapsed":1159692,"internal_node_id":"0.0-5.0-8.0"},{"group":"square cycles (cube, non-group)","fractal_assignment":["../images/pnk_blu.png","../images/grn_red.png","../images/gry_blk.png","../images/ylw_slt.png","../images/ylw_pnk.png","../images/blu_wht.png","../images/org_blu.png","../images/cyn_red.png"],"mutagen_generator_assignment":[1,0],"goal":5,"start":4,"action_noise":0.1,"location_history":"[4,5]","action_history":"[1]","mutagen_history":"[0]","location_rts":"[3418]","trial_type":"fractal-mutation","trial_index":63,"time_elapsed":1167708,"internal_node_id":"0.0-5.0-9.0"},{"group":"square cycles (cube, non-group)","fractal_assignment":["../images/pnk_blu.png","../images/grn_red.png","../images/gry_blk.png","../images/ylw_slt.png","../images/ylw_pnk.png","../images/blu_wht.png","../images/org_blu.png","../images/cyn_red.png"],"mutagen_generator_assignment":[1,0],"goal":3,"start":5,"action_noise":0.1,"location_history":"[5,4,7,6,7,3]","action_history":"[0,0,1,1,1]","mutagen_history":"[1,1,0,0,0]","location_rts":"[11713,2236,685,2502,605]","trial_type":"fractal-mutation","trial_index":64,"time_elapsed":1194515,"internal_node_id":"0.0-5.0-10.0"},{"group":"square cycles (cube, non-group)","fractal_assignment":["../images/pnk_blu.png","../images/grn_red.png","../images/gry_blk.png","../images/ylw_slt.png","../images/ylw_pnk.png","../images/blu_wht.png","../images/org_blu.png","../images/cyn_red.png"],"mutagen_generator_assignment":[1,0],"goal":6,"start":3,"action_noise":0.1,"location_history":"[3,0,4,7,6]","action_history":"[0,0,1,0]","mutagen_history":"[1,1,0,1]","location_rts":"[3562,176,3447,3916]","trial_type":"fractal-mutation","trial_index":65,"time_elapsed":1213601,"internal_node_id":"0.0-5.0-11.0"},{"group":"square cycles (cube, non-group)","fractal_assignment":["../images/pnk_blu.png","../images/grn_red.png","../images/gry_blk.png","../images/ylw_slt.png","../images/ylw_pnk.png","../images/blu_wht.png","../images/org_blu.png","../images/cyn_red.png"],"mutagen_generator_assignment":[1,0],"goal":7,"start":6,"action_noise":0.1,"location_history":"[6,7]","action_history":"[1]","mutagen_history":"[0]","location_rts":"[4708]","trial_type":"fractal-mutation","trial_index":66,"time_elapsed":1222912,"internal_node_id":"0.0-5.0-12.0"},{"group":"square cycles (cube, non-group)","fractal_assignment":["../images/pnk_blu.png","../images/grn_red.png","../images/gry_blk.png","../images/ylw_slt.png","../images/ylw_pnk.png","../images/blu_wht.png","../images/org_blu.png","../images/cyn_red.png"],"mutagen_generator_assignment":[1,0],"goal":0,"start":7,"action_noise":0.1,"location_history":"[7,3,0]","action_history":"[0,0]","mutagen_history":"[1,1]","location_rts":"[3481,448]","trial_type":"fractal-mutation","trial_index":67,"time_elapsed":1232630,"internal_node_id":"0.0-5.0-13.0"},{"group":"square cycles (cube, non-group)","fractal_assignment":["../images/pnk_blu.png","../images/grn_red.png","../images/gry_blk.png","../images/ylw_slt.png","../images/ylw_pnk.png","../images/blu_wht.png","../images/org_blu.png","../images/cyn_red.png"],"mutagen_generator_assignment":[1,0],"goal":2,"start":0,"action_noise":0.1,"location_history":"[0,1,2]","action_history":"[0,0]","mutagen_history":"[1,1]","location_rts":"[4510,726]","trial_type":"fractal-mutation","trial_index":68,"time_elapsed":1243647,"internal_node_id":"0.0-5.0-14.0"},{"group":"square cycles (cube, non-group)","fractal_assignment":["../images/pnk_blu.png","../images/grn_red.png","../images/gry_blk.png","../images/ylw_slt.png","../images/ylw_pnk.png","../images/blu_wht.png","../images/org_blu.png","../images/cyn_red.png"],"mutagen_generator_assignment":[1,0],"goal":1,"start":2,"action_noise":0.1,"location_history":"[2,6,7,3,2,3,0,1]","action_history":"[1,1,1,0,0,0,0]","mutagen_history":"[0,0,0,1,1,1,1]","location_rts":"[3436,851,1439,2876,1309,2526,1202]","trial_type":"fractal-mutation","trial_index":69,"time_elapsed":1268596,"internal_node_id":"0.0-5.0-15.0"},{"group":"square cycles (cube, non-group)","fractal_assignment":["../images/pnk_blu.png","../images/grn_red.png","../images/gry_blk.png","../images/ylw_slt.png","../images/ylw_pnk.png","../images/blu_wht.png","../images/org_blu.png","../images/cyn_red.png"],"mutagen_generator_assignment":[1,0],"goal":6,"start":1,"action_noise":0.1,"location_history":"[1,2,6]","action_history":"[0,1]","mutagen_history":"[1,0]","location_rts":"[4037,363]","trial_type":"fractal-mutation","trial_index":70,"time_elapsed":1278737,"internal_node_id":"0.0-5.0-16.0"},{"group":"square cycles (cube, non-group)","fractal_assignment":["../images/pnk_blu.png","../images/grn_red.png","../images/gry_blk.png","../images/ylw_slt.png","../images/ylw_pnk.png","../images/blu_wht.png","../images/org_blu.png","../images/cyn_red.png"],"mutagen_generator_assignment":[1,0],"goal":3,"start":6,"action_noise":0.1,"location_history":"[6,5,1,2,3]","action_history":"[0,1,0,0]","mutagen_history":"[1,0,1,1]","location_rts":"[3200,2436,1309,1191]","trial_type":"fractal-mutation","trial_index":71,"time_elapsed":1294870,"internal_node_id":"0.0-5.0-17.0"},{"group":"square cycles (cube, non-group)","fractal_assignment":["../images/pnk_blu.png","../images/grn_red.png","../images/gry_blk.png","../images/ylw_slt.png","../images/ylw_pnk.png","../images/blu_wht.png","../images/org_blu.png","../images/cyn_red.png"],"mutagen_generator_assignment":[1,0],"goal":4,"start":3,"action_noise":0.1,"location_history":"[3,0,4]","action_history":"[0,1]","mutagen_history":"[1,0]","location_rts":"[4620,12]","trial_type":"fractal-mutation","trial_index":72,"time_elapsed":1305242,"internal_node_id":"0.0-5.0-18.0"},{"group":"square cycles (cube, non-group)","fractal_assignment":["../images/pnk_blu.png","../images/grn_red.png","../images/gry_blk.png","../images/ylw_slt.png","../images/ylw_pnk.png","../images/blu_wht.png","../images/org_blu.png","../images/cyn_red.png"],"mutagen_generator_assignment":[1,0],"goal":5,"start":4,"action_noise":0.1,"location_history":"[4,5]","action_history":"[1]","mutagen_history":"[0]","location_rts":"[2552]","trial_type":"fractal-mutation","trial_index":73,"time_elapsed":1312411,"internal_node_id":"0.0-5.0-19.0"},{"group":"square cycles (cube, non-group)","fractal_assignment":["../images/pnk_blu.png","../images/grn_red.png","../images/gry_blk.png","../images/ylw_slt.png","../images/ylw_pnk.png","../images/blu_wht.png","../images/org_blu.png","../images/cyn_red.png"],"mutagen_generator_assignment":[1,0],"goal":7,"start":5,"action_noise":0.1,"location_history":"[5,1,2,3,0,4,5,4,5,1,2,3,0,1,2,3,2,6,5,4,5,1,2,3,0,1,0,4,7]","action_history":"[1,0,0,0,1,1,0,1,1,1,0,0,0,0,0,1,1,0,1,1,1,1,0,0,0,1,1,0]","mutagen_history":"[0,1,1,1,0,0,1,0,0,0,1,1,1,1,1,0,0,1,0,0,0,0,1,1,1,0,0,1]","location_rts":"[7750,1219,1216,794,2808,920,1107,638,630,1094,1107,973,2465,780,811,1904,557,830,1164,880,10615,19339,2307,1774,468,2536,1589,601]","trial_type":"fractal-mutation","trial_index":74,"time_elapsed":1415900,"internal_node_id":"0.0-5.0-20.0"},{"group":"square cycles (cube, non-group)","fractal_assignment":["../images/pnk_blu.png","../images/grn_red.png","../images/gry_blk.png","../images/ylw_slt.png","../images/ylw_pnk.png","../images/blu_wht.png","../images/org_blu.png","../images/cyn_red.png"],"mutagen_generator_assignment":[1,0],"goal":2,"start":7,"action_noise":0.1,"location_history":"[7,3,0,4,5,4,7,3,2]","action_history":"[1,1,1,1,0,0,1,1]","mutagen_history":"[0,0,0,0,1,1,0,0]","location_rts":"[8866,3362,2849,882,4251,1878,3960,2580]","trial_type":"fractal-mutation","trial_index":75,"time_elapsed":1456836,"internal_node_id":"0.0-5.0-21.0"},{"group":"square cycles (cube, non-group)","fractal_assignment":["../images/pnk_blu.png","../images/grn_red.png","../images/gry_blk.png","../images/ylw_slt.png","../images/ylw_pnk.png","../images/blu_wht.png","../images/org_blu.png","../images/cyn_red.png"],"mutagen_generator_assignment":[1,0],"goal":0,"start":2,"action_noise":0.1,"location_history":"[2,6,5,1,0]","action_history":"[1,0,1,1]","mutagen_history":"[0,1,0,0]","location_rts":"[5532,33156,1387,2320]","trial_type":"fractal-mutation","trial_index":76,"time_elapsed":1507129,"internal_node_id":"0.0-5.0-22.0"},{"group":"square cycles (cube, non-group)","fractal_assignment":["../images/pnk_blu.png","../images/grn_red.png","../images/gry_blk.png","../images/ylw_slt.png","../images/ylw_pnk.png","../images/blu_wht.png","../images/org_blu.png","../images/cyn_red.png"],"mutagen_generator_assignment":[1,0],"goal":7,"start":0,"action_noise":0.1,"location_history":"[0,1,2,3,0,4,7]","action_history":"[0,1,0,0,1,0]","mutagen_history":"[1,0,1,1,0,1]","location_rts":"[16558,952,3410,3072,4152,466]","trial_type":"fractal-mutation","trial_index":77,"time_elapsed":1545922,"internal_node_id":"0.0-5.0-23.0"},{"group":"square cycles (cube, non-group)","fractal_assignment":["../images/pnk_blu.png","../images/grn_red.png","../images/gry_blk.png","../images/ylw_slt.png","../images/ylw_pnk.png","../images/blu_wht.png","../images/org_blu.png","../images/cyn_red.png"],"mutagen_generator_assignment":[1,0],"goal":5,"start":7,"action_noise":0.1,"location_history":"[7,3,0,1,2,6,7,3,0,1,0,4,5]","action_history":"[1,1,0,0,1,0,1,0,0,1,1,1]","mutagen_history":"[0,0,1,1,0,1,0,1,1,0,0,0]","location_rts":"[17044,1631,2210,596,488,2005,2900,3393,726,4435,1994,447]","trial_type":"fractal-mutation","trial_index":78,"time_elapsed":1600558,"internal_node_id":"0.0-5.0-24.0"},{"group":"square cycles (cube, non-group)","fractal_assignment":["../images/pnk_blu.png","../images/grn_red.png","../images/gry_blk.png","../images/ylw_slt.png","../images/ylw_pnk.png","../images/blu_wht.png","../images/org_blu.png","../images/cyn_red.png"],"mutagen_generator_assignment":[1,0],"goal":0,"start":5,"action_noise":0.1,"location_history":"[5,1,0]","action_history":"[1,1]","mutagen_history":"[0,0]","location_rts":"[7796,676]","trial_type":"fractal-mutation","trial_index":79,"time_elapsed":1614719,"internal_node_id":"0.0-5.0-25.0"},{"group":"square cycles (cube, non-group)","fractal_assignment":["../images/pnk_blu.png","../images/grn_red.png","../images/gry_blk.png","../images/ylw_slt.png","../images/ylw_pnk.png","../images/blu_wht.png","../images/org_blu.png","../images/cyn_red.png"],"mutagen_generator_assignment":[1,0],"goal":6,"start":0,"action_noise":0.1,"location_history":"[0,4,7,3,2,6]","action_history":"[1,0,1,1,1]","mutagen_history":"[0,1,0,0,0]","location_rts":"[5156,1511,589,3639,532]","trial_type":"fractal-mutation","trial_index":80,"time_elapsed":1635137,"internal_node_id":"0.0-5.0-26.0"},{"group":"square cycles (cube, non-group)","fractal_assignment":["../images/pnk_blu.png","../images/grn_red.png","../images/gry_blk.png","../images/ylw_slt.png","../images/ylw_pnk.png","../images/blu_wht.png","../images/org_blu.png","../images/cyn_red.png"],"mutagen_generator_assignment":[1,0],"goal":4,"start":6,"action_noise":0.1,"location_history":"[6,5,4]","action_history":"[0,0]","mutagen_history":"[1,1]","location_rts":"[3645,3099]","trial_type":"fractal-mutation","trial_index":81,"time_elapsed":1647676,"internal_node_id":"0.0-5.0-27.0"},{"group":"square cycles (cube, non-group)","fractal_assignment":["../images/pnk_blu.png","../images/grn_red.png","../images/gry_blk.png","../images/ylw_slt.png","../images/ylw_pnk.png","../images/blu_wht.png","../images/org_blu.png","../images/cyn_red.png"],"mutagen_generator_assignment":[1,0],"goal":2,"start":4,"action_noise":0.1,"location_history":"[4,5,1,2]","action_history":"[0,1,0]","mutagen_history":"[1,0,1]","location_rts":"[8694,2476,1688]","trial_type":"fractal-mutation","trial_index":82,"time_elapsed":1667382,"internal_node_id":"0.0-5.0-28.0"},{"group":"square cycles (cube, non-group)","fractal_assignment":["../images/pnk_blu.png","../images/grn_red.png","../images/gry_blk.png","../images/ylw_slt.png","../images/ylw_pnk.png","../images/blu_wht.png","../images/org_blu.png","../images/cyn_red.png"],"mutagen_generator_assignment":[1,0],"goal":3,"start":2,"action_noise":0.1,"location_history":"[2,3]","action_history":"[0]","mutagen_history":"[1]","location_rts":"[4346]","trial_type":"fractal-mutation","trial_index":83,"time_elapsed":1676375,"internal_node_id":"0.0-5.0-29.0"},{"group":"square cycles (cube, non-group)","fractal_assignment":["../images/pnk_blu.png","../images/grn_red.png","../images/gry_blk.png","../images/ylw_slt.png","../images/ylw_pnk.png","../images/blu_wht.png","../images/org_blu.png","../images/cyn_red.png"],"mutagen_generator_assignment":[1,0],"goal":1,"start":3,"action_noise":0.1,"location_history":"[3,0,1]","action_history":"[0,0]","mutagen_history":"[1,1]","location_rts":"[3848,600]","trial_type":"fractal-mutation","trial_index":84,"time_elapsed":1686591,"internal_node_id":"0.0-5.0-30.0"},{"group":"square cycles (cube, non-group)","fractal_assignment":["../images/pnk_blu.png","../images/grn_red.png","../images/gry_blk.png","../images/ylw_slt.png","../images/ylw_pnk.png","../images/blu_wht.png","../images/org_blu.png","../images/cyn_red.png"],"mutagen_generator_assignment":[1,0],"goal":4,"start":1,"action_noise":0.1,"location_history":"[1,2,6,5,4]","action_history":"[0,1,0,0]","mutagen_history":"[1,0,1,1]","location_rts":"[2313,4382,1757,1476]","trial_type":"fractal-mutation","trial_index":85,"time_elapsed":1704516,"internal_node_id":"0.0-5.0-31.0"},{"group":"square cycles (cube, non-group)","fractal_assignment":["../images/pnk_blu.png","../images/grn_red.png","../images/gry_blk.png","../images/ylw_slt.png","../images/ylw_pnk.png","../images/blu_wht.png","../images/org_blu.png","../images/cyn_red.png"],"mutagen_generator_assignment":[1,0],"goal":3,"start":4,"action_noise":0.1,"location_history":"[4,7,3]","action_history":"[0,1]","mutagen_history":"[1,0]","location_rts":"[4140,1004]","trial_type":"fractal-mutation","trial_index":86,"time_elapsed":1715401,"internal_node_id":"0.0-5.0-32.0"},{"group":"square cycles (cube, non-group)","fractal_assignment":["../images/pnk_blu.png","../images/grn_red.png","../images/gry_blk.png","../images/ylw_slt.png","../images/ylw_pnk.png","../images/blu_wht.png","../images/org_blu.png","../images/cyn_red.png"],"mutagen_generator_assignment":[1,0],"goal":6,"start":3,"action_noise":0.1,"location_history":"[3,2,3,2,6]","action_history":"[1,0,1,1]","mutagen_history":"[0,1,0,0]","location_rts":"[6113,967,1166,1298]","trial_type":"fractal-mutation","trial_index":87,"time_elapsed":1732857,"internal_node_id":"0.0-5.0-33.0"},{"group":"square cycles (cube, non-group)","fractal_assignment":["../images/pnk_blu.png","../images/grn_red.png","../images/gry_blk.png","../images/ylw_slt.png","../images/ylw_pnk.png","../images/blu_wht.png","../images/org_blu.png","../images/cyn_red.png"],"mutagen_generator_assignment":[1,0],"goal":0,"start":6,"action_noise":0.1,"location_history":"[6,7,3,0]","action_history":"[1,1,0]","mutagen_history":"[0,0,1]","location_rts":"[7465,2082,712]","trial_type":"fractal-mutation","trial_index":88,"time_elapsed":1749945,"internal_node_id":"0.0-5.0-34.0"},{"group":"square cycles (cube, non-group)","fractal_assignment":["../images/pnk_blu.png","../images/grn_red.png","../images/gry_blk.png","../images/ylw_slt.png","../images/ylw_pnk.png","../images/blu_wht.png","../images/org_blu.png","../images/cyn_red.png"],"mutagen_generator_assignment":[1,0],"goal":1,"start":0,"action_noise":0.1,"location_history":"[0,1]","action_history":"[0]","mutagen_history":"[1]","location_rts":"[3134]","trial_type":"fractal-mutation","trial_index":89,"time_elapsed":1757712,"internal_node_id":"0.0-5.0-35.0"},{"group":"square cycles (cube, non-group)","fractal_assignment":["../images/pnk_blu.png","../images/grn_red.png","../images/gry_blk.png","../images/ylw_slt.png","../images/ylw_pnk.png","../images/blu_wht.png","../images/org_blu.png","../images/cyn_red.png"],"mutagen_generator_assignment":[1,0],"goal":5,"start":1,"action_noise":0.1,"location_history":"[1,0,4,5]","action_history":"[1,1,1]","mutagen_history":"[0,0,0]","location_rts":"[6222,3408,798]","trial_type":"fractal-mutation","trial_index":90,"time_elapsed":1774924,"internal_node_id":"0.0-5.0-36.0"},{"group":"square cycles (cube, non-group)","fractal_assignment":["../images/pnk_blu.png","../images/grn_red.png","../images/gry_blk.png","../images/ylw_slt.png","../images/ylw_pnk.png","../images/blu_wht.png","../images/org_blu.png","../images/cyn_red.png"],"mutagen_generator_assignment":[1,0],"goal":7,"start":5,"action_noise":0.1,"location_history":"[5,1,2,3,0,4,7]","action_history":"[1,0,0,0,1,0]","mutagen_history":"[0,1,1,1,0,1]","location_rts":"[3289,3177,5425,2734,935,1292]","trial_type":"fractal-mutation","trial_index":91,"time_elapsed":1801984,"internal_node_id":"0.0-5.0-37.0"},{"group":"square cycles (cube, non-group)","fractal_assignment":["../images/pnk_blu.png","../images/grn_red.png","../images/gry_blk.png","../images/ylw_slt.png","../images/ylw_pnk.png","../images/blu_wht.png","../images/org_blu.png","../images/cyn_red.png"],"mutagen_generator_assignment":[1,0],"goal":2,"start":7,"action_noise":0.1,"location_history":"[7,3,2]","action_history":"[1,1]","mutagen_history":"[0,0]","location_rts":"[3256,2615]","trial_type":"fractal-mutation","trial_index":92,"time_elapsed":1813556,"internal_node_id":"0.0-5.0-38.0"},{"group":"square cycles (cube, non-group)","fractal_assignment":["../images/pnk_blu.png","../images/grn_red.png","../images/gry_blk.png","../images/ylw_slt.png","../images/ylw_pnk.png","../images/blu_wht.png","../images/org_blu.png","../images/cyn_red.png"],"mutagen_generator_assignment":[1,0],"goal":1,"start":2,"action_noise":0.1,"location_history":"[2,6,5,1]","action_history":"[0,0,1]","mutagen_history":"[1,1,0]","location_rts":"[3802,1592,4548]","trial_type":"fractal-mutation","trial_index":93,"time_elapsed":1830360,"internal_node_id":"0.0-5.0-39.0"},{"group":"square cycles (cube, non-group)","fractal_assignment":["../images/pnk_blu.png","../images/grn_red.png","../images/gry_blk.png","../images/ylw_slt.png","../images/ylw_pnk.png","../images/blu_wht.png","../images/org_blu.png","../images/cyn_red.png"],"mutagen_generator_assignment":[1,0],"goal":3,"start":1,"action_noise":0.1,"location_history":"[1,2,3]","action_history":"[0,0]","mutagen_history":"[1,1]","location_rts":"[3421,822]","trial_type":"fractal-mutation","trial_index":94,"time_elapsed":1840358,"internal_node_id":"0.0-5.0-40.0"},{"group":"square cycles (cube, non-group)","fractal_assignment":["../images/pnk_blu.png","../images/grn_red.png","../images/gry_blk.png","../images/ylw_slt.png","../images/ylw_pnk.png","../images/blu_wht.png","../images/org_blu.png","../images/cyn_red.png"],"mutagen_generator_assignment":[1,0],"goal":4,"start":3,"action_noise":0.1,"location_history":"[3,0,4]","action_history":"[0,1]","mutagen_history":"[1,0]","location_rts":"[77887,1686]","trial_type":"fractal-mutation","trial_index":95,"time_elapsed":1925664,"internal_node_id":"0.0-5.0-41.0"},{"group":"square cycles (cube, non-group)","fractal_assignment":["../images/pnk_blu.png","../images/grn_red.png","../images/gry_blk.png","../images/ylw_slt.png","../images/ylw_pnk.png","../images/blu_wht.png","../images/org_blu.png","../images/cyn_red.png"],"mutagen_generator_assignment":[1,0],"goal":2,"start":4,"action_noise":0.1,"location_history":"[4,5,4,7,6,5,1,0,1,2]","action_history":"[1,0,0,0,0,1,1,0,0]","mutagen_history":"[0,1,1,1,1,0,0,1,1]","location_rts":"[9852,5230,34093,3108,1128,960,17502,841,1787]","trial_type":"fractal-mutation","trial_index":96,"time_elapsed":2013723,"internal_node_id":"0.0-5.0-42.0"},{"group":"square cycles (cube, non-group)","fractal_assignment":["../images/pnk_blu.png","../images/grn_red.png","../images/gry_blk.png","../images/ylw_slt.png","../images/ylw_pnk.png","../images/blu_wht.png","../images/org_blu.png","../images/cyn_red.png"],"mutagen_generator_assignment":[1,0],"goal":5,"start":2,"action_noise":0.1,"location_history":"[2,6,5]","action_history":"[1,0]","mutagen_history":"[0,1]","location_rts":"[3349,202]","trial_type":"fractal-mutation","trial_index":97,"time_elapsed":2023005,"internal_node_id":"0.0-5.0-43.0"},{"group":"square cycles (cube, non-group)","fractal_assignment":["../images/pnk_blu.png","../images/grn_red.png","../images/gry_blk.png","../images/ylw_slt.png","../images/ylw_pnk.png","../images/blu_wht.png","../images/org_blu.png","../images/cyn_red.png"],"mutagen_generator_assignment":[1,0],"goal":0,"start":5,"action_noise":0.1,"location_history":"[5,1,0]","action_history":"[1,1]","mutagen_history":"[0,0]","location_rts":"[4259,1194]","trial_type":"fractal-mutation","trial_index":98,"time_elapsed":2034144,"internal_node_id":"0.0-5.0-44.0"},{"group":"square cycles (cube, non-group)","fractal_assignment":["../images/pnk_blu.png","../images/grn_red.png","../images/gry_blk.png","../images/ylw_slt.png","../images/ylw_pnk.png","../images/blu_wht.png","../images/org_blu.png","../images/cyn_red.png"],"mutagen_generator_assignment":[1,0],"goal":7,"start":0,"action_noise":0.1,"location_history":"[0,1,2,3,2,6,7]","action_history":"[0,0,1,1,1,1]","mutagen_history":"[1,1,0,0,0,0]","location_rts":"[3160,561,1684,2777,1148,553]","trial_type":"fractal-mutation","trial_index":99,"time_elapsed":2054136,"internal_node_id":"0.0-5.0-45.0"},{"group":"square cycles (cube, non-group)","fractal_assignment":["../images/pnk_blu.png","../images/grn_red.png","../images/gry_blk.png","../images/ylw_slt.png","../images/ylw_pnk.png","../images/blu_wht.png","../images/org_blu.png","../images/cyn_red.png"],"mutagen_generator_assignment":[1,0],"goal":6,"start":7,"action_noise":0.1,"location_history":"[7,6]","action_history":"[0]","mutagen_history":"[1]","location_rts":"[2817]","trial_type":"fractal-mutation","trial_index":100,"time_elapsed":2061584,"internal_node_id":"0.0-5.0-46.0"},{"group":"square cycles (cube, non-group)","fractal_assignment":["../images/pnk_blu.png","../images/grn_red.png","../images/gry_blk.png","../images/ylw_slt.png","../images/ylw_pnk.png","../images/blu_wht.png","../images/org_blu.png","../images/cyn_red.png"],"mutagen_generator_assignment":[1,0],"goal":2,"start":6,"action_noise":0.1,"location_history":"[6,7,3,0,1,2]","action_history":"[0,1,0,1,0]","mutagen_history":"[1,0,1,0,1]","location_rts":"[17080,1057,995,3456,3561]","trial_type":"fractal-mutation","trial_index":101,"time_elapsed":2096848,"internal_node_id":"0.0-5.0-47.0"},{"group":"square cycles (cube, non-group)","fractal_assignment":["../images/pnk_blu.png","../images/grn_red.png","../images/gry_blk.png","../images/ylw_slt.png","../images/ylw_pnk.png","../images/blu_wht.png","../images/org_blu.png","../images/cyn_red.png"],"mutagen_generator_assignment":[1,0],"goal":5,"start":2,"action_noise":0.1,"location_history":"[2,6,5]","action_history":"[1,0]","mutagen_history":"[0,1]","location_rts":"[7981,644]","trial_type":"fractal-mutation","trial_index":102,"time_elapsed":2111204,"internal_node_id":"0.0-5.0-48.0"},{"group":"square cycles (cube, non-group)","fractal_assignment":["../images/pnk_blu.png","../images/grn_red.png","../images/gry_blk.png","../images/ylw_slt.png","../images/ylw_pnk.png","../images/blu_wht.png","../images/org_blu.png","../images/cyn_red.png"],"mutagen_generator_assignment":[1,0],"goal":3,"start":5,"action_noise":0.1,"location_history":"[5,4,5,4,7,3]","action_history":"[0,1,1,0,1]","mutagen_history":"[1,0,0,1,0]","location_rts":"[3450,1101,4119,3081,3732]","trial_type":"fractal-mutation","trial_index":103,"time_elapsed":2135770,"internal_node_id":"0.0-5.0-49.0"},{"view_history":"[{\"page_index\":0,\"viewing_time\":2875}]","rt":2876,"trial_type":"instructions","trial_index":104,"time_elapsed":2139650,"internal_node_id":"0.0-6.0"},{"rt":20738,"responses":"{\"Q0\":\"how well we learned paths between rooms\"}","trial_type":"survey-text","trial_index":105,"time_elapsed":2161396,"internal_node_id":"0.0-7.0-0.0"},{"rt":47664,"responses":"{\"Q0\":\"if we learned differently when it was keystrokes instead of mouse\"}","trial_type":"survey-text","trial_index":106,"time_elapsed":2210064,"internal_node_id":"0.0-7.0-1.0"},{"rt":41008,"responses":"{\"Q0\":\"<img src='../images/diagrams/tri_cycles.png'>\"}","trial_type":"survey-multi-choice","trial_index":107,"time_elapsed":2252081,"internal_node_id":"0.0-7.0-2.0"},{"rt":227143,"assignments":["../images/grn_red.png","../images/pnk_blu.png","../images/gry_blk.png","../images/ylw_slt.png","../images/blu_wht.png","../images/ylw_pnk.png","../images/org_blu.png","../images/cyn_red.png"],"trial_type":"drag-drop-on-image","trial_index":108,"time_elapsed":2480233,"internal_node_id":"0.0-7.0-3.0"},{"rt":6972,"responses":"{\"Q0\":\"2\"}","trial_type":"survey-likert","trial_index":109,"time_elapsed":2488210,"internal_node_id":"0.0-7.0-4.0"},{"rt":31080,"responses":"{\"Q0\":\"there were some back and forth relationships and others that meandered\"}","trial_type":"survey-text","trial_index":110,"time_elapsed":2520295,"internal_node_id":"0.0-7.0-5.0"},{"rt":4571,"responses":"{\"Q0\":\"No\"}","trial_type":"survey-multi-choice","trial_index":111,"time_elapsed":2525874,"internal_node_id":"0.0-7.0-6.0"},{"rt":6542,"responses":"{\"Q0\":\"During these questions/I wasn't aware until you pointed it out\"}","trial_type":"survey-multi-choice","trial_index":112,"time_elapsed":2533426,"internal_node_id":"0.0-7.0-7.0"},{"rt":6488,"responses":"{\"Q0\":\"i didn't\"}","trial_type":"survey-text","trial_index":113,"time_elapsed":2540918,"internal_node_id":"0.0-7.0-8.0"},{"rt":4020,"responses":"{\"Q0\":\"0\"}","trial_type":"survey-likert","trial_index":114,"time_elapsed":2545943,"internal_node_id":"0.0-7.0-9.0"},{"rt":8709,"responses":"{\"Q0\":\"Same structure\"}","trial_type":"survey-multi-choice","trial_index":115,"time_elapsed":2555657,"internal_node_id":"0.0-7.0-10.0"},{"rt":25028,"responses":"{\"Q0\":\"left (black) door = acid, (white) door = ray\",\"Q1\":\"Not at all confident\"}","trial_type":"survey-multi-choice","trial_index":116,"time_elapsed":2581696,"internal_node_id":"0.0-7.0-11.0"},{"rt":8431,"responses":"{\"Q0\":\"45-55\",\"Q1\":\"Bachelor's degree\",\"Q2\":\"Male\",\"Q3\":\"White\"}","trial_type":"survey-multi-choice","trial_index":117,"time_elapsed":2591145,"internal_node_id":"0.0-8.0"},{"rt":7658,"responses":"{\"Q0\":\"it was very interesting\"}","trial_type":"survey-text","trial_index":118,"time_elapsed":2599805,"internal_node_id":"0.0-9.0"}]