[{"view_history":"[{\"page_index\":0,\"viewing_time\":24945},{\"page_index\":1,\"viewing_time\":120665}]","rt":145611,"trial_type":"instructions","trial_index":0,"time_elapsed":145612,"internal_node_id":"0.0-0.0"},{"view_history":"[{\"page_index\":0,\"viewing_time\":73189},{\"page_index\":1,\"viewing_time\":662421}]","rt":735611,"trial_type":"instructions","trial_index":1,"time_elapsed":882223,"internal_node_id":"0.0-1.0"},{"group":"square cycles (cube, non-group)","room_assignment":["blue","green","yellow","purple","grey","pink","brown","red"],"door_color_assignment":["white","black"],"door_generator_assignment":[0,1],"goal":5,"start":7,"action_noise":0.1,"location_history":"[7,6,5]","action_history":"[0,0]","door_history":"[0,0]","location_rts":"[2514,421]","trial_type":"two-door-navigation","trial_index":2,"time_elapsed":890776,"internal_node_id":"0.0-2.0-0.0"},{"group":"square cycles (cube, non-group)","room_assignment":["blue","green","yellow","purple","grey","pink","brown","red"],"door_color_assignment":["white","black"],"door_generator_assignment":[0,1],"goal":2,"start":5,"action_noise":0.1,"location_history":"[5,1,2]","action_history":"[1,0]","door_history":"[1,0]","location_rts":"[18399,329]","trial_type":"two-door-navigation","trial_index":3,"time_elapsed":915020,"internal_node_id":"0.0-2.0-1.0"},{"group":"square cycles (cube, non-group)","room_assignment":["blue","green","yellow","purple","grey","pink","brown","red"],"door_color_assignment":["white","black"],"door_generator_assignment":[0,1],"goal":0,"start":2,"action_noise":0.1,"location_history":"[2,3,0]","action_history":"[0,0]","door_history":"[0,0]","location_rts":"[27223,380]","trial_type":"two-door-navigation","trial_index":4,"time_elapsed":948146,"internal_node_id":"0.0-2.0-2.0"},{"group":"square cycles (cube, non-group)","room_assignment":["blue","green","yellow","purple","grey","pink","brown","red"],"door_color_assignment":["white","black"],"door_generator_assignment":[0,1],"goal":1,"start":0,"action_noise":0.1,"location_history":"[0,1]","action_history":"[0]","door_history":"[0]","location_rts":"[26958]","trial_type":"two-door-navigation","trial_index":5,"time_elapsed":979616,"internal_node_id":"0.0-2.0-3.0"},{"group":"square cycles (cube, non-group)","room_assignment":["blue","green","yellow","purple","grey","pink","brown","red"],"door_color_assignment":["white","black"],"door_generator_assignment":[0,1],"goal":6,"start":1,"action_noise":0.1,"location_history":"[1,0,4,7,3,0,4,7,6]","action_history":"[1,1,0,0,0,1,0,0]","door_history":"[1,1,0,0,0,1,0,0]","location_rts":"[1600,12683,1020,516,412,804,455,383]","trial_type":"two-door-navigation","trial_index":6,"time_elapsed":1009070,"internal_node_id":"0.0-2.0-4.0"},{"group":"square cycles (cube, non-group)","room_assignment":["blue","green","yellow","purple","grey","pink","brown","red"],"door_color_assignment":["white","black"],"door_generator_assignment":[0,1],"goal":3,"start":6,"action_noise":0.1,"location_history":"[6,5,1,2,3]","action_history":"[0,1,0,0]","door_history":"[0,1,0,0]","location_rts":"[7770,510,428,428]","trial_type":"two-door-navigation","trial_index":7,"time_elapsed":1025748,"internal_node_id":"0.0-2.0-5.0"},{"group":"square cycles (cube, non-group)","room_assignment":["blue","green","yellow","purple","grey","pink","brown","red"],"door_color_assignment":["white","black"],"door_generator_assignment":[0,1],"goal":4,"start":3,"action_noise":0.1,"location_history":"[3,2,3,2,6,5,4]","action_history":"[1,0,1,1,0,0]","door_history":"[1,0,1,1,0,0]","location_rts":"[2309,801,206,1101,594,762]","trial_type":"two-door-navigation","trial_index":8,"time_elapsed":1041072,"internal_node_id":"0.0-2.0-6.0"},{"group":"square cycles (cube, non-group)","room_assignment":["blue","green","yellow","purple","grey","pink","brown","red"],"door_color_assignment":["white","black"],"door_generator_assignment":[0,1],"goal":1,"start":4,"action_noise":0.1,"location_history":"[4,5,1]","action_history":"[1,1]","door_history":"[1,1]","location_rts":"[9698,1145]","trial_type":"two-door-navigation","trial_index":9,"time_elapsed":1057433,"internal_node_id":"0.0-2.0-7.0"},{"group":"square cycles (cube, non-group)","room_assignment":["blue","green","yellow","purple","grey","pink","brown","red"],"door_color_assignment":["white","black"],"door_generator_assignment":[0,1],"goal":4,"start":1,"action_noise":0.1,"location_history":"[1,0,4]","action_history":"[1,1]","door_history":"[1,1]","location_rts":"[60656,673]","trial_type":"two-door-navigation","trial_index":10,"time_elapsed":1124286,"internal_node_id":"0.0-2.0-8.0"},{"group":"square cycles (cube, non-group)","room_assignment":["blue","green","yellow","purple","grey","pink","brown","red"],"door_color_assignment":["white","black"],"door_generator_assignment":[0,1],"goal":5,"start":4,"action_noise":0.1,"location_history":"[4,5]","action_history":"[1]","door_history":"[1]","location_rts":"[1109]","trial_type":"two-door-navigation","trial_index":11,"time_elapsed":1129905,"internal_node_id":"0.0-2.0-9.0"},{"group":"square cycles (cube, non-group)","room_assignment":["blue","green","yellow","purple","grey","pink","brown","red"],"door_color_assignment":["white","black"],"door_generator_assignment":[0,1],"goal":3,"start":5,"action_noise":0.1,"location_history":"[5,4,7,3]","action_history":"[1,1,0]","door_history":"[1,1,0]","location_rts":"[1227,815,816]","trial_type":"two-door-navigation","trial_index":12,"time_elapsed":1139284,"internal_node_id":"0.0-2.0-10.0"},{"group":"square cycles (cube, non-group)","room_assignment":["blue","green","yellow","purple","grey","pink","brown","red"],"door_color_assignment":["white","black"],"door_generator_assignment":[0,1],"goal":6,"start":3,"action_noise":0.1,"location_history":"[3,2,6]","action_history":"[1,1]","door_history":"[1,1]","location_rts":"[7708,494]","trial_type":"two-door-navigation","trial_index":13,"time_elapsed":1153009,"internal_node_id":"0.0-2.0-11.0"},{"group":"square cycles (cube, non-group)","room_assignment":["blue","green","yellow","purple","grey","pink","brown","red"],"door_color_assignment":["white","black"],"door_generator_assignment":[0,1],"goal":7,"start":6,"action_noise":0.1,"location_history":"[6,7]","action_history":"[1]","door_history":"[1]","location_rts":"[24471]","trial_type":"two-door-navigation","trial_index":14,"time_elapsed":1181990,"internal_node_id":"0.0-2.0-12.0"},{"group":"square cycles (cube, non-group)","room_assignment":["blue","green","yellow","purple","grey","pink","brown","red"],"door_color_assignment":["white","black"],"door_generator_assignment":[0,1],"goal":0,"start":7,"action_noise":0.1,"location_history":"[7,6,7,3,0]","action_history":"[0,1,0,0]","door_history":"[0,1,0,0]","location_rts":"[1674,1768,388,844]","trial_type":"two-door-navigation","trial_index":15,"time_elapsed":1194203,"internal_node_id":"0.0-2.0-13.0"},{"group":"square cycles (cube, non-group)","room_assignment":["blue","green","yellow","purple","grey","pink","brown","red"],"door_color_assignment":["white","black"],"door_generator_assignment":[0,1],"goal":2,"start":0,"action_noise":0.1,"location_history":"[0,4,5,1,2]","action_history":"[1,1,1,0]","door_history":"[1,1,1,0]","location_rts":"[24302,417,961,619]","trial_type":"two-door-navigation","trial_index":16,"time_elapsed":1228046,"internal_node_id":"0.0-2.0-14.0"},{"group":"square cycles (cube, non-group)","room_assignment":["blue","green","yellow","purple","grey","pink","brown","red"],"door_color_assignment":["white","black"],"door_generator_assignment":[0,1],"goal":1,"start":2,"action_noise":0.1,"location_history":"[2,3,0,1]","action_history":"[0,0,0]","door_history":"[0,0,0]","location_rts":"[1267,1525,533]","trial_type":"two-door-navigation","trial_index":17,"time_elapsed":1237896,"internal_node_id":"0.0-2.0-15.0"},{"group":"square cycles (cube, non-group)","room_assignment":["blue","green","yellow","purple","grey","pink","brown","red"],"door_color_assignment":["white","black"],"door_generator_assignment":[0,1],"goal":6,"start":1,"action_noise":0.1,"location_history":"[1,0,1,0,4,7,3,2,6]","action_history":"[1,1,1,1,0,1,1,1]","door_history":"[1,1,1,1,0,1,1,1]","location_rts":"[8745,1102,844,611,830,877,995,736]","trial_type":"two-door-navigation","trial_index":18,"time_elapsed":1264191,"internal_node_id":"0.0-2.0-16.0"},{"group":"square cycles (cube, non-group)","room_assignment":["blue","green","yellow","purple","grey","pink","brown","red"],"door_color_assignment":["white","black"],"door_generator_assignment":[0,1],"goal":3,"start":6,"action_noise":0.1,"location_history":"[6,7,6,7,3]","action_history":"[1,0,1,1]","door_history":"[1,0,1,1]","location_rts":"[47129,469,512,979]","trial_type":"two-door-navigation","trial_index":19,"time_elapsed":1320805,"internal_node_id":"0.0-2.0-17.0"},{"group":"square cycles (cube, non-group)","room_assignment":["blue","green","yellow","purple","grey","pink","brown","red"],"door_color_assignment":["white","black"],"door_generator_assignment":[0,1],"goal":4,"start":3,"action_noise":0.1,"location_history":"[3,0,4]","action_history":"[1,1]","door_history":"[1,1]","location_rts":"[4749,2258]","trial_type":"two-door-navigation","trial_index":20,"time_elapsed":1333337,"internal_node_id":"0.0-2.0-18.0"},{"group":"square cycles (cube, non-group)","room_assignment":["blue","green","yellow","purple","grey","pink","brown","red"],"door_color_assignment":["white","black"],"door_generator_assignment":[0,1],"goal":5,"start":4,"action_noise":0.1,"location_history":"[4,7,3,0,4,7,6,5]","action_history":"[0,0,0,1,0,0,0]","door_history":"[0,0,0,1,0,0,0]","location_rts":"[14701,441,412,488,629,4873,594]","trial_type":"two-door-navigation","trial_index":21,"time_elapsed":1366039,"internal_node_id":"0.0-2.0-19.0"},{"group":"square cycles (cube, non-group)","room_assignment":["blue","green","yellow","purple","grey","pink","brown","red"],"door_color_assignment":["white","black"],"door_generator_assignment":[0,1],"goal":7,"start":5,"action_noise":0.1,"location_history":"[5,1,0,1,0,4,7]","action_history":"[1,1,1,1,1,0]","door_history":"[1,1,1,1,1,0]","location_rts":"[67478,600,2881,781,646,481]","trial_type":"two-door-navigation","trial_index":22,"time_elapsed":1448455,"internal_node_id":"0.0-2.0-20.0"},{"group":"square cycles (cube, non-group)","room_assignment":["blue","green","yellow","purple","grey","pink","brown","red"],"door_color_assignment":["white","black"],"door_generator_assignment":[0,1],"goal":2,"start":7,"action_noise":0.1,"location_history":"[7,3,0,1,2]","action_history":"[1,0,0,0]","door_history":"[1,0,0,0]","location_rts":"[7882,492,396,548]","trial_type":"two-door-navigation","trial_index":23,"time_elapsed":1465305,"internal_node_id":"0.0-2.0-21.0"},{"group":"square cycles (cube, non-group)","room_assignment":["blue","green","yellow","purple","grey","pink","brown","red"],"door_color_assignment":["white","black"],"door_generator_assignment":[0,1],"goal":0,"start":2,"action_noise":0.1,"location_history":"[2,6,7,6,5,1,0]","action_history":"[1,1,0,1,1,0]","door_history":"[1,1,0,1,1,0]","location_rts":"[50877,522,636,511,909,870]","trial_type":"two-door-navigation","trial_index":24,"time_elapsed":1529179,"internal_node_id":"0.0-2.0-22.0"},{"group":"square cycles (cube, non-group)","room_assignment":["blue","green","yellow","purple","grey","pink","brown","red"],"door_color_assignment":["white","black"],"door_generator_assignment":[0,1],"goal":7,"start":0,"action_noise":0.1,"location_history":"[0,4,7]","action_history":"[1,0]","door_history":"[1,0]","location_rts":"[1359,490]","trial_type":"two-door-navigation","trial_index":25,"time_elapsed":1536550,"internal_node_id":"0.0-2.0-23.0"},{"group":"square cycles (cube, non-group)","room_assignment":["blue","green","yellow","purple","grey","pink","brown","red"],"door_color_assignment":["white","black"],"door_generator_assignment":[0,1],"goal":5,"start":7,"action_noise":0.1,"location_history":"[7,6,5]","action_history":"[0,0]","door_history":"[0,0]","location_rts":"[1313,1153]","trial_type":"two-door-navigation","trial_index":26,"time_elapsed":1544537,"internal_node_id":"0.0-2.0-24.0"},{"group":"square cycles (cube, non-group)","room_assignment":["blue","green","yellow","purple","grey","pink","brown","red"],"door_color_assignment":["white","black"],"door_generator_assignment":[0,1],"goal":0,"start":5,"action_noise":0.1,"location_history":"[5,1,0]","action_history":"[1,1]","door_history":"[1,1]","location_rts":"[9960,1921]","trial_type":"two-door-navigation","trial_index":27,"time_elapsed":1561936,"internal_node_id":"0.0-2.0-25.0"},{"group":"square cycles (cube, non-group)","room_assignment":["blue","green","yellow","purple","grey","pink","brown","red"],"door_color_assignment":["white","black"],"door_generator_assignment":[0,1],"goal":6,"start":0,"action_noise":0.1,"location_history":"[0,4,5,4,5,4,7,6]","action_history":"[1,0,0,0,0,0,0]","door_history":"[1,0,0,0,0,0,0]","location_rts":"[6908,821,601,552,670,501,988]","trial_type":"two-door-navigation","trial_index":28,"time_elapsed":1583543,"internal_node_id":"0.0-2.0-26.0"},{"group":"square cycles (cube, non-group)","room_assignment":["blue","green","yellow","purple","grey","pink","brown","red"],"door_color_assignment":["white","black"],"door_generator_assignment":[0,1],"goal":4,"start":6,"action_noise":0.1,"location_history":"[6,7,3,2,6,5,4]","action_history":"[0,0,0,1,0,0]","door_history":"[0,0,0,1,0,0]","location_rts":"[2667,604,421,407,1273,718]","trial_type":"two-door-navigation","trial_index":29,"time_elapsed":1599183,"internal_node_id":"0.0-2.0-27.0"},{"group":"square cycles (cube, non-group)","room_assignment":["blue","green","yellow","purple","grey","pink","brown","red"],"door_color_assignment":["white","black"],"door_generator_assignment":[0,1],"goal":2,"start":4,"action_noise":0.1,"location_history":"[4,5,1,2]","action_history":"[1,1,0]","door_history":"[1,1,0]","location_rts":"[7306,669,1870]","trial_type":"two-door-navigation","trial_index":30,"time_elapsed":1615552,"internal_node_id":"0.0-2.0-28.0"},{"group":"square cycles (cube, non-group)","room_assignment":["blue","green","yellow","purple","grey","pink","brown","red"],"door_color_assignment":["white","black"],"door_generator_assignment":[0,1],"goal":3,"start":2,"action_noise":0.1,"location_history":"[2,6,7,3]","action_history":"[1,1,1]","door_history":"[1,1,1]","location_rts":"[2400,1033,873]","trial_type":"two-door-navigation","trial_index":31,"time_elapsed":1626386,"internal_node_id":"0.0-2.0-29.0"},{"group":"square cycles (cube, non-group)","room_assignment":["blue","green","yellow","purple","grey","pink","brown","red"],"door_color_assignment":["white","black"],"door_generator_assignment":[0,1],"goal":1,"start":3,"action_noise":0.1,"location_history":"[3,0,1]","action_history":"[0,0]","door_history":"[0,0]","location_rts":"[12669,3753]","trial_type":"two-door-navigation","trial_index":32,"time_elapsed":1648332,"internal_node_id":"0.0-2.0-30.0"},{"group":"square cycles (cube, non-group)","room_assignment":["blue","green","yellow","purple","grey","pink","brown","red"],"door_color_assignment":["white","black"],"door_generator_assignment":[0,1],"goal":4,"start":1,"action_noise":0.1,"location_history":"[1,2,6,5,4]","action_history":"[0,1,0,0]","door_history":"[0,1,0,0]","location_rts":"[1290,17626,1192,856]","trial_type":"two-door-navigation","trial_index":33,"time_elapsed":1676831,"internal_node_id":"0.0-2.0-31.0"},{"group":"square cycles (cube, non-group)","room_assignment":["blue","green","yellow","purple","grey","pink","brown","red"],"door_color_assignment":["white","black"],"door_generator_assignment":[0,1],"goal":3,"start":4,"action_noise":0.1,"location_history":"[4,5,4,5,1,2,3]","action_history":"[1,0,1,1,0,0]","door_history":"[1,0,1,1,0,0]","location_rts":"[1062,2443,2049,5297,1064,675]","trial_type":"two-door-navigation","trial_index":34,"time_elapsed":1698974,"internal_node_id":"0.0-2.0-32.0"},{"group":"square cycles (cube, non-group)","room_assignment":["blue","green","yellow","purple","grey","pink","brown","red"],"door_color_assignment":["white","black"],"door_generator_assignment":[0,1],"goal":6,"start":3,"action_noise":0.1,"location_history":"[3,2,6]","action_history":"[1,1]","door_history":"[1,1]","location_rts":"[1253,2697]","trial_type":"two-door-navigation","trial_index":35,"time_elapsed":1708448,"internal_node_id":"0.0-2.0-33.0"},{"group":"square cycles (cube, non-group)","room_assignment":["blue","green","yellow","purple","grey","pink","brown","red"],"door_color_assignment":["white","black"],"door_generator_assignment":[0,1],"goal":0,"start":6,"action_noise":0.1,"location_history":"[6,5,1,2,3,0]","action_history":"[1,1,0,0,0]","door_history":"[1,1,0,0,0]","location_rts":"[4692,803,533,454,526]","trial_type":"two-door-navigation","trial_index":36,"time_elapsed":1723996,"internal_node_id":"0.0-2.0-34.0"},{"group":"square cycles (cube, non-group)","room_assignment":["blue","green","yellow","purple","grey","pink","brown","red"],"door_color_assignment":["white","black"],"door_generator_assignment":[0,1],"goal":1,"start":0,"action_noise":0.1,"location_history":"[0,4,5,4,7,3,2,3,0,1]","action_history":"[0,1,1,1,0,0,0,0,0]","door_history":"[0,1,1,1,0,0,0,0,0]","location_rts":"[2595,822,660,611,587,713,546,790,979]","trial_type":"two-door-navigation","trial_index":37,"time_elapsed":1744885,"internal_node_id":"0.0-2.0-35.0"},{"group":"square cycles (cube, non-group)","room_assignment":["blue","green","yellow","purple","grey","pink","brown","red"],"door_color_assignment":["white","black"],"door_generator_assignment":[0,1],"goal":5,"start":1,"action_noise":0.1,"location_history":"[1,0,4,7,6,7,3,2,6,5]","action_history":"[1,1,0,0,1,1,1,1,0]","door_history":"[1,1,0,0,1,1,1,1,0]","location_rts":"[6504,1616,655,1181,503,445,1313,1478,720]","trial_type":"two-door-navigation","trial_index":38,"time_elapsed":1771866,"internal_node_id":"0.0-2.0-36.0"},{"group":"square cycles (cube, non-group)","room_assignment":["blue","green","yellow","purple","grey","pink","brown","red"],"door_color_assignment":["white","black"],"door_generator_assignment":[0,1],"goal":7,"start":5,"action_noise":0.1,"location_history":"[5,1,0,1,0,4,7]","action_history":"[1,1,1,1,1,0]","door_history":"[1,1,1,1,1,0]","location_rts":"[11894,1077,714,1119,1068,749]","trial_type":"two-door-navigation","trial_index":39,"time_elapsed":1798031,"internal_node_id":"0.0-2.0-37.0"},{"group":"square cycles (cube, non-group)","room_assignment":["blue","green","yellow","purple","grey","pink","brown","red"],"door_color_assignment":["white","black"],"door_generator_assignment":[0,1],"goal":2,"start":7,"action_noise":0.1,"location_history":"[7,3,0,4,5,1,2]","action_history":"[1,0,0,1,1,0]","door_history":"[1,0,0,1,1,0]","location_rts":"[6000,1094,767,1197,1751,651]","trial_type":"two-door-navigation","trial_index":40,"time_elapsed":1819041,"internal_node_id":"0.0-2.0-38.0"},{"group":"square cycles (cube, non-group)","room_assignment":["blue","green","yellow","purple","grey","pink","brown","red"],"door_color_assignment":["white","black"],"door_generator_assignment":[0,1],"goal":1,"start":2,"action_noise":0.1,"location_history":"[2,3,0,4,5,1]","action_history":"[0,0,0,1,1]","door_history":"[0,0,0,1,1]","location_rts":"[1414,479,433,1319,651]","trial_type":"two-door-navigation","trial_index":41,"time_elapsed":1831886,"internal_node_id":"0.0-2.0-39.0"},{"group":"square cycles (cube, non-group)","room_assignment":["blue","green","yellow","purple","grey","pink","brown","red"],"door_color_assignment":["white","black"],"door_generator_assignment":[0,1],"goal":3,"start":1,"action_noise":0.1,"location_history":"[1,2,3]","action_history":"[0,0]","door_history":"[0,0]","location_rts":"[59561,1005]","trial_type":"two-door-navigation","trial_index":42,"time_elapsed":1897971,"internal_node_id":"0.0-2.0-40.0"},{"group":"square cycles (cube, non-group)","room_assignment":["blue","green","yellow","purple","grey","pink","brown","red"],"door_color_assignment":["white","black"],"door_generator_assignment":[0,1],"goal":4,"start":3,"action_noise":0.1,"location_history":"[3,2,6,5,4]","action_history":"[1,1,0,0]","door_history":"[1,1,0,0]","location_rts":"[2846,1034,1435,465]","trial_type":"two-door-navigation","trial_index":43,"time_elapsed":1911289,"internal_node_id":"0.0-2.0-41.0"},{"group":"square cycles (cube, non-group)","room_assignment":["blue","green","yellow","purple","grey","pink","brown","red"],"door_color_assignment":["white","black"],"door_generator_assignment":[0,1],"goal":2,"start":4,"action_noise":0.1,"location_history":"[4,5,1,2]","action_history":"[1,1,0]","door_history":"[1,1,0]","location_rts":"[1185,625,773]","trial_type":"two-door-navigation","trial_index":44,"time_elapsed":1921373,"internal_node_id":"0.0-2.0-42.0"},{"group":"square cycles (cube, non-group)","room_assignment":["blue","green","yellow","purple","grey","pink","brown","red"],"door_color_assignment":["white","black"],"door_generator_assignment":[0,1],"goal":5,"start":2,"action_noise":0.1,"location_history":"[2,6,5]","action_history":"[1,0]","door_history":"[1,0]","location_rts":"[13768,994]","trial_type":"two-door-navigation","trial_index":45,"time_elapsed":1942649,"internal_node_id":"0.0-2.0-43.0"},{"group":"square cycles (cube, non-group)","room_assignment":["blue","green","yellow","purple","grey","pink","brown","red"],"door_color_assignment":["white","black"],"door_generator_assignment":[0,1],"goal":0,"start":5,"action_noise":0.1,"location_history":"[5,1,2,3,0]","action_history":"[1,0,0,0]","door_history":"[1,0,0,0]","location_rts":"[1224,521,39899,605]","trial_type":"two-door-navigation","trial_index":46,"time_elapsed":1992448,"internal_node_id":"0.0-2.0-44.0"},{"group":"square cycles (cube, non-group)","room_assignment":["blue","green","yellow","purple","grey","pink","brown","red"],"door_color_assignment":["white","black"],"door_generator_assignment":[0,1],"goal":7,"start":0,"action_noise":0.1,"location_history":"[0,4,7]","action_history":"[1,0]","door_history":"[1,0]","location_rts":"[3537,1223]","trial_type":"two-door-navigation","trial_index":47,"time_elapsed":2002749,"internal_node_id":"0.0-2.0-45.0"},{"group":"square cycles (cube, non-group)","room_assignment":["blue","green","yellow","purple","grey","pink","brown","red"],"door_color_assignment":["white","black"],"door_generator_assignment":[0,1],"goal":6,"start":7,"action_noise":0.1,"location_history":"[7,6]","action_history":"[0]","door_history":"[0]","location_rts":"[5775]","trial_type":"two-door-navigation","trial_index":48,"time_elapsed":2013035,"internal_node_id":"0.0-2.0-46.0"},{"group":"square cycles (cube, non-group)","room_assignment":["blue","green","yellow","purple","grey","pink","brown","red"],"door_color_assignment":["white","black"],"door_generator_assignment":[0,1],"goal":2,"start":6,"action_noise":0.1,"location_history":"[6,7,3,2]","action_history":"[1,1,0]","door_history":"[1,1,0]","location_rts":"[5749,3001,1835]","trial_type":"two-door-navigation","trial_index":49,"time_elapsed":2030143,"internal_node_id":"0.0-2.0-47.0"},{"group":"square cycles (cube, non-group)","room_assignment":["blue","green","yellow","purple","grey","pink","brown","red"],"door_color_assignment":["white","black"],"door_generator_assignment":[0,1],"goal":5,"start":2,"action_noise":0.1,"location_history":"[2,3,2,6,7,6,5]","action_history":"[1,1,1,0,0,0]","door_history":"[1,1,1,0,0,0]","location_rts":"[9515,4618,1046,792,455,583]","trial_type":"two-door-navigation","trial_index":50,"time_elapsed":2056718,"internal_node_id":"0.0-2.0-48.0"},{"group":"square cycles (cube, non-group)","room_assignment":["blue","green","yellow","purple","grey","pink","brown","red"],"door_color_assignment":["white","black"],"door_generator_assignment":[0,1],"goal":3,"start":5,"action_noise":0.1,"location_history":"[5,4,5,1,0,1,2,3]","action_history":"[1,1,1,1,0,0,0]","door_history":"[1,1,1,1,0,0,0]","location_rts":"[10860,729,733,1032,1056,509,388]","trial_type":"two-door-navigation","trial_index":51,"time_elapsed":2082573,"internal_node_id":"0.0-2.0-49.0"},{"view_history":"[{\"page_index\":0,\"viewing_time\":1184}]","rt":1184,"trial_type":"instructions","trial_index":52,"time_elapsed":2084758,"internal_node_id":"0.0-3.0"},{"view_history":"[{\"page_index\":0,\"viewing_time\":44790},{\"page_index\":1,\"viewing_time\":1244},{\"page_index\":0,\"viewing_time\":1540},{\"page_index\":1,\"viewing_time\":7641}]","rt":55215,"trial_type":"instructions","trial_index":53,"time_elapsed":2140973,"internal_node_id":"0.0-4.0"},{"group":"square cycles (cube, non-group)","fractal_assignment":["../images/ylw_pnk.png","../images/grn_red.png","../images/blu_wht.png","../images/pnk_blu.png","../images/gry_blk.png","../images/org_blu.png","../images/cyn_red.png","../images/ylw_slt.png"],"mutagen_generator_assignment":[1,0],"goal":5,"start":7,"action_noise":0.1,"location_history":"[7,6,5]","action_history":"[1,0]","mutagen_history":"[0,1]","location_rts":"[9753,1485]","trial_type":"fractal-mutation","trial_index":54,"time_elapsed":2158009,"internal_node_id":"0.0-5.0-0.0"},{"group":"square cycles (cube, non-group)","fractal_assignment":["../images/ylw_pnk.png","../images/grn_red.png","../images/blu_wht.png","../images/pnk_blu.png","../images/gry_blk.png","../images/org_blu.png","../images/cyn_red.png","../images/ylw_slt.png"],"mutagen_generator_assignment":[1,0],"goal":2,"start":5,"action_noise":0.1,"location_history":"[5,4,7,3,2]","action_history":"[0,0,1,1]","mutagen_history":"[1,1,0,0]","location_rts":"[7401,1356,628,467]","trial_type":"fractal-mutation","trial_index":55,"time_elapsed":2175926,"internal_node_id":"0.0-5.0-1.0"},{"group":"square cycles (cube, non-group)","fractal_assignment":["../images/ylw_pnk.png","../images/grn_red.png","../images/blu_wht.png","../images/pnk_blu.png","../images/gry_blk.png","../images/org_blu.png","../images/cyn_red.png","../images/ylw_slt.png"],"mutagen_generator_assignment":[1,0],"goal":0,"start":2,"action_noise":0.1,"location_history":"[2,6,5,1,0]","action_history":"[1,0,1,1]","mutagen_history":"[0,1,0,0]","location_rts":"[2883,819,1218,972]","trial_type":"fractal-mutation","trial_index":56,"time_elapsed":2190281,"internal_node_id":"0.0-5.0-2.0"},{"group":"square cycles (cube, non-group)","fractal_assignment":["../images/ylw_pnk.png","../images/grn_red.png","../images/blu_wht.png","../images/pnk_blu.png","../images/gry_blk.png","../images/org_blu.png","../images/cyn_red.png","../images/ylw_slt.png"],"mutagen_generator_assignment":[1,0],"goal":1,"start":0,"action_noise":0.1,"location_history":"[0,4,5,1]","action_history":"[1,1,1]","mutagen_history":"[0,0,0]","location_rts":"[5360,870,423]","trial_type":"fractal-mutation","trial_index":57,"time_elapsed":2203714,"internal_node_id":"0.0-5.0-3.0"},{"group":"square cycles (cube, non-group)","fractal_assignment":["../images/ylw_pnk.png","../images/grn_red.png","../images/blu_wht.png","../images/pnk_blu.png","../images/gry_blk.png","../images/org_blu.png","../images/cyn_red.png","../images/ylw_slt.png"],"mutagen_generator_assignment":[1,0],"goal":6,"start":1,"action_noise":0.1,"location_history":"[1,2,6]","action_history":"[0,1]","mutagen_history":"[1,0]","location_rts":"[36494,824]","trial_type":"fractal-mutation","trial_index":58,"time_elapsed":2246810,"internal_node_id":"0.0-5.0-4.0"},{"group":"square cycles (cube, non-group)","fractal_assignment":["../images/ylw_pnk.png","../images/grn_red.png","../images/blu_wht.png","../images/pnk_blu.png","../images/gry_blk.png","../images/org_blu.png","../images/cyn_red.png","../images/ylw_slt.png"],"mutagen_generator_assignment":[1,0],"goal":3,"start":6,"action_noise":0.1,"location_history":"[6,7,3]","action_history":"[1,1]","mutagen_history":"[0,0]","location_rts":"[1564,518]","trial_type":"fractal-mutation","trial_index":59,"time_elapsed":2254604,"internal_node_id":"0.0-5.0-5.0"},{"group":"square cycles (cube, non-group)","fractal_assignment":["../images/ylw_pnk.png","../images/grn_red.png","../images/blu_wht.png","../images/pnk_blu.png","../images/gry_blk.png","../images/org_blu.png","../images/cyn_red.png","../images/ylw_slt.png"],"mutagen_generator_assignment":[1,0],"goal":4,"start":3,"action_noise":0.1,"location_history":"[3,2,3,0,4]","action_history":"[1,0,0,1]","mutagen_history":"[0,1,1,0]","location_rts":"[7326,444,1127,544]","trial_type":"fractal-mutation","trial_index":60,"time_elapsed":2272059,"internal_node_id":"0.0-5.0-6.0"},{"group":"square cycles (cube, non-group)","fractal_assignment":["../images/ylw_pnk.png","../images/grn_red.png","../images/blu_wht.png","../images/pnk_blu.png","../images/gry_blk.png","../images/org_blu.png","../images/cyn_red.png","../images/ylw_slt.png"],"mutagen_generator_assignment":[1,0],"goal":1,"start":4,"action_noise":0.1,"location_history":"[4,5,1]","action_history":"[1,1]","mutagen_history":"[0,0]","location_rts":"[10112,1159]","trial_type":"fractal-mutation","trial_index":61,"time_elapsed":2289013,"internal_node_id":"0.0-5.0-7.0"},{"group":"square cycles (cube, non-group)","fractal_assignment":["../images/ylw_pnk.png","../images/grn_red.png","../images/blu_wht.png","../images/pnk_blu.png","../images/gry_blk.png","../images/org_blu.png","../images/cyn_red.png","../images/ylw_slt.png"],"mutagen_generator_assignment":[1,0],"goal":4,"start":1,"action_noise":0.1,"location_history":"[1,2,6,5,1,0,4]","action_history":"[0,0,0,1,1,1]","mutagen_history":"[1,1,1,0,0,0]","location_rts":"[1364,537,634,566,421,412]","trial_type":"fractal-mutation","trial_index":62,"time_elapsed":2303249,"internal_node_id":"0.0-5.0-8.0"},{"group":"square cycles (cube, non-group)","fractal_assignment":["../images/ylw_pnk.png","../images/grn_red.png","../images/blu_wht.png","../images/pnk_blu.png","../images/gry_blk.png","../images/org_blu.png","../images/cyn_red.png","../images/ylw_slt.png"],"mutagen_generator_assignment":[1,0],"goal":5,"start":4,"action_noise":0.1,"location_history":"[4,5]","action_history":"[1]","mutagen_history":"[0]","location_rts":"[1472]","trial_type":"fractal-mutation","trial_index":63,"time_elapsed":2309319,"internal_node_id":"0.0-5.0-9.0"},{"group":"square cycles (cube, non-group)","fractal_assignment":["../images/ylw_pnk.png","../images/grn_red.png","../images/blu_wht.png","../images/pnk_blu.png","../images/gry_blk.png","../images/org_blu.png","../images/cyn_red.png","../images/ylw_slt.png"],"mutagen_generator_assignment":[1,0],"goal":3,"start":5,"action_noise":0.1,"location_history":"[5,4,7,3]","action_history":"[0,0,1]","mutagen_history":"[1,1,0]","location_rts":"[20091,657,600]","trial_type":"fractal-mutation","trial_index":64,"time_elapsed":2337683,"internal_node_id":"0.0-5.0-10.0"},{"group":"square cycles (cube, non-group)","fractal_assignment":["../images/ylw_pnk.png","../images/grn_red.png","../images/blu_wht.png","../images/pnk_blu.png","../images/gry_blk.png","../images/org_blu.png","../images/cyn_red.png","../images/ylw_slt.png"],"mutagen_generator_assignment":[1,0],"goal":6,"start":3,"action_noise":0.1,"location_history":"[3,2,6]","action_history":"[1,1]","mutagen_history":"[0,0]","location_rts":"[1512,734]","trial_type":"fractal-mutation","trial_index":65,"time_elapsed":2345632,"internal_node_id":"0.0-5.0-11.0"},{"group":"square cycles (cube, non-group)","fractal_assignment":["../images/ylw_pnk.png","../images/grn_red.png","../images/blu_wht.png","../images/pnk_blu.png","../images/gry_blk.png","../images/org_blu.png","../images/cyn_red.png","../images/ylw_slt.png"],"mutagen_generator_assignment":[1,0],"goal":7,"start":6,"action_noise":0.1,"location_history":"[6,7]","action_history":"[1]","mutagen_history":"[0]","location_rts":"[1521]","trial_type":"fractal-mutation","trial_index":66,"time_elapsed":2351760,"internal_node_id":"0.0-5.0-12.0"},{"group":"square cycles (cube, non-group)","fractal_assignment":["../images/ylw_pnk.png","../images/grn_red.png","../images/blu_wht.png","../images/pnk_blu.png","../images/gry_blk.png","../images/org_blu.png","../images/cyn_red.png","../images/ylw_slt.png"],"mutagen_generator_assignment":[1,0],"goal":0,"start":7,"action_noise":0.1,"location_history":"[7,6,5,1,2,3,0]","action_history":"[0,0,1,1,0,0]","mutagen_history":"[1,1,0,0,1,1]","location_rts":"[2300,1158,659,1325,6888,4736]","trial_type":"fractal-mutation","trial_index":67,"time_elapsed":2379195,"internal_node_id":"0.0-5.0-13.0"},{"group":"square cycles (cube, non-group)","fractal_assignment":["../images/ylw_pnk.png","../images/grn_red.png","../images/blu_wht.png","../images/pnk_blu.png","../images/gry_blk.png","../images/org_blu.png","../images/cyn_red.png","../images/ylw_slt.png"],"mutagen_generator_assignment":[1,0],"goal":2,"start":0,"action_noise":0.1,"location_history":"[0,1,2]","action_history":"[0,0]","mutagen_history":"[1,1]","location_rts":"[38622,1316]","trial_type":"fractal-mutation","trial_index":68,"time_elapsed":2424970,"internal_node_id":"0.0-5.0-14.0"},{"group":"square cycles (cube, non-group)","fractal_assignment":["../images/ylw_pnk.png","../images/grn_red.png","../images/blu_wht.png","../images/pnk_blu.png","../images/gry_blk.png","../images/org_blu.png","../images/cyn_red.png","../images/ylw_slt.png"],"mutagen_generator_assignment":[1,0],"goal":1,"start":2,"action_noise":0.1,"location_history":"[2,6,5,4,7,6,5,1]","action_history":"[1,1,0,0,0,0,1]","mutagen_history":"[0,0,1,1,1,1,0]","location_rts":"[27146,528,313,506,626,515,589]","trial_type":"fractal-mutation","trial_index":69,"time_elapsed":2466711,"internal_node_id":"0.0-5.0-15.0"},{"group":"square cycles (cube, non-group)","fractal_assignment":["../images/ylw_pnk.png","../images/grn_red.png","../images/blu_wht.png","../images/pnk_blu.png","../images/gry_blk.png","../images/org_blu.png","../images/cyn_red.png","../images/ylw_slt.png"],"mutagen_generator_assignment":[1,0],"goal":6,"start":1,"action_noise":0.1,"location_history":"[1,2,6]","action_history":"[0,1]","mutagen_history":"[1,0]","location_rts":"[7429,404]","trial_type":"fractal-mutation","trial_index":70,"time_elapsed":2480314,"internal_node_id":"0.0-5.0-16.0"},{"group":"square cycles (cube, non-group)","fractal_assignment":["../images/ylw_pnk.png","../images/grn_red.png","../images/blu_wht.png","../images/pnk_blu.png","../images/gry_blk.png","../images/org_blu.png","../images/cyn_red.png","../images/ylw_slt.png"],"mutagen_generator_assignment":[1,0],"goal":3,"start":6,"action_noise":0.1,"location_history":"[6,7,3]","action_history":"[1,1]","mutagen_history":"[0,0]","location_rts":"[173914,643]","trial_type":"fractal-mutation","trial_index":71,"time_elapsed":2660568,"internal_node_id":"0.0-5.0-17.0"},{"group":"square cycles (cube, non-group)","fractal_assignment":["../images/ylw_pnk.png","../images/grn_red.png","../images/blu_wht.png","../images/pnk_blu.png","../images/gry_blk.png","../images/org_blu.png","../images/cyn_red.png","../images/ylw_slt.png"],"mutagen_generator_assignment":[1,0],"goal":4,"start":3,"action_noise":0.1,"location_history":"[3,2,3,0,4]","action_history":"[0,1,0,1]","mutagen_history":"[1,0,1,0]","location_rts":"[1420,500,1713,632]","trial_type":"fractal-mutation","trial_index":72,"time_elapsed":2672844,"internal_node_id":"0.0-5.0-18.0"},{"group":"square cycles (cube, non-group)","fractal_assignment":["../images/ylw_pnk.png","../images/grn_red.png","../images/blu_wht.png","../images/pnk_blu.png","../images/gry_blk.png","../images/org_blu.png","../images/cyn_red.png","../images/ylw_slt.png"],"mutagen_generator_assignment":[1,0],"goal":5,"start":4,"action_noise":0.1,"location_history":"[4,5]","action_history":"[1]","mutagen_history":"[0]","location_rts":"[1072]","trial_type":"fractal-mutation","trial_index":73,"time_elapsed":2678523,"internal_node_id":"0.0-5.0-19.0"},{"group":"square cycles (cube, non-group)","fractal_assignment":["../images/ylw_pnk.png","../images/grn_red.png","../images/blu_wht.png","../images/pnk_blu.png","../images/gry_blk.png","../images/org_blu.png","../images/cyn_red.png","../images/ylw_slt.png"],"mutagen_generator_assignment":[1,0],"goal":7,"start":5,"action_noise":0.1,"location_history":"[5,4,7]","action_history":"[0,0]","mutagen_history":"[1,1]","location_rts":"[851,705]","trial_type":"fractal-mutation","trial_index":74,"time_elapsed":2685929,"internal_node_id":"0.0-5.0-20.0"},{"group":"square cycles (cube, non-group)","fractal_assignment":["../images/ylw_pnk.png","../images/grn_red.png","../images/blu_wht.png","../images/pnk_blu.png","../images/gry_blk.png","../images/org_blu.png","../images/cyn_red.png","../images/ylw_slt.png"],"mutagen_generator_assignment":[1,0],"goal":2,"start":7,"action_noise":0.1,"location_history":"[7,6,7,3,2]","action_history":"[1,1,1,1]","mutagen_history":"[0,0,0,0]","location_rts":"[1042,1255,466,578]","trial_type":"fractal-mutation","trial_index":75,"time_elapsed":2697156,"internal_node_id":"0.0-5.0-21.0"},{"group":"square cycles (cube, non-group)","fractal_assignment":["../images/ylw_pnk.png","../images/grn_red.png","../images/blu_wht.png","../images/pnk_blu.png","../images/gry_blk.png","../images/org_blu.png","../images/cyn_red.png","../images/ylw_slt.png"],"mutagen_generator_assignment":[1,0],"goal":0,"start":2,"action_noise":0.1,"location_history":"[2,3,0]","action_history":"[0,0]","mutagen_history":"[1,1]","location_rts":"[1324,625]","trial_type":"fractal-mutation","trial_index":76,"time_elapsed":2704921,"internal_node_id":"0.0-5.0-22.0"},{"group":"square cycles (cube, non-group)","fractal_assignment":["../images/ylw_pnk.png","../images/grn_red.png","../images/blu_wht.png","../images/pnk_blu.png","../images/gry_blk.png","../images/org_blu.png","../images/cyn_red.png","../images/ylw_slt.png"],"mutagen_generator_assignment":[1,0],"goal":7,"start":0,"action_noise":0.1,"location_history":"[0,1,2,6,7]","action_history":"[0,0,1,1]","mutagen_history":"[1,1,0,0]","location_rts":"[1174,786,597,531]","trial_type":"fractal-mutation","trial_index":77,"time_elapsed":2716019,"internal_node_id":"0.0-5.0-23.0"},{"group":"square cycles (cube, non-group)","fractal_assignment":["../images/ylw_pnk.png","../images/grn_red.png","../images/blu_wht.png","../images/pnk_blu.png","../images/gry_blk.png","../images/org_blu.png","../images/cyn_red.png","../images/ylw_slt.png"],"mutagen_generator_assignment":[1,0],"goal":5,"start":7,"action_noise":0.1,"location_history":"[7,6,5]","action_history":"[0,0]","mutagen_history":"[1,1]","location_rts":"[1477,691]","trial_type":"fractal-mutation","trial_index":78,"time_elapsed":2724012,"internal_node_id":"0.0-5.0-24.0"},{"group":"square cycles (cube, non-group)","fractal_assignment":["../images/ylw_pnk.png","../images/grn_red.png","../images/blu_wht.png","../images/pnk_blu.png","../images/gry_blk.png","../images/org_blu.png","../images/cyn_red.png","../images/ylw_slt.png"],"mutagen_generator_assignment":[1,0],"goal":0,"start":5,"action_noise":0.1,"location_history":"[5,1,2,6,7,6,5,1,2,3,2,3,0]","action_history":"[1,1,1,0,0,0,1,1,0,0,0,0]","mutagen_history":"[0,0,0,1,1,1,0,0,1,1,1,1]","location_rts":"[1499,428,452,592,601,610,680,520,753,739,646,732]","trial_type":"fractal-mutation","trial_index":79,"time_elapsed":2749395,"internal_node_id":"0.0-5.0-25.0"},{"group":"square cycles (cube, non-group)","fractal_assignment":["../images/ylw_pnk.png","../images/grn_red.png","../images/blu_wht.png","../images/pnk_blu.png","../images/gry_blk.png","../images/org_blu.png","../images/cyn_red.png","../images/ylw_slt.png"],"mutagen_generator_assignment":[1,0],"goal":6,"start":0,"action_noise":0.1,"location_history":"[0,1,2,6]","action_history":"[0,0,1]","mutagen_history":"[1,1,0]","location_rts":"[2257,576,521]","trial_type":"fractal-mutation","trial_index":80,"time_elapsed":2761373,"internal_node_id":"0.0-5.0-26.0"},{"group":"square cycles (cube, non-group)","fractal_assignment":["../images/ylw_pnk.png","../images/grn_red.png","../images/blu_wht.png","../images/pnk_blu.png","../images/gry_blk.png","../images/org_blu.png","../images/cyn_red.png","../images/ylw_slt.png"],"mutagen_generator_assignment":[1,0],"goal":4,"start":6,"action_noise":0.1,"location_history":"[6,5,4]","action_history":"[0,1]","mutagen_history":"[1,0]","location_rts":"[1445,944]","trial_type":"fractal-mutation","trial_index":81,"time_elapsed":2769535,"internal_node_id":"0.0-5.0-27.0"},{"group":"square cycles (cube, non-group)","fractal_assignment":["../images/ylw_pnk.png","../images/grn_red.png","../images/blu_wht.png","../images/pnk_blu.png","../images/gry_blk.png","../images/org_blu.png","../images/cyn_red.png","../images/ylw_slt.png"],"mutagen_generator_assignment":[1,0],"goal":2,"start":4,"action_noise":0.1,"location_history":"[4,7,3,2]","action_history":"[0,1,1]","mutagen_history":"[1,0,0]","location_rts":"[1269,477,563]","trial_type":"fractal-mutation","trial_index":82,"time_elapsed":2778713,"internal_node_id":"0.0-5.0-28.0"},{"group":"square cycles (cube, non-group)","fractal_assignment":["../images/ylw_pnk.png","../images/grn_red.png","../images/blu_wht.png","../images/pnk_blu.png","../images/gry_blk.png","../images/org_blu.png","../images/cyn_red.png","../images/ylw_slt.png"],"mutagen_generator_assignment":[1,0],"goal":3,"start":2,"action_noise":0.1,"location_history":"[2,6,7,3]","action_history":"[1,1,1]","mutagen_history":"[0,0,0]","location_rts":"[1057,547,2588]","trial_type":"fractal-mutation","trial_index":83,"time_elapsed":2789693,"internal_node_id":"0.0-5.0-29.0"},{"group":"square cycles (cube, non-group)","fractal_assignment":["../images/ylw_pnk.png","../images/grn_red.png","../images/blu_wht.png","../images/pnk_blu.png","../images/gry_blk.png","../images/org_blu.png","../images/cyn_red.png","../images/ylw_slt.png"],"mutagen_generator_assignment":[1,0],"goal":1,"start":3,"action_noise":0.1,"location_history":"[3,2,3,0,4,7,6,5,1]","action_history":"[0,0,0,1,1,0,0,1]","mutagen_history":"[1,1,1,0,0,1,1,0]","location_rts":"[2224,651,677,628,946,1485,693,904]","trial_type":"fractal-mutation","trial_index":84,"time_elapsed":2810567,"internal_node_id":"0.0-5.0-30.0"},{"group":"square cycles (cube, non-group)","fractal_assignment":["../images/ylw_pnk.png","../images/grn_red.png","../images/blu_wht.png","../images/pnk_blu.png","../images/gry_blk.png","../images/org_blu.png","../images/cyn_red.png","../images/ylw_slt.png"],"mutagen_generator_assignment":[1,0],"goal":4,"start":1,"action_noise":0.1,"location_history":"[1,0,4]","action_history":"[1,1]","mutagen_history":"[0,0]","location_rts":"[72199,6189]","trial_type":"fractal-mutation","trial_index":85,"time_elapsed":2894649,"internal_node_id":"0.0-5.0-31.0"},{"group":"square cycles (cube, non-group)","fractal_assignment":["../images/ylw_pnk.png","../images/grn_red.png","../images/blu_wht.png","../images/pnk_blu.png","../images/gry_blk.png","../images/org_blu.png","../images/cyn_red.png","../images/ylw_slt.png"],"mutagen_generator_assignment":[1,0],"goal":3,"start":4,"action_noise":0.1,"location_history":"[4,7,3]","action_history":"[0,1]","mutagen_history":"[1,0]","location_rts":"[1076,606]","trial_type":"fractal-mutation","trial_index":86,"time_elapsed":2902093,"internal_node_id":"0.0-5.0-32.0"},{"group":"square cycles (cube, non-group)","fractal_assignment":["../images/ylw_pnk.png","../images/grn_red.png","../images/blu_wht.png","../images/pnk_blu.png","../images/gry_blk.png","../images/org_blu.png","../images/cyn_red.png","../images/ylw_slt.png"],"mutagen_generator_assignment":[1,0],"goal":6,"start":3,"action_noise":0.1,"location_history":"[3,2,6]","action_history":"[1,1]","mutagen_history":"[0,0]","location_rts":"[1601,426]","trial_type":"fractal-mutation","trial_index":87,"time_elapsed":2909810,"internal_node_id":"0.0-5.0-33.0"},{"group":"square cycles (cube, non-group)","fractal_assignment":["../images/ylw_pnk.png","../images/grn_red.png","../images/blu_wht.png","../images/pnk_blu.png","../images/gry_blk.png","../images/org_blu.png","../images/cyn_red.png","../images/ylw_slt.png"],"mutagen_generator_assignment":[1,0],"goal":0,"start":6,"action_noise":0.1,"location_history":"[6,5,4,5,1,0]","action_history":"[0,1,1,1,1]","mutagen_history":"[1,0,0,0,0]","location_rts":"[2069,455,427,567,426]","trial_type":"fractal-mutation","trial_index":88,"time_elapsed":2922803,"internal_node_id":"0.0-5.0-34.0"},{"group":"square cycles (cube, non-group)","fractal_assignment":["../images/ylw_pnk.png","../images/grn_red.png","../images/blu_wht.png","../images/pnk_blu.png","../images/gry_blk.png","../images/org_blu.png","../images/cyn_red.png","../images/ylw_slt.png"],"mutagen_generator_assignment":[1,0],"goal":1,"start":0,"action_noise":0.1,"location_history":"[0,4,5,4,7,3,2,6,5,1]","action_history":"[1,1,1,1,1,0,1,0,1]","mutagen_history":"[0,0,0,0,0,1,0,1,0]","location_rts":"[55582,9762,454,433,446,444,435,244,743]","trial_type":"fractal-mutation","trial_index":89,"time_elapsed":3004834,"internal_node_id":"0.0-5.0-35.0"},{"group":"square cycles (cube, non-group)","fractal_assignment":["../images/ylw_pnk.png","../images/grn_red.png","../images/blu_wht.png","../images/pnk_blu.png","../images/gry_blk.png","../images/org_blu.png","../images/cyn_red.png","../images/ylw_slt.png"],"mutagen_generator_assignment":[1,0],"goal":5,"start":1,"action_noise":0.1,"location_history":"[1,0,4,5]","action_history":"[1,1,1]","mutagen_history":"[0,0,0]","location_rts":"[22543,546,452]","trial_type":"fractal-mutation","trial_index":90,"time_elapsed":3035166,"internal_node_id":"0.0-5.0-36.0"},{"group":"square cycles (cube, non-group)","fractal_assignment":["../images/ylw_pnk.png","../images/grn_red.png","../images/blu_wht.png","../images/pnk_blu.png","../images/gry_blk.png","../images/org_blu.png","../images/cyn_red.png","../images/ylw_slt.png"],"mutagen_generator_assignment":[1,0],"goal":7,"start":5,"action_noise":0.1,"location_history":"[5,4,7]","action_history":"[0,1]","mutagen_history":"[1,0]","location_rts":"[30026,1136]","trial_type":"fractal-mutation","trial_index":91,"time_elapsed":3072127,"internal_node_id":"0.0-5.0-37.0"},{"group":"square cycles (cube, non-group)","fractal_assignment":["../images/ylw_pnk.png","../images/grn_red.png","../images/blu_wht.png","../images/pnk_blu.png","../images/gry_blk.png","../images/org_blu.png","../images/cyn_red.png","../images/ylw_slt.png"],"mutagen_generator_assignment":[1,0],"goal":2,"start":7,"action_noise":0.1,"location_history":"[7,3,2]","action_history":"[1,1]","mutagen_history":"[0,0]","location_rts":"[44988,1064]","trial_type":"fractal-mutation","trial_index":92,"time_elapsed":3123874,"internal_node_id":"0.0-5.0-38.0"},{"group":"square cycles (cube, non-group)","fractal_assignment":["../images/ylw_pnk.png","../images/grn_red.png","../images/blu_wht.png","../images/pnk_blu.png","../images/gry_blk.png","../images/org_blu.png","../images/cyn_red.png","../images/ylw_slt.png"],"mutagen_generator_assignment":[1,0],"goal":1,"start":2,"action_noise":0.1,"location_history":"[2,6,5,1]","action_history":"[1,0,1]","mutagen_history":"[0,1,0]","location_rts":"[2216,646,607]","trial_type":"fractal-mutation","trial_index":93,"time_elapsed":3134206,"internal_node_id":"0.0-5.0-39.0"},{"group":"square cycles (cube, non-group)","fractal_assignment":["../images/ylw_pnk.png","../images/grn_red.png","../images/blu_wht.png","../images/pnk_blu.png","../images/gry_blk.png","../images/org_blu.png","../images/cyn_red.png","../images/ylw_slt.png"],"mutagen_generator_assignment":[1,0],"goal":3,"start":1,"action_noise":0.1,"location_history":"[1,2,6,7,3]","action_history":"[0,1,1,1]","mutagen_history":"[1,0,0,0]","location_rts":"[7063,1116,1483,621]","trial_type":"fractal-mutation","trial_index":94,"time_elapsed":3152448,"internal_node_id":"0.0-5.0-40.0"},{"group":"square cycles (cube, non-group)","fractal_assignment":["../images/ylw_pnk.png","../images/grn_red.png","../images/blu_wht.png","../images/pnk_blu.png","../images/gry_blk.png","../images/org_blu.png","../images/cyn_red.png","../images/ylw_slt.png"],"mutagen_generator_assignment":[1,0],"goal":4,"start":3,"action_noise":0.1,"location_history":"[3,2,3,0,4]","action_history":"[0,0,0,1]","mutagen_history":"[1,1,1,0]","location_rts":"[2152,825,660,678]","trial_type":"fractal-mutation","trial_index":95,"time_elapsed":3164885,"internal_node_id":"0.0-5.0-41.0"},{"group":"square cycles (cube, non-group)","fractal_assignment":["../images/ylw_pnk.png","../images/grn_red.png","../images/blu_wht.png","../images/pnk_blu.png","../images/gry_blk.png","../images/org_blu.png","../images/cyn_red.png","../images/ylw_slt.png"],"mutagen_generator_assignment":[1,0],"goal":2,"start":4,"action_noise":0.1,"location_history":"[4,7,3,2]","action_history":"[0,1,1]","mutagen_history":"[1,0,0]","location_rts":"[1185,583,574]","trial_type":"fractal-mutation","trial_index":96,"time_elapsed":3174078,"internal_node_id":"0.0-5.0-42.0"},{"group":"square cycles (cube, non-group)","fractal_assignment":["../images/ylw_pnk.png","../images/grn_red.png","../images/blu_wht.png","../images/pnk_blu.png","../images/gry_blk.png","../images/org_blu.png","../images/cyn_red.png","../images/ylw_slt.png"],"mutagen_generator_assignment":[1,0],"goal":5,"start":2,"action_noise":0.1,"location_history":"[2,3,2,3,0,4,5]","action_history":"[0,1,0,0,1,1]","mutagen_history":"[1,0,1,1,0,0]","location_rts":"[2258,570,472,2050,1097,421]","trial_type":"fractal-mutation","trial_index":97,"time_elapsed":3191211,"internal_node_id":"0.0-5.0-43.0"},{"group":"square cycles (cube, non-group)","fractal_assignment":["../images/ylw_pnk.png","../images/grn_red.png","../images/blu_wht.png","../images/pnk_blu.png","../images/gry_blk.png","../images/org_blu.png","../images/cyn_red.png","../images/ylw_slt.png"],"mutagen_generator_assignment":[1,0],"goal":0,"start":5,"action_noise":0.1,"location_history":"[5,1,0]","action_history":"[1,1]","mutagen_history":"[0,0]","location_rts":"[1077,444]","trial_type":"fractal-mutation","trial_index":98,"time_elapsed":3198416,"internal_node_id":"0.0-5.0-44.0"},{"group":"square cycles (cube, non-group)","fractal_assignment":["../images/ylw_pnk.png","../images/grn_red.png","../images/blu_wht.png","../images/pnk_blu.png","../images/gry_blk.png","../images/org_blu.png","../images/cyn_red.png","../images/ylw_slt.png"],"mutagen_generator_assignment":[1,0],"goal":7,"start":0,"action_noise":0.1,"location_history":"[0,1,2,6,7]","action_history":"[0,0,1,1]","mutagen_history":"[1,1,0,0]","location_rts":"[4270,797,739,838]","trial_type":"fractal-mutation","trial_index":99,"time_elapsed":3213090,"internal_node_id":"0.0-5.0-45.0"},{"group":"square cycles (cube, non-group)","fractal_assignment":["../images/ylw_pnk.png","../images/grn_red.png","../images/blu_wht.png","../images/pnk_blu.png","../images/gry_blk.png","../images/org_blu.png","../images/cyn_red.png","../images/ylw_slt.png"],"mutagen_generator_assignment":[1,0],"goal":6,"start":7,"action_noise":0.1,"location_history":"[7,3,2,6]","action_history":"[1,1,1]","mutagen_history":"[0,0,0]","location_rts":"[1519,712,2067]","trial_type":"fractal-mutation","trial_index":100,"time_elapsed":3224183,"internal_node_id":"0.0-5.0-46.0"},{"group":"square cycles (cube, non-group)","fractal_assignment":["../images/ylw_pnk.png","../images/grn_red.png","../images/blu_wht.png","../images/pnk_blu.png","../images/gry_blk.png","../images/org_blu.png","../images/cyn_red.png","../images/ylw_slt.png"],"mutagen_generator_assignment":[1,0],"goal":2,"start":6,"action_noise":0.1,"location_history":"[6,7,3,0,4,5,4,7,3,2]","action_history":"[1,1,1,1,1,0,0,1,1]","mutagen_history":"[0,0,0,0,0,1,1,0,0]","location_rts":"[1192,503,583,987,695,819,962,625,455]","trial_type":"fractal-mutation","trial_index":101,"time_elapsed":3244527,"internal_node_id":"0.0-5.0-47.0"},{"group":"square cycles (cube, non-group)","fractal_assignment":["../images/ylw_pnk.png","../images/grn_red.png","../images/blu_wht.png","../images/pnk_blu.png","../images/gry_blk.png","../images/org_blu.png","../images/cyn_red.png","../images/ylw_slt.png"],"mutagen_generator_assignment":[1,0],"goal":5,"start":2,"action_noise":0.1,"location_history":"[2,3,0,4,5]","action_history":"[0,0,1,1]","mutagen_history":"[1,1,0,0]","location_rts":"[1171,1385,669,524]","trial_type":"fractal-mutation","trial_index":102,"time_elapsed":3256298,"internal_node_id":"0.0-5.0-48.0"},{"group":"square cycles (cube, non-group)","fractal_assignment":["../images/ylw_pnk.png","../images/grn_red.png","../images/blu_wht.png","../images/pnk_blu.png","../images/gry_blk.png","../images/org_blu.png","../images/cyn_red.png","../images/ylw_slt.png"],"mutagen_generator_assignment":[1,0],"goal":3,"start":5,"action_noise":0.1,"location_history":"[5,4,7,3]","action_history":"[0,0,1]","mutagen_history":"[1,1,0]","location_rts":"[1247,11289,576]","trial_type":"fractal-mutation","trial_index":103,"time_elapsed":3276343,"internal_node_id":"0.0-5.0-49.0"},{"view_history":"[{\"page_index\":0,\"viewing_time\":72423}]","rt":72425,"trial_type":"instructions","trial_index":104,"time_elapsed":3349768,"internal_node_id":"0.0-6.0"},{"rt":31745,"responses":"{\"Q0\":\"How efficiently we could find the goal room using the preset behaviors for the doors\"}","trial_type":"survey-text","trial_index":105,"time_elapsed":3382521,"internal_node_id":"0.0-7.0-0.0"},{"rt":57485,"responses":"{\"Q0\":\"How efficiently we could create the alien culture using the preset behaviors for the acid and the gamma rays\"}","trial_type":"survey-text","trial_index":106,"time_elapsed":3441011,"internal_node_id":"0.0-7.0-1.0"},{"rt":151185,"responses":"{\"Q0\":\"<img src='../images/diagrams/square_cycles.png'>\"}","trial_type":"survey-multi-choice","trial_index":107,"time_elapsed":3593205,"internal_node_id":"0.0-7.0-2.0"},{"rt":117552,"assignments":["../images/ylw_slt.png","../images/grn_red.png","../images/org_blu.png","../images/ylw_pnk.png","../images/gry_blk.png","../images/blu_wht.png","../images/cyn_red.png","../images/pnk_blu.png"],"trial_type":"drag-drop-on-image","trial_index":108,"time_elapsed":3711762,"internal_node_id":"0.0-7.0-3.0"},{"rt":36508,"responses":"{\"Q0\":\"4\"}","trial_type":"survey-likert","trial_index":109,"time_elapsed":3749274,"internal_node_id":"0.0-7.0-4.0"},{"rt":88073,"responses":"{\"Q0\":\"There seemed to be two preset groups of rooms and alien cultures, and the white door or acid would change within the group; the black door or gamma ray would change to the other group. Sometimes they wouldn't behave as expected which was described in the behavior of the doors (haunted) or the alien life (volatile)\"}","trial_type":"survey-text","trial_index":110,"time_elapsed":3838351,"internal_node_id":"0.0-7.0-5.0"},{"rt":66752,"responses":"{\"Q0\":\"No\"}","trial_type":"survey-multi-choice","trial_index":111,"time_elapsed":3906110,"internal_node_id":"0.0-7.0-6.0"},{"rt":6767,"responses":"{\"Q0\":\"During session 1\"}","trial_type":"survey-multi-choice","trial_index":112,"time_elapsed":3913883,"internal_node_id":"0.0-7.0-7.0"},{"rt":38770,"responses":"{\"Q0\":\"The behaviors of the doors and the scientific tools seemed to do the same thing in relation to the rooms and the alien cultures -- change between the two sets of preset rooms or alien cultures\"}","trial_type":"survey-text","trial_index":113,"time_elapsed":3953655,"internal_node_id":"0.0-7.0-8.0"},{"rt":4239,"responses":"{\"Q0\":\"4\"}","trial_type":"survey-likert","trial_index":114,"time_elapsed":3958898,"internal_node_id":"0.0-7.0-9.0"},{"rt":9103,"responses":"{\"Q0\":\"Same structure\"}","trial_type":"survey-multi-choice","trial_index":115,"time_elapsed":3969005,"internal_node_id":"0.0-7.0-10.0"},{"rt":15827,"responses":"{\"Q0\":\"left (white) door = acid, (black) door = ray\",\"Q1\":\"Pretty confident\"}","trial_type":"survey-multi-choice","trial_index":116,"time_elapsed":3985840,"internal_node_id":"0.0-7.0-11.0"},{"rt":6817,"responses":"{\"Q0\":\"25-35\",\"Q1\":\"Some college\",\"Q2\":\"Male\",\"Q3\":\"Asian\"}","trial_type":"survey-multi-choice","trial_index":117,"time_elapsed":3993686,"internal_node_id":"0.0-8.0"},{"rt":21433,"responses":"{\"Q0\":\"It was extremely enjoyable and I hope that my perception of how the experiment worked helped in the overall study. Thank you very much!\"}","trial_type":"survey-text","trial_index":118,"time_elapsed":4016122,"internal_node_id":"0.0-9.0"}]