[{"view_history":"[{\"page_index\":0,\"viewing_time\":18220},{\"page_index\":1,\"viewing_time\":20991}]","rt":39212,"trial_type":"instructions","trial_index":0,"time_elapsed":39212,"internal_node_id":"0.0-0.0"},{"view_history":"[{\"page_index\":0,\"viewing_time\":5365},{\"page_index\":1,\"viewing_time\":6744}]","rt":12109,"trial_type":"instructions","trial_index":1,"time_elapsed":52323,"internal_node_id":"0.0-1.0"},{"group":"tri cycles (cube, non-group)","room_assignment":["brown","pink","grey","green","blue","purple","red","yellow"],"door_color_assignment":["black","white"],"door_generator_assignment":[1,0],"goal":5,"start":7,"action_noise":0.1,"location_history":"[7,6,5]","action_history":"[1,1]","door_history":"[0,0]","location_rts":"[8520,417]","trial_type":"two-door-navigation","trial_index":2,"time_elapsed":66811,"internal_node_id":"0.0-2.0-0.0"},{"group":"tri cycles (cube, non-group)","room_assignment":["brown","pink","grey","green","blue","purple","red","yellow"],"door_color_assignment":["black","white"],"door_generator_assignment":[1,0],"goal":2,"start":5,"action_noise":0.1,"location_history":"[5,2]","action_history":"[1]","door_history":"[0]","location_rts":"[424]","trial_type":"two-door-navigation","trial_index":3,"time_elapsed":71757,"internal_node_id":"0.0-2.0-1.0"},{"group":"tri cycles (cube, non-group)","room_assignment":["brown","pink","grey","green","blue","purple","red","yellow"],"door_color_assignment":["black","white"],"door_generator_assignment":[1,0],"goal":0,"start":2,"action_noise":0.1,"location_history":"[2,6,4,7,6,4,7,6,5,2,6,5,1,5,2,1,0]","action_history":"[1,1,0,0,0,0,1,1,1,1,1,0,0,0,0,0]","door_history":"[0,0,1,1,1,1,0,0,0,0,0,1,1,1,1,1]","location_rts":"[405,328,1332,478,4204,352,504,334,268,320,360,284,319,303,474,310]","trial_type":"two-door-navigation","trial_index":4,"time_elapsed":102139,"internal_node_id":"0.0-2.0-2.0"},{"group":"tri cycles (cube, non-group)","room_assignment":["brown","pink","grey","green","blue","purple","red","yellow"],"door_color_assignment":["black","white"],"door_generator_assignment":[1,0],"goal":1,"start":0,"action_noise":0.1,"location_history":"[0,2,1]","action_history":"[0,0]","door_history":"[1,1]","location_rts":"[1640,303]","trial_type":"two-door-navigation","trial_index":5,"time_elapsed":109628,"internal_node_id":"0.0-2.0-3.0"},{"group":"tri cycles (cube, non-group)","room_assignment":["brown","pink","grey","green","blue","purple","red","yellow"],"door_color_assignment":["black","white"],"door_generator_assignment":[1,0],"goal":6,"start":1,"action_noise":0.1,"location_history":"[1,0,3,4,7,3,7,6]","action_history":"[0,1,1,1,1,1,0]","door_history":"[1,0,0,0,0,0,1]","location_rts":"[789,63,245,272,322,664,740]","trial_type":"two-door-navigation","trial_index":6,"time_elapsed":123365,"internal_node_id":"0.0-2.0-4.0"},{"group":"tri cycles (cube, non-group)","room_assignment":["brown","pink","grey","green","blue","purple","red","yellow"],"door_color_assignment":["black","white"],"door_generator_assignment":[1,0],"goal":3,"start":6,"action_noise":0.1,"location_history":"[6,5,2,1,5,2,6,4,0,3]","action_history":"[1,1,1,1,1,1,0,1,1]","door_history":"[0,0,0,0,0,0,1,0,0]","location_rts":"[1502,320,333,392,494,398,282,304,331]","trial_type":"two-door-navigation","trial_index":7,"time_elapsed":140390,"internal_node_id":"0.0-2.0-5.0"},{"group":"tri cycles (cube, non-group)","room_assignment":["brown","pink","grey","green","blue","purple","red","yellow"],"door_color_assignment":["black","white"],"door_generator_assignment":[1,0],"goal":4,"start":3,"action_noise":0.1,"location_history":"[3,7,6,4]","action_history":"[0,0,0]","door_history":"[1,1,1]","location_rts":"[1555,326,785]","trial_type":"two-door-navigation","trial_index":8,"time_elapsed":149620,"internal_node_id":"0.0-2.0-6.0"},{"group":"tri cycles (cube, non-group)","room_assignment":["brown","pink","grey","green","blue","purple","red","yellow"],"door_color_assignment":["black","white"],"door_generator_assignment":[1,0],"goal":1,"start":4,"action_noise":0.1,"location_history":"[4,0,3,7,6,4,7,6,4,7,3,4,7,6,4,7,3,4,0,2,1]","action_history":"[0,1,0,0,0,1,0,0,0,1,1,0,0,0,0,1,1,1,0,0]","door_history":"[1,0,1,1,1,0,1,1,1,0,0,1,1,1,1,0,0,0,1,1]","location_rts":"[340,486,336,234,255,477,306,306,122,313,602,621,326,206,317,249,249,450,834,342]","trial_type":"two-door-navigation","trial_index":9,"time_elapsed":180859,"internal_node_id":"0.0-2.0-7.0"},{"group":"tri cycles (cube, non-group)","room_assignment":["brown","pink","grey","green","blue","purple","red","yellow"],"door_color_assignment":["black","white"],"door_generator_assignment":[1,0],"goal":4,"start":1,"action_noise":0.1,"location_history":"[1,5,2,6,5,2,1,5,2,6,5,2,6,4]","action_history":"[1,1,1,1,1,0,1,1,1,1,1,1,0]","door_history":"[0,0,0,0,0,1,0,0,0,0,0,0,1]","location_rts":"[2238,7399,8332,181,414,1103,525,240,313,873,405,330,750]","trial_type":"two-door-navigation","trial_index":10,"time_elapsed":220715,"internal_node_id":"0.0-2.0-8.0"},{"group":"tri cycles (cube, non-group)","room_assignment":["brown","pink","grey","green","blue","purple","red","yellow"],"door_color_assignment":["black","white"],"door_generator_assignment":[1,0],"goal":5,"start":4,"action_noise":0.1,"location_history":"[4,0,3,7,3,4,0,3,7,3,7,6,5]","action_history":"[1,1,0,1,1,1,1,0,0,0,0,1]","door_history":"[0,0,1,0,0,0,0,1,1,1,1,0]","location_rts":"[743,255,346,206,96,265,208,260,209,110,251,164]","trial_type":"two-door-navigation","trial_index":11,"time_elapsed":239618,"internal_node_id":"0.0-2.0-9.0"},{"group":"tri cycles (cube, non-group)","room_assignment":["brown","pink","grey","green","blue","purple","red","yellow"],"door_color_assignment":["black","white"],"door_generator_assignment":[1,0],"goal":3,"start":5,"action_noise":0.1,"location_history":"[5,2,6,5,1,0,3]","action_history":"[1,1,1,0,0,1]","door_history":"[0,0,0,1,1,0]","location_rts":"[253,145,53,4,136,142]","trial_type":"two-door-navigation","trial_index":12,"time_elapsed":249959,"internal_node_id":"0.0-2.0-10.0"},{"group":"tri cycles (cube, non-group)","room_assignment":["brown","pink","grey","green","blue","purple","red","yellow"],"door_color_assignment":["black","white"],"door_generator_assignment":[1,0],"goal":6,"start":3,"action_noise":0.1,"location_history":"[3,4,7,3,7,3,7,3,7,6]","action_history":"[1,0,1,1,1,1,1,0,0]","door_history":"[0,1,0,0,0,0,0,1,1]","location_rts":"[1225,310,1144,261,283,277,374,146,959]","trial_type":"two-door-navigation","trial_index":13,"time_elapsed":267600,"internal_node_id":"0.0-2.0-11.0"},{"group":"tri cycles (cube, non-group)","room_assignment":["brown","pink","grey","green","blue","purple","red","yellow"],"door_color_assignment":["black","white"],"door_generator_assignment":[1,0],"goal":7,"start":6,"action_noise":0.1,"location_history":"[6,4,7]","action_history":"[0,0]","door_history":"[1,1]","location_rts":"[4604,329]","trial_type":"two-door-navigation","trial_index":14,"time_elapsed":278077,"internal_node_id":"0.0-2.0-12.0"},{"group":"tri cycles (cube, non-group)","room_assignment":["brown","pink","grey","green","blue","purple","red","yellow"],"door_color_assignment":["black","white"],"door_generator_assignment":[1,0],"goal":0,"start":7,"action_noise":0.1,"location_history":"[7,3,4,7,3,7,6,4,0]","action_history":"[1,1,0,1,0,0,0,1]","door_history":"[0,0,1,0,1,1,1,0]","location_rts":"[2195,321,387,264,612,319,304,246]","trial_type":"two-door-navigation","trial_index":15,"time_elapsed":294375,"internal_node_id":"0.0-2.0-13.0"},{"group":"tri cycles (cube, non-group)","room_assignment":["brown","pink","grey","green","blue","purple","red","yellow"],"door_color_assignment":["black","white"],"door_generator_assignment":[1,0],"goal":2,"start":0,"action_noise":0.1,"location_history":"[0,2]","action_history":"[0]","door_history":"[1]","location_rts":"[1892]","trial_type":"two-door-navigation","trial_index":16,"time_elapsed":300789,"internal_node_id":"0.0-2.0-14.0"},{"group":"tri cycles (cube, non-group)","room_assignment":["brown","pink","grey","green","blue","purple","red","yellow"],"door_color_assignment":["black","white"],"door_generator_assignment":[1,0],"goal":1,"start":2,"action_noise":0.1,"location_history":"[2,6,4,7,6,5,2,1]","action_history":"[0,0,0,0,1,1,0]","door_history":"[1,1,1,1,0,0,1]","location_rts":"[1396,266,280,328,1268,485,1350]","trial_type":"two-door-navigation","trial_index":17,"time_elapsed":316810,"internal_node_id":"0.0-2.0-15.0"},{"group":"tri cycles (cube, non-group)","room_assignment":["brown","pink","grey","green","blue","purple","red","yellow"],"door_color_assignment":["black","white"],"door_generator_assignment":[1,0],"goal":6,"start":1,"action_noise":0.1,"location_history":"[1,0,2,6]","action_history":"[0,0,0]","door_history":"[1,1,1]","location_rts":"[2413,315,324]","trial_type":"two-door-navigation","trial_index":18,"time_elapsed":326425,"internal_node_id":"0.0-2.0-16.0"},{"group":"tri cycles (cube, non-group)","room_assignment":["brown","pink","grey","green","blue","purple","red","yellow"],"door_color_assignment":["black","white"],"door_generator_assignment":[1,0],"goal":3,"start":6,"action_noise":0.1,"location_history":"[6,5,2,6,5,2,1,0,2,6,5,1,0,2,6,5,2,1,0,2,1,5,2,1,5,2,6,4,7,6,4,7,3]","action_history":"[1,1,1,1,1,0,0,1,1,1,0,0,0,1,1,1,1,0,0,0,1,1,0,1,1,1,0,0,0,0,0,1]","door_history":"[0,0,0,0,0,1,1,0,0,0,1,1,1,0,0,0,0,1,1,1,0,0,1,0,0,0,1,1,1,1,1,0]","location_rts":"[1514,292,839,303,404,229,334,351,388,324,294,356,334,750,319,325,379,88,361,373,715,296,372,277,470,523,293,644,372,304,554,822]","trial_type":"two-door-navigation","trial_index":19,"time_elapsed":376737,"internal_node_id":"0.0-2.0-17.0"},{"group":"tri cycles (cube, non-group)","room_assignment":["brown","pink","grey","green","blue","purple","red","yellow"],"door_color_assignment":["black","white"],"door_generator_assignment":[1,0],"goal":4,"start":3,"action_noise":0.1,"location_history":"[3,4]","action_history":"[1]","door_history":"[0]","location_rts":"[1662]","trial_type":"two-door-navigation","trial_index":20,"time_elapsed":382941,"internal_node_id":"0.0-2.0-18.0"},{"group":"tri cycles (cube, non-group)","room_assignment":["brown","pink","grey","green","blue","purple","red","yellow"],"door_color_assignment":["black","white"],"door_generator_assignment":[1,0],"goal":5,"start":4,"action_noise":0.1,"location_history":"[4,0,3,7,6,5]","action_history":"[1,1,0,0,1]","door_history":"[0,0,1,1,0]","location_rts":"[1451,235,1024,309,639]","trial_type":"two-door-navigation","trial_index":21,"time_elapsed":395211,"internal_node_id":"0.0-2.0-19.0"},{"group":"tri cycles (cube, non-group)","room_assignment":["brown","pink","grey","green","blue","purple","red","yellow"],"door_color_assignment":["black","white"],"door_generator_assignment":[1,0],"goal":7,"start":5,"action_noise":0.1,"location_history":"[5,1,5,2,1,0,2,6,5,2,6,5,1,0,2,6,5,2,1,0,2,6,5,2,6,5,1,0,3,4,0,2,1,0,3,7]","action_history":"[0,1,1,0,0,0,1,1,1,1,0,0,0,0,1,1,1,0,0,0,1,1,1,1,0,0,0,1,1,1,0,0,0,1,0]","door_history":"[1,0,0,1,1,1,0,0,0,0,1,1,1,1,0,0,0,1,1,1,0,0,0,0,1,1,1,0,0,0,1,1,1,0,1]","location_rts":"[352,54,174,494,263,239,193,962,326,756,280,282,376,316,373,284,304,242,217,326,125,135,246,283,104,128,190,116,205,351,518,230,100,104,1091]","trial_type":"two-door-navigation","trial_index":22,"time_elapsed":445158,"internal_node_id":"0.0-2.0-20.0"},{"group":"tri cycles (cube, non-group)","room_assignment":["brown","pink","grey","green","blue","purple","red","yellow"],"door_color_assignment":["black","white"],"door_generator_assignment":[1,0],"goal":2,"start":7,"action_noise":0.1,"location_history":"[7,6,5,2]","action_history":"[0,1,1]","door_history":"[1,0,0]","location_rts":"[375,108,3]","trial_type":"two-door-navigation","trial_index":23,"time_elapsed":452191,"internal_node_id":"0.0-2.0-21.0"},{"group":"tri cycles (cube, non-group)","room_assignment":["brown","pink","grey","green","blue","purple","red","yellow"],"door_color_assignment":["black","white"],"door_generator_assignment":[1,0],"goal":0,"start":2,"action_noise":0.1,"location_history":"[2,1,0]","action_history":"[1,0]","door_history":"[0,1]","location_rts":"[2127,1305]","trial_type":"two-door-navigation","trial_index":24,"time_elapsed":461163,"internal_node_id":"0.0-2.0-22.0"},{"group":"tri cycles (cube, non-group)","room_assignment":["brown","pink","grey","green","blue","purple","red","yellow"],"door_color_assignment":["black","white"],"door_generator_assignment":[1,0],"goal":7,"start":0,"action_noise":0.1,"location_history":"[0,3,7]","action_history":"[1,0]","door_history":"[0,1]","location_rts":"[3580,2070]","trial_type":"two-door-navigation","trial_index":25,"time_elapsed":472349,"internal_node_id":"0.0-2.0-23.0"},{"group":"tri cycles (cube, non-group)","room_assignment":["brown","pink","grey","green","blue","purple","red","yellow"],"door_color_assignment":["black","white"],"door_generator_assignment":[1,0],"goal":5,"start":7,"action_noise":0.1,"location_history":"[7,6,4,0,3,7,3,7,6,4,0,2,6,5]","action_history":"[0,1,1,0,0,1,0,1,0,1,0,1,1]","door_history":"[1,0,0,1,1,0,1,0,1,0,1,0,0]","location_rts":"[3784,394,135,68,207,412,71,54,67,36,28,367,170]","trial_type":"two-door-navigation","trial_index":26,"time_elapsed":494888,"internal_node_id":"0.0-2.0-24.0"},{"group":"tri cycles (cube, non-group)","room_assignment":["brown","pink","grey","green","blue","purple","red","yellow"],"door_color_assignment":["black","white"],"door_generator_assignment":[1,0],"goal":0,"start":5,"action_noise":0.1,"location_history":"[5,2,1,5,2,1,0]","action_history":"[1,0,1,1,0,0]","door_history":"[0,1,0,0,1,1]","location_rts":"[509,93,167,659,364,294]","trial_type":"two-door-navigation","trial_index":27,"time_elapsed":506611,"internal_node_id":"0.0-2.0-25.0"},{"group":"tri cycles (cube, non-group)","room_assignment":["brown","pink","grey","green","blue","purple","red","yellow"],"door_color_assignment":["black","white"],"door_generator_assignment":[1,0],"goal":6,"start":0,"action_noise":0.1,"location_history":"[0,2,6]","action_history":"[0,1]","door_history":"[1,0]","location_rts":"[4028,278]","trial_type":"two-door-navigation","trial_index":28,"time_elapsed":516460,"internal_node_id":"0.0-2.0-26.0"},{"group":"tri cycles (cube, non-group)","room_assignment":["brown","pink","grey","green","blue","purple","red","yellow"],"door_color_assignment":["black","white"],"door_generator_assignment":[1,0],"goal":4,"start":6,"action_noise":0.1,"location_history":"[6,4]","action_history":"[1]","door_history":"[0]","location_rts":"[1529]","trial_type":"two-door-navigation","trial_index":29,"time_elapsed":522510,"internal_node_id":"0.0-2.0-27.0"},{"group":"tri cycles (cube, non-group)","room_assignment":["brown","pink","grey","green","blue","purple","red","yellow"],"door_color_assignment":["black","white"],"door_generator_assignment":[1,0],"goal":2,"start":4,"action_noise":0.1,"location_history":"[4,0,2]","action_history":"[1,0]","door_history":"[0,1]","location_rts":"[529,321]","trial_type":"two-door-navigation","trial_index":30,"time_elapsed":528903,"internal_node_id":"0.0-2.0-28.0"},{"group":"tri cycles (cube, non-group)","room_assignment":["brown","pink","grey","green","blue","purple","red","yellow"],"door_color_assignment":["black","white"],"door_generator_assignment":[1,0],"goal":3,"start":2,"action_noise":0.1,"location_history":"[2,6,5,2,1,0,3]","action_history":"[1,1,1,0,0,1]","door_history":"[0,0,0,1,1,0]","location_rts":"[941,329,362,845,316,9163]","trial_type":"two-door-navigation","trial_index":31,"time_elapsed":550503,"internal_node_id":"0.0-2.0-29.0"},{"group":"tri cycles (cube, non-group)","room_assignment":["brown","pink","grey","green","blue","purple","red","yellow"],"door_color_assignment":["black","white"],"door_generator_assignment":[1,0],"goal":1,"start":3,"action_noise":0.1,"location_history":"[3,7,6,5,2,6,4,7,6,5,2,6,5,1]","action_history":"[1,0,1,1,0,0,0,1,1,1,1,1,0]","door_history":"[0,1,0,0,1,1,1,0,0,0,0,0,1]","location_rts":"[849,367,935,372,578,334,313,306,367,676,752,356,296]","trial_type":"two-door-navigation","trial_index":32,"time_elapsed":573752,"internal_node_id":"0.0-2.0-30.0"},{"group":"tri cycles (cube, non-group)","room_assignment":["brown","pink","grey","green","blue","purple","red","yellow"],"door_color_assignment":["black","white"],"door_generator_assignment":[1,0],"goal":4,"start":1,"action_noise":0.1,"location_history":"[1,0,3,4]","action_history":"[0,1,1]","door_history":"[1,0,0]","location_rts":"[6006,302,333]","trial_type":"two-door-navigation","trial_index":33,"time_elapsed":586950,"internal_node_id":"0.0-2.0-31.0"},{"group":"tri cycles (cube, non-group)","room_assignment":["brown","pink","grey","green","blue","purple","red","yellow"],"door_color_assignment":["black","white"],"door_generator_assignment":[1,0],"goal":3,"start":4,"action_noise":0.1,"location_history":"[4,0,2,6,5,2,6,4,0,3]","action_history":"[1,0,1,1,1,0,0,0,1]","door_history":"[0,1,0,0,0,1,1,1,0]","location_rts":"[536,524,592,189,302,628,348,218,333]","trial_type":"two-door-navigation","trial_index":34,"time_elapsed":603294,"internal_node_id":"0.0-2.0-32.0"},{"group":"tri cycles (cube, non-group)","room_assignment":["brown","pink","grey","green","blue","purple","red","yellow"],"door_color_assignment":["black","white"],"door_generator_assignment":[1,0],"goal":6,"start":3,"action_noise":0.1,"location_history":"[3,4,7,6]","action_history":"[1,0,0]","door_history":"[0,1,1]","location_rts":"[2007,1051,3118]","trial_type":"two-door-navigation","trial_index":35,"time_elapsed":616079,"internal_node_id":"0.0-2.0-33.0"},{"group":"tri cycles (cube, non-group)","room_assignment":["brown","pink","grey","green","blue","purple","red","yellow"],"door_color_assignment":["black","white"],"door_generator_assignment":[1,0],"goal":0,"start":6,"action_noise":0.1,"location_history":"[6,5,2,1,5,2,6,5,1,0]","action_history":"[0,1,0,0,1,1,1,0,0]","door_history":"[1,0,1,1,0,0,0,1,1]","location_rts":"[1573,2590,266,1609,906,368,304,331,327]","trial_type":"two-door-navigation","trial_index":36,"time_elapsed":637030,"internal_node_id":"0.0-2.0-34.0"},{"group":"tri cycles (cube, non-group)","room_assignment":["brown","pink","grey","green","blue","purple","red","yellow"],"door_color_assignment":["black","white"],"door_generator_assignment":[1,0],"goal":1,"start":0,"action_noise":0.1,"location_history":"[0,2,1]","action_history":"[0,0]","door_history":"[1,1]","location_rts":"[755,762]","trial_type":"two-door-navigation","trial_index":37,"time_elapsed":644113,"internal_node_id":"0.0-2.0-35.0"},{"group":"tri cycles (cube, non-group)","room_assignment":["brown","pink","grey","green","blue","purple","red","yellow"],"door_color_assignment":["black","white"],"door_generator_assignment":[1,0],"goal":5,"start":1,"action_noise":0.1,"location_history":"[1,5]","action_history":"[1]","door_history":"[0]","location_rts":"[610]","trial_type":"two-door-navigation","trial_index":38,"time_elapsed":649243,"internal_node_id":"0.0-2.0-36.0"},{"group":"tri cycles (cube, non-group)","room_assignment":["brown","pink","grey","green","blue","purple","red","yellow"],"door_color_assignment":["black","white"],"door_generator_assignment":[1,0],"goal":7,"start":5,"action_noise":0.1,"location_history":"[5,2,1,0,3,4,7]","action_history":"[1,0,0,0,1,0]","door_history":"[0,1,1,1,0,1]","location_rts":"[355,170,174,252,144,128]","trial_type":"two-door-navigation","trial_index":39,"time_elapsed":660103,"internal_node_id":"0.0-2.0-37.0"},{"group":"tri cycles (cube, non-group)","room_assignment":["brown","pink","grey","green","blue","purple","red","yellow"],"door_color_assignment":["black","white"],"door_generator_assignment":[1,0],"goal":2,"start":7,"action_noise":0.1,"location_history":"[7,6,4,7,3,4,7,6,5,2]","action_history":"[0,1,0,1,1,0,0,1,1]","door_history":"[1,0,1,0,0,1,1,0,0]","location_rts":"[400,216,121,164,172,314,430,142,299]","trial_type":"two-door-navigation","trial_index":40,"time_elapsed":675104,"internal_node_id":"0.0-2.0-38.0"},{"group":"tri cycles (cube, non-group)","room_assignment":["brown","pink","grey","green","blue","purple","red","yellow"],"door_color_assignment":["black","white"],"door_generator_assignment":[1,0],"goal":1,"start":2,"action_noise":0.1,"location_history":"[2,1]","action_history":"[0]","door_history":"[1]","location_rts":"[347]","trial_type":"two-door-navigation","trial_index":41,"time_elapsed":679971,"internal_node_id":"0.0-2.0-39.0"},{"group":"tri cycles (cube, non-group)","room_assignment":["brown","pink","grey","green","blue","purple","red","yellow"],"door_color_assignment":["black","white"],"door_generator_assignment":[1,0],"goal":3,"start":1,"action_noise":0.1,"location_history":"[1,0,3]","action_history":"[1,1]","door_history":"[0,0]","location_rts":"[1124,30]","trial_type":"two-door-navigation","trial_index":42,"time_elapsed":686690,"internal_node_id":"0.0-2.0-40.0"},{"group":"tri cycles (cube, non-group)","room_assignment":["brown","pink","grey","green","blue","purple","red","yellow"],"door_color_assignment":["black","white"],"door_generator_assignment":[1,0],"goal":4,"start":3,"action_noise":0.1,"location_history":"[3,4]","action_history":"[1]","door_history":"[0]","location_rts":"[458]","trial_type":"two-door-navigation","trial_index":43,"time_elapsed":691676,"internal_node_id":"0.0-2.0-41.0"},{"group":"tri cycles (cube, non-group)","room_assignment":["brown","pink","grey","green","blue","purple","red","yellow"],"door_color_assignment":["black","white"],"door_generator_assignment":[1,0],"goal":2,"start":4,"action_noise":0.1,"location_history":"[4,0,3,7,6,4,0,3,4,7,6,5,2]","action_history":"[1,1,0,0,0,1,1,1,0,0,1,1]","door_history":"[0,0,1,1,1,0,0,0,1,1,0,0]","location_rts":"[400,222,705,251,442,70,277,352,298,291,537,579]","trial_type":"two-door-navigation","trial_index":44,"time_elapsed":711818,"internal_node_id":"0.0-2.0-42.0"},{"group":"tri cycles (cube, non-group)","room_assignment":["brown","pink","grey","green","blue","purple","red","yellow"],"door_color_assignment":["black","white"],"door_generator_assignment":[1,0],"goal":5,"start":2,"action_noise":0.1,"location_history":"[2,1,5]","action_history":"[0,1]","door_history":"[1,0]","location_rts":"[1047,6]","trial_type":"two-door-navigation","trial_index":45,"time_elapsed":718411,"internal_node_id":"0.0-2.0-43.0"},{"group":"tri cycles (cube, non-group)","room_assignment":["brown","pink","grey","green","blue","purple","red","yellow"],"door_color_assignment":["black","white"],"door_generator_assignment":[1,0],"goal":0,"start":5,"action_noise":0.1,"location_history":"[5,2,6,4,0]","action_history":"[1,1,0,1]","door_history":"[0,0,1,0]","location_rts":"[457,17,54,158]","trial_type":"two-door-navigation","trial_index":46,"time_elapsed":726680,"internal_node_id":"0.0-2.0-44.0"},{"group":"tri cycles (cube, non-group)","room_assignment":["brown","pink","grey","green","blue","purple","red","yellow"],"door_color_assignment":["black","white"],"door_generator_assignment":[1,0],"goal":7,"start":0,"action_noise":0.1,"location_history":"[0,3,7]","action_history":"[1,0]","door_history":"[0,1]","location_rts":"[565,356]","trial_type":"two-door-navigation","trial_index":47,"time_elapsed":733139,"internal_node_id":"0.0-2.0-45.0"},{"group":"tri cycles (cube, non-group)","room_assignment":["brown","pink","grey","green","blue","purple","red","yellow"],"door_color_assignment":["black","white"],"door_generator_assignment":[1,0],"goal":6,"start":7,"action_noise":0.1,"location_history":"[7,3,4,7,6]","action_history":"[1,0,1,0]","door_history":"[0,1,0,1]","location_rts":"[785,64,246,197]","trial_type":"two-door-navigation","trial_index":48,"time_elapsed":742019,"internal_node_id":"0.0-2.0-46.0"},{"group":"tri cycles (cube, non-group)","room_assignment":["brown","pink","grey","green","blue","purple","red","yellow"],"door_color_assignment":["black","white"],"door_generator_assignment":[1,0],"goal":2,"start":6,"action_noise":0.1,"location_history":"[6,5,1,5,2]","action_history":"[1,0,1,1]","door_history":"[0,1,0,0]","location_rts":"[611,61,39,233]","trial_type":"two-door-navigation","trial_index":49,"time_elapsed":750533,"internal_node_id":"0.0-2.0-47.0"},{"group":"tri cycles (cube, non-group)","room_assignment":["brown","pink","grey","green","blue","purple","red","yellow"],"door_color_assignment":["black","white"],"door_generator_assignment":[1,0],"goal":5,"start":2,"action_noise":0.1,"location_history":"[2,1,5]","action_history":"[0,1]","door_history":"[1,0]","location_rts":"[246,105]","trial_type":"two-door-navigation","trial_index":50,"time_elapsed":756417,"internal_node_id":"0.0-2.0-48.0"},{"group":"tri cycles (cube, non-group)","room_assignment":["brown","pink","grey","green","blue","purple","red","yellow"],"door_color_assignment":["black","white"],"door_generator_assignment":[1,0],"goal":3,"start":5,"action_noise":0.1,"location_history":"[5,2,1,5,2,6,5,1,5,2,1,5,1,0,3]","action_history":"[1,0,1,1,1,1,0,1,1,1,1,0,0,1]","door_history":"[0,1,0,0,0,0,1,0,0,0,0,1,1,0]","location_rts":"[572,74,163,320,294,310,257,191,283,310,309,109,189,32]","trial_type":"two-door-navigation","trial_index":51,"time_elapsed":777581,"internal_node_id":"0.0-2.0-49.0"},{"view_history":"[{\"page_index\":0,\"viewing_time\":157477}]","rt":157477,"trial_type":"instructions","trial_index":52,"time_elapsed":936060,"internal_node_id":"0.0-3.0"},{"view_history":"[{\"page_index\":0,\"viewing_time\":2302},{\"page_index\":1,\"viewing_time\":2537}]","rt":4839,"trial_type":"instructions","trial_index":53,"time_elapsed":941900,"internal_node_id":"0.0-4.0"},{"group":"square cycles (cube, non-group)","fractal_assignment":["../images/pnk_blu.png","../images/gry_blk.png","../images/org_blu.png","../images/ylw_slt.png","../images/cyn_red.png","../images/grn_red.png","../images/ylw_pnk.png","../images/blu_wht.png"],"mutagen_generator_assignment":[0,1],"goal":5,"start":7,"action_noise":0.1,"location_history":"[7,6,7,6,5]","action_history":"[0,0,0,0]","mutagen_history":"[0,0,0,0]","location_rts":"[3407,403,598,588]","trial_type":"fractal-mutation","trial_index":54,"time_elapsed":954543,"internal_node_id":"0.0-5.0-0.0"},{"group":"square cycles (cube, non-group)","fractal_assignment":["../images/pnk_blu.png","../images/gry_blk.png","../images/org_blu.png","../images/ylw_slt.png","../images/cyn_red.png","../images/grn_red.png","../images/ylw_pnk.png","../images/blu_wht.png"],"mutagen_generator_assignment":[0,1],"goal":2,"start":5,"action_noise":0.1,"location_history":"[5,1,2]","action_history":"[0,0]","mutagen_history":"[0,0]","location_rts":"[1028,560]","trial_type":"fractal-mutation","trial_index":55,"time_elapsed":961694,"internal_node_id":"0.0-5.0-1.0"},{"group":"square cycles (cube, non-group)","fractal_assignment":["../images/pnk_blu.png","../images/gry_blk.png","../images/org_blu.png","../images/ylw_slt.png","../images/cyn_red.png","../images/grn_red.png","../images/ylw_pnk.png","../images/blu_wht.png"],"mutagen_generator_assignment":[0,1],"goal":0,"start":2,"action_noise":0.1,"location_history":"[2,3,2,3,2,6,7,6,5,4,5,4,7,6,7,3,0]","action_history":"[0,0,0,1,1,1,0,0,0,1,0,0,1,1,1,0]","mutagen_history":"[0,0,0,1,1,1,0,0,0,1,0,0,1,1,1,0]","location_rts":"[1004,493,557,339,357,355,522,501,666,271,391,473,652,138,1425,666]","trial_type":"fractal-mutation","trial_index":56,"time_elapsed":990636,"internal_node_id":"0.0-5.0-2.0"},{"group":"square cycles (cube, non-group)","fractal_assignment":["../images/pnk_blu.png","../images/gry_blk.png","../images/org_blu.png","../images/ylw_slt.png","../images/cyn_red.png","../images/grn_red.png","../images/ylw_pnk.png","../images/blu_wht.png"],"mutagen_generator_assignment":[0,1],"goal":1,"start":0,"action_noise":0.1,"location_history":"[0,1]","action_history":"[0]","mutagen_history":"[0]","location_rts":"[1080]","trial_type":"fractal-mutation","trial_index":57,"time_elapsed":996251,"internal_node_id":"0.0-5.0-3.0"},{"group":"square cycles (cube, non-group)","fractal_assignment":["../images/pnk_blu.png","../images/gry_blk.png","../images/org_blu.png","../images/ylw_slt.png","../images/cyn_red.png","../images/grn_red.png","../images/ylw_pnk.png","../images/blu_wht.png"],"mutagen_generator_assignment":[0,1],"goal":6,"start":1,"action_noise":0.1,"location_history":"[1,2,6]","action_history":"[0,1]","mutagen_history":"[0,1]","location_rts":"[493,68]","trial_type":"fractal-mutation","trial_index":58,"time_elapsed":1002408,"internal_node_id":"0.0-5.0-4.0"},{"group":"square cycles (cube, non-group)","fractal_assignment":["../images/pnk_blu.png","../images/gry_blk.png","../images/org_blu.png","../images/ylw_slt.png","../images/cyn_red.png","../images/grn_red.png","../images/ylw_pnk.png","../images/blu_wht.png"],"mutagen_generator_assignment":[0,1],"goal":3,"start":6,"action_noise":0.1,"location_history":"[6,7,3]","action_history":"[1,1]","mutagen_history":"[1,1]","location_rts":"[1146,114]","trial_type":"fractal-mutation","trial_index":59,"time_elapsed":1009301,"internal_node_id":"0.0-5.0-5.0"},{"group":"square cycles (cube, non-group)","fractal_assignment":["../images/pnk_blu.png","../images/gry_blk.png","../images/org_blu.png","../images/ylw_slt.png","../images/cyn_red.png","../images/grn_red.png","../images/ylw_pnk.png","../images/blu_wht.png"],"mutagen_generator_assignment":[0,1],"goal":4,"start":3,"action_noise":0.1,"location_history":"[3,0,1,2,3,2,3,0,4]","action_history":"[0,0,0,0,1,0,0,0]","mutagen_history":"[0,0,0,0,1,0,0,0]","location_rts":"[1025,513,558,712,692,322,314,309]","trial_type":"fractal-mutation","trial_index":60,"time_elapsed":1025516,"internal_node_id":"0.0-5.0-6.0"},{"group":"square cycles (cube, non-group)","fractal_assignment":["../images/pnk_blu.png","../images/gry_blk.png","../images/org_blu.png","../images/ylw_slt.png","../images/cyn_red.png","../images/grn_red.png","../images/ylw_pnk.png","../images/blu_wht.png"],"mutagen_generator_assignment":[0,1],"goal":1,"start":4,"action_noise":0.1,"location_history":"[4,5,4,5,4,5,1]","action_history":"[0,0,0,0,1,1]","mutagen_history":"[0,0,0,0,1,1]","location_rts":"[972,360,419,597,314,502]","trial_type":"fractal-mutation","trial_index":61,"time_elapsed":1038400,"internal_node_id":"0.0-5.0-7.0"},{"group":"square cycles (cube, non-group)","fractal_assignment":["../images/pnk_blu.png","../images/gry_blk.png","../images/org_blu.png","../images/ylw_slt.png","../images/cyn_red.png","../images/grn_red.png","../images/ylw_pnk.png","../images/blu_wht.png"],"mutagen_generator_assignment":[0,1],"goal":4,"start":1,"action_noise":0.1,"location_history":"[1,2,3,0,1,2,6,7,6,5,4]","action_history":"[0,0,0,0,0,1,1,0,0,0]","mutagen_history":"[0,0,0,0,0,1,1,0,0,0]","location_rts":"[1026,373,659,684,628,565,394,371,395,344]","trial_type":"fractal-mutation","trial_index":62,"time_elapsed":1057691,"internal_node_id":"0.0-5.0-8.0"},{"group":"square cycles (cube, non-group)","fractal_assignment":["../images/pnk_blu.png","../images/gry_blk.png","../images/org_blu.png","../images/ylw_slt.png","../images/cyn_red.png","../images/grn_red.png","../images/ylw_pnk.png","../images/blu_wht.png"],"mutagen_generator_assignment":[0,1],"goal":5,"start":4,"action_noise":0.1,"location_history":"[4,7,6,5]","action_history":"[0,0,0]","mutagen_history":"[0,0,0]","location_rts":"[669,558,416]","trial_type":"fractal-mutation","trial_index":63,"time_elapsed":1065923,"internal_node_id":"0.0-5.0-9.0"},{"group":"square cycles (cube, non-group)","fractal_assignment":["../images/pnk_blu.png","../images/gry_blk.png","../images/org_blu.png","../images/ylw_slt.png","../images/cyn_red.png","../images/grn_red.png","../images/ylw_pnk.png","../images/blu_wht.png"],"mutagen_generator_assignment":[0,1],"goal":3,"start":5,"action_noise":0.1,"location_history":"[5,4,7,6,7,3]","action_history":"[0,0,1,1,1]","mutagen_history":"[0,0,1,1,1]","location_rts":"[8976,229,247,205,356]","trial_type":"fractal-mutation","trial_index":64,"time_elapsed":1084642,"internal_node_id":"0.0-5.0-10.0"},{"group":"square cycles (cube, non-group)","fractal_assignment":["../images/pnk_blu.png","../images/gry_blk.png","../images/org_blu.png","../images/ylw_slt.png","../images/cyn_red.png","../images/grn_red.png","../images/ylw_pnk.png","../images/blu_wht.png"],"mutagen_generator_assignment":[0,1],"goal":6,"start":3,"action_noise":0.1,"location_history":"[3,2,6]","action_history":"[1,1]","mutagen_history":"[1,1]","location_rts":"[11473,201]","trial_type":"fractal-mutation","trial_index":65,"time_elapsed":1101874,"internal_node_id":"0.0-5.0-11.0"},{"group":"square cycles (cube, non-group)","fractal_assignment":["../images/pnk_blu.png","../images/gry_blk.png","../images/org_blu.png","../images/ylw_slt.png","../images/cyn_red.png","../images/grn_red.png","../images/ylw_pnk.png","../images/blu_wht.png"],"mutagen_generator_assignment":[0,1],"goal":7,"start":6,"action_noise":0.1,"location_history":"[6,7]","action_history":"[1]","mutagen_history":"[1]","location_rts":"[1018]","trial_type":"fractal-mutation","trial_index":66,"time_elapsed":1107425,"internal_node_id":"0.0-5.0-12.0"},{"group":"square cycles (cube, non-group)","fractal_assignment":["../images/pnk_blu.png","../images/gry_blk.png","../images/org_blu.png","../images/ylw_slt.png","../images/cyn_red.png","../images/grn_red.png","../images/ylw_pnk.png","../images/blu_wht.png"],"mutagen_generator_assignment":[0,1],"goal":0,"start":7,"action_noise":0.1,"location_history":"[7,6,7,3,0]","action_history":"[0,1,1,0]","mutagen_history":"[0,1,1,0]","location_rts":"[1030,533,136,415]","trial_type":"fractal-mutation","trial_index":67,"time_elapsed":1117238,"internal_node_id":"0.0-5.0-13.0"},{"group":"square cycles (cube, non-group)","fractal_assignment":["../images/pnk_blu.png","../images/gry_blk.png","../images/org_blu.png","../images/ylw_slt.png","../images/cyn_red.png","../images/grn_red.png","../images/ylw_pnk.png","../images/blu_wht.png"],"mutagen_generator_assignment":[0,1],"goal":2,"start":0,"action_noise":0.1,"location_history":"[0,4,5,4,7,3,2]","action_history":"[1,0,0,0,1,1]","mutagen_history":"[1,0,0,0,1,1]","location_rts":"[1027,191,562,456,517,77]","trial_type":"fractal-mutation","trial_index":68,"time_elapsed":1129789,"internal_node_id":"0.0-5.0-14.0"},{"group":"square cycles (cube, non-group)","fractal_assignment":["../images/pnk_blu.png","../images/gry_blk.png","../images/org_blu.png","../images/ylw_slt.png","../images/cyn_red.png","../images/grn_red.png","../images/ylw_pnk.png","../images/blu_wht.png"],"mutagen_generator_assignment":[0,1],"goal":1,"start":2,"action_noise":0.1,"location_history":"[2,3,0,1]","action_history":"[0,0,0]","mutagen_history":"[0,0,0]","location_rts":"[1017,311,370]","trial_type":"fractal-mutation","trial_index":69,"time_elapsed":1138100,"internal_node_id":"0.0-5.0-15.0"},{"group":"square cycles (cube, non-group)","fractal_assignment":["../images/pnk_blu.png","../images/gry_blk.png","../images/org_blu.png","../images/ylw_slt.png","../images/cyn_red.png","../images/grn_red.png","../images/ylw_pnk.png","../images/blu_wht.png"],"mutagen_generator_assignment":[0,1],"goal":6,"start":1,"action_noise":0.1,"location_history":"[1,2,6]","action_history":"[0,1]","mutagen_history":"[0,1]","location_rts":"[800,1453]","trial_type":"fractal-mutation","trial_index":70,"time_elapsed":1145939,"internal_node_id":"0.0-5.0-16.0"},{"group":"square cycles (cube, non-group)","fractal_assignment":["../images/pnk_blu.png","../images/gry_blk.png","../images/org_blu.png","../images/ylw_slt.png","../images/cyn_red.png","../images/grn_red.png","../images/ylw_pnk.png","../images/blu_wht.png"],"mutagen_generator_assignment":[0,1],"goal":3,"start":6,"action_noise":0.1,"location_history":"[6,7,3]","action_history":"[1,1]","mutagen_history":"[1,1]","location_rts":"[1003,508]","trial_type":"fractal-mutation","trial_index":71,"time_elapsed":1153082,"internal_node_id":"0.0-5.0-17.0"},{"group":"square cycles (cube, non-group)","fractal_assignment":["../images/pnk_blu.png","../images/gry_blk.png","../images/org_blu.png","../images/ylw_slt.png","../images/cyn_red.png","../images/grn_red.png","../images/ylw_pnk.png","../images/blu_wht.png"],"mutagen_generator_assignment":[0,1],"goal":4,"start":3,"action_noise":0.1,"location_history":"[3,0,1,0,1,0,4]","action_history":"[0,0,0,0,1,1]","mutagen_history":"[0,0,0,0,1,1]","location_rts":"[918,564,220,306,502,427]","trial_type":"fractal-mutation","trial_index":72,"time_elapsed":1165759,"internal_node_id":"0.0-5.0-18.0"},{"group":"square cycles (cube, non-group)","fractal_assignment":["../images/pnk_blu.png","../images/gry_blk.png","../images/org_blu.png","../images/ylw_slt.png","../images/cyn_red.png","../images/grn_red.png","../images/ylw_pnk.png","../images/blu_wht.png"],"mutagen_generator_assignment":[0,1],"goal":5,"start":4,"action_noise":0.1,"location_history":"[4,7,6,5]","action_history":"[0,0,0]","mutagen_history":"[0,0,0]","location_rts":"[1090,341,533]","trial_type":"fractal-mutation","trial_index":73,"time_elapsed":1174331,"internal_node_id":"0.0-5.0-19.0"},{"group":"square cycles (cube, non-group)","fractal_assignment":["../images/pnk_blu.png","../images/gry_blk.png","../images/org_blu.png","../images/ylw_slt.png","../images/cyn_red.png","../images/grn_red.png","../images/ylw_pnk.png","../images/blu_wht.png"],"mutagen_generator_assignment":[0,1],"goal":7,"start":5,"action_noise":0.1,"location_history":"[5,4,7]","action_history":"[0,0]","mutagen_history":"[0,0]","location_rts":"[1180,401]","trial_type":"fractal-mutation","trial_index":74,"time_elapsed":1181485,"internal_node_id":"0.0-5.0-20.0"},{"group":"square cycles (cube, non-group)","fractal_assignment":["../images/pnk_blu.png","../images/gry_blk.png","../images/org_blu.png","../images/ylw_slt.png","../images/cyn_red.png","../images/grn_red.png","../images/ylw_pnk.png","../images/blu_wht.png"],"mutagen_generator_assignment":[0,1],"goal":2,"start":7,"action_noise":0.1,"location_history":"[7,3,2]","action_history":"[0,1]","mutagen_history":"[0,1]","location_rts":"[872,113]","trial_type":"fractal-mutation","trial_index":75,"time_elapsed":1188047,"internal_node_id":"0.0-5.0-21.0"},{"group":"square cycles (cube, non-group)","fractal_assignment":["../images/pnk_blu.png","../images/gry_blk.png","../images/org_blu.png","../images/ylw_slt.png","../images/cyn_red.png","../images/grn_red.png","../images/ylw_pnk.png","../images/blu_wht.png"],"mutagen_generator_assignment":[0,1],"goal":0,"start":2,"action_noise":0.1,"location_history":"[2,3,2,3,0]","action_history":"[1,1,1,0]","mutagen_history":"[1,1,1,0]","location_rts":"[2708,309,214,4338]","trial_type":"fractal-mutation","trial_index":76,"time_elapsed":1203317,"internal_node_id":"0.0-5.0-22.0"},{"group":"square cycles (cube, non-group)","fractal_assignment":["../images/pnk_blu.png","../images/gry_blk.png","../images/org_blu.png","../images/ylw_slt.png","../images/cyn_red.png","../images/grn_red.png","../images/ylw_pnk.png","../images/blu_wht.png"],"mutagen_generator_assignment":[0,1],"goal":7,"start":0,"action_noise":0.1,"location_history":"[0,1,2,3,0,1,0,1,2,3,2,6,7]","action_history":"[0,0,0,0,0,0,0,0,1,1,1,1]","mutagen_history":"[0,0,0,0,0,0,0,0,1,1,1,1]","location_rts":"[435,344,809,532,642,302,641,709,875,318,342,336]","trial_type":"fractal-mutation","trial_index":77,"time_elapsed":1225620,"internal_node_id":"0.0-5.0-23.0"},{"group":"square cycles (cube, non-group)","fractal_assignment":["../images/pnk_blu.png","../images/gry_blk.png","../images/org_blu.png","../images/ylw_slt.png","../images/cyn_red.png","../images/grn_red.png","../images/ylw_pnk.png","../images/blu_wht.png"],"mutagen_generator_assignment":[0,1],"goal":5,"start":7,"action_noise":0.1,"location_history":"[7,6,5]","action_history":"[0,0]","mutagen_history":"[0,0]","location_rts":"[866,322]","trial_type":"fractal-mutation","trial_index":78,"time_elapsed":1232375,"internal_node_id":"0.0-5.0-24.0"},{"group":"square cycles (cube, non-group)","fractal_assignment":["../images/pnk_blu.png","../images/gry_blk.png","../images/org_blu.png","../images/ylw_slt.png","../images/cyn_red.png","../images/grn_red.png","../images/ylw_pnk.png","../images/blu_wht.png"],"mutagen_generator_assignment":[0,1],"goal":0,"start":5,"action_noise":0.1,"location_history":"[5,1,0]","action_history":"[1,1]","mutagen_history":"[1,1]","location_rts":"[2059,1166]","trial_type":"fractal-mutation","trial_index":79,"time_elapsed":1241190,"internal_node_id":"0.0-5.0-25.0"},{"group":"square cycles (cube, non-group)","fractal_assignment":["../images/pnk_blu.png","../images/gry_blk.png","../images/org_blu.png","../images/ylw_slt.png","../images/cyn_red.png","../images/grn_red.png","../images/ylw_pnk.png","../images/blu_wht.png"],"mutagen_generator_assignment":[0,1],"goal":6,"start":0,"action_noise":0.1,"location_history":"[0,1,0,1,2,6]","action_history":"[0,1,0,0,1]","mutagen_history":"[0,1,0,0,1]","location_rts":"[1165,400,542,265,719]","trial_type":"fractal-mutation","trial_index":80,"time_elapsed":1252935,"internal_node_id":"0.0-5.0-26.0"},{"group":"square cycles (cube, non-group)","fractal_assignment":["../images/pnk_blu.png","../images/gry_blk.png","../images/org_blu.png","../images/ylw_slt.png","../images/cyn_red.png","../images/grn_red.png","../images/ylw_pnk.png","../images/blu_wht.png"],"mutagen_generator_assignment":[0,1],"goal":4,"start":6,"action_noise":0.1,"location_history":"[6,5,4]","action_history":"[0,0]","mutagen_history":"[0,0]","location_rts":"[1230,480]","trial_type":"fractal-mutation","trial_index":81,"time_elapsed":1260213,"internal_node_id":"0.0-5.0-27.0"},{"group":"square cycles (cube, non-group)","fractal_assignment":["../images/pnk_blu.png","../images/gry_blk.png","../images/org_blu.png","../images/ylw_slt.png","../images/cyn_red.png","../images/grn_red.png","../images/ylw_pnk.png","../images/blu_wht.png"],"mutagen_generator_assignment":[0,1],"goal":2,"start":4,"action_noise":0.1,"location_history":"[4,7,6,5,1,2]","action_history":"[0,0,1,1,0]","mutagen_history":"[0,0,1,1,0]","location_rts":"[1117,426,562,150,517]","trial_type":"fractal-mutation","trial_index":82,"time_elapsed":1271741,"internal_node_id":"0.0-5.0-28.0"},{"group":"square cycles (cube, non-group)","fractal_assignment":["../images/pnk_blu.png","../images/gry_blk.png","../images/org_blu.png","../images/ylw_slt.png","../images/cyn_red.png","../images/grn_red.png","../images/ylw_pnk.png","../images/blu_wht.png"],"mutagen_generator_assignment":[0,1],"goal":3,"start":2,"action_noise":0.1,"location_history":"[2,6,5,1,2,6,7,3]","action_history":"[1,1,1,0,1,1,1]","mutagen_history":"[1,1,1,0,1,1,1]","location_rts":"[1128,238,187,453,989,262,601]","trial_type":"fractal-mutation","trial_index":83,"time_elapsed":1286404,"internal_node_id":"0.0-5.0-29.0"},{"group":"square cycles (cube, non-group)","fractal_assignment":["../images/pnk_blu.png","../images/gry_blk.png","../images/org_blu.png","../images/ylw_slt.png","../images/cyn_red.png","../images/grn_red.png","../images/ylw_pnk.png","../images/blu_wht.png"],"mutagen_generator_assignment":[0,1],"goal":1,"start":3,"action_noise":0.1,"location_history":"[3,0,1]","action_history":"[0,0]","mutagen_history":"[0,0]","location_rts":"[2041,127]","trial_type":"fractal-mutation","trial_index":84,"time_elapsed":1294170,"internal_node_id":"0.0-5.0-30.0"},{"group":"square cycles (cube, non-group)","fractal_assignment":["../images/pnk_blu.png","../images/gry_blk.png","../images/org_blu.png","../images/ylw_slt.png","../images/cyn_red.png","../images/grn_red.png","../images/ylw_pnk.png","../images/blu_wht.png"],"mutagen_generator_assignment":[0,1],"goal":4,"start":1,"action_noise":0.1,"location_history":"[1,2,3,2,3,0,1,2,3,0,4]","action_history":"[0,0,1,0,0,0,0,0,0,1]","mutagen_history":"[0,0,1,0,0,0,0,0,0,1]","location_rts":"[301,172,497,272,397,279,359,946,628,438]","trial_type":"fractal-mutation","trial_index":85,"time_elapsed":1312361,"internal_node_id":"0.0-5.0-31.0"},{"group":"square cycles (cube, non-group)","fractal_assignment":["../images/pnk_blu.png","../images/gry_blk.png","../images/org_blu.png","../images/ylw_slt.png","../images/cyn_red.png","../images/grn_red.png","../images/ylw_pnk.png","../images/blu_wht.png"],"mutagen_generator_assignment":[0,1],"goal":3,"start":4,"action_noise":0.1,"location_history":"[4,7,3]","action_history":"[0,1]","mutagen_history":"[0,1]","location_rts":"[1438,637]","trial_type":"fractal-mutation","trial_index":86,"time_elapsed":1320008,"internal_node_id":"0.0-5.0-32.0"},{"group":"square cycles (cube, non-group)","fractal_assignment":["../images/pnk_blu.png","../images/gry_blk.png","../images/org_blu.png","../images/ylw_slt.png","../images/cyn_red.png","../images/grn_red.png","../images/ylw_pnk.png","../images/blu_wht.png"],"mutagen_generator_assignment":[0,1],"goal":6,"start":3,"action_noise":0.1,"location_history":"[3,2,6]","action_history":"[1,1]","mutagen_history":"[1,1]","location_rts":"[870,102]","trial_type":"fractal-mutation","trial_index":87,"time_elapsed":1326549,"internal_node_id":"0.0-5.0-33.0"},{"group":"square cycles (cube, non-group)","fractal_assignment":["../images/pnk_blu.png","../images/gry_blk.png","../images/org_blu.png","../images/ylw_slt.png","../images/cyn_red.png","../images/grn_red.png","../images/ylw_pnk.png","../images/blu_wht.png"],"mutagen_generator_assignment":[0,1],"goal":0,"start":6,"action_noise":0.1,"location_history":"[6,7,6,7,3,0]","action_history":"[1,0,1,1,0]","mutagen_history":"[1,0,1,1,0]","location_rts":"[1270,577,149,431,328]","trial_type":"fractal-mutation","trial_index":88,"time_elapsed":1338050,"internal_node_id":"0.0-5.0-34.0"},{"group":"square cycles (cube, non-group)","fractal_assignment":["../images/pnk_blu.png","../images/gry_blk.png","../images/org_blu.png","../images/ylw_slt.png","../images/cyn_red.png","../images/grn_red.png","../images/ylw_pnk.png","../images/blu_wht.png"],"mutagen_generator_assignment":[0,1],"goal":1,"start":0,"action_noise":0.1,"location_history":"[0,1]","action_history":"[0]","mutagen_history":"[0]","location_rts":"[1241]","trial_type":"fractal-mutation","trial_index":89,"time_elapsed":1343825,"internal_node_id":"0.0-5.0-35.0"},{"group":"square cycles (cube, non-group)","fractal_assignment":["../images/pnk_blu.png","../images/gry_blk.png","../images/org_blu.png","../images/ylw_slt.png","../images/cyn_red.png","../images/grn_red.png","../images/ylw_pnk.png","../images/blu_wht.png"],"mutagen_generator_assignment":[0,1],"goal":5,"start":1,"action_noise":0.1,"location_history":"[1,2,3,0,1,0,4,5]","action_history":"[0,0,0,0,0,1,1]","mutagen_history":"[0,0,0,0,0,1,1]","location_rts":"[889,364,452,557,653,774,659]","trial_type":"fractal-mutation","trial_index":90,"time_elapsed":1358854,"internal_node_id":"0.0-5.0-36.0"},{"group":"square cycles (cube, non-group)","fractal_assignment":["../images/pnk_blu.png","../images/gry_blk.png","../images/org_blu.png","../images/ylw_slt.png","../images/cyn_red.png","../images/grn_red.png","../images/ylw_pnk.png","../images/blu_wht.png"],"mutagen_generator_assignment":[0,1],"goal":7,"start":5,"action_noise":0.1,"location_history":"[5,4,7]","action_history":"[0,0]","mutagen_history":"[0,0]","location_rts":"[586,250]","trial_type":"fractal-mutation","trial_index":91,"time_elapsed":1365234,"internal_node_id":"0.0-5.0-37.0"},{"group":"square cycles (cube, non-group)","fractal_assignment":["../images/pnk_blu.png","../images/gry_blk.png","../images/org_blu.png","../images/ylw_slt.png","../images/cyn_red.png","../images/grn_red.png","../images/ylw_pnk.png","../images/blu_wht.png"],"mutagen_generator_assignment":[0,1],"goal":2,"start":7,"action_noise":0.1,"location_history":"[7,6,5,4,5,4,5,1,2]","action_history":"[0,0,0,0,0,0,0,0]","mutagen_history":"[0,0,0,0,0,0,0,0]","location_rts":"[557,606,302,363,425,367,386,500]","trial_type":"fractal-mutation","trial_index":92,"time_elapsed":1380476,"internal_node_id":"0.0-5.0-38.0"},{"group":"square cycles (cube, non-group)","fractal_assignment":["../images/pnk_blu.png","../images/gry_blk.png","../images/org_blu.png","../images/ylw_slt.png","../images/cyn_red.png","../images/grn_red.png","../images/ylw_pnk.png","../images/blu_wht.png"],"mutagen_generator_assignment":[0,1],"goal":1,"start":2,"action_noise":0.1,"location_history":"[2,3,0,4,5,4,7,3,2,3,2,3,2,6,5,1]","action_history":"[0,0,1,1,0,0,1,1,0,1,0,1,1,0,1]","mutagen_history":"[0,0,1,1,0,0,1,1,0,1,0,1,1,0,1]","location_rts":"[654,521,113,292,251,324,181,241,86,420,315,302,418,377,216]","trial_type":"fractal-mutation","trial_index":93,"time_elapsed":1404061,"internal_node_id":"0.0-5.0-39.0"},{"group":"square cycles (cube, non-group)","fractal_assignment":["../images/pnk_blu.png","../images/gry_blk.png","../images/org_blu.png","../images/ylw_slt.png","../images/cyn_red.png","../images/grn_red.png","../images/ylw_pnk.png","../images/blu_wht.png"],"mutagen_generator_assignment":[0,1],"goal":3,"start":1,"action_noise":0.1,"location_history":"[1,2,6,7,3]","action_history":"[0,1,1,1]","mutagen_history":"[0,1,1,1]","location_rts":"[1310,529,246,201]","trial_type":"fractal-mutation","trial_index":94,"time_elapsed":1413939,"internal_node_id":"0.0-5.0-40.0"},{"group":"square cycles (cube, non-group)","fractal_assignment":["../images/pnk_blu.png","../images/gry_blk.png","../images/org_blu.png","../images/ylw_slt.png","../images/cyn_red.png","../images/grn_red.png","../images/ylw_pnk.png","../images/blu_wht.png"],"mutagen_generator_assignment":[0,1],"goal":4,"start":3,"action_noise":0.1,"location_history":"[3,0,1,2,3,2,3,0,1,0,1,2,6,5,1,2,3,0,4]","action_history":"[0,0,0,1,1,0,0,0,1,0,0,1,0,1,0,0,0,1]","mutagen_history":"[0,0,0,1,1,0,0,0,1,0,0,1,0,1,0,0,0,1]","location_rts":"[714,459,575,135,433,231,292,453,651,317,440,324,210,707,393,206,554,492]","trial_type":"fractal-mutation","trial_index":95,"time_elapsed":1443472,"internal_node_id":"0.0-5.0-41.0"},{"group":"square cycles (cube, non-group)","fractal_assignment":["../images/pnk_blu.png","../images/gry_blk.png","../images/org_blu.png","../images/ylw_slt.png","../images/cyn_red.png","../images/grn_red.png","../images/ylw_pnk.png","../images/blu_wht.png"],"mutagen_generator_assignment":[0,1],"goal":2,"start":4,"action_noise":0.1,"location_history":"[4,7,3,2]","action_history":"[0,1,1]","mutagen_history":"[0,1,1]","location_rts":"[982,609,10892]","trial_type":"fractal-mutation","trial_index":96,"time_elapsed":1462550,"internal_node_id":"0.0-5.0-42.0"},{"group":"square cycles (cube, non-group)","fractal_assignment":["../images/pnk_blu.png","../images/gry_blk.png","../images/org_blu.png","../images/ylw_slt.png","../images/cyn_red.png","../images/grn_red.png","../images/ylw_pnk.png","../images/blu_wht.png"],"mutagen_generator_assignment":[0,1],"goal":5,"start":2,"action_noise":0.1,"location_history":"[2,3,0,1,2,6,5]","action_history":"[0,0,0,0,1,0]","mutagen_history":"[0,0,0,0,1,0]","location_rts":"[5321,440,367,592,341,342]","trial_type":"fractal-mutation","trial_index":97,"time_elapsed":1479615,"internal_node_id":"0.0-5.0-43.0"},{"group":"square cycles (cube, non-group)","fractal_assignment":["../images/pnk_blu.png","../images/gry_blk.png","../images/org_blu.png","../images/ylw_slt.png","../images/cyn_red.png","../images/grn_red.png","../images/ylw_pnk.png","../images/blu_wht.png"],"mutagen_generator_assignment":[0,1],"goal":0,"start":5,"action_noise":0.1,"location_history":"[5,4,7,3,0]","action_history":"[0,0,1,0]","mutagen_history":"[0,0,1,0]","location_rts":"[172,555,223,233]","trial_type":"fractal-mutation","trial_index":98,"time_elapsed":1488393,"internal_node_id":"0.0-5.0-44.0"},{"group":"square cycles (cube, non-group)","fractal_assignment":["../images/pnk_blu.png","../images/gry_blk.png","../images/org_blu.png","../images/ylw_slt.png","../images/cyn_red.png","../images/grn_red.png","../images/ylw_pnk.png","../images/blu_wht.png"],"mutagen_generator_assignment":[0,1],"goal":7,"start":0,"action_noise":0.1,"location_history":"[0,1,2,6,5,4,7]","action_history":"[0,0,0,0,0,0]","mutagen_history":"[0,0,0,0,0,0]","location_rts":"[1535,505,605,8495,254,311]","trial_type":"fractal-mutation","trial_index":99,"time_elapsed":1509755,"internal_node_id":"0.0-5.0-45.0"},{"group":"square cycles (cube, non-group)","fractal_assignment":["../images/pnk_blu.png","../images/gry_blk.png","../images/org_blu.png","../images/ylw_slt.png","../images/cyn_red.png","../images/grn_red.png","../images/ylw_pnk.png","../images/blu_wht.png"],"mutagen_generator_assignment":[0,1],"goal":6,"start":7,"action_noise":0.1,"location_history":"[7,3,2,6]","action_history":"[1,1,1]","mutagen_history":"[1,1,1]","location_rts":"[1076,96,357]","trial_type":"fractal-mutation","trial_index":100,"time_elapsed":1517878,"internal_node_id":"0.0-5.0-46.0"},{"group":"square cycles (cube, non-group)","fractal_assignment":["../images/pnk_blu.png","../images/gry_blk.png","../images/org_blu.png","../images/ylw_slt.png","../images/cyn_red.png","../images/grn_red.png","../images/ylw_pnk.png","../images/blu_wht.png"],"mutagen_generator_assignment":[0,1],"goal":2,"start":6,"action_noise":0.1,"location_history":"[6,7,6,7,3,2]","action_history":"[1,1,1,1,1]","mutagen_history":"[1,1,1,1,1]","location_rts":"[906,132,161,405,455]","trial_type":"fractal-mutation","trial_index":101,"time_elapsed":1528555,"internal_node_id":"0.0-5.0-47.0"},{"group":"square cycles (cube, non-group)","fractal_assignment":["../images/pnk_blu.png","../images/gry_blk.png","../images/org_blu.png","../images/ylw_slt.png","../images/cyn_red.png","../images/grn_red.png","../images/ylw_pnk.png","../images/blu_wht.png"],"mutagen_generator_assignment":[0,1],"goal":5,"start":2,"action_noise":0.1,"location_history":"[2,3,2,3,0,4,5]","action_history":"[0,0,0,0,1,1]","mutagen_history":"[0,0,0,0,1,1]","location_rts":"[940,549,648,507,1066,285]","trial_type":"fractal-mutation","trial_index":102,"time_elapsed":1542225,"internal_node_id":"0.0-5.0-48.0"},{"group":"square cycles (cube, non-group)","fractal_assignment":["../images/pnk_blu.png","../images/gry_blk.png","../images/org_blu.png","../images/ylw_slt.png","../images/cyn_red.png","../images/grn_red.png","../images/ylw_pnk.png","../images/blu_wht.png"],"mutagen_generator_assignment":[0,1],"goal":3,"start":5,"action_noise":0.1,"location_history":"[5,4,7,3]","action_history":"[0,0,1]","mutagen_history":"[0,0,1]","location_rts":"[1089,468,407]","trial_type":"fractal-mutation","trial_index":103,"time_elapsed":1550762,"internal_node_id":"0.0-5.0-49.0"},{"view_history":"[{\"page_index\":0,\"viewing_time\":2500}]","rt":2500,"trial_type":"instructions","trial_index":104,"time_elapsed":1554263,"internal_node_id":"0.0-6.0"},{"rt":11391,"responses":"{\"Q0\":\"Not sure\"}","trial_type":"survey-text","trial_index":105,"time_elapsed":1566656,"internal_node_id":"0.0-7.0-0.0"},{"rt":6084,"responses":"{\"Q0\":\"Not sure\"}","trial_type":"survey-text","trial_index":106,"time_elapsed":1573742,"internal_node_id":"0.0-7.0-1.0"},{"rt":20374,"responses":"{\"Q0\":\"<img src='../images/diagrams/tri_cycles.png'>\"}","trial_type":"survey-multi-choice","trial_index":107,"time_elapsed":1595119,"internal_node_id":"0.0-7.0-2.0"},{"rt":79198,"assignments":["../images/blu_wht.png","../images/ylw_slt.png","../images/grn_red.png","../images/gry_blk.png","../images/ylw_pnk.png","../images/pnk_blu.png","../images/org_blu.png","../images/cyn_red.png"],"trial_type":"drag-drop-on-image","trial_index":108,"time_elapsed":1675318,"internal_node_id":"0.0-7.0-3.0"},{"rt":4490,"responses":"{\"Q0\":\"2\"}","trial_type":"survey-likert","trial_index":109,"time_elapsed":1680813,"internal_node_id":"0.0-7.0-4.0"},{"rt":45693,"responses":"{\"Q0\":\"Both had patterns and methods, choosing an opposite door/acid or ray in order to switch to different pattern\"}","trial_type":"survey-text","trial_index":110,"time_elapsed":1727509,"internal_node_id":"0.0-7.0-5.0"},{"rt":3709,"responses":"{\"Q0\":\"Yes\"}","trial_type":"survey-multi-choice","trial_index":111,"time_elapsed":1732221,"internal_node_id":"0.0-7.0-6.0"},{"rt":5304,"responses":"{\"Q0\":\"During session 2\"}","trial_type":"survey-multi-choice","trial_index":112,"time_elapsed":1738533,"internal_node_id":"0.0-7.0-7.0"},{"rt":2285,"responses":"{\"Q0\":\"\"}","trial_type":"survey-text","trial_index":113,"time_elapsed":1741821,"internal_node_id":"0.0-7.0-8.0"},{"rt":5108,"responses":"{\"Q0\":\"3\"}","trial_type":"survey-likert","trial_index":114,"time_elapsed":1747933,"internal_node_id":"0.0-7.0-9.0"},{"rt":9838,"responses":"{\"Q0\":\"Same structure\"}","trial_type":"survey-multi-choice","trial_index":115,"time_elapsed":1758772,"internal_node_id":"0.0-7.0-10.0"},{"rt":20410,"responses":"{\"Q0\":\"left (black) door = acid, (white) door = ray\",\"Q1\":\"Not at all confident\"}","trial_type":"survey-multi-choice","trial_index":116,"time_elapsed":1780189,"internal_node_id":"0.0-7.0-11.0"},{"rt":6339,"responses":"{\"Q0\":\"25-35\",\"Q1\":\"Associates or other two-year degree\",\"Q2\":\"Male\",\"Q3\":\"White\"}","trial_type":"survey-multi-choice","trial_index":117,"time_elapsed":1787534,"internal_node_id":"0.0-8.0"},{"rt":1348,"responses":"{\"Q0\":\"\"}","trial_type":"survey-text","trial_index":118,"time_elapsed":1789885,"internal_node_id":"0.0-9.0"}]