[{"view_history":"[{\"page_index\":0,\"viewing_time\":26432},{\"page_index\":1,\"viewing_time\":8031}]","rt":34464,"trial_type":"instructions","trial_index":0,"time_elapsed":34464,"internal_node_id":"0.0-0.0"},{"view_history":"[{\"page_index\":0,\"viewing_time\":2263},{\"page_index\":1,\"viewing_time\":196904}]","rt":199167,"trial_type":"instructions","trial_index":1,"time_elapsed":234631,"internal_node_id":"0.0-1.0"},{"group":"tri cycles (cube, non-group)","room_assignment":["grey","green","red","yellow","brown","purple","pink","blue"],"door_color_assignment":["black","white"],"door_generator_assignment":[1,0],"goal":5,"start":7,"action_noise":0.1,"location_history":"[7,3,4,0,2,6,4,0,3,4,0,2,1,0,2,6,5]","action_history":"[1,1,1,0,0,0,1,1,1,1,0,0,0,0,1,1]","door_history":"[0,0,0,1,1,1,0,0,0,0,1,1,1,1,0,0]","location_rts":"[1213,684,867,842,428,515,1000,520,755,76,15909,905,875,1458,402,523]","trial_type":"two-door-navigation","trial_index":2,"time_elapsed":281443,"internal_node_id":"0.0-2.0-0.0"},{"group":"tri cycles (cube, non-group)","room_assignment":["grey","green","red","yellow","brown","purple","pink","blue"],"door_color_assignment":["black","white"],"door_generator_assignment":[1,0],"goal":2,"start":5,"action_noise":0.1,"location_history":"[5,1,0,2]","action_history":"[0,0,0]","door_history":"[1,1,1]","location_rts":"[1675,308,485]","trial_type":"two-door-navigation","trial_index":3,"time_elapsed":290471,"internal_node_id":"0.0-2.0-1.0"},{"group":"tri cycles (cube, non-group)","room_assignment":["grey","green","red","yellow","brown","purple","pink","blue"],"door_color_assignment":["black","white"],"door_generator_assignment":[1,0],"goal":0,"start":2,"action_noise":0.1,"location_history":"[2,1,0]","action_history":"[0,0]","door_history":"[1,1]","location_rts":"[306583,427]","trial_type":"two-door-navigation","trial_index":4,"time_elapsed":603025,"internal_node_id":"0.0-2.0-2.0"},{"group":"tri cycles (cube, non-group)","room_assignment":["grey","green","red","yellow","brown","purple","pink","blue"],"door_color_assignment":["black","white"],"door_generator_assignment":[1,0],"goal":1,"start":0,"action_noise":0.1,"location_history":"[0,2,1]","action_history":"[0,0]","door_history":"[1,1]","location_rts":"[1235,331]","trial_type":"two-door-navigation","trial_index":5,"time_elapsed":610136,"internal_node_id":"0.0-2.0-3.0"},{"group":"tri cycles (cube, non-group)","room_assignment":["grey","green","red","yellow","brown","purple","pink","blue"],"door_color_assignment":["black","white"],"door_generator_assignment":[1,0],"goal":6,"start":1,"action_noise":0.1,"location_history":"[1,0,2,6]","action_history":"[0,1,0]","door_history":"[1,0,1]","location_rts":"[1108,604,475]","trial_type":"two-door-navigation","trial_index":6,"time_elapsed":618889,"internal_node_id":"0.0-2.0-4.0"},{"group":"tri cycles (cube, non-group)","room_assignment":["grey","green","red","yellow","brown","purple","pink","blue"],"door_color_assignment":["black","white"],"door_generator_assignment":[1,0],"goal":3,"start":6,"action_noise":0.1,"location_history":"[6,5,1,5,1,0,3]","action_history":"[1,0,1,0,0,1]","door_history":"[0,1,0,1,1,0]","location_rts":"[259536,642,803,667,204,1163]","trial_type":"two-door-navigation","trial_index":7,"time_elapsed":891530,"internal_node_id":"0.0-2.0-5.0"},{"group":"tri cycles (cube, non-group)","room_assignment":["grey","green","red","yellow","brown","purple","pink","blue"],"door_color_assignment":["black","white"],"door_generator_assignment":[1,0],"goal":4,"start":3,"action_noise":0.1,"location_history":"[3,7,6,4]","action_history":"[0,0,1]","door_history":"[1,1,0]","location_rts":"[1789,338,811]","trial_type":"two-door-navigation","trial_index":8,"time_elapsed":901032,"internal_node_id":"0.0-2.0-6.0"},{"group":"tri cycles (cube, non-group)","room_assignment":["grey","green","red","yellow","brown","purple","pink","blue"],"door_color_assignment":["black","white"],"door_generator_assignment":[1,0],"goal":1,"start":4,"action_noise":0.1,"location_history":"[4,0,2,1]","action_history":"[1,0,0]","door_history":"[0,1,1]","location_rts":"[207673,1113,211]","trial_type":"two-door-navigation","trial_index":9,"time_elapsed":1116594,"internal_node_id":"0.0-2.0-7.0"},{"group":"tri cycles (cube, non-group)","room_assignment":["grey","green","red","yellow","brown","purple","pink","blue"],"door_color_assignment":["black","white"],"door_generator_assignment":[1,0],"goal":4,"start":1,"action_noise":0.1,"location_history":"[1,5,1,5,2,6,5,1,0,3,4]","action_history":"[1,1,1,1,1,1,0,0,0,0]","door_history":"[0,0,0,0,0,0,1,1,1,1]","location_rts":"[1295322,274,155,140,92,179,580,107,100,460]","trial_type":"two-door-navigation","trial_index":10,"time_elapsed":2428369,"internal_node_id":"0.0-2.0-8.0"},{"group":"tri cycles (cube, non-group)","room_assignment":["grey","green","red","yellow","brown","purple","pink","blue"],"door_color_assignment":["black","white"],"door_generator_assignment":[1,0],"goal":5,"start":4,"action_noise":0.1,"location_history":"[4,0,2,1,0,2,6,5]","action_history":"[1,0,0,0,0,1,1]","door_history":"[0,1,1,1,1,0,0]","location_rts":"[380478,1036,75,355,1067,427,115]","trial_type":"two-door-navigation","trial_index":11,"time_elapsed":2823570,"internal_node_id":"0.0-2.0-9.0"},{"group":"tri cycles (cube, non-group)","room_assignment":["grey","green","red","yellow","brown","purple","pink","blue"],"door_color_assignment":["black","white"],"door_generator_assignment":[1,0],"goal":3,"start":5,"action_noise":0.1,"location_history":"[5,1,5,2,1,0,3]","action_history":"[0,1,1,0,0,1]","door_history":"[1,0,0,1,1,0]","location_rts":"[2021,778,515,692,396,405]","trial_type":"two-door-navigation","trial_index":12,"time_elapsed":2838002,"internal_node_id":"0.0-2.0-10.0"},{"group":"tri cycles (cube, non-group)","room_assignment":["grey","green","red","yellow","brown","purple","pink","blue"],"door_color_assignment":["black","white"],"door_generator_assignment":[1,0],"goal":6,"start":3,"action_noise":0.1,"location_history":"[3,4,0,2,1,0,2,1,5,2,6]","action_history":"[1,1,0,1,0,0,0,1,1,0]","door_history":"[0,0,1,0,1,1,1,0,0,1]","location_rts":"[2148,699,555,908,636,427,211,268,330,675]","trial_type":"two-door-navigation","trial_index":13,"time_elapsed":2858571,"internal_node_id":"0.0-2.0-11.0"},{"group":"tri cycles (cube, non-group)","room_assignment":["grey","green","red","yellow","brown","purple","pink","blue"],"door_color_assignment":["black","white"],"door_generator_assignment":[1,0],"goal":7,"start":6,"action_noise":0.1,"location_history":"[6,5,1,0,3,7]","action_history":"[1,0,0,1,0]","door_history":"[0,1,1,0,1]","location_rts":"[44722,690,428,563,371]","trial_type":"two-door-navigation","trial_index":14,"time_elapsed":2913951,"internal_node_id":"0.0-2.0-12.0"},{"group":"tri cycles (cube, non-group)","room_assignment":["grey","green","red","yellow","brown","purple","pink","blue"],"door_color_assignment":["black","white"],"door_generator_assignment":[1,0],"goal":0,"start":7,"action_noise":0.1,"location_history":"[7,6,5,2,1,0]","action_history":"[0,1,1,0,0]","door_history":"[1,0,0,1,1]","location_rts":"[10824,586,330,340,387]","trial_type":"two-door-navigation","trial_index":15,"time_elapsed":2935027,"internal_node_id":"0.0-2.0-13.0"},{"group":"tri cycles (cube, non-group)","room_assignment":["grey","green","red","yellow","brown","purple","pink","blue"],"door_color_assignment":["black","white"],"door_generator_assignment":[1,0],"goal":2,"start":0,"action_noise":0.1,"location_history":"[0,2]","action_history":"[0]","door_history":"[1]","location_rts":"[23428]","trial_type":"two-door-navigation","trial_index":16,"time_elapsed":2962978,"internal_node_id":"0.0-2.0-14.0"},{"group":"tri cycles (cube, non-group)","room_assignment":["grey","green","red","yellow","brown","purple","pink","blue"],"door_color_assignment":["black","white"],"door_generator_assignment":[1,0],"goal":1,"start":2,"action_noise":0.1,"location_history":"[2,1]","action_history":"[0]","door_history":"[1]","location_rts":"[1091]","trial_type":"two-door-navigation","trial_index":17,"time_elapsed":2968593,"internal_node_id":"0.0-2.0-15.0"},{"group":"tri cycles (cube, non-group)","room_assignment":["grey","green","red","yellow","brown","purple","pink","blue"],"door_color_assignment":["black","white"],"door_generator_assignment":[1,0],"goal":6,"start":1,"action_noise":0.1,"location_history":"[1,5,1,5,1,0,2,6]","action_history":"[0,0,1,0,0,0,1]","door_history":"[1,1,0,1,1,1,0]","location_rts":"[676,91,1098,285,355,859,219]","trial_type":"two-door-navigation","trial_index":18,"time_elapsed":2982827,"internal_node_id":"0.0-2.0-16.0"},{"group":"tri cycles (cube, non-group)","room_assignment":["grey","green","red","yellow","brown","purple","pink","blue"],"door_color_assignment":["black","white"],"door_generator_assignment":[1,0],"goal":3,"start":6,"action_noise":0.1,"location_history":"[6,4,7,6,5,1,0,2,1,5,1,5,2,1,0,2,6,5,2,1,5,2,1,0,2,6,4,0,3]","action_history":"[0,0,0,0,0,0,1,0,1,1,1,1,0,0,0,1,0,1,0,0,0,0,0,0,1,0,1,1]","door_history":"[1,1,1,1,1,1,0,1,0,0,0,0,1,1,1,0,1,0,1,1,1,1,1,1,0,1,0,0]","location_rts":"[2852,219,316,426,450,395,1051,547,467,332,83,123,1035,509,325,534,491,490,83,12,235,515,396,2101,835,39855,1267,1283]","trial_type":"two-door-navigation","trial_index":19,"time_elapsed":3072130,"internal_node_id":"0.0-2.0-17.0"},{"group":"tri cycles (cube, non-group)","room_assignment":["grey","green","red","yellow","brown","purple","pink","blue"],"door_color_assignment":["black","white"],"door_generator_assignment":[1,0],"goal":4,"start":3,"action_noise":0.1,"location_history":"[3,7,3,7,6,4]","action_history":"[0,0,0,0,0]","door_history":"[1,1,1,1,1]","location_rts":"[843,548,691,451,579]","trial_type":"two-door-navigation","trial_index":20,"time_elapsed":3083849,"internal_node_id":"0.0-2.0-18.0"},{"group":"tri cycles (cube, non-group)","room_assignment":["grey","green","red","yellow","brown","purple","pink","blue"],"door_color_assignment":["black","white"],"door_generator_assignment":[1,0],"goal":5,"start":4,"action_noise":0.1,"location_history":"[4,7,3,7,3,7,3,4,0,2,1,0,2,1,0,2,1,0,2,1,5]","action_history":"[0,0,0,0,0,1,0,1,0,0,0,0,1,0,0,0,1,0,0,1]","door_history":"[1,1,1,1,1,0,1,0,1,1,1,1,0,1,1,1,0,1,1,0]","location_rts":"[4453,266,114,691,459,243,484,661,970,307,531,827,172,365,812,284,93,723,1308,190]","trial_type":"two-door-navigation","trial_index":21,"time_elapsed":3121712,"internal_node_id":"0.0-2.0-19.0"},{"group":"tri cycles (cube, non-group)","room_assignment":["grey","green","red","yellow","brown","purple","pink","blue"],"door_color_assignment":["black","white"],"door_generator_assignment":[1,0],"goal":7,"start":5,"action_noise":0.1,"location_history":"[5,1,0,2,1,0,3,7]","action_history":"[0,0,0,0,0,1,0]","door_history":"[1,1,1,1,1,0,1]","location_rts":"[35894,426,420,131,75,610,515]","trial_type":"two-door-navigation","trial_index":22,"time_elapsed":3170435,"internal_node_id":"0.0-2.0-20.0"},{"group":"tri cycles (cube, non-group)","room_assignment":["grey","green","red","yellow","brown","purple","pink","blue"],"door_color_assignment":["black","white"],"door_generator_assignment":[1,0],"goal":2,"start":7,"action_noise":0.1,"location_history":"[7,6,5,1,5,1,0,2]","action_history":"[0,0,0,1,0,0,0]","door_history":"[1,1,1,0,1,1,1]","location_rts":"[88020,922,516,587,333,331,499]","trial_type":"two-door-navigation","trial_index":23,"time_elapsed":3272288,"internal_node_id":"0.0-2.0-21.0"},{"group":"tri cycles (cube, non-group)","room_assignment":["grey","green","red","yellow","brown","purple","pink","blue"],"door_color_assignment":["black","white"],"door_generator_assignment":[1,0],"goal":0,"start":2,"action_noise":0.1,"location_history":"[2,6,5,1,0]","action_history":"[1,0,0,0]","door_history":"[0,1,1,1]","location_rts":"[34894,675,123,443]","trial_type":"two-door-navigation","trial_index":24,"time_elapsed":3316010,"internal_node_id":"0.0-2.0-22.0"},{"group":"tri cycles (cube, non-group)","room_assignment":["grey","green","red","yellow","brown","purple","pink","blue"],"door_color_assignment":["black","white"],"door_generator_assignment":[1,0],"goal":7,"start":0,"action_noise":0.1,"location_history":"[0,3,4,7]","action_history":"[1,0,0]","door_history":"[0,1,1]","location_rts":"[4293,282,212]","trial_type":"two-door-navigation","trial_index":25,"time_elapsed":3327361,"internal_node_id":"0.0-2.0-23.0"},{"group":"tri cycles (cube, non-group)","room_assignment":["grey","green","red","yellow","brown","purple","pink","blue"],"door_color_assignment":["black","white"],"door_generator_assignment":[1,0],"goal":5,"start":7,"action_noise":0.1,"location_history":"[7,3,7,6,4,7,6,4,7,3,7,6,4,7,6,5]","action_history":"[1,1,0,0,0,0,0,0,1,0,0,0,0,0,1]","door_history":"[0,0,1,1,1,1,1,1,0,1,1,1,1,1,0]","location_rts":"[16799,730,1019,291,315,346,402,427,1075,429,381,347,331,1034,547]","trial_type":"two-door-navigation","trial_index":26,"time_elapsed":3370650,"internal_node_id":"0.0-2.0-24.0"},{"group":"tri cycles (cube, non-group)","room_assignment":["grey","green","red","yellow","brown","purple","pink","blue"],"door_color_assignment":["black","white"],"door_generator_assignment":[1,0],"goal":0,"start":5,"action_noise":0.1,"location_history":"[5,1,0]","action_history":"[0,0]","door_history":"[1,1]","location_rts":"[8901,4353]","trial_type":"two-door-navigation","trial_index":27,"time_elapsed":3389448,"internal_node_id":"0.0-2.0-25.0"},{"group":"tri cycles (cube, non-group)","room_assignment":["grey","green","red","yellow","brown","purple","pink","blue"],"door_color_assignment":["black","white"],"door_generator_assignment":[1,0],"goal":6,"start":0,"action_noise":0.1,"location_history":"[0,2,6]","action_history":"[0,1]","door_history":"[1,0]","location_rts":"[1670,1172]","trial_type":"two-door-navigation","trial_index":28,"time_elapsed":3397833,"internal_node_id":"0.0-2.0-26.0"},{"group":"tri cycles (cube, non-group)","room_assignment":["grey","green","red","yellow","brown","purple","pink","blue"],"door_color_assignment":["black","white"],"door_generator_assignment":[1,0],"goal":4,"start":6,"action_noise":0.1,"location_history":"[6,4]","action_history":"[0]","door_history":"[1]","location_rts":"[27608]","trial_type":"two-door-navigation","trial_index":29,"time_elapsed":3429963,"internal_node_id":"0.0-2.0-27.0"},{"group":"tri cycles (cube, non-group)","room_assignment":["grey","green","red","yellow","brown","purple","pink","blue"],"door_color_assignment":["black","white"],"door_generator_assignment":[1,0],"goal":2,"start":4,"action_noise":0.1,"location_history":"[4,0,2]","action_history":"[1,0]","door_history":"[0,1]","location_rts":"[4474,595]","trial_type":"two-door-navigation","trial_index":30,"time_elapsed":3440578,"internal_node_id":"0.0-2.0-28.0"},{"group":"tri cycles (cube, non-group)","room_assignment":["grey","green","red","yellow","brown","purple","pink","blue"],"door_color_assignment":["black","white"],"door_generator_assignment":[1,0],"goal":3,"start":2,"action_noise":0.1,"location_history":"[2,6,5,2,1,0,3]","action_history":"[1,0,0,0,0,1]","door_history":"[0,1,1,1,1,0]","location_rts":"[22254,506,218,355,314,443]","trial_type":"two-door-navigation","trial_index":31,"time_elapsed":3474297,"internal_node_id":"0.0-2.0-29.0"},{"group":"tri cycles (cube, non-group)","room_assignment":["grey","green","red","yellow","brown","purple","pink","blue"],"door_color_assignment":["black","white"],"door_generator_assignment":[1,0],"goal":1,"start":3,"action_noise":0.1,"location_history":"[3,7,3,7,6,5,1]","action_history":"[0,0,0,0,1,0]","door_history":"[1,1,1,1,0,1]","location_rts":"[5156,339,419,339,635,276]","trial_type":"two-door-navigation","trial_index":32,"time_elapsed":3491090,"internal_node_id":"0.0-2.0-30.0"},{"group":"tri cycles (cube, non-group)","room_assignment":["grey","green","red","yellow","brown","purple","pink","blue"],"door_color_assignment":["black","white"],"door_generator_assignment":[1,0],"goal":4,"start":1,"action_noise":0.1,"location_history":"[1,5,2,6,4]","action_history":"[1,1,1,0]","door_history":"[0,0,0,1]","location_rts":"[39278,196,427,835]","trial_type":"two-door-navigation","trial_index":33,"time_elapsed":3539411,"internal_node_id":"0.0-2.0-31.0"},{"group":"tri cycles (cube, non-group)","room_assignment":["grey","green","red","yellow","brown","purple","pink","blue"],"door_color_assignment":["black","white"],"door_generator_assignment":[1,0],"goal":3,"start":4,"action_noise":0.1,"location_history":"[4,7,6,4,0,2,6,4,0,3]","action_history":"[0,0,0,1,0,1,0,1,1]","door_history":"[1,1,1,0,1,0,1,0,0]","location_rts":"[1956,348,483,842,291,387,459,430,227]","trial_type":"two-door-navigation","trial_index":34,"time_elapsed":3557522,"internal_node_id":"0.0-2.0-32.0"},{"group":"tri cycles (cube, non-group)","room_assignment":["grey","green","red","yellow","brown","purple","pink","blue"],"door_color_assignment":["black","white"],"door_generator_assignment":[1,0],"goal":6,"start":3,"action_noise":0.1,"location_history":"[3,7,6]","action_history":"[0,0]","door_history":"[1,1]","location_rts":"[15267,12112]","trial_type":"two-door-navigation","trial_index":35,"time_elapsed":3590444,"internal_node_id":"0.0-2.0-33.0"},{"group":"tri cycles (cube, non-group)","room_assignment":["grey","green","red","yellow","brown","purple","pink","blue"],"door_color_assignment":["black","white"],"door_generator_assignment":[1,0],"goal":0,"start":6,"action_noise":0.1,"location_history":"[6,4,0]","action_history":"[1,1]","door_history":"[0,0]","location_rts":"[1611,491]","trial_type":"two-door-navigation","trial_index":36,"time_elapsed":3598091,"internal_node_id":"0.0-2.0-34.0"},{"group":"tri cycles (cube, non-group)","room_assignment":["grey","green","red","yellow","brown","purple","pink","blue"],"door_color_assignment":["black","white"],"door_generator_assignment":[1,0],"goal":1,"start":0,"action_noise":0.1,"location_history":"[0,2,1]","action_history":"[0,0]","door_history":"[1,1]","location_rts":"[64524,469]","trial_type":"two-door-navigation","trial_index":37,"time_elapsed":3668626,"internal_node_id":"0.0-2.0-35.0"},{"group":"tri cycles (cube, non-group)","room_assignment":["grey","green","red","yellow","brown","purple","pink","blue"],"door_color_assignment":["black","white"],"door_generator_assignment":[1,0],"goal":5,"start":1,"action_noise":0.1,"location_history":"[1,0,2,1,5]","action_history":"[0,0,0,1]","door_history":"[1,1,1,0]","location_rts":"[2067,981,172,467]","trial_type":"two-door-navigation","trial_index":38,"time_elapsed":3679897,"internal_node_id":"0.0-2.0-36.0"},{"group":"tri cycles (cube, non-group)","room_assignment":["grey","green","red","yellow","brown","purple","pink","blue"],"door_color_assignment":["black","white"],"door_generator_assignment":[1,0],"goal":7,"start":5,"action_noise":0.1,"location_history":"[5,2,6,4,7]","action_history":"[1,1,0,0]","door_history":"[0,0,1,1]","location_rts":"[4709,458,1347,716]","trial_type":"two-door-navigation","trial_index":39,"time_elapsed":3694713,"internal_node_id":"0.0-2.0-37.0"},{"group":"tri cycles (cube, non-group)","room_assignment":["grey","green","red","yellow","brown","purple","pink","blue"],"door_color_assignment":["black","white"],"door_generator_assignment":[1,0],"goal":2,"start":7,"action_noise":0.1,"location_history":"[7,3,7,6,5,1,0,2]","action_history":"[1,0,0,0,0,0,0]","door_history":"[0,1,1,1,1,1,1]","location_rts":"[38141,1723,253,395,355,795,268]","trial_type":"two-door-navigation","trial_index":40,"time_elapsed":3747289,"internal_node_id":"0.0-2.0-38.0"},{"group":"tri cycles (cube, non-group)","room_assignment":["grey","green","red","yellow","brown","purple","pink","blue"],"door_color_assignment":["black","white"],"door_generator_assignment":[1,0],"goal":1,"start":2,"action_noise":0.1,"location_history":"[2,1]","action_history":"[0]","door_history":"[1]","location_rts":"[876]","trial_type":"two-door-navigation","trial_index":41,"time_elapsed":3752688,"internal_node_id":"0.0-2.0-39.0"},{"group":"tri cycles (cube, non-group)","room_assignment":["grey","green","red","yellow","brown","purple","pink","blue"],"door_color_assignment":["black","white"],"door_generator_assignment":[1,0],"goal":3,"start":1,"action_noise":0.1,"location_history":"[1,5,1,0,2,1,0,2,1,5,1,5,1,5,2,6,5,1,5,2,6,4,7,6,4,0,2,6,5,1,0,2,6,4,7,6,5,1,0,2,6,4,7,6,4,7,3]","action_history":"[1,0,0,1,0,0,0,0,1,0,1,1,1,1,0,1,0,1,1,1,1,0,0,0,1,0,1,1,0,0,0,1,0,0,0,1,0,0,0,1,0,0,0,0,1,1]","door_history":"[0,1,1,0,1,1,1,1,0,1,0,0,0,0,1,0,1,0,0,0,0,1,1,1,0,1,0,0,1,1,1,0,1,1,1,0,1,1,1,0,1,1,1,1,0,0]","location_rts":"[886,412,419,722,651,308,482,355,796,341,451,731,435,644,596,835,572,291,987,244,75,348,283,372,691,523,604,99,979,427,1211,501,459,339,491,724,355,131,91,579,244,210,35,395,1490,828]","trial_type":"two-door-navigation","trial_index":42,"time_elapsed":3826786,"internal_node_id":"0.0-2.0-40.0"},{"group":"tri cycles (cube, non-group)","room_assignment":["grey","green","red","yellow","brown","purple","pink","blue"],"door_color_assignment":["black","white"],"door_generator_assignment":[1,0],"goal":4,"start":3,"action_noise":0.1,"location_history":"[3,4]","action_history":"[1]","door_history":"[0]","location_rts":"[46596]","trial_type":"two-door-navigation","trial_index":43,"time_elapsed":3877906,"internal_node_id":"0.0-2.0-41.0"},{"group":"tri cycles (cube, non-group)","room_assignment":["grey","green","red","yellow","brown","purple","pink","blue"],"door_color_assignment":["black","white"],"door_generator_assignment":[1,0],"goal":2,"start":4,"action_noise":0.1,"location_history":"[4,0,3,4,7,6,5,2]","action_history":"[1,1,1,1,0,1,1]","door_history":"[0,0,0,0,1,0,0]","location_rts":"[1186,300,467,107,20,171,346]","trial_type":"two-door-navigation","trial_index":44,"time_elapsed":3891155,"internal_node_id":"0.0-2.0-42.0"},{"group":"tri cycles (cube, non-group)","room_assignment":["grey","green","red","yellow","brown","purple","pink","blue"],"door_color_assignment":["black","white"],"door_generator_assignment":[1,0],"goal":5,"start":2,"action_noise":0.1,"location_history":"[2,1,0,2,6,5]","action_history":"[0,0,0,1,1]","door_history":"[1,1,1,0,0]","location_rts":"[31140,235,1474,674,730]","trial_type":"two-door-navigation","trial_index":45,"time_elapsed":3934017,"internal_node_id":"0.0-2.0-43.0"},{"group":"tri cycles (cube, non-group)","room_assignment":["grey","green","red","yellow","brown","purple","pink","blue"],"door_color_assignment":["black","white"],"door_generator_assignment":[1,0],"goal":0,"start":5,"action_noise":0.1,"location_history":"[5,1,0]","action_history":"[0,0]","door_history":"[1,1]","location_rts":"[22751,298]","trial_type":"two-door-navigation","trial_index":46,"time_elapsed":3962610,"internal_node_id":"0.0-2.0-44.0"},{"group":"tri cycles (cube, non-group)","room_assignment":["grey","green","red","yellow","brown","purple","pink","blue"],"door_color_assignment":["black","white"],"door_generator_assignment":[1,0],"goal":7,"start":0,"action_noise":0.1,"location_history":"[0,2,1,0,3,7]","action_history":"[0,0,0,1,0]","door_history":"[1,1,1,0,1]","location_rts":"[88246,914,195,395,387]","trial_type":"two-door-navigation","trial_index":47,"time_elapsed":4061353,"internal_node_id":"0.0-2.0-45.0"},{"group":"tri cycles (cube, non-group)","room_assignment":["grey","green","red","yellow","brown","purple","pink","blue"],"door_color_assignment":["black","white"],"door_generator_assignment":[1,0],"goal":6,"start":7,"action_noise":0.1,"location_history":"[7,6]","action_history":"[0]","door_history":"[1]","location_rts":"[1669]","trial_type":"two-door-navigation","trial_index":48,"time_elapsed":4067545,"internal_node_id":"0.0-2.0-46.0"},{"group":"tri cycles (cube, non-group)","room_assignment":["grey","green","red","yellow","brown","purple","pink","blue"],"door_color_assignment":["black","white"],"door_generator_assignment":[1,0],"goal":2,"start":6,"action_noise":0.1,"location_history":"[6,4,7,3,7,6,4,0,2]","action_history":"[0,0,0,0,0,1,1,0]","door_history":"[1,1,1,1,1,0,0,1]","location_rts":"[823,196,349,299,749,524,772,547]","trial_type":"two-door-navigation","trial_index":49,"time_elapsed":4083467,"internal_node_id":"0.0-2.0-47.0"},{"group":"tri cycles (cube, non-group)","room_assignment":["grey","green","red","yellow","brown","purple","pink","blue"],"door_color_assignment":["black","white"],"door_generator_assignment":[1,0],"goal":5,"start":2,"action_noise":0.1,"location_history":"[2,1,5]","action_history":"[0,1]","door_history":"[1,0]","location_rts":"[1589,739]","trial_type":"two-door-navigation","trial_index":50,"time_elapsed":4091338,"internal_node_id":"0.0-2.0-48.0"},{"group":"tri cycles (cube, non-group)","room_assignment":["grey","green","red","yellow","brown","purple","pink","blue"],"door_color_assignment":["black","white"],"door_generator_assignment":[1,0],"goal":3,"start":5,"action_noise":0.1,"location_history":"[5,1,0,3]","action_history":"[0,0,1]","door_history":"[1,1,0]","location_rts":"[3213,356,420]","trial_type":"two-door-navigation","trial_index":51,"time_elapsed":4101889,"internal_node_id":"0.0-2.0-49.0"},{"view_history":"[{\"page_index\":0,\"viewing_time\":2797}]","rt":2797,"trial_type":"instructions","trial_index":52,"time_elapsed":4105686,"internal_node_id":"0.0-3.0"},{"view_history":"[{\"page_index\":0,\"viewing_time\":1422},{\"page_index\":1,\"viewing_time\":3848}]","rt":5270,"trial_type":"instructions","trial_index":53,"time_elapsed":4111958,"internal_node_id":"0.0-4.0"},{"group":"square cycles (cube, non-group)","fractal_assignment":["../images/ylw_pnk.png","../images/org_blu.png","../images/gry_blk.png","../images/ylw_slt.png","../images/pnk_blu.png","../images/cyn_red.png","../images/blu_wht.png","../images/grn_red.png"],"mutagen_generator_assignment":[1,0],"goal":5,"start":7,"action_noise":0.1,"location_history":"[7,6,5]","action_history":"[0,0]","mutagen_history":"[1,1]","location_rts":"[2256,321]","trial_type":"fractal-mutation","trial_index":54,"time_elapsed":4120082,"internal_node_id":"0.0-5.0-0.0"},{"group":"square cycles (cube, non-group)","fractal_assignment":["../images/ylw_pnk.png","../images/org_blu.png","../images/gry_blk.png","../images/ylw_slt.png","../images/pnk_blu.png","../images/cyn_red.png","../images/blu_wht.png","../images/grn_red.png"],"mutagen_generator_assignment":[1,0],"goal":2,"start":5,"action_noise":0.1,"location_history":"[5,4,7,6,5,4,5,4,7,6,5,4,5,4,5,4,7,6,5,1,2]","action_history":"[1,0,0,0,0,0,0,0,0,0,0,1,0,1,0,0,1,0,1,0]","mutagen_history":"[0,1,1,1,1,1,1,1,1,1,1,0,1,0,1,1,0,1,0,1]","location_rts":"[103924,258,393,547,514,419,467,395,186,379,347,347,258,547,466,59,51,410,394,70]","trial_type":"fractal-mutation","trial_index":55,"time_elapsed":4254442,"internal_node_id":"0.0-5.0-1.0"},{"group":"square cycles (cube, non-group)","fractal_assignment":["../images/ylw_pnk.png","../images/org_blu.png","../images/gry_blk.png","../images/ylw_slt.png","../images/pnk_blu.png","../images/cyn_red.png","../images/blu_wht.png","../images/grn_red.png"],"mutagen_generator_assignment":[1,0],"goal":0,"start":2,"action_noise":0.1,"location_history":"[2,3,0]","action_history":"[1,0]","mutagen_history":"[0,1]","location_rts":"[3364,499]","trial_type":"fractal-mutation","trial_index":56,"time_elapsed":4263850,"internal_node_id":"0.0-5.0-2.0"},{"group":"square cycles (cube, non-group)","fractal_assignment":["../images/ylw_pnk.png","../images/org_blu.png","../images/gry_blk.png","../images/ylw_slt.png","../images/pnk_blu.png","../images/cyn_red.png","../images/blu_wht.png","../images/grn_red.png"],"mutagen_generator_assignment":[1,0],"goal":1,"start":0,"action_noise":0.1,"location_history":"[0,4,5,1]","action_history":"[0,1,1]","mutagen_history":"[1,0,0]","location_rts":"[9251,554,362]","trial_type":"fractal-mutation","trial_index":57,"time_elapsed":4280586,"internal_node_id":"0.0-5.0-3.0"},{"group":"square cycles (cube, non-group)","fractal_assignment":["../images/ylw_pnk.png","../images/org_blu.png","../images/gry_blk.png","../images/ylw_slt.png","../images/pnk_blu.png","../images/cyn_red.png","../images/blu_wht.png","../images/grn_red.png"],"mutagen_generator_assignment":[1,0],"goal":6,"start":1,"action_noise":0.1,"location_history":"[1,0,1,2,6]","action_history":"[1,0,0,0]","mutagen_history":"[0,1,1,1]","location_rts":"[31861,1147,235,763]","trial_type":"fractal-mutation","trial_index":58,"time_elapsed":4322179,"internal_node_id":"0.0-5.0-4.0"},{"group":"square cycles (cube, non-group)","fractal_assignment":["../images/ylw_pnk.png","../images/org_blu.png","../images/gry_blk.png","../images/ylw_slt.png","../images/pnk_blu.png","../images/cyn_red.png","../images/blu_wht.png","../images/grn_red.png"],"mutagen_generator_assignment":[1,0],"goal":3,"start":6,"action_noise":0.1,"location_history":"[6,7,6,5,4,5,4,7,3]","action_history":"[1,0,0,0,1,0,0,1]","mutagen_history":"[0,1,1,1,0,1,1,0]","location_rts":"[27307,9194,1635,3147,291,123,315,195]","trial_type":"fractal-mutation","trial_index":59,"time_elapsed":4376059,"internal_node_id":"0.0-5.0-5.0"},{"group":"square cycles (cube, non-group)","fractal_assignment":["../images/ylw_pnk.png","../images/org_blu.png","../images/gry_blk.png","../images/ylw_slt.png","../images/pnk_blu.png","../images/cyn_red.png","../images/blu_wht.png","../images/grn_red.png"],"mutagen_generator_assignment":[1,0],"goal":4,"start":3,"action_noise":0.1,"location_history":"[3,0,1,0,1,2,3,0,4]","action_history":"[0,0,1,0,0,0,0,1]","mutagen_history":"[1,1,0,1,1,1,1,0]","location_rts":"[4811,770,402,451,324,203,355,355]","trial_type":"fractal-mutation","trial_index":60,"time_elapsed":4395402,"internal_node_id":"0.0-5.0-6.0"},{"group":"square cycles (cube, non-group)","fractal_assignment":["../images/ylw_pnk.png","../images/org_blu.png","../images/gry_blk.png","../images/ylw_slt.png","../images/pnk_blu.png","../images/cyn_red.png","../images/blu_wht.png","../images/grn_red.png"],"mutagen_generator_assignment":[1,0],"goal":1,"start":4,"action_noise":0.1,"location_history":"[4,7,3,2,3,2,3,2,6,7,3,0,1]","action_history":"[0,1,1,1,1,0,1,1,1,1,1,0]","mutagen_history":"[1,0,0,0,0,1,0,0,0,0,0,1]","location_rts":"[27490,530,450,346,403,468,357,363,291,306,188,283]","trial_type":"fractal-mutation","trial_index":61,"time_elapsed":4442636,"internal_node_id":"0.0-5.0-7.0"},{"group":"square cycles (cube, non-group)","fractal_assignment":["../images/ylw_pnk.png","../images/org_blu.png","../images/gry_blk.png","../images/ylw_slt.png","../images/pnk_blu.png","../images/cyn_red.png","../images/blu_wht.png","../images/grn_red.png"],"mutagen_generator_assignment":[1,0],"goal":4,"start":1,"action_noise":0.1,"location_history":"[1,0,1,2,3,0,4]","action_history":"[1,0,0,0,0,1]","mutagen_history":"[0,1,1,1,1,0]","location_rts":"[59124,187,387,386,371,363]","trial_type":"fractal-mutation","trial_index":62,"time_elapsed":4513082,"internal_node_id":"0.0-5.0-8.0"},{"group":"square cycles (cube, non-group)","fractal_assignment":["../images/ylw_pnk.png","../images/org_blu.png","../images/gry_blk.png","../images/ylw_slt.png","../images/pnk_blu.png","../images/cyn_red.png","../images/blu_wht.png","../images/grn_red.png"],"mutagen_generator_assignment":[1,0],"goal":5,"start":4,"action_noise":0.1,"location_history":"[4,5]","action_history":"[1]","mutagen_history":"[0]","location_rts":"[85682]","trial_type":"fractal-mutation","trial_index":63,"time_elapsed":4603289,"internal_node_id":"0.0-5.0-9.0"},{"group":"square cycles (cube, non-group)","fractal_assignment":["../images/ylw_pnk.png","../images/org_blu.png","../images/gry_blk.png","../images/ylw_slt.png","../images/pnk_blu.png","../images/cyn_red.png","../images/blu_wht.png","../images/grn_red.png"],"mutagen_generator_assignment":[1,0],"goal":3,"start":5,"action_noise":0.1,"location_history":"[5,4,7,6,5,1,2,6,5,4,7,6,5,4,7,6,5,4,7,6,5,4,5,4,5,4,7,3]","action_history":"[0,0,0,0,1,0,1,0,0,0,0,0,0,0,0,0,0,0,0,0,0,1,0,1,0,0,1]","mutagen_history":"[1,1,1,1,0,1,0,1,1,1,1,1,1,1,1,1,1,1,1,1,1,0,1,0,1,1,0]","location_rts":"[507,331,483,259,98,171,140,299,50,34,194,187,323,83,331,27,34,5386,387,450,339,883,323,171,283,60,250]","trial_type":"fractal-mutation","trial_index":64,"time_elapsed":4646449,"internal_node_id":"0.0-5.0-10.0"},{"group":"square cycles (cube, non-group)","fractal_assignment":["../images/ylw_pnk.png","../images/org_blu.png","../images/gry_blk.png","../images/ylw_slt.png","../images/pnk_blu.png","../images/cyn_red.png","../images/blu_wht.png","../images/grn_red.png"],"mutagen_generator_assignment":[1,0],"goal":6,"start":3,"action_noise":0.1,"location_history":"[3,2,6]","action_history":"[1,0]","mutagen_history":"[0,1]","location_rts":"[1083,411]","trial_type":"fractal-mutation","trial_index":65,"time_elapsed":4653489,"internal_node_id":"0.0-5.0-11.0"},{"group":"square cycles (cube, non-group)","fractal_assignment":["../images/ylw_pnk.png","../images/org_blu.png","../images/gry_blk.png","../images/ylw_slt.png","../images/pnk_blu.png","../images/cyn_red.png","../images/blu_wht.png","../images/grn_red.png"],"mutagen_generator_assignment":[1,0],"goal":7,"start":6,"action_noise":0.1,"location_history":"[6,7]","action_history":"[1]","mutagen_history":"[0]","location_rts":"[1491]","trial_type":"fractal-mutation","trial_index":66,"time_elapsed":4659504,"internal_node_id":"0.0-5.0-12.0"},{"group":"square cycles (cube, non-group)","fractal_assignment":["../images/ylw_pnk.png","../images/org_blu.png","../images/gry_blk.png","../images/ylw_slt.png","../images/pnk_blu.png","../images/cyn_red.png","../images/blu_wht.png","../images/grn_red.png"],"mutagen_generator_assignment":[1,0],"goal":0,"start":7,"action_noise":0.1,"location_history":"[7,6,5,4,5,1,2,6,7,6,7,6,7,3,0]","action_history":"[0,0,1,1,1,0,1,1,1,1,0,1,1,0]","mutagen_history":"[1,1,0,0,0,1,0,0,0,0,1,0,0,1]","location_rts":"[507,531,418,82,131,131,170,106,194,427,516,451,603,139]","trial_type":"fractal-mutation","trial_index":67,"time_elapsed":4681714,"internal_node_id":"0.0-5.0-13.0"},{"group":"square cycles (cube, non-group)","fractal_assignment":["../images/ylw_pnk.png","../images/org_blu.png","../images/gry_blk.png","../images/ylw_slt.png","../images/pnk_blu.png","../images/cyn_red.png","../images/blu_wht.png","../images/grn_red.png"],"mutagen_generator_assignment":[1,0],"goal":2,"start":0,"action_noise":0.1,"location_history":"[0,1,2]","action_history":"[0,0]","mutagen_history":"[1,1]","location_rts":"[629,211]","trial_type":"fractal-mutation","trial_index":68,"time_elapsed":4688099,"internal_node_id":"0.0-5.0-14.0"},{"group":"square cycles (cube, non-group)","fractal_assignment":["../images/ylw_pnk.png","../images/org_blu.png","../images/gry_blk.png","../images/ylw_slt.png","../images/pnk_blu.png","../images/cyn_red.png","../images/blu_wht.png","../images/grn_red.png"],"mutagen_generator_assignment":[1,0],"goal":1,"start":2,"action_noise":0.1,"location_history":"[2,3,0,4,5,1]","action_history":"[0,0,1,1,1]","mutagen_history":"[1,1,0,0,0]","location_rts":"[419,274,402,530,434]","trial_type":"fractal-mutation","trial_index":69,"time_elapsed":4698770,"internal_node_id":"0.0-5.0-15.0"},{"group":"square cycles (cube, non-group)","fractal_assignment":["../images/ylw_pnk.png","../images/org_blu.png","../images/gry_blk.png","../images/ylw_slt.png","../images/pnk_blu.png","../images/cyn_red.png","../images/blu_wht.png","../images/grn_red.png"],"mutagen_generator_assignment":[1,0],"goal":6,"start":1,"action_noise":0.1,"location_history":"[1,2,3,2,3,0,4,7,6]","action_history":"[0,0,1,0,0,1,0,0]","mutagen_history":"[1,1,0,1,1,0,1,1]","location_rts":"[380,67,451,442,690,564,403,332]","trial_type":"fractal-mutation","trial_index":70,"time_elapsed":4713770,"internal_node_id":"0.0-5.0-16.0"},{"group":"square cycles (cube, non-group)","fractal_assignment":["../images/ylw_pnk.png","../images/org_blu.png","../images/gry_blk.png","../images/ylw_slt.png","../images/pnk_blu.png","../images/cyn_red.png","../images/blu_wht.png","../images/grn_red.png"],"mutagen_generator_assignment":[1,0],"goal":3,"start":6,"action_noise":0.1,"location_history":"[6,5,1,2,6,5,1,2,3]","action_history":"[0,1,0,1,0,1,0,0]","mutagen_history":"[1,0,1,0,1,0,1,1]","location_rts":"[603,452,338,611,635,491,691,163]","trial_type":"fractal-mutation","trial_index":71,"time_elapsed":4729425,"internal_node_id":"0.0-5.0-17.0"},{"group":"square cycles (cube, non-group)","fractal_assignment":["../images/ylw_pnk.png","../images/org_blu.png","../images/gry_blk.png","../images/ylw_slt.png","../images/pnk_blu.png","../images/cyn_red.png","../images/blu_wht.png","../images/grn_red.png"],"mutagen_generator_assignment":[1,0],"goal":4,"start":3,"action_noise":0.1,"location_history":"[3,0,4]","action_history":"[0,1]","mutagen_history":"[1,0]","location_rts":"[539,85853]","trial_type":"fractal-mutation","trial_index":72,"time_elapsed":4821362,"internal_node_id":"0.0-5.0-18.0"},{"group":"square cycles (cube, non-group)","fractal_assignment":["../images/ylw_pnk.png","../images/org_blu.png","../images/gry_blk.png","../images/ylw_slt.png","../images/pnk_blu.png","../images/cyn_red.png","../images/blu_wht.png","../images/grn_red.png"],"mutagen_generator_assignment":[1,0],"goal":5,"start":4,"action_noise":0.1,"location_history":"[4,5]","action_history":"[1]","mutagen_history":"[0]","location_rts":"[10387]","trial_type":"fractal-mutation","trial_index":73,"time_elapsed":4836273,"internal_node_id":"0.0-5.0-19.0"},{"group":"square cycles (cube, non-group)","fractal_assignment":["../images/ylw_pnk.png","../images/org_blu.png","../images/gry_blk.png","../images/ylw_slt.png","../images/pnk_blu.png","../images/cyn_red.png","../images/blu_wht.png","../images/grn_red.png"],"mutagen_generator_assignment":[1,0],"goal":7,"start":5,"action_noise":0.1,"location_history":"[5,4,7]","action_history":"[0,0]","mutagen_history":"[1,1]","location_rts":"[651,419]","trial_type":"fractal-mutation","trial_index":74,"time_elapsed":4842889,"internal_node_id":"0.0-5.0-20.0"},{"group":"square cycles (cube, non-group)","fractal_assignment":["../images/ylw_pnk.png","../images/org_blu.png","../images/gry_blk.png","../images/ylw_slt.png","../images/pnk_blu.png","../images/cyn_red.png","../images/blu_wht.png","../images/grn_red.png"],"mutagen_generator_assignment":[1,0],"goal":2,"start":7,"action_noise":0.1,"location_history":"[7,6,5,4,7,6,5,1,2]","action_history":"[0,0,0,0,0,0,0,0]","mutagen_history":"[1,1,1,1,1,1,1,1]","location_rts":"[1260,410,387,404,378,371,395,370]","trial_type":"fractal-mutation","trial_index":75,"time_elapsed":4858539,"internal_node_id":"0.0-5.0-21.0"},{"group":"square cycles (cube, non-group)","fractal_assignment":["../images/ylw_pnk.png","../images/org_blu.png","../images/gry_blk.png","../images/ylw_slt.png","../images/pnk_blu.png","../images/cyn_red.png","../images/blu_wht.png","../images/grn_red.png"],"mutagen_generator_assignment":[1,0],"goal":0,"start":2,"action_noise":0.1,"location_history":"[2,6,5,1,2,6,7,3,2,6,7,3,2,6,7,6,7,3,0]","action_history":"[0,0,1,0,1,1,1,1,1,1,1,0,0,1,0,1,1,0]","mutagen_history":"[1,1,0,1,0,0,0,0,0,0,0,1,1,0,1,0,0,1]","location_rts":"[40186,75,130,155,178,116,259,267,170,275,411,210,267,613,291,379,436,675]","trial_type":"fractal-mutation","trial_index":76,"time_elapsed":4925514,"internal_node_id":"0.0-5.0-22.0"},{"group":"square cycles (cube, non-group)","fractal_assignment":["../images/ylw_pnk.png","../images/org_blu.png","../images/gry_blk.png","../images/ylw_slt.png","../images/pnk_blu.png","../images/cyn_red.png","../images/blu_wht.png","../images/grn_red.png"],"mutagen_generator_assignment":[1,0],"goal":7,"start":0,"action_noise":0.1,"location_history":"[0,1,2,3,0,1,2,6,5,4,5,1,0,1,0,4,5,1,0,4,5,1,2,3,0,1,0,4,5,1,2,3,0,1,2,3,0,1,2,3,0,1,2,6,5,4,7]","action_history":"[0,0,0,0,0,0,0,0,0,0,0,1,0,1,1,1,1,1,1,1,0,0,0,0,0,1,1,1,1,0,0,0,0,0,0,0,0,0,0,0,0,0,1,0,0,0]","mutagen_history":"[1,1,1,1,1,1,1,1,1,1,1,0,1,0,0,0,0,0,0,0,1,1,1,1,1,0,0,0,0,1,1,1,1,1,1,1,1,1,1,1,1,1,0,1,1,1]","location_rts":"[1292,339,458,547,195,162,442,380,298,514,299,234,179,748,203,83,282,370,715,483,1035,267,276,330,275,475,499,467,595,491,283,283,635,5856,131,587,1723,52,139,339,1899,148,147,12,98,411]","trial_type":"fractal-mutation","trial_index":77,"time_elapsed":5001658,"internal_node_id":"0.0-5.0-23.0"},{"group":"square cycles (cube, non-group)","fractal_assignment":["../images/ylw_pnk.png","../images/org_blu.png","../images/gry_blk.png","../images/ylw_slt.png","../images/pnk_blu.png","../images/cyn_red.png","../images/blu_wht.png","../images/grn_red.png"],"mutagen_generator_assignment":[1,0],"goal":5,"start":7,"action_noise":0.1,"location_history":"[7,3,0,1,2,3,0,1,0,1,0,4,5]","action_history":"[1,0,0,0,0,0,0,1,0,1,1,1]","mutagen_history":"[0,1,1,1,1,1,1,0,1,0,0,0]","location_rts":"[83467,5971,6102,121,474,347,603,460,459,363,218,388]","trial_type":"fractal-mutation","trial_index":78,"time_elapsed":5116387,"internal_node_id":"0.0-5.0-24.0"},{"group":"square cycles (cube, non-group)","fractal_assignment":["../images/ylw_pnk.png","../images/org_blu.png","../images/gry_blk.png","../images/ylw_slt.png","../images/pnk_blu.png","../images/cyn_red.png","../images/blu_wht.png","../images/grn_red.png"],"mutagen_generator_assignment":[1,0],"goal":0,"start":5,"action_noise":0.1,"location_history":"[5,1,2,6,7,6,5,4,7,3,0]","action_history":"[0,0,1,1,0,0,0,0,1,0]","mutagen_history":"[1,1,0,0,1,1,1,1,0,1]","location_rts":"[371,2,379,43,131,59,291,18,92,18]","trial_type":"fractal-mutation","trial_index":79,"time_elapsed":5131506,"internal_node_id":"0.0-5.0-25.0"},{"group":"square cycles (cube, non-group)","fractal_assignment":["../images/ylw_pnk.png","../images/org_blu.png","../images/gry_blk.png","../images/ylw_slt.png","../images/pnk_blu.png","../images/cyn_red.png","../images/blu_wht.png","../images/grn_red.png"],"mutagen_generator_assignment":[1,0],"goal":6,"start":0,"action_noise":0.1,"location_history":"[0,4,7,6]","action_history":"[1,0,0]","mutagen_history":"[0,1,1]","location_rts":"[17250,99,84]","trial_type":"fractal-mutation","trial_index":80,"time_elapsed":5155505,"internal_node_id":"0.0-5.0-26.0"},{"group":"square cycles (cube, non-group)","fractal_assignment":["../images/ylw_pnk.png","../images/org_blu.png","../images/gry_blk.png","../images/ylw_slt.png","../images/pnk_blu.png","../images/cyn_red.png","../images/blu_wht.png","../images/grn_red.png"],"mutagen_generator_assignment":[1,0],"goal":4,"start":6,"action_noise":0.1,"location_history":"[6,5,4]","action_history":"[0,0]","mutagen_history":"[1,1]","location_rts":"[4423,202]","trial_type":"fractal-mutation","trial_index":81,"time_elapsed":5165675,"internal_node_id":"0.0-5.0-27.0"},{"group":"square cycles (cube, non-group)","fractal_assignment":["../images/ylw_pnk.png","../images/org_blu.png","../images/gry_blk.png","../images/ylw_slt.png","../images/pnk_blu.png","../images/cyn_red.png","../images/blu_wht.png","../images/grn_red.png"],"mutagen_generator_assignment":[1,0],"goal":2,"start":4,"action_noise":0.1,"location_history":"[4,7,6,5,4,7,6,5,1,2]","action_history":"[0,0,1,0,0,0,0,0,0]","mutagen_history":"[1,1,0,1,1,1,1,1,1]","location_rts":"[21987,14898,675,243,74,2995,500,84,59]","trial_type":"fractal-mutation","trial_index":82,"time_elapsed":5219883,"internal_node_id":"0.0-5.0-28.0"},{"group":"square cycles (cube, non-group)","fractal_assignment":["../images/ylw_pnk.png","../images/org_blu.png","../images/gry_blk.png","../images/ylw_slt.png","../images/pnk_blu.png","../images/cyn_red.png","../images/blu_wht.png","../images/grn_red.png"],"mutagen_generator_assignment":[1,0],"goal":3,"start":2,"action_noise":0.1,"location_history":"[2,3]","action_history":"[0]","mutagen_history":"[1]","location_rts":"[7043]","trial_type":"fractal-mutation","trial_index":83,"time_elapsed":5231451,"internal_node_id":"0.0-5.0-29.0"},{"group":"square cycles (cube, non-group)","fractal_assignment":["../images/ylw_pnk.png","../images/org_blu.png","../images/gry_blk.png","../images/ylw_slt.png","../images/pnk_blu.png","../images/cyn_red.png","../images/blu_wht.png","../images/grn_red.png"],"mutagen_generator_assignment":[1,0],"goal":1,"start":3,"action_noise":0.1,"location_history":"[3,0,1]","action_history":"[0,0]","mutagen_history":"[1,1]","location_rts":"[2804,770]","trial_type":"fractal-mutation","trial_index":84,"time_elapsed":5240570,"internal_node_id":"0.0-5.0-30.0"},{"group":"square cycles (cube, non-group)","fractal_assignment":["../images/ylw_pnk.png","../images/org_blu.png","../images/gry_blk.png","../images/ylw_slt.png","../images/pnk_blu.png","../images/cyn_red.png","../images/blu_wht.png","../images/grn_red.png"],"mutagen_generator_assignment":[1,0],"goal":4,"start":1,"action_noise":0.1,"location_history":"[1,2,3,0,1,2,3,2,3,0,1,2,3,2,3,0,1,2,3,2,3,2,6,5,1,2,3,0,1,2,3,0,1,2,3,2,3,0,4]","action_history":"[0,0,0,0,0,0,1,0,0,0,0,0,1,0,0,0,0,0,1,0,0,1,0,1,0,0,1,0,0,0,0,0,0,0,1,0,0,1]","mutagen_history":"[1,1,1,1,1,1,0,1,1,1,1,1,0,1,1,1,1,1,0,1,1,0,1,0,1,1,0,1,1,1,1,1,1,1,0,1,1,0]","location_rts":"[516,375,4691,826,4043,187,59,379,34,19,339,243,67,66,3514,162,10,84,18,3,67,210,18,243,66,290,370,563,100,177,19,243,338,587,186,362,163,68]","trial_type":"fractal-mutation","trial_index":85,"time_elapsed":5302595,"internal_node_id":"0.0-5.0-31.0"},{"group":"square cycles (cube, non-group)","fractal_assignment":["../images/ylw_pnk.png","../images/org_blu.png","../images/gry_blk.png","../images/ylw_slt.png","../images/pnk_blu.png","../images/cyn_red.png","../images/blu_wht.png","../images/grn_red.png"],"mutagen_generator_assignment":[1,0],"goal":3,"start":4,"action_noise":0.1,"location_history":"[4,7,6,5,4,7,3]","action_history":"[0,0,0,0,0,1]","mutagen_history":"[1,1,1,1,1,0]","location_rts":"[5292,122,108,123,83,130]","trial_type":"fractal-mutation","trial_index":86,"time_elapsed":5318082,"internal_node_id":"0.0-5.0-32.0"},{"group":"square cycles (cube, non-group)","fractal_assignment":["../images/ylw_pnk.png","../images/org_blu.png","../images/gry_blk.png","../images/ylw_slt.png","../images/pnk_blu.png","../images/cyn_red.png","../images/blu_wht.png","../images/grn_red.png"],"mutagen_generator_assignment":[1,0],"goal":6,"start":3,"action_noise":0.1,"location_history":"[3,0,4,5,1,2,3,2,3,0,1,2,3,0,1,2,3,0,1,0,1,0,1,2,3,2,3,0,1,2,6]","action_history":"[0,1,1,1,0,0,1,0,0,0,0,0,0,0,0,0,0,0,1,1,1,0,0,0,0,0,0,0,0,1]","mutagen_history":"[1,0,0,0,1,1,0,1,1,1,1,1,1,1,1,1,1,1,0,0,0,1,1,1,1,1,1,1,1,0]","location_rts":"[7004,451,34,475,419,275,475,35,100,314,267,99,492,307,170,362,307,346,362,171,131,274,171,122,284,211,211,251,59,340]","trial_type":"fractal-mutation","trial_index":87,"time_elapsed":5366737,"internal_node_id":"0.0-5.0-33.0"},{"group":"square cycles (cube, non-group)","fractal_assignment":["../images/ylw_pnk.png","../images/org_blu.png","../images/gry_blk.png","../images/ylw_slt.png","../images/pnk_blu.png","../images/cyn_red.png","../images/blu_wht.png","../images/grn_red.png"],"mutagen_generator_assignment":[1,0],"goal":0,"start":6,"action_noise":0.1,"location_history":"[6,5,4,7,6,5,4,7,6,5,4,7,6,7,6,7,3,2,3,2,3,0]","action_history":"[0,0,0,0,0,0,0,0,0,0,0,0,1,0,1,1,0,0,1,0,0]","mutagen_history":"[1,1,1,1,1,1,1,1,1,1,1,1,0,1,0,0,1,1,0,1,1]","location_rts":"[644,331,595,163,753,338,378,571,378,499,386,395,82,306,250,467,115,187,370,187,243]","trial_type":"fractal-mutation","trial_index":88,"time_elapsed":5399328,"internal_node_id":"0.0-5.0-34.0"},{"group":"square cycles (cube, non-group)","fractal_assignment":["../images/ylw_pnk.png","../images/org_blu.png","../images/gry_blk.png","../images/ylw_slt.png","../images/pnk_blu.png","../images/cyn_red.png","../images/blu_wht.png","../images/grn_red.png"],"mutagen_generator_assignment":[1,0],"goal":1,"start":0,"action_noise":0.1,"location_history":"[0,4,7,6,7,6,5,4,7,6,5,1]","action_history":"[1,0,0,0,0,0,0,0,0,0,1]","mutagen_history":"[0,1,1,1,1,1,1,1,1,1,0]","location_rts":"[41849,100,74,298,266,290,234,291,259,259,275]","trial_type":"fractal-mutation","trial_index":89,"time_elapsed":5458264,"internal_node_id":"0.0-5.0-35.0"},{"group":"square cycles (cube, non-group)","fractal_assignment":["../images/ylw_pnk.png","../images/org_blu.png","../images/gry_blk.png","../images/ylw_slt.png","../images/pnk_blu.png","../images/cyn_red.png","../images/blu_wht.png","../images/grn_red.png"],"mutagen_generator_assignment":[1,0],"goal":5,"start":1,"action_noise":0.1,"location_history":"[1,2,6,7,6,5]","action_history":"[0,0,0,0,0]","mutagen_history":"[1,1,1,1,1]","location_rts":"[356,82,156,131,178]","trial_type":"fractal-mutation","trial_index":90,"time_elapsed":5467779,"internal_node_id":"0.0-5.0-36.0"},{"group":"square cycles (cube, non-group)","fractal_assignment":["../images/ylw_pnk.png","../images/org_blu.png","../images/gry_blk.png","../images/ylw_slt.png","../images/pnk_blu.png","../images/cyn_red.png","../images/blu_wht.png","../images/grn_red.png"],"mutagen_generator_assignment":[1,0],"goal":7,"start":5,"action_noise":0.1,"location_history":"[5,1,0,1,2,6,5,4,5,4,7]","action_history":"[1,0,0,0,0,0,0,1,0,0]","mutagen_history":"[0,1,1,1,1,1,1,0,1,1]","location_rts":"[380,226,283,139,139,131,187,299,83,291]","trial_type":"fractal-mutation","trial_index":91,"time_elapsed":5483650,"internal_node_id":"0.0-5.0-37.0"},{"group":"square cycles (cube, non-group)","fractal_assignment":["../images/ylw_pnk.png","../images/org_blu.png","../images/gry_blk.png","../images/ylw_slt.png","../images/pnk_blu.png","../images/cyn_red.png","../images/blu_wht.png","../images/grn_red.png"],"mutagen_generator_assignment":[1,0],"goal":2,"start":7,"action_noise":0.1,"location_history":"[7,6,5,1,2]","action_history":"[0,0,1,0]","mutagen_history":"[1,1,0,1]","location_rts":"[21066,539,3835,3]","trial_type":"fractal-mutation","trial_index":92,"time_elapsed":5516681,"internal_node_id":"0.0-5.0-38.0"},{"group":"square cycles (cube, non-group)","fractal_assignment":["../images/ylw_pnk.png","../images/org_blu.png","../images/gry_blk.png","../images/ylw_slt.png","../images/pnk_blu.png","../images/cyn_red.png","../images/blu_wht.png","../images/grn_red.png"],"mutagen_generator_assignment":[1,0],"goal":1,"start":2,"action_noise":0.1,"location_history":"[2,3,0,1]","action_history":"[0,0,0]","mutagen_history":"[1,1,1]","location_rts":"[876,115,508]","trial_type":"fractal-mutation","trial_index":93,"time_elapsed":5524747,"internal_node_id":"0.0-5.0-39.0"},{"group":"square cycles (cube, non-group)","fractal_assignment":["../images/ylw_pnk.png","../images/org_blu.png","../images/gry_blk.png","../images/ylw_slt.png","../images/pnk_blu.png","../images/cyn_red.png","../images/blu_wht.png","../images/grn_red.png"],"mutagen_generator_assignment":[1,0],"goal":3,"start":1,"action_noise":0.1,"location_history":"[1,2,3]","action_history":"[0,0]","mutagen_history":"[1,1]","location_rts":"[843,122]","trial_type":"fractal-mutation","trial_index":94,"time_elapsed":5531258,"internal_node_id":"0.0-5.0-40.0"},{"group":"square cycles (cube, non-group)","fractal_assignment":["../images/ylw_pnk.png","../images/org_blu.png","../images/gry_blk.png","../images/ylw_slt.png","../images/pnk_blu.png","../images/cyn_red.png","../images/blu_wht.png","../images/grn_red.png"],"mutagen_generator_assignment":[1,0],"goal":4,"start":3,"action_noise":0.1,"location_history":"[3,0,1,2,6,5,4]","action_history":"[0,0,0,0,0,0]","mutagen_history":"[1,1,1,1,1,1]","location_rts":"[596,90,299,250,674,563]","trial_type":"fractal-mutation","trial_index":95,"time_elapsed":5543362,"internal_node_id":"0.0-5.0-41.0"},{"group":"square cycles (cube, non-group)","fractal_assignment":["../images/ylw_pnk.png","../images/org_blu.png","../images/gry_blk.png","../images/ylw_slt.png","../images/pnk_blu.png","../images/cyn_red.png","../images/blu_wht.png","../images/grn_red.png"],"mutagen_generator_assignment":[1,0],"goal":2,"start":4,"action_noise":0.1,"location_history":"[4,5,4,7,6,5,1,2]","action_history":"[0,0,0,0,0,1,0]","mutagen_history":"[1,1,1,1,1,0,1]","location_rts":"[532,257,290,307,355,315,139]","trial_type":"fractal-mutation","trial_index":96,"time_elapsed":5556209,"internal_node_id":"0.0-5.0-42.0"},{"group":"square cycles (cube, non-group)","fractal_assignment":["../images/ylw_pnk.png","../images/org_blu.png","../images/gry_blk.png","../images/ylw_slt.png","../images/pnk_blu.png","../images/cyn_red.png","../images/blu_wht.png","../images/grn_red.png"],"mutagen_generator_assignment":[1,0],"goal":5,"start":2,"action_noise":0.1,"location_history":"[2,3,0,1,2,3,2,3,0,1,2,3,0,1,0,4,7,6,5]","action_history":"[0,0,0,0,0,1,0,0,0,0,0,0,1,0,0,0,0,0]","mutagen_history":"[1,1,1,1,1,0,1,1,1,1,1,1,0,1,1,1,1,1]","location_rts":"[27813,203,251,539,362,299,162,194,260,11,306,13130,579,58,170,491,178,267]","trial_type":"fractal-mutation","trial_index":97,"time_elapsed":5623369,"internal_node_id":"0.0-5.0-43.0"},{"group":"square cycles (cube, non-group)","fractal_assignment":["../images/ylw_pnk.png","../images/org_blu.png","../images/gry_blk.png","../images/ylw_slt.png","../images/pnk_blu.png","../images/cyn_red.png","../images/blu_wht.png","../images/grn_red.png"],"mutagen_generator_assignment":[1,0],"goal":0,"start":5,"action_noise":0.1,"location_history":"[5,4,7,6,7,6,7,3,0]","action_history":"[0,0,0,1,0,1,1,0]","mutagen_history":"[1,1,1,0,1,0,0,1]","location_rts":"[7418,666,3578,354,74,43,315,371]","trial_type":"fractal-mutation","trial_index":98,"time_elapsed":5647867,"internal_node_id":"0.0-5.0-44.0"},{"group":"square cycles (cube, non-group)","fractal_assignment":["../images/ylw_pnk.png","../images/org_blu.png","../images/gry_blk.png","../images/ylw_slt.png","../images/pnk_blu.png","../images/cyn_red.png","../images/blu_wht.png","../images/grn_red.png"],"mutagen_generator_assignment":[1,0],"goal":7,"start":0,"action_noise":0.1,"location_history":"[0,1,0,1,2,3,0,1,2,6,5,4,7]","action_history":"[0,1,0,0,0,0,0,0,1,0,0,0]","mutagen_history":"[1,0,1,1,1,1,1,1,0,1,1,1]","location_rts":"[436,506,139,268,418,218,219,370,59,562,51,299]","trial_type":"fractal-mutation","trial_index":99,"time_elapsed":5667170,"internal_node_id":"0.0-5.0-45.0"},{"group":"square cycles (cube, non-group)","fractal_assignment":["../images/ylw_pnk.png","../images/org_blu.png","../images/gry_blk.png","../images/ylw_slt.png","../images/pnk_blu.png","../images/cyn_red.png","../images/blu_wht.png","../images/grn_red.png"],"mutagen_generator_assignment":[1,0],"goal":6,"start":7,"action_noise":0.1,"location_history":"[7,6]","action_history":"[0]","mutagen_history":"[1]","location_rts":"[684]","trial_type":"fractal-mutation","trial_index":100,"time_elapsed":5672378,"internal_node_id":"0.0-5.0-46.0"},{"group":"square cycles (cube, non-group)","fractal_assignment":["../images/ylw_pnk.png","../images/org_blu.png","../images/gry_blk.png","../images/ylw_slt.png","../images/pnk_blu.png","../images/cyn_red.png","../images/blu_wht.png","../images/grn_red.png"],"mutagen_generator_assignment":[1,0],"goal":2,"start":6,"action_noise":0.1,"location_history":"[6,5,4,7,6,7,3,2]","action_history":"[0,0,0,0,0,1,0]","mutagen_history":"[1,1,1,1,1,0,1]","location_rts":"[4084,131,131,195,762,459,211]","trial_type":"fractal-mutation","trial_index":101,"time_elapsed":5689001,"internal_node_id":"0.0-5.0-47.0"},{"group":"square cycles (cube, non-group)","fractal_assignment":["../images/ylw_pnk.png","../images/org_blu.png","../images/gry_blk.png","../images/ylw_slt.png","../images/pnk_blu.png","../images/cyn_red.png","../images/blu_wht.png","../images/grn_red.png"],"mutagen_generator_assignment":[1,0],"goal":5,"start":2,"action_noise":0.1,"location_history":"[2,3,0,1,2,3,2,3,0,4,5]","action_history":"[0,0,0,0,0,0,0,0,1,1]","mutagen_history":"[1,1,1,1,1,1,1,1,0,0]","location_rts":"[9060,402,4866,75,114,3,3682,138,626,346]","trial_type":"fractal-mutation","trial_index":102,"time_elapsed":5722034,"internal_node_id":"0.0-5.0-48.0"},{"group":"square cycles (cube, non-group)","fractal_assignment":["../images/ylw_pnk.png","../images/org_blu.png","../images/gry_blk.png","../images/ylw_slt.png","../images/pnk_blu.png","../images/cyn_red.png","../images/blu_wht.png","../images/grn_red.png"],"mutagen_generator_assignment":[1,0],"goal":3,"start":5,"action_noise":0.1,"location_history":"[5,4,7,6,7,6,7,6,5,4,7,6,7,6,5,1,2,3]","action_history":"[0,0,0,0,0,0,0,0,0,0,0,1,0,0,1,0,0]","mutagen_history":"[1,1,1,1,1,1,1,1,1,1,1,0,1,1,0,1,1]","location_rts":"[300,185,186,171,322,395,186,292,267,307,331,402,324,139,99,179,275]","trial_type":"fractal-mutation","trial_index":103,"time_elapsed":5747257,"internal_node_id":"0.0-5.0-49.0"},{"view_history":"[{\"page_index\":0,\"viewing_time\":1956}]","rt":1956,"trial_type":"instructions","trial_index":104,"time_elapsed":5750214,"internal_node_id":"0.0-6.0"},{"rt":20271,"responses":"{\"Q0\":\"figuring out locations, navigation, memory\"}","trial_type":"survey-text","trial_index":105,"time_elapsed":5771489,"internal_node_id":"0.0-7.0-0.0"},{"rt":10014,"responses":"{\"Q0\":\"patterns \"}","trial_type":"survey-text","trial_index":106,"time_elapsed":5782503,"internal_node_id":"0.0-7.0-1.0"},{"rt":31020,"responses":"{\"Q0\":\"<img src='../images/diagrams/tri_cycles.png'>\"}","trial_type":"survey-multi-choice","trial_index":107,"time_elapsed":5814526,"internal_node_id":"0.0-7.0-2.0"},{"rt":45584,"assignments":["../images/blu_wht.png","../images/ylw_slt.png","../images/pnk_blu.png","../images/gry_blk.png","../images/grn_red.png","../images/cyn_red.png","../images/ylw_pnk.png","../images/org_blu.png"],"trial_type":"drag-drop-on-image","trial_index":108,"time_elapsed":5861111,"internal_node_id":"0.0-7.0-3.0"},{"rt":4974,"responses":"{\"Q0\":\"2\"}","trial_type":"survey-likert","trial_index":109,"time_elapsed":5867086,"internal_node_id":"0.0-7.0-4.0"},{"rt":20111,"responses":"{\"Q0\":\"felt like the pattern changed once in a while\"}","trial_type":"survey-text","trial_index":110,"time_elapsed":5888199,"internal_node_id":"0.0-7.0-5.0"},{"rt":2990,"responses":"{\"Q0\":\"Yes\"}","trial_type":"survey-multi-choice","trial_index":111,"time_elapsed":5892191,"internal_node_id":"0.0-7.0-6.0"},{"rt":3909,"responses":"{\"Q0\":\"During session 1\"}","trial_type":"survey-multi-choice","trial_index":112,"time_elapsed":5897103,"internal_node_id":"0.0-7.0-7.0"},{"rt":17966,"responses":"{\"Q0\":\"they both felt like navigation experiments\"}","trial_type":"survey-text","trial_index":113,"time_elapsed":5916070,"internal_node_id":"0.0-7.0-8.0"},{"rt":4958,"responses":"{\"Q0\":\"2\"}","trial_type":"survey-likert","trial_index":114,"time_elapsed":5922030,"internal_node_id":"0.0-7.0-9.0"},{"rt":5591,"responses":"{\"Q0\":\"Different structure\"}","trial_type":"survey-multi-choice","trial_index":115,"time_elapsed":5928622,"internal_node_id":"0.0-7.0-10.0"},{"rt":28032,"responses":"{\"Q0\":\"left (black) door = acid, (white) door = ray\",\"Q1\":\"Moderately confident\"}","trial_type":"survey-multi-choice","trial_index":116,"time_elapsed":5957656,"internal_node_id":"0.0-7.0-11.0"},{"rt":7898,"responses":"{\"Q0\":\"25-35\",\"Q1\":\"Some college\",\"Q2\":\"Female\",\"Q3\":\"White\"}","trial_type":"survey-multi-choice","trial_index":117,"time_elapsed":5966560,"internal_node_id":"0.0-8.0"},{"rt":1525,"responses":"{\"Q0\":\"\"}","trial_type":"survey-text","trial_index":118,"time_elapsed":5969087,"internal_node_id":"0.0-9.0"}]