[{"view_history":"[{\"page_index\":0,\"viewing_time\":4242},{\"page_index\":1,\"viewing_time\":9606},{\"page_index\":2,\"viewing_time\":17784}]","rt":31632,"trial_type":"instructions","trial_index":0,"time_elapsed":31634,"internal_node_id":"0.0-0.0"},{"view_history":"[{\"page_index\":0,\"viewing_time\":4261},{\"page_index\":1,\"viewing_time\":24759}]","rt":29021,"trial_type":"instructions","trial_index":1,"time_elapsed":61657,"internal_node_id":"0.0-1.0"},{"group":"hexagon_tri","room_assignment":["red","purple","grey","blue","green","yellow"],"door_color_assignment":["black","white"],"door_generator_assignment":[1,0],"goal":4,"start":0,"action_noise":0,"location_history":"[0,1,3,2,3,4]","action_history":"[1,0,0,1,1]","door_history":"[0,1,1,0,0]","location_rts":"[3556,1880,5967,1574,21337]","trial_type":"two-door-navigation","trial_index":2,"time_elapsed":105103,"internal_node_id":"0.0-2.0-0.0"},{"group":"hexagon_tri","room_assignment":["red","purple","grey","blue","green","yellow"],"door_color_assignment":["black","white"],"door_generator_assignment":[1,0],"goal":3,"start":4,"action_noise":0,"location_history":"[4,0,1,5,4,0,5,4,0,1,5,0,1,5,0,5,4,0,5,4,0,5,4,0,5,4,2,3]","action_history":"[0,1,1,0,0,0,0,0,1,1,1,1,1,1,0,0,0,0,0,0,0,0,0,0,0,1,1]","door_history":"[1,0,0,1,1,1,1,1,0,0,0,0,0,0,1,1,1,1,1,1,1,1,1,1,1,0,0]","location_rts":"[3496,1514,3787,2011,1527,711,720,798,1210,462,498,483,672,526,3365,639,662,438,498,721,458,520,557,445,506,599,355]","trial_type":"two-door-navigation","trial_index":3,"time_elapsed":164974,"internal_node_id":"0.0-2.0-1.0"},{"group":"hexagon_tri","room_assignment":["red","purple","grey","blue","green","yellow"],"door_color_assignment":["black","white"],"door_generator_assignment":[1,0],"goal":5,"start":3,"action_noise":0,"location_history":"[3,2,1,3,2,1,3,2,1,5]","action_history":"[0,0,0,0,0,0,0,0,1]","door_history":"[1,1,1,1,1,1,1,1,0]","location_rts":"[26951,487,307,461,375,355,429,524,895]","trial_type":"two-door-navigation","trial_index":4,"time_elapsed":208993,"internal_node_id":"0.0-2.0-2.0"},{"group":"hexagon_tri","room_assignment":["red","purple","grey","blue","green","yellow"],"door_color_assignment":["black","white"],"door_generator_assignment":[1,0],"goal":2,"start":5,"action_noise":0,"location_history":"[5,4,0,5,4,2]","action_history":"[0,0,0,0,1]","door_history":"[1,1,1,1,0]","location_rts":"[4070,500,424,479,94]","trial_type":"two-door-navigation","trial_index":5,"time_elapsed":223675,"internal_node_id":"0.0-2.0-3.0"},{"group":"hexagon_tri","room_assignment":["red","purple","grey","blue","green","yellow"],"door_color_assignment":["black","white"],"door_generator_assignment":[1,0],"goal":1,"start":2,"action_noise":0,"location_history":"[2,1]","action_history":"[0]","door_history":"[1]","location_rts":"[8380]","trial_type":"two-door-navigation","trial_index":6,"time_elapsed":237086,"internal_node_id":"0.0-2.0-4.0"},{"group":"hexagon_tri","room_assignment":["red","purple","grey","blue","green","yellow"],"door_color_assignment":["black","white"],"door_generator_assignment":[1,0],"goal":4,"start":1,"action_noise":0,"location_history":"[1,5,4]","action_history":"[1,0]","door_history":"[0,1]","location_rts":"[4393,1022]","trial_type":"two-door-navigation","trial_index":7,"time_elapsed":248557,"internal_node_id":"0.0-2.0-5.0"},{"group":"hexagon_tri","room_assignment":["red","purple","grey","blue","green","yellow"],"door_color_assignment":["black","white"],"door_generator_assignment":[1,0],"goal":1,"start":4,"action_noise":0,"location_history":"[4,0,1]","action_history":"[0,1]","door_history":"[1,0]","location_rts":"[1376,3360]","trial_type":"two-door-navigation","trial_index":8,"time_elapsed":259349,"internal_node_id":"0.0-2.0-6.0"},{"group":"hexagon_tri","room_assignment":["red","purple","grey","blue","green","yellow"],"door_color_assignment":["black","white"],"door_generator_assignment":[1,0],"goal":5,"start":1,"action_noise":0,"location_history":"[1,3,4,0,1,3,4,0,1,3,2,1,3,2,1,5]","action_history":"[0,1,0,1,0,1,0,1,0,0,0,0,0,0,1]","door_history":"[1,0,1,0,1,0,1,0,1,1,1,1,1,1,0]","location_rts":"[3425,1302,949,1163,1041,1172,862,1607,1530,896,856,625,2552,552,1658]","trial_type":"two-door-navigation","trial_index":9,"time_elapsed":298916,"internal_node_id":"0.0-2.0-7.0"},{"group":"hexagon_tri","room_assignment":["red","purple","grey","blue","green","yellow"],"door_color_assignment":["black","white"],"door_generator_assignment":[1,0],"goal":0,"start":5,"action_noise":0,"location_history":"[5,0]","action_history":"[1]","door_history":"[0]","location_rts":"[4266]","trial_type":"two-door-navigation","trial_index":10,"time_elapsed":308207,"internal_node_id":"0.0-2.0-8.0"},{"group":"hexagon_tri","room_assignment":["red","purple","grey","blue","green","yellow"],"door_color_assignment":["black","white"],"door_generator_assignment":[1,0],"goal":2,"start":0,"action_noise":0,"location_history":"[0,5,4,0,1,3,2]","action_history":"[0,0,0,1,0,0]","door_history":"[1,1,1,0,1,1]","location_rts":"[4911,1686,505,1174,1469,554]","trial_type":"two-door-navigation","trial_index":11,"time_elapsed":328666,"internal_node_id":"0.0-2.0-9.0"},{"group":"hexagon_tri","room_assignment":["red","purple","grey","blue","green","yellow"],"door_color_assignment":["black","white"],"door_generator_assignment":[1,0],"goal":3,"start":2,"action_noise":0,"location_history":"[2,3]","action_history":"[1]","door_history":"[0]","location_rts":"[4997]","trial_type":"two-door-navigation","trial_index":12,"time_elapsed":338690,"internal_node_id":"0.0-2.0-10.0"},{"group":"hexagon_tri","room_assignment":["red","purple","grey","blue","green","yellow"],"door_color_assignment":["black","white"],"door_generator_assignment":[1,0],"goal":0,"start":3,"action_noise":0,"location_history":"[3,2,1,3,2,1,3,2,3,4,2,3,4,0]","action_history":"[0,0,0,0,0,0,0,1,1,1,1,1,0]","door_history":"[1,1,1,1,1,1,1,0,0,0,0,0,1]","location_rts":"[4699,557,581,594,377,798,568,1225,592,666,557,901,1198]","trial_type":"two-door-navigation","trial_index":13,"time_elapsed":369322,"internal_node_id":"0.0-2.0-11.0"},{"group":"hexagon_tri","room_assignment":["red","purple","grey","blue","green","yellow"],"door_color_assignment":["black","white"],"door_generator_assignment":[1,0],"goal":2,"start":0,"action_noise":0,"location_history":"[0,1,5,0,1,5,0,1,5,0,1,3,2]","action_history":"[1,1,1,1,1,1,1,1,1,1,0,0]","door_history":"[0,0,0,0,0,0,0,0,0,0,1,1]","location_rts":"[6163,859,952,517,570,485,473,408,493,653,1452,506]","trial_type":"two-door-navigation","trial_index":14,"time_elapsed":399140,"internal_node_id":"0.0-2.0-12.0"},{"group":"hexagon_tri","room_assignment":["red","purple","grey","blue","green","yellow"],"door_color_assignment":["black","white"],"door_generator_assignment":[1,0],"goal":5,"start":2,"action_noise":0,"location_history":"[2,1,3,4,0,5]","action_history":"[0,0,1,0,0]","door_history":"[1,1,0,1,1]","location_rts":"[4536,621,1814,1152,470]","trial_type":"two-door-navigation","trial_index":15,"time_elapsed":416867,"internal_node_id":"0.0-2.0-13.0"},{"group":"hexagon_tri","room_assignment":["red","purple","grey","blue","green","yellow"],"door_color_assignment":["black","white"],"door_generator_assignment":[1,0],"goal":4,"start":5,"action_noise":0,"location_history":"[5,0,5,4]","action_history":"[1,0,0]","door_history":"[0,1,1]","location_rts":"[6665,1428,752]","trial_type":"two-door-navigation","trial_index":16,"time_elapsed":432794,"internal_node_id":"0.0-2.0-14.0"},{"group":"hexagon_tri","room_assignment":["red","purple","grey","blue","green","yellow"],"door_color_assignment":["black","white"],"door_generator_assignment":[1,0],"goal":3,"start":4,"action_noise":0,"location_history":"[4,2,3]","action_history":"[1,1]","door_history":"[0,0]","location_rts":"[3300,515]","trial_type":"two-door-navigation","trial_index":17,"time_elapsed":442659,"internal_node_id":"0.0-2.0-15.0"},{"group":"hexagon_tri","room_assignment":["red","purple","grey","blue","green","yellow"],"door_color_assignment":["black","white"],"door_generator_assignment":[1,0],"goal":1,"start":3,"action_noise":0,"location_history":"[3,2,1]","action_history":"[0,0]","door_history":"[1,1]","location_rts":"[3202,641]","trial_type":"two-door-navigation","trial_index":18,"time_elapsed":452551,"internal_node_id":"0.0-2.0-16.0"},{"group":"hexagon_tri","room_assignment":["red","purple","grey","blue","green","yellow"],"door_color_assignment":["black","white"],"door_generator_assignment":[1,0],"goal":5,"start":1,"action_noise":0,"location_history":"[1,3,2,3,4,2,3,4,2,1,3,2,1,3,2,1,3,2,1,5]","action_history":"[0,0,1,1,1,1,1,1,0,0,0,0,0,0,0,0,0,0,1]","door_history":"[1,1,0,0,0,0,0,0,1,1,1,1,1,1,1,1,1,1,0]","location_rts":"[3445,609,1390,627,769,692,534,673,1279,1107,778,529,407,564,556,573,452,660,837]","trial_type":"two-door-navigation","trial_index":19,"time_elapsed":492531,"internal_node_id":"0.0-2.0-17.0"},{"group":"hexagon_tri","room_assignment":["red","purple","grey","blue","green","yellow"],"door_color_assignment":["black","white"],"door_generator_assignment":[1,0],"goal":4,"start":5,"action_noise":0,"location_history":"[5,4]","action_history":"[0]","door_history":"[1]","location_rts":"[3313]","trial_type":"two-door-navigation","trial_index":20,"time_elapsed":500872,"internal_node_id":"0.0-2.0-18.0"},{"group":"hexagon_tri","room_assignment":["red","purple","grey","blue","green","yellow"],"door_color_assignment":["black","white"],"door_generator_assignment":[1,0],"goal":0,"start":4,"action_noise":0,"location_history":"[4,0]","action_history":"[0]","door_history":"[1]","location_rts":"[1124]","trial_type":"two-door-navigation","trial_index":21,"time_elapsed":507032,"internal_node_id":"0.0-2.0-19.0"},{"group":"hexagon_tri","room_assignment":["red","purple","grey","blue","green","yellow"],"door_color_assignment":["black","white"],"door_generator_assignment":[1,0],"goal":1,"start":0,"action_noise":0,"location_history":"[0,1]","action_history":"[1]","door_history":"[0]","location_rts":"[3517]","trial_type":"two-door-navigation","trial_index":22,"time_elapsed":515578,"internal_node_id":"0.0-2.0-20.0"},{"group":"hexagon_tri","room_assignment":["red","purple","grey","blue","green","yellow"],"door_color_assignment":["black","white"],"door_generator_assignment":[1,0],"goal":3,"start":1,"action_noise":0,"location_history":"[1,3]","action_history":"[0]","door_history":"[1]","location_rts":"[4489]","trial_type":"two-door-navigation","trial_index":23,"time_elapsed":525103,"internal_node_id":"0.0-2.0-21.0"},{"group":"hexagon_tri","room_assignment":["red","purple","grey","blue","green","yellow"],"door_color_assignment":["black","white"],"door_generator_assignment":[1,0],"goal":2,"start":3,"action_noise":0,"location_history":"[3,4,2]","action_history":"[1,1]","door_history":"[0,0]","location_rts":"[3437,957]","trial_type":"two-door-navigation","trial_index":24,"time_elapsed":535554,"internal_node_id":"0.0-2.0-22.0"},{"group":"hexagon_tri","room_assignment":["red","purple","grey","blue","green","yellow"],"door_color_assignment":["black","white"],"door_generator_assignment":[1,0],"goal":0,"start":2,"action_noise":0,"location_history":"[2,1,3,2,1,3,2,1,3,2,3,4,2,3,4,2,3,4,2,3,2,1,3,2,3,4,2,3,2,1,3,2,1,3,2,1,3,2,3,4,2,3,4,2,3,4,2,1,3,2,1,3,2,1,3,2,1,3,2,1,3,4,2,3,4,2,3,4,2,3,4,2,3,4,2,3,4,2,3,4,2,3,2,1,3,2,1,3,2,1,3,2,1,3,2,1,3,4,2,3,4,2,3,4,2,3,4,2,3,2,1,3,2,1,3,2,1,3,2,1,3,2,1,3,4,2,3,4,2,3,4,2,3,4,2,3,4,2,3,4,2,3,4,2,3,4,2,3,4,2,3,4,2,3,4,2,3,4,2,3,4,2,3,4,2,3,4,2,3,2,1,3,2,1,3,2,1,3,2,1,3,2,1,3,2,1,3,2,1,3,2,1,3,2,1,3,2,1,3,2,1,3,2,1,3,2,1,3,2,1,3,2,3,4,0]","action_history":"[0,0,0,0,0,0,0,0,0,1,1,1,1,1,1,1,1,1,1,0,0,0,0,1,1,1,1,0,0,0,0,0,0,0,0,0,0,1,1,1,1,1,1,1,1,1,0,0,0,0,0,0,0,0,0,0,0,0,0,0,1,1,1,1,1,1,1,1,1,1,1,1,1,1,1,1,1,1,1,1,1,0,0,0,0,0,0,0,0,0,0,0,0,0,0,0,1,1,1,1,1,1,1,1,1,1,1,1,0,0,0,0,0,0,0,0,0,0,0,0,0,0,0,1,1,1,1,1,1,1,1,1,1,1,1,1,1,1,1,1,1,1,1,1,1,1,1,1,1,1,1,1,1,1,1,1,1,1,1,1,1,1,1,1,1,1,1,1,0,0,0,0,0,0,0,0,0,0,0,0,0,0,0,0,0,0,0,0,0,0,0,0,0,0,0,0,0,0,0,0,0,0,0,0,0,0,0,0,0,0,0,1,1,0]","door_history":"[1,1,1,1,1,1,1,1,1,0,0,0,0,0,0,0,0,0,0,1,1,1,1,0,0,0,0,1,1,1,1,1,1,1,1,1,1,0,0,0,0,0,0,0,0,0,1,1,1,1,1,1,1,1,1,1,1,1,1,1,0,0,0,0,0,0,0,0,0,0,0,0,0,0,0,0,0,0,0,0,0,1,1,1,1,1,1,1,1,1,1,1,1,1,1,1,0,0,0,0,0,0,0,0,0,0,0,0,1,1,1,1,1,1,1,1,1,1,1,1,1,1,1,0,0,0,0,0,0,0,0,0,0,0,0,0,0,0,0,0,0,0,0,0,0,0,0,0,0,0,0,0,0,0,0,0,0,0,0,0,0,0,0,0,0,0,0,0,1,1,1,1,1,1,1,1,1,1,1,1,1,1,1,1,1,1,1,1,1,1,1,1,1,1,1,1,1,1,1,1,1,1,1,1,1,1,1,1,1,1,1,0,0,1]","location_rts":"[5595,541,507,769,672,426,646,647,374,1694,452,308,392,588,641,575,329,275,440,587,407,529,647,1251,609,583,676,910,528,625,494,514,362,448,471,487,522,1697,544,540,479,364,322,162,74,807,2223,0,81,1086,109,234,771,291,507,74,544,331,326,211,600,232,5097,306,550,323,374,365,317,281,334,570,160,359,279,342,374,1566,351,524,346,482,345,410,104,95,884,522,399,318,381,231,135,274,55,114,2607,438,1078,318,193,360,96,415,149,430,31,557,539,534,25,1003,688,815,608,715,588,332,63,24,873,378,1204,102,120,769,982,590,536,1903,172,352,601,520,599,552,605,629,1119,927,557,350,3004,331,300,326,253,1470,665,122,143,204,348,331,454,375,903,293,341,355,433,504,389,722,726,544,511,852,6407,471,172,342,941,506,277,348,503,204,962,649,516,351,69,523,401,403,382,335,540,165,238,340,175,171,177,663,441,430,408,437,354,424,376,410,282,344,241,295,308,331,335,807,1254,3055]","trial_type":"two-door-navigation","trial_index":25,"time_elapsed":885139,"internal_node_id":"0.0-2.0-23.0"},{"group":"hexagon_tri","room_assignment":["red","purple","grey","blue","green","yellow"],"door_color_assignment":["black","white"],"door_generator_assignment":[1,0],"goal":3,"start":0,"action_noise":0,"location_history":"[0,5,4,0,5,4,0,1,5,0,1,5,0,1,5,0,1,5,0,1,5,0,1,5,0,1,5,0,1,3]","action_history":"[0,0,0,0,0,0,1,1,1,1,1,1,1,1,1,1,1,1,1,1,1,1,1,1,1,1,1,1,0]","door_history":"[1,1,1,1,1,1,0,0,0,0,0,0,0,0,0,0,0,0,0,0,0,0,0,0,0,0,0,0,1]","location_rts":"[3551,521,393,370,363,325,139,775,515,410,343,300,161,1129,491,306,2026,74,288,54,427,280,465,303,297,346,346,387,746]","trial_type":"two-door-navigation","trial_index":26,"time_elapsed":935013,"internal_node_id":"0.0-2.0-24.0"},{"group":"hexagon_tri","room_assignment":["red","purple","grey","blue","green","yellow"],"door_color_assignment":["black","white"],"door_generator_assignment":[1,0],"goal":1,"start":3,"action_noise":0,"location_history":"[3,2,1]","action_history":"[0,0]","door_history":"[1,1]","location_rts":"[2412,358]","trial_type":"two-door-navigation","trial_index":27,"time_elapsed":943823,"internal_node_id":"0.0-2.0-25.0"},{"group":"hexagon_tri","room_assignment":["red","purple","grey","blue","green","yellow"],"door_color_assignment":["black","white"],"door_generator_assignment":[1,0],"goal":2,"start":1,"action_noise":0,"location_history":"[1,3,2]","action_history":"[0,0]","door_history":"[1,1]","location_rts":"[3377,299]","trial_type":"two-door-navigation","trial_index":28,"time_elapsed":953550,"internal_node_id":"0.0-2.0-26.0"},{"group":"hexagon_tri","room_assignment":["red","purple","grey","blue","green","yellow"],"door_color_assignment":["black","white"],"door_generator_assignment":[1,0],"goal":5,"start":2,"action_noise":0,"location_history":"[2,1,3,2,1,3,2,1,3,2,1,3,4,2,3,4,2,3,4,2,3,4,2,3,4,2,3,4,2,3,4,2,3,2,1,3,2,1,3,2,1,3,2,1,3,2,1,3,2,1,3,4,2,3,4,2,3,4,2,3,4,2,3,4,2,3,4,2,3,4,2,3,4,2,3,4,2,3,4,2,3,4,2,3,4,2,3,4,2,3,2,1,3,2,1,3,2,1,3,2,3,4,2,3,4,2,3,4,2,3,4,2,3,4,2,3,2,1,3,2,1,3,2,1,3,2,1,3,2,1,3,2,1,3,2,1,3,2,1,3,2,1,3,2,1,3,2,1,3,2,1,3,2,3,4,2,3,4,2,3,4,2,3,4,2,3,4,2,3,4,2,3,4,2,3,4,2,3,4,2,3,4,2,3,4,2,1,3,2,1,3,2,1,3,2,1,3,2,1,3,2,1,3,2,1,3,2,1,3,2,1,3,2,1,3,2,1,3,2,1,3,2,3,4,2,3,4,2,3,4,2,3,4,2,3,4,2,3,4,0,5]","action_history":"[0,0,0,0,0,0,0,0,0,0,0,1,1,1,1,1,1,1,1,1,1,1,1,1,1,1,1,1,1,1,1,1,0,0,0,0,0,0,0,0,0,0,0,0,0,0,0,0,0,0,1,1,1,1,1,1,1,1,1,1,1,1,1,1,1,1,1,1,1,1,1,1,1,1,1,1,1,1,1,1,1,1,1,1,1,1,1,1,1,0,0,0,0,0,0,0,0,0,0,1,1,1,1,1,1,1,1,1,1,1,1,1,1,1,1,0,0,0,0,0,0,0,0,0,0,0,0,0,0,0,0,0,0,0,0,0,0,0,0,0,0,0,0,0,0,0,0,0,0,0,0,0,1,1,1,1,1,1,1,1,1,1,1,1,1,1,1,1,1,1,1,1,1,1,1,1,1,1,1,1,1,1,1,1,1,0,0,0,0,0,0,0,0,0,0,0,0,0,0,0,0,0,0,0,0,0,0,0,0,0,0,0,0,0,0,0,0,0,0,0,0,1,1,1,1,1,1,1,1,1,1,1,1,1,1,1,1,1,0,0]","door_history":"[1,1,1,1,1,1,1,1,1,1,1,0,0,0,0,0,0,0,0,0,0,0,0,0,0,0,0,0,0,0,0,0,1,1,1,1,1,1,1,1,1,1,1,1,1,1,1,1,1,1,0,0,0,0,0,0,0,0,0,0,0,0,0,0,0,0,0,0,0,0,0,0,0,0,0,0,0,0,0,0,0,0,0,0,0,0,0,0,0,1,1,1,1,1,1,1,1,1,1,0,0,0,0,0,0,0,0,0,0,0,0,0,0,0,0,1,1,1,1,1,1,1,1,1,1,1,1,1,1,1,1,1,1,1,1,1,1,1,1,1,1,1,1,1,1,1,1,1,1,1,1,1,0,0,0,0,0,0,0,0,0,0,0,0,0,0,0,0,0,0,0,0,0,0,0,0,0,0,0,0,0,0,0,0,0,1,1,1,1,1,1,1,1,1,1,1,1,1,1,1,1,1,1,1,1,1,1,1,1,1,1,1,1,1,1,1,1,1,1,1,1,0,0,0,0,0,0,0,0,0,0,0,0,0,0,0,0,0,1,1]","location_rts":"[2619,462,374,505,713,543,784,2479,488,378,443,496,342,485,426,312,414,360,431,375,326,488,415,415,472,617,475,90,899,421,680,385,1787,249,2358,572,301,671,505,1294,636,374,489,368,502,725,414,318,338,242,2725,686,41,559,47,352,63,121,7,355,336,15,467,520,2741,3677,10439,427,640,1393,914,961,130,855,312,4902,3008,950,752,353,277,569,152,1188,205,159,121,1167,711,3041,7676,673,338,316,154,342,196,184,146,320,65,220,312,327,304,336,990,683,241,168,593,368,308,5854,400,8829,217,351,428,398,323,213,269,269,974,602,300,154,850,82,482,135,148,122,11,285,95,202,60,143,129,60,301,329,270,311,129,338,394,366,344,1272,373,1038,215,316,478,695,22,610,491,677,526,933,58,973,22,1125,600,546,6138,1340,853,49,360,866,322,241,656,313,434,72,240,200,370,6217,2,610,1703,4717,1056,754,369,316,353,451,217,159,21,16,178,417,353,22,199,726,7383,592,11880,351,371,433,365,342,259,31,215,240,751,517,327,2986,955,916,79,143,686,399,565,465,1081,495,399,634,519,8199,3152,454,258,63]","trial_type":"two-door-navigation","trial_index":29,"time_elapsed":1410127,"internal_node_id":"0.0-2.0-27.0"},{"group":"hexagon_tri","room_assignment":["red","purple","grey","blue","green","yellow"],"door_color_assignment":["black","white"],"door_generator_assignment":[1,0],"goal":4,"start":5,"action_noise":0,"location_history":"[5,4]","action_history":"[0]","door_history":"[1]","location_rts":"[3030]","trial_type":"two-door-navigation","trial_index":30,"time_elapsed":1418193,"internal_node_id":"0.0-2.0-28.0"},{"group":"hexagon_tri","room_assignment":["red","purple","grey","blue","green","yellow"],"door_color_assignment":["black","white"],"door_generator_assignment":[1,0],"goal":5,"start":4,"action_noise":0,"location_history":"[4,0,5]","action_history":"[0,0]","door_history":"[1,1]","location_rts":"[756,7518]","trial_type":"two-door-navigation","trial_index":31,"time_elapsed":1432529,"internal_node_id":"0.0-2.0-29.0"},{"group":"hexagon_tri","room_assignment":["red","purple","grey","blue","green","yellow"],"door_color_assignment":["black","white"],"door_generator_assignment":[1,0],"goal":3,"start":5,"action_noise":0,"location_history":"[5,4,0,5,4,0,5,4,0,5,4,0,5,4,0,5,4,0,5,4,0,1,5,0,1,5,0,1,5,0,1,5,0,1,5,0,1,5,0,1,5,0,1,5,0,1,5,0,1,5,4,0,5,4,0,5,4,0,5,4,0,5,4,0,5,4,0,5,4,0,5,4,0,5,4,0,5,4,2,3]","action_history":"[0,0,0,0,0,0,0,0,0,0,0,0,0,0,0,0,0,0,0,0,1,1,1,1,1,1,1,1,1,1,1,1,1,1,1,1,1,1,1,1,1,1,1,1,1,1,1,1,1,0,0,0,0,0,0,0,0,0,0,0,0,0,0,0,0,0,0,0,0,0,0,0,0,0,0,0,0,1,1]","door_history":"[1,1,1,1,1,1,1,1,1,1,1,1,1,1,1,1,1,1,1,1,0,0,0,0,0,0,0,0,0,0,0,0,0,0,0,0,0,0,0,0,0,0,0,0,0,0,0,0,0,1,1,1,1,1,1,1,1,1,1,1,1,1,1,1,1,1,1,1,1,1,1,1,1,1,1,1,1,0,0]","location_rts":"[2335,353,308,465,303,349,353,300,259,199,92,13192,232,235,236,199,455,107,205,55,693,184,261,569,550,361,5000,995,338,794,13,532,304,373,340,416,413,291,443,418,418,387,396,312,400,487,376,464,424,680,940,506,404,422,314,340,485,305,444,339,313,316,748,348,323,1397,485,342,437,358,307,398,75,333,662,597,95,689,367]","trial_type":"two-door-navigation","trial_index":32,"time_elapsed":1568411,"internal_node_id":"0.0-2.0-30.0"},{"group":"hexagon_tri","room_assignment":["red","purple","grey","blue","green","yellow"],"door_color_assignment":["black","white"],"door_generator_assignment":[1,0],"goal":0,"start":3,"action_noise":0,"location_history":"[3,2,1,3,2,1,3,2,1,3,2,1,5,0]","action_history":"[0,0,0,0,0,0,0,0,0,0,0,1,1]","door_history":"[1,1,1,1,1,1,1,1,1,1,1,0,0]","location_rts":"[5139,547,311,369,305,284,319,282,247,155,371,32660,1040]","trial_type":"two-door-navigation","trial_index":33,"time_elapsed":1627765,"internal_node_id":"0.0-2.0-31.0"},{"group":"hexagon_tri","room_assignment":["red","purple","grey","blue","green","yellow"],"door_color_assignment":["black","white"],"door_generator_assignment":[1,0],"goal":4,"start":0,"action_noise":0,"location_history":"[0,1,5,0,1,5,0,1,5,0,1,5,0,1,3,2,1,3,2,1,3,2,1,3,2,1,3,2,1,3,2,1,5,0,1,5,0,1,5,0,1,5,0,1,5,0,1,5,0,1,5,0,1,5,0,1,5,0,1,5,0,1,5,0,1,5,4]","action_history":"[1,1,1,1,1,1,1,1,1,1,1,1,1,0,0,0,0,0,0,0,0,0,0,0,0,0,0,0,0,0,0,1,1,1,1,1,1,1,1,1,1,1,1,1,1,1,1,1,1,1,1,1,1,1,1,1,1,1,1,1,1,1,1,1,1,0]","door_history":"[0,0,0,0,0,0,0,0,0,0,0,0,0,1,1,1,1,1,1,1,1,1,1,1,1,1,1,1,1,1,1,0,0,0,0,0,0,0,0,0,0,0,0,0,0,0,0,0,0,0,0,0,0,0,0,0,0,0,0,0,0,0,0,0,0,1]","location_rts":"[3064,315,308,373,321,321,301,431,201,34,525,578,540,2063,314,444,1361,451,213,414,58,5123,2111,770,601,617,649,389,337,417,414,1234,569,342,555,437,5978,127,602,390,2046,358,4035,428,576,630,602,318,415,179,574,1259,515,458,495,170,347,564,6,730,848,678,136,38,612,59]","trial_type":"two-door-navigation","trial_index":34,"time_elapsed":1750937,"internal_node_id":"0.0-2.0-32.0"},{"group":"hexagon_tri","room_assignment":["red","purple","grey","blue","green","yellow"],"door_color_assignment":["black","white"],"door_generator_assignment":[1,0],"goal":1,"start":4,"action_noise":0,"location_history":"[4,2,3,4,2,3,4,2,3,4,2,3,4,0,5,4,0,5,4,0,5,4,0,5,4,0,5,4,0,5,4,0,5,4,0,5,4,0,5,4,0,1]","action_history":"[1,1,1,1,1,1,1,1,1,1,1,1,0,0,0,0,0,0,0,0,0,0,0,0,0,0,0,0,0,0,0,0,0,0,0,0,0,0,0,0,1]","door_history":"[0,0,0,0,0,0,0,0,0,0,0,0,1,1,1,1,1,1,1,1,1,1,1,1,1,1,1,1,1,1,1,1,1,1,1,1,1,1,1,1,0]","location_rts":"[8073,681,475,621,367,388,428,371,355,394,421,354,1665,611,378,350,335,55,122,44,293,502,372,6,215,359,236,234,135,405,144,101,95,172,313,306,518,240,422,118,2695]","trial_type":"two-door-navigation","trial_index":35,"time_elapsed":1821377,"internal_node_id":"0.0-2.0-33.0"},{"group":"hexagon_tri","room_assignment":["red","purple","grey","blue","green","yellow"],"door_color_assignment":["black","white"],"door_generator_assignment":[1,0],"goal":2,"start":1,"action_noise":0,"location_history":"[1,3,4,2]","action_history":"[0,1,1]","door_history":"[1,0,0]","location_rts":"[4063,854,318]","trial_type":"two-door-navigation","trial_index":36,"time_elapsed":1833706,"internal_node_id":"0.0-2.0-34.0"},{"group":"hexagon_tri","room_assignment":["red","purple","grey","blue","green","yellow"],"door_color_assignment":["black","white"],"door_generator_assignment":[1,0],"goal":0,"start":2,"action_noise":0,"location_history":"[2,1,3,2,1,3,2,1,3,2,1,3,2,1,5,0]","action_history":"[0,0,0,0,0,0,0,0,0,0,0,0,0,1,1]","door_history":"[1,1,1,1,1,1,1,1,1,1,1,1,1,0,0]","location_rts":"[3697,346,549,291,357,344,224,286,187,349,171,354,181,838,400]","trial_type":"two-door-navigation","trial_index":37,"time_elapsed":1861711,"internal_node_id":"0.0-2.0-35.0"},{"group":"hexagon_tri","room_assignment":["red","purple","grey","blue","green","yellow"],"door_color_assignment":["black","white"],"door_generator_assignment":[1,0],"goal":5,"start":0,"action_noise":0,"location_history":"[0,1,5]","action_history":"[1,1]","door_history":"[0,0]","location_rts":"[4165,344]","trial_type":"two-door-navigation","trial_index":38,"time_elapsed":1872284,"internal_node_id":"0.0-2.0-36.0"},{"group":"hexagon_tri","room_assignment":["red","purple","grey","blue","green","yellow"],"door_color_assignment":["black","white"],"door_generator_assignment":[1,0],"goal":2,"start":5,"action_noise":0,"location_history":"[5,4,0,5,4,0,5,4,0,5,4,0,5,0,1,5,0,1,5,0,1,5,0,1,5,0,1,5,0,1,5,0,1,5,0,1,3,2]","action_history":"[0,0,0,0,0,0,0,0,0,0,0,0,1,1,1,1,1,1,1,1,1,1,1,1,1,1,1,1,1,1,1,1,1,1,1,0,0]","door_history":"[1,1,1,1,1,1,1,1,1,1,1,1,0,0,0,0,0,0,0,0,0,0,0,0,0,0,0,0,0,0,0,0,0,0,0,1,1]","location_rts":"[3598,322,375,774,1521,531,532,155,277,68,73,246,919,347,0,878,49,27,686,874,277,686,56,677,533,407,108,148,112,188,125,67,181,91,116,10524,6262]","trial_type":"two-door-navigation","trial_index":39,"time_elapsed":1947088,"internal_node_id":"0.0-2.0-37.0"},{"group":"hexagon_tri","room_assignment":["red","purple","grey","blue","green","yellow"],"door_color_assignment":["black","white"],"door_generator_assignment":[1,0],"goal":1,"start":2,"action_noise":0,"location_history":"[2,1]","action_history":"[0]","door_history":"[1]","location_rts":"[11369]","trial_type":"two-door-navigation","trial_index":40,"time_elapsed":1963493,"internal_node_id":"0.0-2.0-38.0"},{"group":"hexagon_tri","room_assignment":["red","purple","grey","blue","green","yellow"],"door_color_assignment":["black","white"],"door_generator_assignment":[1,0],"goal":4,"start":1,"action_noise":0,"location_history":"[1,3,2,1,3,2,1,3,2,1,5,0,1,5,0,1,5,0,1,5,0,1,5,0,1,5,0,1,5,0,1,3,2,1,3,2,1,3,2,1,3,2,1,3,2,1,3,2,1,3,2,1,3,4]","action_history":"[0,0,0,0,0,0,0,0,0,1,1,1,1,1,1,1,1,1,1,1,1,1,1,1,1,1,1,1,1,1,0,0,0,0,0,0,0,0,0,0,0,0,0,0,0,0,0,0,0,0,0,0,1]","door_history":"[1,1,1,1,1,1,1,1,1,0,0,0,0,0,0,0,0,0,0,0,0,0,0,0,0,0,0,0,0,0,1,1,1,1,1,1,1,1,1,1,1,1,1,1,1,1,1,1,1,1,1,1,0]","location_rts":"[11040,521,478,399,639,353,415,340,247,758,425,379,449,303,200,375,186,494,538,464,624,210,154,245,116,67,387,430,330,1285,1383,545,346,484,459,428,1127,2700,383,317,665,1100,385,818,456,1566,461,360,959,407,1326,332,1846]","trial_type":"two-door-navigation","trial_index":41,"time_elapsed":2063627,"internal_node_id":"0.0-2.0-39.0"},{"group":"hexagon_tri","room_assignment":["red","purple","grey","blue","green","yellow"],"door_color_assignment":["black","white"],"door_generator_assignment":[1,0],"goal":3,"start":4,"action_noise":0,"location_history":"[4,0,5,4,0,5,4,0,5,4,0,5,4,2,3]","action_history":"[0,0,0,0,0,0,0,0,0,0,0,0,1,1]","door_history":"[1,1,1,1,1,1,1,1,1,1,1,1,0,0]","location_rts":"[4831,430,452,357,286,379,415,284,280,343,333,340,854,528]","trial_type":"two-door-navigation","trial_index":42,"time_elapsed":2092127,"internal_node_id":"0.0-2.0-40.0"},{"group":"hexagon_tri","room_assignment":["red","purple","grey","blue","green","yellow"],"door_color_assignment":["black","white"],"door_generator_assignment":[1,0],"goal":5,"start":3,"action_noise":0,"location_history":"[3,2,1,3,2,1,3,2,1,3,2,1,3,2,1,3,2,1,5]","action_history":"[0,0,0,0,0,0,0,0,0,0,0,0,0,0,0,0,0,1]","door_history":"[1,1,1,1,1,1,1,1,1,1,1,1,1,1,1,1,1,0]","location_rts":"[3444,403,376,412,323,365,621,389,470,3016,334,334,951,1232,543,533,331,498]","trial_type":"two-door-navigation","trial_index":43,"time_elapsed":2129213,"internal_node_id":"0.0-2.0-41.0"},{"group":"hexagon_tri","room_assignment":["red","purple","grey","blue","green","yellow"],"door_color_assignment":["black","white"],"door_generator_assignment":[1,0],"goal":3,"start":5,"action_noise":0,"location_history":"[5,0,1,5,0,1,5,0,1,5,0,1,5,0,1,5,0,1,5,0,1,5,4,0,5,4,0,5,4,0,5,4,0,5,4,0,5,4,0,5,4,0,5,4,0,5,4,0,5,4,0,5,4,0,5,4,2,3]","action_history":"[1,1,1,1,1,1,1,1,1,1,1,1,1,1,1,1,1,1,1,1,1,0,0,0,0,0,0,0,0,0,0,0,0,0,0,0,0,0,0,0,0,0,0,0,0,0,0,0,0,0,0,0,0,0,0,1,1]","door_history":"[0,0,0,0,0,0,0,0,0,0,0,0,0,0,0,0,0,0,0,0,0,1,1,1,1,1,1,1,1,1,1,1,1,1,1,1,1,1,1,1,1,1,1,1,1,1,1,1,1,1,1,1,1,1,1,0,0]","location_rts":"[8692,692,328,379,2813,1988,461,940,1410,293,1186,537,991,1839,418,3327,1089,2317,1946,65,423,856,1710,88,1410,6667,283,449,21,1167,1148,365,1135,372,511,504,475,649,1653,1154,755,634,2,596,257,200,808,443,74,177,924,957,859,3130,1843,538,370]","trial_type":"two-door-navigation","trial_index":44,"time_elapsed":2257078,"internal_node_id":"0.0-2.0-42.0"},{"group":"hexagon_tri","room_assignment":["red","purple","grey","blue","green","yellow"],"door_color_assignment":["black","white"],"door_generator_assignment":[1,0],"goal":0,"start":3,"action_noise":0,"location_history":"[3,2,1,3,2,1,3,2,1,3,2,1,3,2,3,4,2,3,4,2,3,4,2,3,4,2,3,4,2,3,4,2,3,4,2,1,3,2,1,3,2,1,3,2,1,3,2,1,3,2,1,3,2,1,3,2,1,3,2,1,3,2,1,3,2,1,3,2,1,3,2,1,3,2,1,3,2,1,3,2,1,3,2,1,3,2,1,3,2,1,5,0]","action_history":"[0,0,0,0,0,0,0,0,0,0,0,0,0,1,1,1,1,1,1,1,1,1,1,1,1,1,1,1,1,1,1,1,1,1,0,0,0,0,0,0,0,0,0,0,0,0,0,0,0,0,0,0,0,0,0,0,0,0,0,0,0,0,0,0,0,0,0,0,0,0,0,0,0,0,0,0,0,0,0,0,0,0,0,0,0,0,0,0,0,1,1]","door_history":"[1,1,1,1,1,1,1,1,1,1,1,1,1,0,0,0,0,0,0,0,0,0,0,0,0,0,0,0,0,0,0,0,0,0,1,1,1,1,1,1,1,1,1,1,1,1,1,1,1,1,1,1,1,1,1,1,1,1,1,1,1,1,1,1,1,1,1,1,1,1,1,1,1,1,1,1,1,1,1,1,1,1,1,1,1,1,1,1,1,0,0]","location_rts":"[2819,400,333,380,315,315,329,366,240,222,146,252,304,188,283,470,254,377,287,430,508,784,1427,715,499,937,631,535,459,348,375,346,340,373,48,351,754,815,1230,311,445,37,887,149,892,379,437,444,692,526,524,505,639,812,121,52,452,356,688,259,272,250,311,309,2675,240,524,395,5096,4368,382,795,402,397,51,237,350,3668,991,659,256,174,188,13,338,544,655,280,5330,352,5016]","trial_type":"two-door-navigation","trial_index":45,"time_elapsed":2419795,"internal_node_id":"0.0-2.0-43.0"},{"group":"hexagon_tri","room_assignment":["red","purple","grey","blue","green","yellow"],"door_color_assignment":["black","white"],"door_generator_assignment":[1,0],"goal":2,"start":0,"action_noise":0,"location_history":"[0,1,5,0,1,5,0,1,5,0,1,5,4,2]","action_history":"[1,1,1,1,1,1,1,1,1,1,1,0,1]","door_history":"[0,0,0,0,0,0,0,0,0,0,0,1,0]","location_rts":"[4701,567,376,509,456,386,449,415,443,528,499,800,495]","trial_type":"two-door-navigation","trial_index":46,"time_elapsed":2447745,"internal_node_id":"0.0-2.0-44.0"},{"group":"hexagon_tri","room_assignment":["red","purple","grey","blue","green","yellow"],"door_color_assignment":["black","white"],"door_generator_assignment":[1,0],"goal":4,"start":2,"action_noise":0,"location_history":"[2,3,2,3,4]","action_history":"[1,0,1,1]","door_history":"[0,1,0,0]","location_rts":"[4782,723,233,485]","trial_type":"two-door-navigation","trial_index":47,"time_elapsed":2462090,"internal_node_id":"0.0-2.0-45.0"},{"group":"hexagon_tri","room_assignment":["red","purple","grey","blue","green","yellow"],"door_color_assignment":["black","white"],"door_generator_assignment":[1,0],"goal":1,"start":4,"action_noise":0,"location_history":"[4,2,3,4,2,3,4,2,3,4,0,5,4,0,5,4,0,5,4,0,5,4,0,5,4,0,5,4,2,1]","action_history":"[1,1,1,1,1,1,1,1,1,0,0,0,0,0,0,0,0,0,0,0,0,0,0,0,0,0,0,1,0]","door_history":"[0,0,0,0,0,0,0,0,0,1,1,1,1,1,1,1,1,1,1,1,1,1,1,1,1,1,1,0,1]","location_rts":"[1699,1296,578,765,511,453,939,2071,872,290,514,545,1614,693,643,325,865,900,663,1574,1519,798,2267,880,796,683,1421,817,167]","trial_type":"two-door-navigation","trial_index":48,"time_elapsed":2522976,"internal_node_id":"0.0-2.0-46.0"},{"group":"hexagon_tri","room_assignment":["red","purple","grey","blue","green","yellow"],"door_color_assignment":["black","white"],"door_generator_assignment":[1,0],"goal":4,"start":1,"action_noise":0,"location_history":"[1,5,4]","action_history":"[1,0]","door_history":"[0,1]","location_rts":"[3247,138]","trial_type":"two-door-navigation","trial_index":49,"time_elapsed":2532405,"internal_node_id":"0.0-2.0-47.0"},{"group":"hexagon_tri","room_assignment":["red","purple","grey","blue","green","yellow"],"door_color_assignment":["black","white"],"door_generator_assignment":[1,0],"goal":3,"start":4,"action_noise":0,"location_history":"[4,2,1,5,0,1,3]","action_history":"[1,0,1,1,1,0]","door_history":"[0,1,0,0,0,1]","location_rts":"[3817,82,1012,675,977,446]","trial_type":"two-door-navigation","trial_index":50,"time_elapsed":2549571,"internal_node_id":"0.0-2.0-48.0"},{"group":"hexagon_tri","room_assignment":["red","purple","grey","blue","green","yellow"],"door_color_assignment":["black","white"],"door_generator_assignment":[1,0],"goal":5,"start":3,"action_noise":0,"location_history":"[3,4,0,1,3,4,0,1,5]","action_history":"[1,0,1,0,1,0,1,1]","door_history":"[0,1,0,1,0,1,0,0]","location_rts":"[1373,559,734,300,715,428,891,575]","trial_type":"two-door-navigation","trial_index":51,"time_elapsed":2567365,"internal_node_id":"0.0-2.0-49.0"},{"view_history":"[{\"page_index\":0,\"viewing_time\":6491}]","rt":6491,"trial_type":"instructions","trial_index":52,"time_elapsed":2574856,"internal_node_id":"0.0-3.0"},{"view_history":"[{\"page_index\":0,\"viewing_time\":2679},{\"page_index\":1,\"viewing_time\":2521}]","rt":5200,"trial_type":"instructions","trial_index":53,"time_elapsed":2581056,"internal_node_id":"0.0-4.0"},{"group":"hexagon_tri","fractal_assignment":["../images/cyn_red.png","../images/ylw_slt.png","../images/blu_wht.png","../images/org_blu.png","../images/gry_blk.png","../images/pnk_blu.png"],"mutagen_generator_assignment":[0,1],"goal":4,"start":0,"action_noise":0,"location_history":"[0,5,4]","action_history":"[0,0]","mutagen_history":"[0,0]","location_rts":"[146535,268]","trial_type":"fractal-mutation","trial_index":54,"time_elapsed":2733962,"internal_node_id":"0.0-5.0-0.0"},{"group":"hexagon_tri","fractal_assignment":["../images/cyn_red.png","../images/ylw_slt.png","../images/blu_wht.png","../images/org_blu.png","../images/gry_blk.png","../images/pnk_blu.png"],"mutagen_generator_assignment":[0,1],"goal":3,"start":4,"action_noise":0,"location_history":"[4,0,1,3]","action_history":"[0,1,0]","mutagen_history":"[0,1,0]","location_rts":"[1132,2445,887]","trial_type":"fractal-mutation","trial_index":55,"time_elapsed":2745584,"internal_node_id":"0.0-5.0-1.0"},{"group":"hexagon_tri","fractal_assignment":["../images/cyn_red.png","../images/ylw_slt.png","../images/blu_wht.png","../images/org_blu.png","../images/gry_blk.png","../images/pnk_blu.png"],"mutagen_generator_assignment":[0,1],"goal":5,"start":3,"action_noise":0,"location_history":"[3,4,0,5]","action_history":"[1,0,0]","mutagen_history":"[1,0,0]","location_rts":"[393,618,28]","trial_type":"fractal-mutation","trial_index":56,"time_elapsed":2753763,"internal_node_id":"0.0-5.0-2.0"},{"group":"hexagon_tri","fractal_assignment":["../images/cyn_red.png","../images/ylw_slt.png","../images/blu_wht.png","../images/org_blu.png","../images/gry_blk.png","../images/pnk_blu.png"],"mutagen_generator_assignment":[0,1],"goal":2,"start":5,"action_noise":0,"location_history":"[5,0,5,0,1,3,2]","action_history":"[1,0,1,1,0,0]","mutagen_history":"[1,0,1,1,0,0]","location_rts":"[412,167,523,189,185,560]","trial_type":"fractal-mutation","trial_index":57,"time_elapsed":2766030,"internal_node_id":"0.0-5.0-3.0"},{"group":"hexagon_tri","fractal_assignment":["../images/cyn_red.png","../images/ylw_slt.png","../images/blu_wht.png","../images/org_blu.png","../images/gry_blk.png","../images/pnk_blu.png"],"mutagen_generator_assignment":[0,1],"goal":1,"start":2,"action_noise":0,"location_history":"[2,3,2,1]","action_history":"[1,0,0]","mutagen_history":"[1,0,0]","location_rts":"[1525,119,108]","trial_type":"fractal-mutation","trial_index":58,"time_elapsed":2774900,"internal_node_id":"0.0-5.0-4.0"},{"group":"hexagon_tri","fractal_assignment":["../images/cyn_red.png","../images/ylw_slt.png","../images/blu_wht.png","../images/org_blu.png","../images/gry_blk.png","../images/pnk_blu.png"],"mutagen_generator_assignment":[0,1],"goal":4,"start":1,"action_noise":0,"location_history":"[1,5,4]","action_history":"[1,0]","mutagen_history":"[1,0]","location_rts":"[2006,392]","trial_type":"fractal-mutation","trial_index":59,"time_elapsed":2783384,"internal_node_id":"0.0-5.0-5.0"},{"group":"hexagon_tri","fractal_assignment":["../images/cyn_red.png","../images/ylw_slt.png","../images/blu_wht.png","../images/org_blu.png","../images/gry_blk.png","../images/pnk_blu.png"],"mutagen_generator_assignment":[0,1],"goal":1,"start":4,"action_noise":0,"location_history":"[4,0,1]","action_history":"[0,1]","mutagen_history":"[0,1]","location_rts":"[545,350]","trial_type":"fractal-mutation","trial_index":60,"time_elapsed":2790362,"internal_node_id":"0.0-5.0-6.0"},{"group":"hexagon_tri","fractal_assignment":["../images/cyn_red.png","../images/ylw_slt.png","../images/blu_wht.png","../images/org_blu.png","../images/gry_blk.png","../images/pnk_blu.png"],"mutagen_generator_assignment":[0,1],"goal":5,"start":1,"action_noise":0,"location_history":"[1,5]","action_history":"[1]","mutagen_history":"[1]","location_rts":"[514]","trial_type":"fractal-mutation","trial_index":61,"time_elapsed":2795925,"internal_node_id":"0.0-5.0-7.0"},{"group":"hexagon_tri","fractal_assignment":["../images/cyn_red.png","../images/ylw_slt.png","../images/blu_wht.png","../images/org_blu.png","../images/gry_blk.png","../images/pnk_blu.png"],"mutagen_generator_assignment":[0,1],"goal":0,"start":5,"action_noise":0,"location_history":"[5,0]","action_history":"[1]","mutagen_history":"[1]","location_rts":"[573]","trial_type":"fractal-mutation","trial_index":62,"time_elapsed":2801543,"internal_node_id":"0.0-5.0-8.0"},{"group":"hexagon_tri","fractal_assignment":["../images/cyn_red.png","../images/ylw_slt.png","../images/blu_wht.png","../images/org_blu.png","../images/gry_blk.png","../images/pnk_blu.png"],"mutagen_generator_assignment":[0,1],"goal":2,"start":0,"action_noise":0,"location_history":"[0,5,4,0,1,5,4,0,1,5,4,2]","action_history":"[0,0,0,1,1,0,0,1,1,0,1]","mutagen_history":"[0,0,0,1,1,0,0,1,1,0,1]","location_rts":"[546,65,129,435,342,67,403,327,59,280,248]","trial_type":"fractal-mutation","trial_index":63,"time_elapsed":2819888,"internal_node_id":"0.0-5.0-9.0"},{"group":"hexagon_tri","fractal_assignment":["../images/cyn_red.png","../images/ylw_slt.png","../images/blu_wht.png","../images/org_blu.png","../images/gry_blk.png","../images/pnk_blu.png"],"mutagen_generator_assignment":[0,1],"goal":3,"start":2,"action_noise":0,"location_history":"[2,1,5,4,2,1,5,4,2,1,5,4,0,1,3]","action_history":"[0,1,0,1,0,1,0,1,0,1,0,0,1,0]","mutagen_history":"[0,1,0,1,0,1,0,1,0,1,0,0,1,0]","location_rts":"[214,339,376,176,385,343,350,265,532,453,512,0,76,100]","trial_type":"fractal-mutation","trial_index":64,"time_elapsed":2842612,"internal_node_id":"0.0-5.0-10.0"},{"group":"hexagon_tri","fractal_assignment":["../images/cyn_red.png","../images/ylw_slt.png","../images/blu_wht.png","../images/org_blu.png","../images/gry_blk.png","../images/pnk_blu.png"],"mutagen_generator_assignment":[0,1],"goal":0,"start":3,"action_noise":0,"location_history":"[3,4,0]","action_history":"[1,0]","mutagen_history":"[1,0]","location_rts":"[37,24]","trial_type":"fractal-mutation","trial_index":65,"time_elapsed":2848765,"internal_node_id":"0.0-5.0-11.0"},{"group":"hexagon_tri","fractal_assignment":["../images/cyn_red.png","../images/ylw_slt.png","../images/blu_wht.png","../images/org_blu.png","../images/gry_blk.png","../images/pnk_blu.png"],"mutagen_generator_assignment":[0,1],"goal":2,"start":0,"action_noise":0,"location_history":"[0,1,3,4,0,1,5,0,5,0,1,3,4,2]","action_history":"[1,0,1,0,1,1,1,0,1,1,0,1,1]","mutagen_history":"[1,0,1,0,1,1,1,0,1,1,0,1,1]","location_rts":"[327,292,170,208,114,105,160,36,82,288,129,158,129]","trial_type":"fractal-mutation","trial_index":66,"time_elapsed":2868560,"internal_node_id":"0.0-5.0-12.0"},{"group":"hexagon_tri","fractal_assignment":["../images/cyn_red.png","../images/ylw_slt.png","../images/blu_wht.png","../images/org_blu.png","../images/gry_blk.png","../images/pnk_blu.png"],"mutagen_generator_assignment":[0,1],"goal":5,"start":2,"action_noise":0,"location_history":"[2,3,4,2,1,3,4,0,5]","action_history":"[1,1,1,0,0,1,0,0]","mutagen_history":"[1,1,1,0,0,1,0,0]","location_rts":"[1743,5,215,19,345,384,299,175]","trial_type":"fractal-mutation","trial_index":67,"time_elapsed":2884075,"internal_node_id":"0.0-5.0-13.0"},{"group":"hexagon_tri","fractal_assignment":["../images/cyn_red.png","../images/ylw_slt.png","../images/blu_wht.png","../images/org_blu.png","../images/gry_blk.png","../images/pnk_blu.png"],"mutagen_generator_assignment":[0,1],"goal":4,"start":5,"action_noise":0,"location_history":"[5,4]","action_history":"[0]","mutagen_history":"[0]","location_rts":"[177]","trial_type":"fractal-mutation","trial_index":68,"time_elapsed":2889287,"internal_node_id":"0.0-5.0-14.0"},{"group":"hexagon_tri","fractal_assignment":["../images/cyn_red.png","../images/ylw_slt.png","../images/blu_wht.png","../images/org_blu.png","../images/gry_blk.png","../images/pnk_blu.png"],"mutagen_generator_assignment":[0,1],"goal":3,"start":4,"action_noise":0,"location_history":"[4,2,1,5,0,5,0,5,0,5,0,5,0,1,5,0,1,3]","action_history":"[1,0,1,1,0,1,0,1,0,1,0,1,1,1,1,1,0]","mutagen_history":"[1,0,1,1,0,1,0,1,0,1,0,1,1,1,1,1,0]","location_rts":"[634,85,473,98,253,375,216,375,279,346,283,383,531,379,29,426,1329]","trial_type":"fractal-mutation","trial_index":69,"time_elapsed":2917496,"internal_node_id":"0.0-5.0-15.0"},{"group":"hexagon_tri","fractal_assignment":["../images/cyn_red.png","../images/ylw_slt.png","../images/blu_wht.png","../images/org_blu.png","../images/gry_blk.png","../images/pnk_blu.png"],"mutagen_generator_assignment":[0,1],"goal":1,"start":3,"action_noise":0,"location_history":"[3,4,0,1]","action_history":"[1,0,1]","mutagen_history":"[1,0,1]","location_rts":"[918,418,332]","trial_type":"fractal-mutation","trial_index":70,"time_elapsed":2926304,"internal_node_id":"0.0-5.0-16.0"},{"group":"hexagon_tri","fractal_assignment":["../images/cyn_red.png","../images/ylw_slt.png","../images/blu_wht.png","../images/org_blu.png","../images/gry_blk.png","../images/pnk_blu.png"],"mutagen_generator_assignment":[0,1],"goal":5,"start":1,"action_noise":0,"location_history":"[1,3,4,0,1,3,4,0,1,3,4,0,1,3,4,0,5]","action_history":"[0,1,0,1,0,1,0,1,0,1,0,1,0,1,0,0]","mutagen_history":"[0,1,0,1,0,1,0,1,0,1,0,1,0,1,0,0]","location_rts":"[729,469,260,481,396,522,346,2759,320,523,377,150,278,99,88,28]","trial_type":"fractal-mutation","trial_index":71,"time_elapsed":2954780,"internal_node_id":"0.0-5.0-17.0"},{"group":"hexagon_tri","fractal_assignment":["../images/cyn_red.png","../images/ylw_slt.png","../images/blu_wht.png","../images/org_blu.png","../images/gry_blk.png","../images/pnk_blu.png"],"mutagen_generator_assignment":[0,1],"goal":4,"start":5,"action_noise":0,"location_history":"[5,4]","action_history":"[0]","mutagen_history":"[0]","location_rts":"[543]","trial_type":"fractal-mutation","trial_index":72,"time_elapsed":2960361,"internal_node_id":"0.0-5.0-18.0"},{"group":"hexagon_tri","fractal_assignment":["../images/cyn_red.png","../images/ylw_slt.png","../images/blu_wht.png","../images/org_blu.png","../images/gry_blk.png","../images/pnk_blu.png"],"mutagen_generator_assignment":[0,1],"goal":0,"start":4,"action_noise":0,"location_history":"[4,2,3,2,1,5,4,0]","action_history":"[1,1,0,0,1,0,0]","mutagen_history":"[1,1,0,0,1,0,0]","location_rts":"[537,459,446,32,484,283,92]","trial_type":"fractal-mutation","trial_index":73,"time_elapsed":2973987,"internal_node_id":"0.0-5.0-19.0"},{"group":"hexagon_tri","fractal_assignment":["../images/cyn_red.png","../images/ylw_slt.png","../images/blu_wht.png","../images/org_blu.png","../images/gry_blk.png","../images/pnk_blu.png"],"mutagen_generator_assignment":[0,1],"goal":1,"start":0,"action_noise":0,"location_history":"[0,1]","action_history":"[1]","mutagen_history":"[1]","location_rts":"[695]","trial_type":"fractal-mutation","trial_index":74,"time_elapsed":2979735,"internal_node_id":"0.0-5.0-20.0"},{"group":"hexagon_tri","fractal_assignment":["../images/cyn_red.png","../images/ylw_slt.png","../images/blu_wht.png","../images/org_blu.png","../images/gry_blk.png","../images/pnk_blu.png"],"mutagen_generator_assignment":[0,1],"goal":3,"start":1,"action_noise":0,"location_history":"[1,5,4,0,1,3]","action_history":"[1,0,0,1,0]","mutagen_history":"[1,0,0,1,0]","location_rts":"[758,366,6,330,282]","trial_type":"fractal-mutation","trial_index":75,"time_elapsed":2990665,"internal_node_id":"0.0-5.0-21.0"},{"group":"hexagon_tri","fractal_assignment":["../images/cyn_red.png","../images/ylw_slt.png","../images/blu_wht.png","../images/org_blu.png","../images/gry_blk.png","../images/pnk_blu.png"],"mutagen_generator_assignment":[0,1],"goal":2,"start":3,"action_noise":0,"location_history":"[3,4,0,1,3,4,0,1,3,4,0,1,3,4,0,1,3,4,0,1,3,4,0,1,3,4,0,1,3,4,0,5,0,1,3,2]","action_history":"[1,0,1,0,1,0,1,0,1,0,1,0,1,0,1,0,1,0,1,0,1,0,1,0,1,0,1,0,1,0,0,1,1,0,0]","mutagen_history":"[1,0,1,0,1,0,1,0,1,0,1,0,1,0,1,0,1,0,1,0,1,0,1,0,1,0,1,0,1,0,0,1,1,0,0]","location_rts":"[577,423,702,39,156,146,186,147,258,164,225,71,229,139,113,212,159,239,198,209,181,274,264,332,216,95,220,229,234,297,1101,464,162,150,27]","trial_type":"fractal-mutation","trial_index":76,"time_elapsed":3039888,"internal_node_id":"0.0-5.0-22.0"},{"group":"hexagon_tri","fractal_assignment":["../images/cyn_red.png","../images/ylw_slt.png","../images/blu_wht.png","../images/org_blu.png","../images/gry_blk.png","../images/pnk_blu.png"],"mutagen_generator_assignment":[0,1],"goal":0,"start":2,"action_noise":0,"location_history":"[2,3,2,3,2,1,5,4,0]","action_history":"[1,0,1,0,0,1,0,0]","mutagen_history":"[1,0,1,0,0,1,0,0]","location_rts":"[751,379,645,497,7,473,441,66]","trial_type":"fractal-mutation","trial_index":77,"time_elapsed":3055438,"internal_node_id":"0.0-5.0-23.0"},{"group":"hexagon_tri","fractal_assignment":["../images/cyn_red.png","../images/ylw_slt.png","../images/blu_wht.png","../images/org_blu.png","../images/gry_blk.png","../images/pnk_blu.png"],"mutagen_generator_assignment":[0,1],"goal":3,"start":0,"action_noise":0,"location_history":"[0,5,0,5,0,5,0,5,4,0,1,3]","action_history":"[0,1,0,1,0,1,0,0,0,1,0]","mutagen_history":"[0,1,0,1,0,1,0,0,0,1,0]","location_rts":"[109,362,310,511,356,371,398,4,53,416,315]","trial_type":"fractal-mutation","trial_index":78,"time_elapsed":3074071,"internal_node_id":"0.0-5.0-24.0"},{"group":"hexagon_tri","fractal_assignment":["../images/cyn_red.png","../images/ylw_slt.png","../images/blu_wht.png","../images/org_blu.png","../images/gry_blk.png","../images/pnk_blu.png"],"mutagen_generator_assignment":[0,1],"goal":1,"start":3,"action_noise":0,"location_history":"[3,4,2,1]","action_history":"[1,1,0]","mutagen_history":"[1,1,0]","location_rts":"[402,439,344]","trial_type":"fractal-mutation","trial_index":79,"time_elapsed":3082392,"internal_node_id":"0.0-5.0-25.0"},{"group":"hexagon_tri","fractal_assignment":["../images/cyn_red.png","../images/ylw_slt.png","../images/blu_wht.png","../images/org_blu.png","../images/gry_blk.png","../images/pnk_blu.png"],"mutagen_generator_assignment":[0,1],"goal":2,"start":1,"action_noise":0,"location_history":"[1,3,4,0,1,5,0,5,0,5,0,5,4,0,1,3,4,0,5,4,2]","action_history":"[0,1,0,1,1,1,0,1,0,1,0,0,0,1,0,1,0,0,0,1]","mutagen_history":"[0,1,0,1,1,1,0,1,0,1,0,0,0,1,0,1,0,0,0,1]","location_rts":"[173,323,147,246,265,286,153,361,176,485,29,150,245,661,113,31,292,230,462,59]","trial_type":"fractal-mutation","trial_index":80,"time_elapsed":3112086,"internal_node_id":"0.0-5.0-26.0"},{"group":"hexagon_tri","fractal_assignment":["../images/cyn_red.png","../images/ylw_slt.png","../images/blu_wht.png","../images/org_blu.png","../images/gry_blk.png","../images/pnk_blu.png"],"mutagen_generator_assignment":[0,1],"goal":5,"start":2,"action_noise":0,"location_history":"[2,3,2,3,2,3,4,0,1,3,4,0,1,3,4,2,1,5]","action_history":"[1,0,1,0,1,1,0,1,0,1,0,1,0,1,1,0,1]","mutagen_history":"[1,0,1,0,1,1,0,1,0,1,0,1,0,1,1,0,1]","location_rts":"[751,99,434,2339,4,77,382,393,406,314,358,472,402,6487,439,474,398]","trial_type":"fractal-mutation","trial_index":81,"time_elapsed":3148045,"internal_node_id":"0.0-5.0-27.0"},{"group":"hexagon_tri","fractal_assignment":["../images/cyn_red.png","../images/ylw_slt.png","../images/blu_wht.png","../images/org_blu.png","../images/gry_blk.png","../images/pnk_blu.png"],"mutagen_generator_assignment":[0,1],"goal":4,"start":5,"action_noise":0,"location_history":"[5,0,5,0,5,0,5,0,5,0,1,5,4]","action_history":"[1,0,1,0,1,0,1,0,1,1,1,0]","mutagen_history":"[1,0,1,0,1,0,1,0,1,1,1,0]","location_rts":"[2166,354,315,332,364,350,290,385,180,1401,510,47]","trial_type":"fractal-mutation","trial_index":82,"time_elapsed":3171245,"internal_node_id":"0.0-5.0-28.0"},{"group":"hexagon_tri","fractal_assignment":["../images/cyn_red.png","../images/ylw_slt.png","../images/blu_wht.png","../images/org_blu.png","../images/gry_blk.png","../images/pnk_blu.png"],"mutagen_generator_assignment":[0,1],"goal":5,"start":4,"action_noise":0,"location_history":"[4,2,1,5]","action_history":"[1,0,1]","mutagen_history":"[1,0,1]","location_rts":"[792,360,398]","trial_type":"fractal-mutation","trial_index":83,"time_elapsed":3179933,"internal_node_id":"0.0-5.0-29.0"},{"group":"hexagon_tri","fractal_assignment":["../images/cyn_red.png","../images/ylw_slt.png","../images/blu_wht.png","../images/org_blu.png","../images/gry_blk.png","../images/pnk_blu.png"],"mutagen_generator_assignment":[0,1],"goal":3,"start":5,"action_noise":0,"location_history":"[5,0,1,5,0,5,0,5,4,2,3]","action_history":"[1,1,1,1,0,1,0,0,1,1]","mutagen_history":"[1,1,1,1,0,1,0,0,1,1]","location_rts":"[534,60,209,22,134,59,18,134,39,22]","trial_type":"fractal-mutation","trial_index":84,"time_elapsed":3195602,"internal_node_id":"0.0-5.0-30.0"},{"group":"hexagon_tri","fractal_assignment":["../images/cyn_red.png","../images/ylw_slt.png","../images/blu_wht.png","../images/org_blu.png","../images/gry_blk.png","../images/pnk_blu.png"],"mutagen_generator_assignment":[0,1],"goal":0,"start":3,"action_noise":0,"location_history":"[3,4,2,3,2,1,5,4,2,3,4,0]","action_history":"[1,1,1,0,0,1,0,1,1,1,0]","mutagen_history":"[1,1,1,0,0,1,0,1,1,1,0]","location_rts":"[1338,227,91,1979,39,368,111,113,333,430,70]","trial_type":"fractal-mutation","trial_index":85,"time_elapsed":3216189,"internal_node_id":"0.0-5.0-31.0"},{"group":"hexagon_tri","fractal_assignment":["../images/cyn_red.png","../images/ylw_slt.png","../images/blu_wht.png","../images/org_blu.png","../images/gry_blk.png","../images/pnk_blu.png"],"mutagen_generator_assignment":[0,1],"goal":4,"start":0,"action_noise":0,"location_history":"[0,5,0,1,5,0,1,5,4]","action_history":"[0,1,1,1,1,1,1,0]","mutagen_history":"[0,1,1,1,1,1,1,0]","location_rts":"[1435,4065,157,105,1105,98,143,76]","trial_type":"fractal-mutation","trial_index":86,"time_elapsed":3235741,"internal_node_id":"0.0-5.0-32.0"},{"group":"hexagon_tri","fractal_assignment":["../images/cyn_red.png","../images/ylw_slt.png","../images/blu_wht.png","../images/org_blu.png","../images/gry_blk.png","../images/pnk_blu.png"],"mutagen_generator_assignment":[0,1],"goal":1,"start":4,"action_noise":0,"location_history":"[4,0,5,0,5,0,1]","action_history":"[0,0,1,0,1,1]","mutagen_history":"[0,0,1,0,1,1]","location_rts":"[663,35,292,421,1134,654]","trial_type":"fractal-mutation","trial_index":87,"time_elapsed":3249214,"internal_node_id":"0.0-5.0-33.0"},{"group":"hexagon_tri","fractal_assignment":["../images/cyn_red.png","../images/ylw_slt.png","../images/blu_wht.png","../images/org_blu.png","../images/gry_blk.png","../images/pnk_blu.png"],"mutagen_generator_assignment":[0,1],"goal":2,"start":1,"action_noise":0,"location_history":"[1,3,2]","action_history":"[0,0]","mutagen_history":"[0,0]","location_rts":"[939,1302]","trial_type":"fractal-mutation","trial_index":88,"time_elapsed":3257531,"internal_node_id":"0.0-5.0-34.0"},{"group":"hexagon_tri","fractal_assignment":["../images/cyn_red.png","../images/ylw_slt.png","../images/blu_wht.png","../images/org_blu.png","../images/gry_blk.png","../images/pnk_blu.png"],"mutagen_generator_assignment":[0,1],"goal":0,"start":2,"action_noise":0,"location_history":"[2,1,5,4,2,1,3,2,1,3,2,3,2,1,5,0]","action_history":"[0,1,0,1,0,0,0,0,0,0,1,0,0,1,1]","mutagen_history":"[0,1,0,1,0,0,0,0,0,0,1,0,0,1,1]","location_rts":"[1499,167,494,489,1203,2533,953,1492,1005,1575,13802,282,175,371,49]","trial_type":"fractal-mutation","trial_index":89,"time_elapsed":3303197,"internal_node_id":"0.0-5.0-35.0"},{"group":"hexagon_tri","fractal_assignment":["../images/cyn_red.png","../images/ylw_slt.png","../images/blu_wht.png","../images/org_blu.png","../images/gry_blk.png","../images/pnk_blu.png"],"mutagen_generator_assignment":[0,1],"goal":5,"start":0,"action_noise":0,"location_history":"[0,1,5]","action_history":"[1,1]","mutagen_history":"[1,1]","location_rts":"[1733,531]","trial_type":"fractal-mutation","trial_index":90,"time_elapsed":3311558,"internal_node_id":"0.0-5.0-36.0"},{"group":"hexagon_tri","fractal_assignment":["../images/cyn_red.png","../images/ylw_slt.png","../images/blu_wht.png","../images/org_blu.png","../images/gry_blk.png","../images/pnk_blu.png"],"mutagen_generator_assignment":[0,1],"goal":2,"start":5,"action_noise":0,"location_history":"[5,4,0,5,0,5,0,1,5,0,5,0,5,4,2]","action_history":"[0,0,0,1,0,1,1,1,1,0,1,0,0,1]","mutagen_history":"[0,0,0,1,0,1,1,1,1,0,1,0,0,1]","location_rts":"[1564,489,5201,651,1001,417,71,767,1161,234,239,138,550,53]","trial_type":"fractal-mutation","trial_index":91,"time_elapsed":3342656,"internal_node_id":"0.0-5.0-37.0"},{"group":"hexagon_tri","fractal_assignment":["../images/cyn_red.png","../images/ylw_slt.png","../images/blu_wht.png","../images/org_blu.png","../images/gry_blk.png","../images/pnk_blu.png"],"mutagen_generator_assignment":[0,1],"goal":1,"start":2,"action_noise":0,"location_history":"[2,3,4,0,5,4,0,1]","action_history":"[1,1,0,0,0,0,1]","mutagen_history":"[1,1,0,0,0,0,1]","location_rts":"[21407,725,469,499,285,360,54]","trial_type":"fractal-mutation","trial_index":92,"time_elapsed":3377727,"internal_node_id":"0.0-5.0-38.0"},{"group":"hexagon_tri","fractal_assignment":["../images/cyn_red.png","../images/ylw_slt.png","../images/blu_wht.png","../images/org_blu.png","../images/gry_blk.png","../images/pnk_blu.png"],"mutagen_generator_assignment":[0,1],"goal":4,"start":1,"action_noise":0,"location_history":"[1,3,4]","action_history":"[0,1]","mutagen_history":"[0,1]","location_rts":"[1472,65]","trial_type":"fractal-mutation","trial_index":93,"time_elapsed":3385352,"internal_node_id":"0.0-5.0-39.0"},{"group":"hexagon_tri","fractal_assignment":["../images/cyn_red.png","../images/ylw_slt.png","../images/blu_wht.png","../images/org_blu.png","../images/gry_blk.png","../images/pnk_blu.png"],"mutagen_generator_assignment":[0,1],"goal":3,"start":4,"action_noise":0,"location_history":"[4,2,1,5,0,1,5,4,2,3]","action_history":"[1,0,1,1,1,1,0,1,1]","mutagen_history":"[1,0,1,1,1,1,0,1,1]","location_rts":"[8354,483,89,504,385,667,527,150,477]","trial_type":"fractal-mutation","trial_index":94,"time_elapsed":3410375,"internal_node_id":"0.0-5.0-40.0"},{"group":"hexagon_tri","fractal_assignment":["../images/cyn_red.png","../images/ylw_slt.png","../images/blu_wht.png","../images/org_blu.png","../images/gry_blk.png","../images/pnk_blu.png"],"mutagen_generator_assignment":[0,1],"goal":5,"start":3,"action_noise":0,"location_history":"[3,2,3,4,2,3,2,1,5]","action_history":"[0,1,1,1,1,0,0,1]","mutagen_history":"[0,1,1,1,1,0,0,1]","location_rts":"[703,665,732,629,2628,2342,1595,1481]","trial_type":"fractal-mutation","trial_index":95,"time_elapsed":3433474,"internal_node_id":"0.0-5.0-41.0"},{"group":"hexagon_tri","fractal_assignment":["../images/cyn_red.png","../images/ylw_slt.png","../images/blu_wht.png","../images/org_blu.png","../images/gry_blk.png","../images/pnk_blu.png"],"mutagen_generator_assignment":[0,1],"goal":3,"start":5,"action_noise":0,"location_history":"[5,0,5,0,1,5,4,2,3]","action_history":"[1,0,1,1,1,0,1,1]","mutagen_history":"[1,0,1,1,1,0,1,1]","location_rts":"[2616,663,584,596,625,1234,562,1057]","trial_type":"fractal-mutation","trial_index":96,"time_elapsed":3453769,"internal_node_id":"0.0-5.0-42.0"},{"group":"hexagon_tri","fractal_assignment":["../images/cyn_red.png","../images/ylw_slt.png","../images/blu_wht.png","../images/org_blu.png","../images/gry_blk.png","../images/pnk_blu.png"],"mutagen_generator_assignment":[0,1],"goal":0,"start":3,"action_noise":0,"location_history":"[3,4,2,3,4,2,3,2,3,2,3,2,3,2,3,2,1,5,4,2,1,3,4,0]","action_history":"[1,1,1,1,1,1,0,1,0,1,0,1,0,1,0,0,1,0,1,0,0,1,0]","mutagen_history":"[1,1,1,1,1,1,0,1,0,1,0,1,0,1,0,0,1,0,1,0,0,1,0]","location_rts":"[1265,664,842,860,3426,649,1024,19,1738,916,373,125,333,29,129,16,56,108,122,46,201,20,95]","trial_type":"fractal-mutation","trial_index":97,"time_elapsed":3494749,"internal_node_id":"0.0-5.0-43.0"},{"group":"hexagon_tri","fractal_assignment":["../images/cyn_red.png","../images/ylw_slt.png","../images/blu_wht.png","../images/org_blu.png","../images/gry_blk.png","../images/pnk_blu.png"],"mutagen_generator_assignment":[0,1],"goal":2,"start":0,"action_noise":0,"location_history":"[0,5,0,1,5,0,1,5,0,1,5,0,5,0,5,0,1,3,4,2]","action_history":"[0,1,1,1,1,1,1,1,1,1,1,0,1,0,1,1,0,1,1]","mutagen_history":"[0,1,1,1,1,1,1,1,1,1,1,0,1,0,1,1,0,1,1]","location_rts":"[969,3317,394,571,809,430,84,24,205,82,41,21,76,8,133,121,196,32,58]","trial_type":"fractal-mutation","trial_index":98,"time_elapsed":3526187,"internal_node_id":"0.0-5.0-44.0"},{"group":"hexagon_tri","fractal_assignment":["../images/cyn_red.png","../images/ylw_slt.png","../images/blu_wht.png","../images/org_blu.png","../images/gry_blk.png","../images/pnk_blu.png"],"mutagen_generator_assignment":[0,1],"goal":4,"start":2,"action_noise":0,"location_history":"[2,1,5,0,1,5,4]","action_history":"[0,1,1,1,1,0]","mutagen_history":"[0,1,1,1,1,0]","location_rts":"[898,59,142,141,85,18]","trial_type":"fractal-mutation","trial_index":99,"time_elapsed":3537770,"internal_node_id":"0.0-5.0-45.0"},{"group":"hexagon_tri","fractal_assignment":["../images/cyn_red.png","../images/ylw_slt.png","../images/blu_wht.png","../images/org_blu.png","../images/gry_blk.png","../images/pnk_blu.png"],"mutagen_generator_assignment":[0,1],"goal":1,"start":4,"action_noise":0,"location_history":"[4,0,1]","action_history":"[0,1]","mutagen_history":"[0,1]","location_rts":"[707,138]","trial_type":"fractal-mutation","trial_index":100,"time_elapsed":3544695,"internal_node_id":"0.0-5.0-46.0"},{"group":"hexagon_tri","fractal_assignment":["../images/cyn_red.png","../images/ylw_slt.png","../images/blu_wht.png","../images/org_blu.png","../images/gry_blk.png","../images/pnk_blu.png"],"mutagen_generator_assignment":[0,1],"goal":4,"start":1,"action_noise":0,"location_history":"[1,5,0,1,5,4]","action_history":"[1,1,1,1,0]","mutagen_history":"[1,1,1,1,0]","location_rts":"[846,64,135,72,560]","trial_type":"fractal-mutation","trial_index":101,"time_elapsed":3555605,"internal_node_id":"0.0-5.0-47.0"},{"group":"hexagon_tri","fractal_assignment":["../images/cyn_red.png","../images/ylw_slt.png","../images/blu_wht.png","../images/org_blu.png","../images/gry_blk.png","../images/pnk_blu.png"],"mutagen_generator_assignment":[0,1],"goal":3,"start":4,"action_noise":0,"location_history":"[4,2,3]","action_history":"[1,1]","mutagen_history":"[1,1]","location_rts":"[710,64]","trial_type":"fractal-mutation","trial_index":102,"time_elapsed":3562486,"internal_node_id":"0.0-5.0-48.0"},{"group":"hexagon_tri","fractal_assignment":["../images/cyn_red.png","../images/ylw_slt.png","../images/blu_wht.png","../images/org_blu.png","../images/gry_blk.png","../images/pnk_blu.png"],"mutagen_generator_assignment":[0,1],"goal":5,"start":3,"action_noise":0,"location_history":"[3,4,0,1,5]","action_history":"[1,0,1,1]","mutagen_history":"[1,0,1,1]","location_rts":"[70,138,173,300]","trial_type":"fractal-mutation","trial_index":103,"time_elapsed":3571345,"internal_node_id":"0.0-5.0-49.0"},{"view_history":"[{\"page_index\":0,\"viewing_time\":10396}]","rt":10396,"trial_type":"instructions","trial_index":104,"time_elapsed":3582741,"internal_node_id":"0.0-6.0"},{"rt":8168,"responses":"{\"Q0\":\"none\"}","trial_type":"survey-text","trial_index":105,"time_elapsed":3591917,"internal_node_id":"0.0-7.0"}]