[{"view_history":"[{\"page_index\":0,\"viewing_time\":19772},{\"page_index\":1,\"viewing_time\":3467},{\"page_index\":2,\"viewing_time\":14796}]","rt":38038,"trial_type":"instructions","trial_index":0,"time_elapsed":38041,"internal_node_id":"0.0-0.0"},{"view_history":"[{\"page_index\":0,\"viewing_time\":3793},{\"page_index\":1,\"viewing_time\":30922}]","rt":34716,"trial_type":"instructions","trial_index":1,"time_elapsed":73763,"internal_node_id":"0.0-1.0"},{"group":"hexagon_bi","room_assignment":["grey","purple","blue","red","green","yellow"],"door_color_assignment":["white","black"],"door_generator_assignment":[0,1],"goal":4,"start":0,"action_noise":0,"location_history":"[0,5,0,5,4]","action_history":"[0,0,0,1]","door_history":"[0,0,0,1]","location_rts":"[4005,4325,3027,1173]","trial_type":"two-door-navigation","trial_index":2,"time_elapsed":94601,"internal_node_id":"0.0-2.0-0.0"},{"group":"hexagon_bi","room_assignment":["grey","purple","blue","red","green","yellow"],"door_color_assignment":["white","black"],"door_generator_assignment":[0,1],"goal":3,"start":4,"action_noise":0,"location_history":"[4,3]","action_history":"[0]","door_history":"[0]","location_rts":"[2785]","trial_type":"two-door-navigation","trial_index":3,"time_elapsed":102482,"internal_node_id":"0.0-2.0-1.0"},{"group":"hexagon_bi","room_assignment":["grey","purple","blue","red","green","yellow"],"door_color_assignment":["white","black"],"door_generator_assignment":[0,1],"goal":5,"start":3,"action_noise":0,"location_history":"[3,4,3,4,3,4,5]","action_history":"[0,0,0,0,0,1]","door_history":"[0,0,0,0,0,1]","location_rts":"[1523,512,568,783,1170,1148]","trial_type":"two-door-navigation","trial_index":4,"time_elapsed":118446,"internal_node_id":"0.0-2.0-2.0"},{"group":"hexagon_bi","room_assignment":["grey","purple","blue","red","green","yellow"],"door_color_assignment":["white","black"],"door_generator_assignment":[0,1],"goal":2,"start":5,"action_noise":0,"location_history":"[5,0,5,0,1,0,5,0,5,0,5,4,3,4,5,4,5,0,1,0,5,4,5,4,5,4,5,0,1,2]","action_history":"[0,0,0,1,1,0,0,0,0,0,1,0,0,1,1,1,0,1,1,0,1,1,1,1,1,1,0,1,0]","door_history":"[0,0,0,1,1,0,0,0,0,0,1,0,0,1,1,1,0,1,1,0,1,1,1,1,1,1,0,1,0]","location_rts":"[1829,411,574,437,713,718,667,492,486,586,504,1263,521,581,590,486,785,632,2412,744,549,549,469,597,716,661,537,601,826]","trial_type":"two-door-navigation","trial_index":5,"time_elapsed":173523,"internal_node_id":"0.0-2.0-3.0"},{"group":"hexagon_bi","room_assignment":["grey","purple","blue","red","green","yellow"],"door_color_assignment":["white","black"],"door_generator_assignment":[0,1],"goal":1,"start":2,"action_noise":0,"location_history":"[2,1]","action_history":"[0]","door_history":"[0]","location_rts":"[2104]","trial_type":"two-door-navigation","trial_index":6,"time_elapsed":180688,"internal_node_id":"0.0-2.0-4.0"},{"group":"hexagon_bi","room_assignment":["grey","purple","blue","red","green","yellow"],"door_color_assignment":["white","black"],"door_generator_assignment":[0,1],"goal":4,"start":1,"action_noise":0,"location_history":"[1,2,1,0,5,4]","action_history":"[0,0,1,0,1]","door_history":"[0,0,1,0,1]","location_rts":"[907,458,414,585,517]","trial_type":"two-door-navigation","trial_index":7,"time_elapsed":192774,"internal_node_id":"0.0-2.0-5.0"},{"group":"hexagon_bi","room_assignment":["grey","purple","blue","red","green","yellow"],"door_color_assignment":["white","black"],"door_generator_assignment":[0,1],"goal":1,"start":4,"action_noise":0,"location_history":"[4,3,4,5,4,3,4,5,4,5,0,5,4,5,4,5,4,3,4,5,4,5,4,5,0,5,0,5,0,5,0,1]","action_history":"[0,0,1,1,0,0,1,1,1,0,0,1,1,1,1,1,0,0,1,1,1,1,1,0,0,0,0,0,0,0,1]","door_history":"[0,0,1,1,0,0,1,1,1,0,0,1,1,1,1,1,0,0,1,1,1,1,1,0,0,0,0,0,0,0,1]","location_rts":"[672,408,454,520,416,491,456,449,487,397,579,553,642,527,388,532,423,467,975,538,482,387,515,441,572,694,1124,504,811,456,583]","trial_type":"two-door-navigation","trial_index":8,"time_elapsed":245923,"internal_node_id":"0.0-2.0-6.0"},{"group":"hexagon_bi","room_assignment":["grey","purple","blue","red","green","yellow"],"door_color_assignment":["white","black"],"door_generator_assignment":[0,1],"goal":5,"start":1,"action_noise":0,"location_history":"[1,2,1,0,1,2,1,2,1,2,1,0,1,0,5]","action_history":"[0,0,1,1,0,0,0,0,0,0,1,1,1,0]","door_history":"[0,0,1,1,0,0,0,0,0,0,1,1,1,0]","location_rts":"[1021,480,488,985,462,475,449,396,406,459,394,488,446,470]","trial_type":"two-door-navigation","trial_index":9,"time_elapsed":271899,"internal_node_id":"0.0-2.0-7.0"},{"group":"hexagon_bi","room_assignment":["grey","purple","blue","red","green","yellow"],"door_color_assignment":["white","black"],"door_generator_assignment":[0,1],"goal":0,"start":5,"action_noise":0,"location_history":"[5,0]","action_history":"[0]","door_history":"[0]","location_rts":"[899]","trial_type":"two-door-navigation","trial_index":10,"time_elapsed":277848,"internal_node_id":"0.0-2.0-8.0"},{"group":"hexagon_bi","room_assignment":["grey","purple","blue","red","green","yellow"],"door_color_assignment":["white","black"],"door_generator_assignment":[0,1],"goal":2,"start":0,"action_noise":0,"location_history":"[0,5,0,1,0,1,2]","action_history":"[0,0,1,1,1,0]","door_history":"[0,0,1,1,1,0]","location_rts":"[677,478,351,530,518,601]","trial_type":"two-door-navigation","trial_index":11,"time_elapsed":291306,"internal_node_id":"0.0-2.0-9.0"},{"group":"hexagon_bi","room_assignment":["grey","purple","blue","red","green","yellow"],"door_color_assignment":["white","black"],"door_generator_assignment":[0,1],"goal":3,"start":2,"action_noise":0,"location_history":"[2,1,2,3]","action_history":"[0,0,1]","door_history":"[0,0,1]","location_rts":"[710,439,395]","trial_type":"two-door-navigation","trial_index":12,"time_elapsed":299967,"internal_node_id":"0.0-2.0-10.0"},{"group":"hexagon_bi","room_assignment":["grey","purple","blue","red","green","yellow"],"door_color_assignment":["white","black"],"door_generator_assignment":[0,1],"goal":0,"start":3,"action_noise":0,"location_history":"[3,4,3,4,5,4,5,0]","action_history":"[0,0,0,1,1,1,0]","door_history":"[0,0,0,1,1,1,0]","location_rts":"[687,404,455,414,443,450,435]","trial_type":"two-door-navigation","trial_index":13,"time_elapsed":314472,"internal_node_id":"0.0-2.0-11.0"},{"group":"hexagon_bi","room_assignment":["grey","purple","blue","red","green","yellow"],"door_color_assignment":["white","black"],"door_generator_assignment":[0,1],"goal":2,"start":0,"action_noise":0,"location_history":"[0,5,0,1,0,5,4,5,4,3,4,3,4,3,4,5,4,5,0,5,0,1,0,1,2]","action_history":"[0,0,1,1,0,1,1,1,0,0,0,0,0,0,1,1,1,0,0,0,1,1,1,0]","door_history":"[0,0,1,1,0,1,1,1,0,0,0,0,0,0,1,1,1,0,0,0,1,1,1,0]","location_rts":"[601,444,391,512,572,509,522,468,432,409,495,473,474,445,466,549,426,445,783,479,371,986,510,483]","trial_type":"two-door-navigation","trial_index":14,"time_elapsed":355432,"internal_node_id":"0.0-2.0-12.0"},{"group":"hexagon_bi","room_assignment":["grey","purple","blue","red","green","yellow"],"door_color_assignment":["white","black"],"door_generator_assignment":[0,1],"goal":5,"start":2,"action_noise":0,"location_history":"[2,1,2,3,2,3,4,3,2,3,2,1,2,1,2,3,2,3,2,1,0,5]","action_history":"[0,0,1,1,1,0,0,1,1,1,0,0,0,0,1,1,1,1,0,1,0]","door_history":"[0,0,1,1,1,0,0,1,1,1,0,0,0,0,1,1,1,1,0,1,0]","location_rts":"[824,436,433,501,487,392,487,484,516,518,415,509,427,419,483,473,420,458,405,804,529]","trial_type":"two-door-navigation","trial_index":15,"time_elapsed":391471,"internal_node_id":"0.0-2.0-13.0"},{"group":"hexagon_bi","room_assignment":["grey","purple","blue","red","green","yellow"],"door_color_assignment":["white","black"],"door_generator_assignment":[0,1],"goal":4,"start":5,"action_noise":0,"location_history":"[5,4]","action_history":"[1]","door_history":"[1]","location_rts":"[911]","trial_type":"two-door-navigation","trial_index":16,"time_elapsed":397409,"internal_node_id":"0.0-2.0-14.0"},{"group":"hexagon_bi","room_assignment":["grey","purple","blue","red","green","yellow"],"door_color_assignment":["white","black"],"door_generator_assignment":[0,1],"goal":3,"start":4,"action_noise":0,"location_history":"[4,5,0,1,2,3]","action_history":"[1,0,1,0,1]","door_history":"[1,0,1,0,1]","location_rts":"[883,413,411,283,393]","trial_type":"two-door-navigation","trial_index":17,"time_elapsed":408941,"internal_node_id":"0.0-2.0-15.0"},{"group":"hexagon_bi","room_assignment":["grey","purple","blue","red","green","yellow"],"door_color_assignment":["white","black"],"door_generator_assignment":[0,1],"goal":1,"start":3,"action_noise":0,"location_history":"[3,4,5,4,3,2,1]","action_history":"[0,1,1,0,1,0]","door_history":"[0,1,1,0,1,0]","location_rts":"[529,417,494,413,658,389]","trial_type":"two-door-navigation","trial_index":18,"time_elapsed":422009,"internal_node_id":"0.0-2.0-16.0"},{"group":"hexagon_bi","room_assignment":["grey","purple","blue","red","green","yellow"],"door_color_assignment":["white","black"],"door_generator_assignment":[0,1],"goal":5,"start":1,"action_noise":0,"location_history":"[1,0,5]","action_history":"[1,0]","door_history":"[1,0]","location_rts":"[837,511]","trial_type":"two-door-navigation","trial_index":19,"time_elapsed":429448,"internal_node_id":"0.0-2.0-17.0"},{"group":"hexagon_bi","room_assignment":["grey","purple","blue","red","green","yellow"],"door_color_assignment":["white","black"],"door_generator_assignment":[0,1],"goal":4,"start":5,"action_noise":0,"location_history":"[5,4]","action_history":"[1]","door_history":"[1]","location_rts":"[794]","trial_type":"two-door-navigation","trial_index":20,"time_elapsed":435301,"internal_node_id":"0.0-2.0-18.0"},{"group":"hexagon_bi","room_assignment":["grey","purple","blue","red","green","yellow"],"door_color_assignment":["white","black"],"door_generator_assignment":[0,1],"goal":0,"start":4,"action_noise":0,"location_history":"[4,5,0]","action_history":"[1,0]","door_history":"[1,0]","location_rts":"[563,458]","trial_type":"two-door-navigation","trial_index":21,"time_elapsed":442400,"internal_node_id":"0.0-2.0-19.0"},{"group":"hexagon_bi","room_assignment":["grey","purple","blue","red","green","yellow"],"door_color_assignment":["white","black"],"door_generator_assignment":[0,1],"goal":1,"start":0,"action_noise":0,"location_history":"[0,1]","action_history":"[1]","door_history":"[1]","location_rts":"[754]","trial_type":"two-door-navigation","trial_index":22,"time_elapsed":448205,"internal_node_id":"0.0-2.0-20.0"},{"group":"hexagon_bi","room_assignment":["grey","purple","blue","red","green","yellow"],"door_color_assignment":["white","black"],"door_generator_assignment":[0,1],"goal":3,"start":1,"action_noise":0,"location_history":"[1,0,5,4,3]","action_history":"[1,0,1,0]","door_history":"[1,0,1,0]","location_rts":"[506,488,417,468]","trial_type":"two-door-navigation","trial_index":23,"time_elapsed":458249,"internal_node_id":"0.0-2.0-21.0"},{"group":"hexagon_bi","room_assignment":["grey","purple","blue","red","green","yellow"],"door_color_assignment":["white","black"],"door_generator_assignment":[0,1],"goal":2,"start":3,"action_noise":0,"location_history":"[3,2]","action_history":"[1]","door_history":"[1]","location_rts":"[499]","trial_type":"two-door-navigation","trial_index":24,"time_elapsed":463786,"internal_node_id":"0.0-2.0-22.0"},{"group":"hexagon_bi","room_assignment":["grey","purple","blue","red","green","yellow"],"door_color_assignment":["white","black"],"door_generator_assignment":[0,1],"goal":0,"start":2,"action_noise":0,"location_history":"[2,3,4,5,0]","action_history":"[1,0,1,0]","door_history":"[1,0,1,0]","location_rts":"[476,436,354,429]","trial_type":"two-door-navigation","trial_index":25,"time_elapsed":473609,"internal_node_id":"0.0-2.0-23.0"},{"group":"hexagon_bi","room_assignment":["grey","purple","blue","red","green","yellow"],"door_color_assignment":["white","black"],"door_generator_assignment":[0,1],"goal":3,"start":0,"action_noise":0,"location_history":"[0,1,2,3]","action_history":"[1,0,1]","door_history":"[1,0,1]","location_rts":"[503,630,436]","trial_type":"two-door-navigation","trial_index":26,"time_elapsed":482293,"internal_node_id":"0.0-2.0-24.0"},{"group":"hexagon_bi","room_assignment":["grey","purple","blue","red","green","yellow"],"door_color_assignment":["white","black"],"door_generator_assignment":[0,1],"goal":1,"start":3,"action_noise":0,"location_history":"[3,2,1]","action_history":"[1,0]","door_history":"[1,0]","location_rts":"[425,535]","trial_type":"two-door-navigation","trial_index":27,"time_elapsed":489322,"internal_node_id":"0.0-2.0-25.0"},{"group":"hexagon_bi","room_assignment":["grey","purple","blue","red","green","yellow"],"door_color_assignment":["white","black"],"door_generator_assignment":[0,1],"goal":2,"start":1,"action_noise":0,"location_history":"[1,0,5,4,3,2]","action_history":"[1,0,1,0,1]","door_history":"[1,0,1,0,1]","location_rts":"[447,398,428,535,397]","trial_type":"two-door-navigation","trial_index":28,"time_elapsed":500704,"internal_node_id":"0.0-2.0-26.0"},{"group":"hexagon_bi","room_assignment":["grey","purple","blue","red","green","yellow"],"door_color_assignment":["white","black"],"door_generator_assignment":[0,1],"goal":5,"start":2,"action_noise":0,"location_history":"[2,3,4,5]","action_history":"[1,0,1]","door_history":"[1,0,1]","location_rts":"[417,393,288]","trial_type":"two-door-navigation","trial_index":29,"time_elapsed":508892,"internal_node_id":"0.0-2.0-27.0"},{"group":"hexagon_bi","room_assignment":["grey","purple","blue","red","green","yellow"],"door_color_assignment":["white","black"],"door_generator_assignment":[0,1],"goal":4,"start":5,"action_noise":0,"location_history":"[5,4]","action_history":"[1]","door_history":"[1]","location_rts":"[420]","trial_type":"two-door-navigation","trial_index":30,"time_elapsed":514358,"internal_node_id":"0.0-2.0-28.0"},{"group":"hexagon_bi","room_assignment":["grey","purple","blue","red","green","yellow"],"door_color_assignment":["white","black"],"door_generator_assignment":[0,1],"goal":5,"start":4,"action_noise":0,"location_history":"[4,5]","action_history":"[1]","door_history":"[1]","location_rts":"[407]","trial_type":"two-door-navigation","trial_index":31,"time_elapsed":519804,"internal_node_id":"0.0-2.0-29.0"},{"group":"hexagon_bi","room_assignment":["grey","purple","blue","red","green","yellow"],"door_color_assignment":["white","black"],"door_generator_assignment":[0,1],"goal":3,"start":5,"action_noise":0,"location_history":"[5,4,3]","action_history":"[1,0]","door_history":"[1,0]","location_rts":"[413,403]","trial_type":"two-door-navigation","trial_index":32,"time_elapsed":526691,"internal_node_id":"0.0-2.0-30.0"},{"group":"hexagon_bi","room_assignment":["grey","purple","blue","red","green","yellow"],"door_color_assignment":["white","black"],"door_generator_assignment":[0,1],"goal":0,"start":3,"action_noise":0,"location_history":"[3,2,1,0]","action_history":"[1,0,1]","door_history":"[1,0,1]","location_rts":"[424,463,386]","trial_type":"two-door-navigation","trial_index":33,"time_elapsed":535064,"internal_node_id":"0.0-2.0-31.0"},{"group":"hexagon_bi","room_assignment":["grey","purple","blue","red","green","yellow"],"door_color_assignment":["white","black"],"door_generator_assignment":[0,1],"goal":4,"start":0,"action_noise":0,"location_history":"[0,1,2,3,4]","action_history":"[1,0,1,0]","door_history":"[1,0,1,0]","location_rts":"[581,428,368,408]","trial_type":"two-door-navigation","trial_index":34,"time_elapsed":545006,"internal_node_id":"0.0-2.0-32.0"},{"group":"hexagon_bi","room_assignment":["grey","purple","blue","red","green","yellow"],"door_color_assignment":["white","black"],"door_generator_assignment":[0,1],"goal":1,"start":4,"action_noise":0,"location_history":"[4,5,0,1]","action_history":"[1,0,1]","door_history":"[1,0,1]","location_rts":"[412,389,370]","trial_type":"two-door-navigation","trial_index":35,"time_elapsed":553274,"internal_node_id":"0.0-2.0-33.0"},{"group":"hexagon_bi","room_assignment":["grey","purple","blue","red","green","yellow"],"door_color_assignment":["white","black"],"door_generator_assignment":[0,1],"goal":2,"start":1,"action_noise":0,"location_history":"[1,2]","action_history":"[0]","door_history":"[0]","location_rts":"[471]","trial_type":"two-door-navigation","trial_index":36,"time_elapsed":558873,"internal_node_id":"0.0-2.0-34.0"},{"group":"hexagon_bi","room_assignment":["grey","purple","blue","red","green","yellow"],"door_color_assignment":["white","black"],"door_generator_assignment":[0,1],"goal":0,"start":2,"action_noise":0,"location_history":"[2,3,4,5,0]","action_history":"[1,0,1,0]","door_history":"[1,0,1,0]","location_rts":"[564,496,377,451]","trial_type":"two-door-navigation","trial_index":37,"time_elapsed":568925,"internal_node_id":"0.0-2.0-35.0"},{"group":"hexagon_bi","room_assignment":["grey","purple","blue","red","green","yellow"],"door_color_assignment":["white","black"],"door_generator_assignment":[0,1],"goal":5,"start":0,"action_noise":0,"location_history":"[0,1,2,3,4,5]","action_history":"[1,0,1,0,1]","door_history":"[1,0,1,0,1]","location_rts":"[458,467,383,436,515]","trial_type":"two-door-navigation","trial_index":38,"time_elapsed":580431,"internal_node_id":"0.0-2.0-36.0"},{"group":"hexagon_bi","room_assignment":["grey","purple","blue","red","green","yellow"],"door_color_assignment":["white","black"],"door_generator_assignment":[0,1],"goal":2,"start":5,"action_noise":0,"location_history":"[5,0,1,2]","action_history":"[0,1,0]","door_history":"[0,1,0]","location_rts":"[464,481,422]","trial_type":"two-door-navigation","trial_index":39,"time_elapsed":589032,"internal_node_id":"0.0-2.0-37.0"},{"group":"hexagon_bi","room_assignment":["grey","purple","blue","red","green","yellow"],"door_color_assignment":["white","black"],"door_generator_assignment":[0,1],"goal":1,"start":2,"action_noise":0,"location_history":"[2,3,4,5,0,1]","action_history":"[1,0,1,0,1]","door_history":"[1,0,1,0,1]","location_rts":"[375,431,440,452,436]","trial_type":"two-door-navigation","trial_index":40,"time_elapsed":600379,"internal_node_id":"0.0-2.0-38.0"},{"group":"hexagon_bi","room_assignment":["grey","purple","blue","red","green","yellow"],"door_color_assignment":["white","black"],"door_generator_assignment":[0,1],"goal":4,"start":1,"action_noise":0,"location_history":"[1,0,5,4]","action_history":"[1,0,1]","door_history":"[1,0,1]","location_rts":"[603,503,331]","trial_type":"two-door-navigation","trial_index":41,"time_elapsed":608942,"internal_node_id":"0.0-2.0-39.0"},{"group":"hexagon_bi","room_assignment":["grey","purple","blue","red","green","yellow"],"door_color_assignment":["white","black"],"door_generator_assignment":[0,1],"goal":3,"start":4,"action_noise":0,"location_history":"[4,3]","action_history":"[0]","door_history":"[0]","location_rts":"[553]","trial_type":"two-door-navigation","trial_index":42,"time_elapsed":614559,"internal_node_id":"0.0-2.0-40.0"},{"group":"hexagon_bi","room_assignment":["grey","purple","blue","red","green","yellow"],"door_color_assignment":["white","black"],"door_generator_assignment":[0,1],"goal":5,"start":3,"action_noise":0,"location_history":"[3,4,5]","action_history":"[0,1]","door_history":"[0,1]","location_rts":"[455,393]","trial_type":"two-door-navigation","trial_index":43,"time_elapsed":621503,"internal_node_id":"0.0-2.0-41.0"},{"group":"hexagon_bi","room_assignment":["grey","purple","blue","red","green","yellow"],"door_color_assignment":["white","black"],"door_generator_assignment":[0,1],"goal":3,"start":5,"action_noise":0,"location_history":"[5,0,1,2,3]","action_history":"[0,1,0,1]","door_history":"[0,1,0,1]","location_rts":"[486,609,411,376]","trial_type":"two-door-navigation","trial_index":44,"time_elapsed":631548,"internal_node_id":"0.0-2.0-42.0"},{"group":"hexagon_bi","room_assignment":["grey","purple","blue","red","green","yellow"],"door_color_assignment":["white","black"],"door_generator_assignment":[0,1],"goal":0,"start":3,"action_noise":0,"location_history":"[3,2,1,0]","action_history":"[1,0,1]","door_history":"[1,0,1]","location_rts":"[456,428,332]","trial_type":"two-door-navigation","trial_index":45,"time_elapsed":639874,"internal_node_id":"0.0-2.0-43.0"},{"group":"hexagon_bi","room_assignment":["grey","purple","blue","red","green","yellow"],"door_color_assignment":["white","black"],"door_generator_assignment":[0,1],"goal":2,"start":0,"action_noise":0,"location_history":"[0,5,4,3,2]","action_history":"[0,1,0,1]","door_history":"[0,1,0,1]","location_rts":"[393,454,269,432]","trial_type":"two-door-navigation","trial_index":46,"time_elapsed":649632,"internal_node_id":"0.0-2.0-44.0"},{"group":"hexagon_bi","room_assignment":["grey","purple","blue","red","green","yellow"],"door_color_assignment":["white","black"],"door_generator_assignment":[0,1],"goal":4,"start":2,"action_noise":0,"location_history":"[2,3,4]","action_history":"[1,0]","door_history":"[1,0]","location_rts":"[492,397]","trial_type":"two-door-navigation","trial_index":47,"time_elapsed":656612,"internal_node_id":"0.0-2.0-45.0"},{"group":"hexagon_bi","room_assignment":["grey","purple","blue","red","green","yellow"],"door_color_assignment":["white","black"],"door_generator_assignment":[0,1],"goal":1,"start":4,"action_noise":0,"location_history":"[4,3,2,1]","action_history":"[0,1,0]","door_history":"[0,1,0]","location_rts":"[750,399,402]","trial_type":"two-door-navigation","trial_index":48,"time_elapsed":665334,"internal_node_id":"0.0-2.0-46.0"},{"group":"hexagon_bi","room_assignment":["grey","purple","blue","red","green","yellow"],"door_color_assignment":["white","black"],"door_generator_assignment":[0,1],"goal":4,"start":1,"action_noise":0,"location_history":"[1,0,5,4]","action_history":"[1,0,1]","door_history":"[1,0,1]","location_rts":"[425,425,471]","trial_type":"two-door-navigation","trial_index":49,"time_elapsed":673782,"internal_node_id":"0.0-2.0-47.0"},{"group":"hexagon_bi","room_assignment":["grey","purple","blue","red","green","yellow"],"door_color_assignment":["white","black"],"door_generator_assignment":[0,1],"goal":3,"start":4,"action_noise":0,"location_history":"[4,3]","action_history":"[0]","door_history":"[0]","location_rts":"[368]","trial_type":"two-door-navigation","trial_index":50,"time_elapsed":679285,"internal_node_id":"0.0-2.0-48.0"},{"group":"hexagon_bi","room_assignment":["grey","purple","blue","red","green","yellow"],"door_color_assignment":["white","black"],"door_generator_assignment":[0,1],"goal":5,"start":3,"action_noise":0,"location_history":"[3,4,5]","action_history":"[0,1]","door_history":"[0,1]","location_rts":"[466,396]","trial_type":"two-door-navigation","trial_index":51,"time_elapsed":686217,"internal_node_id":"0.0-2.0-49.0"},{"view_history":"[{\"page_index\":0,\"viewing_time\":9301}]","rt":9301,"trial_type":"instructions","trial_index":52,"time_elapsed":696522,"internal_node_id":"0.0-3.0"},{"view_history":"[{\"page_index\":0,\"viewing_time\":2776},{\"page_index\":1,\"viewing_time\":56074}]","rt":58850,"trial_type":"instructions","trial_index":53,"time_elapsed":756375,"internal_node_id":"0.0-4.0"},{"group":"hexagon_bi","fractal_assignment":["../images/cyn_red.png","../images/blu_wht.png","../images/pnk_blu.png","../images/ylw_slt.png","../images/gry_blk.png","../images/org_blu.png"],"mutagen_generator_assignment":[0,1],"goal":4,"start":0,"action_noise":0,"location_history":"[0,5,0,1,0,5,0,1,0,1,0,1,0,5,0,1,2,3,4]","action_history":"[0,0,1,1,0,0,1,1,1,1,1,1,0,0,1,0,1,0]","mutagen_history":"[0,0,1,1,0,0,1,1,1,1,1,1,0,0,1,0,1,0]","location_rts":"[7081,2862,723,809,848,605,426,727,621,4297,711,644,902,696,634,787,735,882]","trial_type":"fractal-mutation","trial_index":54,"time_elapsed":805109,"internal_node_id":"0.0-5.0-0.0"},{"group":"hexagon_bi","fractal_assignment":["../images/cyn_red.png","../images/blu_wht.png","../images/pnk_blu.png","../images/ylw_slt.png","../images/gry_blk.png","../images/org_blu.png"],"mutagen_generator_assignment":[0,1],"goal":3,"start":4,"action_noise":0,"location_history":"[4,3]","action_history":"[0]","mutagen_history":"[0]","location_rts":"[1027]","trial_type":"fractal-mutation","trial_index":55,"time_elapsed":811277,"internal_node_id":"0.0-5.0-1.0"},{"group":"hexagon_bi","fractal_assignment":["../images/cyn_red.png","../images/blu_wht.png","../images/pnk_blu.png","../images/ylw_slt.png","../images/gry_blk.png","../images/org_blu.png"],"mutagen_generator_assignment":[0,1],"goal":5,"start":3,"action_noise":0,"location_history":"[3,2,1,0,5]","action_history":"[1,0,1,0]","mutagen_history":"[1,0,1,0]","location_rts":"[1390,568,583,480]","trial_type":"fractal-mutation","trial_index":56,"time_elapsed":822764,"internal_node_id":"0.0-5.0-2.0"},{"group":"hexagon_bi","fractal_assignment":["../images/cyn_red.png","../images/blu_wht.png","../images/pnk_blu.png","../images/ylw_slt.png","../images/gry_blk.png","../images/org_blu.png"],"mutagen_generator_assignment":[0,1],"goal":2,"start":5,"action_noise":0,"location_history":"[5,0,1,2]","action_history":"[0,1,0]","mutagen_history":"[0,1,0]","location_rts":"[524,479,536]","trial_type":"fractal-mutation","trial_index":57,"time_elapsed":831603,"internal_node_id":"0.0-5.0-3.0"},{"group":"hexagon_bi","fractal_assignment":["../images/cyn_red.png","../images/blu_wht.png","../images/pnk_blu.png","../images/ylw_slt.png","../images/gry_blk.png","../images/org_blu.png"],"mutagen_generator_assignment":[0,1],"goal":1,"start":2,"action_noise":0,"location_history":"[2,1]","action_history":"[0]","mutagen_history":"[0]","location_rts":"[482]","trial_type":"fractal-mutation","trial_index":58,"time_elapsed":837168,"internal_node_id":"0.0-5.0-4.0"},{"group":"hexagon_bi","fractal_assignment":["../images/cyn_red.png","../images/blu_wht.png","../images/pnk_blu.png","../images/ylw_slt.png","../images/gry_blk.png","../images/org_blu.png"],"mutagen_generator_assignment":[0,1],"goal":4,"start":1,"action_noise":0,"location_history":"[1,0,5,0,1,2,3,4]","action_history":"[1,0,0,1,0,1,0]","mutagen_history":"[1,0,0,1,0,1,0]","location_rts":"[514,508,672,636,565,421,475]","trial_type":"fractal-mutation","trial_index":59,"time_elapsed":852717,"internal_node_id":"0.0-5.0-5.0"},{"group":"hexagon_bi","fractal_assignment":["../images/cyn_red.png","../images/blu_wht.png","../images/pnk_blu.png","../images/ylw_slt.png","../images/gry_blk.png","../images/org_blu.png"],"mutagen_generator_assignment":[0,1],"goal":1,"start":4,"action_noise":0,"location_history":"[4,3,4,3,4,5,0,1]","action_history":"[0,0,0,0,1,0,1]","mutagen_history":"[0,0,0,0,1,0,1]","location_rts":"[590,455,488,512,450,584,548]","trial_type":"fractal-mutation","trial_index":60,"time_elapsed":868009,"internal_node_id":"0.0-5.0-6.0"},{"group":"hexagon_bi","fractal_assignment":["../images/cyn_red.png","../images/blu_wht.png","../images/pnk_blu.png","../images/ylw_slt.png","../images/gry_blk.png","../images/org_blu.png"],"mutagen_generator_assignment":[0,1],"goal":5,"start":1,"action_noise":0,"location_history":"[1,0,5]","action_history":"[1,0]","mutagen_history":"[1,0]","location_rts":"[750,741]","trial_type":"fractal-mutation","trial_index":61,"time_elapsed":875746,"internal_node_id":"0.0-5.0-7.0"},{"group":"hexagon_bi","fractal_assignment":["../images/cyn_red.png","../images/blu_wht.png","../images/pnk_blu.png","../images/ylw_slt.png","../images/gry_blk.png","../images/org_blu.png"],"mutagen_generator_assignment":[0,1],"goal":0,"start":5,"action_noise":0,"location_history":"[5,0]","action_history":"[0]","mutagen_history":"[0]","location_rts":"[540]","trial_type":"fractal-mutation","trial_index":62,"time_elapsed":881367,"internal_node_id":"0.0-5.0-8.0"},{"group":"hexagon_bi","fractal_assignment":["../images/cyn_red.png","../images/blu_wht.png","../images/pnk_blu.png","../images/ylw_slt.png","../images/gry_blk.png","../images/org_blu.png"],"mutagen_generator_assignment":[0,1],"goal":2,"start":0,"action_noise":0,"location_history":"[0,1,2]","action_history":"[1,0]","mutagen_history":"[1,0]","location_rts":"[723,464]","trial_type":"fractal-mutation","trial_index":63,"time_elapsed":888757,"internal_node_id":"0.0-5.0-9.0"},{"group":"hexagon_bi","fractal_assignment":["../images/cyn_red.png","../images/blu_wht.png","../images/pnk_blu.png","../images/ylw_slt.png","../images/gry_blk.png","../images/org_blu.png"],"mutagen_generator_assignment":[0,1],"goal":3,"start":2,"action_noise":0,"location_history":"[2,3]","action_history":"[1]","mutagen_history":"[1]","location_rts":"[656]","trial_type":"fractal-mutation","trial_index":64,"time_elapsed":894508,"internal_node_id":"0.0-5.0-10.0"},{"group":"hexagon_bi","fractal_assignment":["../images/cyn_red.png","../images/blu_wht.png","../images/pnk_blu.png","../images/ylw_slt.png","../images/gry_blk.png","../images/org_blu.png"],"mutagen_generator_assignment":[0,1],"goal":0,"start":3,"action_noise":0,"location_history":"[3,4,5,0]","action_history":"[0,1,0]","mutagen_history":"[0,1,0]","location_rts":"[424,423,402]","trial_type":"fractal-mutation","trial_index":65,"time_elapsed":902984,"internal_node_id":"0.0-5.0-11.0"},{"group":"hexagon_bi","fractal_assignment":["../images/cyn_red.png","../images/blu_wht.png","../images/pnk_blu.png","../images/ylw_slt.png","../images/gry_blk.png","../images/org_blu.png"],"mutagen_generator_assignment":[0,1],"goal":2,"start":0,"action_noise":0,"location_history":"[0,1,2]","action_history":"[1,0]","mutagen_history":"[1,0]","location_rts":"[508,394]","trial_type":"fractal-mutation","trial_index":66,"time_elapsed":910043,"internal_node_id":"0.0-5.0-12.0"},{"group":"hexagon_bi","fractal_assignment":["../images/cyn_red.png","../images/blu_wht.png","../images/pnk_blu.png","../images/ylw_slt.png","../images/gry_blk.png","../images/org_blu.png"],"mutagen_generator_assignment":[0,1],"goal":5,"start":2,"action_noise":0,"location_history":"[2,3,4,3,2,1,0,1,2,1,0,1,2,3,4,3,4,3,2,3,4,3,2,3,4,3,4,5]","action_history":"[1,0,0,1,0,1,1,0,0,1,1,0,1,0,0,0,0,1,1,0,0,1,1,0,0,0,1]","mutagen_history":"[1,0,0,1,0,1,1,0,0,1,1,0,1,0,0,0,0,1,1,0,0,1,1,0,0,0,1]","location_rts":"[550,355,405,390,436,439,717,438,438,459,561,484,408,534,468,412,442,481,555,414,457,343,472,461,452,540,334]","trial_type":"fractal-mutation","trial_index":67,"time_elapsed":955576,"internal_node_id":"0.0-5.0-13.0"},{"group":"hexagon_bi","fractal_assignment":["../images/cyn_red.png","../images/blu_wht.png","../images/pnk_blu.png","../images/ylw_slt.png","../images/gry_blk.png","../images/org_blu.png"],"mutagen_generator_assignment":[0,1],"goal":4,"start":5,"action_noise":0,"location_history":"[5,0,1,2,3,2,1,2,3,2,1,2,3,4]","action_history":"[0,1,0,1,1,0,0,1,1,0,0,1,0]","mutagen_history":"[0,1,0,1,1,0,0,1,1,0,0,1,0]","location_rts":"[748,617,559,374,494,374,383,395,456,335,429,393,419]","trial_type":"fractal-mutation","trial_index":68,"time_elapsed":979746,"internal_node_id":"0.0-5.0-14.0"},{"group":"hexagon_bi","fractal_assignment":["../images/cyn_red.png","../images/blu_wht.png","../images/pnk_blu.png","../images/ylw_slt.png","../images/gry_blk.png","../images/org_blu.png"],"mutagen_generator_assignment":[0,1],"goal":3,"start":4,"action_noise":0,"location_history":"[4,3]","action_history":"[0]","mutagen_history":"[0]","location_rts":"[401]","trial_type":"fractal-mutation","trial_index":69,"time_elapsed":985226,"internal_node_id":"0.0-5.0-15.0"},{"group":"hexagon_bi","fractal_assignment":["../images/cyn_red.png","../images/blu_wht.png","../images/pnk_blu.png","../images/ylw_slt.png","../images/gry_blk.png","../images/org_blu.png"],"mutagen_generator_assignment":[0,1],"goal":1,"start":3,"action_noise":0,"location_history":"[3,4,5,4,3,4,3,2,3,4,3,2,3,2,1]","action_history":"[0,1,1,0,0,0,1,1,0,0,1,1,1,0]","mutagen_history":"[0,1,1,0,0,0,1,1,0,0,1,1,1,0]","location_rts":"[520,392,398,343,404,473,341,447,570,509,371,400,651,392]","trial_type":"fractal-mutation","trial_index":70,"time_elapsed":1010563,"internal_node_id":"0.0-5.0-16.0"},{"group":"hexagon_bi","fractal_assignment":["../images/cyn_red.png","../images/blu_wht.png","../images/pnk_blu.png","../images/ylw_slt.png","../images/gry_blk.png","../images/org_blu.png"],"mutagen_generator_assignment":[0,1],"goal":5,"start":1,"action_noise":0,"location_history":"[1,0,1,2,3,4,3,2,3,4,3,2,1,0,5]","action_history":"[1,1,0,1,0,0,1,1,0,0,1,0,1,0]","mutagen_history":"[1,1,0,1,0,0,1,1,0,0,1,0,1,0]","location_rts":"[714,510,288,443,312,486,322,415,312,320,1087,450,410,373]","trial_type":"fractal-mutation","trial_index":71,"time_elapsed":1036010,"internal_node_id":"0.0-5.0-17.0"},{"group":"hexagon_bi","fractal_assignment":["../images/cyn_red.png","../images/blu_wht.png","../images/pnk_blu.png","../images/ylw_slt.png","../images/gry_blk.png","../images/org_blu.png"],"mutagen_generator_assignment":[0,1],"goal":4,"start":5,"action_noise":0,"location_history":"[5,4]","action_history":"[1]","mutagen_history":"[1]","location_rts":"[390]","trial_type":"fractal-mutation","trial_index":72,"time_elapsed":1041486,"internal_node_id":"0.0-5.0-18.0"},{"group":"hexagon_bi","fractal_assignment":["../images/cyn_red.png","../images/blu_wht.png","../images/pnk_blu.png","../images/ylw_slt.png","../images/gry_blk.png","../images/org_blu.png"],"mutagen_generator_assignment":[0,1],"goal":0,"start":4,"action_noise":0,"location_history":"[4,5,0]","action_history":"[1,0]","mutagen_history":"[1,0]","location_rts":"[629,478]","trial_type":"fractal-mutation","trial_index":73,"time_elapsed":1048788,"internal_node_id":"0.0-5.0-19.0"},{"group":"hexagon_bi","fractal_assignment":["../images/cyn_red.png","../images/blu_wht.png","../images/pnk_blu.png","../images/ylw_slt.png","../images/gry_blk.png","../images/org_blu.png"],"mutagen_generator_assignment":[0,1],"goal":1,"start":0,"action_noise":0,"location_history":"[0,5,4,5,0,5,4,3,4,3,2,3,4,3,2,1]","action_history":"[0,1,1,0,0,1,0,0,0,1,1,0,0,1,0]","mutagen_history":"[0,1,1,0,0,1,0,0,0,1,1,0,0,1,0]","location_rts":"[564,491,414,359,455,474,406,775,554,873,345,327,578,346,375]","trial_type":"fractal-mutation","trial_index":74,"time_elapsed":1076232,"internal_node_id":"0.0-5.0-20.0"},{"group":"hexagon_bi","fractal_assignment":["../images/cyn_red.png","../images/blu_wht.png","../images/pnk_blu.png","../images/ylw_slt.png","../images/gry_blk.png","../images/org_blu.png"],"mutagen_generator_assignment":[0,1],"goal":3,"start":1,"action_noise":0,"location_history":"[1,0,5,4,5,0,5,0,1,0,5,4,3]","action_history":"[1,0,1,1,0,0,0,1,1,0,1,0]","mutagen_history":"[1,0,1,1,0,0,0,1,1,0,1,0]","location_rts":"[642,379,348,551,363,444,536,346,618,393,472,449]","trial_type":"fractal-mutation","trial_index":75,"time_elapsed":1098873,"internal_node_id":"0.0-5.0-21.0"},{"group":"hexagon_bi","fractal_assignment":["../images/cyn_red.png","../images/blu_wht.png","../images/pnk_blu.png","../images/ylw_slt.png","../images/gry_blk.png","../images/org_blu.png"],"mutagen_generator_assignment":[0,1],"goal":2,"start":3,"action_noise":0,"location_history":"[3,2]","action_history":"[1]","mutagen_history":"[1]","location_rts":"[908]","trial_type":"fractal-mutation","trial_index":76,"time_elapsed":1104923,"internal_node_id":"0.0-5.0-22.0"},{"group":"hexagon_bi","fractal_assignment":["../images/cyn_red.png","../images/blu_wht.png","../images/pnk_blu.png","../images/ylw_slt.png","../images/gry_blk.png","../images/org_blu.png"],"mutagen_generator_assignment":[0,1],"goal":0,"start":2,"action_noise":0,"location_history":"[2,3,4,3,2,3,4,3,2,1,0]","action_history":"[1,0,0,1,1,0,0,1,0,1]","mutagen_history":"[1,0,0,1,1,0,0,1,0,1]","location_rts":"[752,513,480,212,329,374,487,1057,687,357]","trial_type":"fractal-mutation","trial_index":77,"time_elapsed":1125020,"internal_node_id":"0.0-5.0-23.0"},{"group":"hexagon_bi","fractal_assignment":["../images/cyn_red.png","../images/blu_wht.png","../images/pnk_blu.png","../images/ylw_slt.png","../images/gry_blk.png","../images/org_blu.png"],"mutagen_generator_assignment":[0,1],"goal":3,"start":0,"action_noise":0,"location_history":"[0,1,2,3]","action_history":"[1,0,1]","mutagen_history":"[1,0,1]","location_rts":"[791,439,433]","trial_type":"fractal-mutation","trial_index":78,"time_elapsed":1134025,"internal_node_id":"0.0-5.0-24.0"},{"group":"hexagon_bi","fractal_assignment":["../images/cyn_red.png","../images/blu_wht.png","../images/pnk_blu.png","../images/ylw_slt.png","../images/gry_blk.png","../images/org_blu.png"],"mutagen_generator_assignment":[0,1],"goal":1,"start":3,"action_noise":0,"location_history":"[3,4,5,0,1]","action_history":"[0,1,0,1]","mutagen_history":"[0,1,0,1]","location_rts":"[677,452,642,444]","trial_type":"fractal-mutation","trial_index":79,"time_elapsed":1144659,"internal_node_id":"0.0-5.0-25.0"},{"group":"hexagon_bi","fractal_assignment":["../images/cyn_red.png","../images/blu_wht.png","../images/pnk_blu.png","../images/ylw_slt.png","../images/gry_blk.png","../images/org_blu.png"],"mutagen_generator_assignment":[0,1],"goal":2,"start":1,"action_noise":0,"location_history":"[1,0,1,2]","action_history":"[1,1,0]","mutagen_history":"[1,1,0]","location_rts":"[668,552,438]","trial_type":"fractal-mutation","trial_index":80,"time_elapsed":1153662,"internal_node_id":"0.0-5.0-26.0"},{"group":"hexagon_bi","fractal_assignment":["../images/cyn_red.png","../images/blu_wht.png","../images/pnk_blu.png","../images/ylw_slt.png","../images/gry_blk.png","../images/org_blu.png"],"mutagen_generator_assignment":[0,1],"goal":5,"start":2,"action_noise":0,"location_history":"[2,3,4,3,4,5]","action_history":"[1,0,0,0,1]","mutagen_history":"[1,0,0,0,1]","location_rts":"[946,369,663,556,361]","trial_type":"fractal-mutation","trial_index":81,"time_elapsed":1166121,"internal_node_id":"0.0-5.0-27.0"},{"group":"hexagon_bi","fractal_assignment":["../images/cyn_red.png","../images/blu_wht.png","../images/pnk_blu.png","../images/ylw_slt.png","../images/gry_blk.png","../images/org_blu.png"],"mutagen_generator_assignment":[0,1],"goal":4,"start":5,"action_noise":0,"location_history":"[5,0,1,0,1,2,3,4]","action_history":"[0,1,1,1,0,1,0]","mutagen_history":"[0,1,1,1,0,1,0]","location_rts":"[672,536,482,571,451,514,409]","trial_type":"fractal-mutation","trial_index":82,"time_elapsed":1181516,"internal_node_id":"0.0-5.0-28.0"},{"group":"hexagon_bi","fractal_assignment":["../images/cyn_red.png","../images/blu_wht.png","../images/pnk_blu.png","../images/ylw_slt.png","../images/gry_blk.png","../images/org_blu.png"],"mutagen_generator_assignment":[0,1],"goal":5,"start":4,"action_noise":0,"location_history":"[4,5]","action_history":"[1]","mutagen_history":"[1]","location_rts":"[501]","trial_type":"fractal-mutation","trial_index":83,"time_elapsed":1187121,"internal_node_id":"0.0-5.0-29.0"},{"group":"hexagon_bi","fractal_assignment":["../images/cyn_red.png","../images/blu_wht.png","../images/pnk_blu.png","../images/ylw_slt.png","../images/gry_blk.png","../images/org_blu.png"],"mutagen_generator_assignment":[0,1],"goal":3,"start":5,"action_noise":0,"location_history":"[5,0,1,0,5,0,1,0,5,0,1,0,5,0,1,2,1,2,3]","action_history":"[0,1,1,0,0,1,1,0,0,1,1,0,0,1,0,0,0,1]","mutagen_history":"[0,1,1,0,0,1,1,0,0,1,1,0,0,1,0,0,0,1]","location_rts":"[509,396,537,495,518,621,440,483,612,422,445,384,522,424,452,623,488,455]","trial_type":"fractal-mutation","trial_index":84,"time_elapsed":1219689,"internal_node_id":"0.0-5.0-30.0"},{"group":"hexagon_bi","fractal_assignment":["../images/cyn_red.png","../images/blu_wht.png","../images/pnk_blu.png","../images/ylw_slt.png","../images/gry_blk.png","../images/org_blu.png"],"mutagen_generator_assignment":[0,1],"goal":0,"start":3,"action_noise":0,"location_history":"[3,4,5,0]","action_history":"[0,1,0]","mutagen_history":"[0,1,0]","location_rts":"[617,470,540]","trial_type":"fractal-mutation","trial_index":85,"time_elapsed":1228563,"internal_node_id":"0.0-5.0-31.0"},{"group":"hexagon_bi","fractal_assignment":["../images/cyn_red.png","../images/blu_wht.png","../images/pnk_blu.png","../images/ylw_slt.png","../images/gry_blk.png","../images/org_blu.png"],"mutagen_generator_assignment":[0,1],"goal":4,"start":0,"action_noise":0,"location_history":"[0,1,2,3,4]","action_history":"[1,0,1,0]","mutagen_history":"[1,0,1,0]","location_rts":"[564,460,485,462]","trial_type":"fractal-mutation","trial_index":86,"time_elapsed":1238969,"internal_node_id":"0.0-5.0-32.0"},{"group":"hexagon_bi","fractal_assignment":["../images/cyn_red.png","../images/blu_wht.png","../images/pnk_blu.png","../images/ylw_slt.png","../images/gry_blk.png","../images/org_blu.png"],"mutagen_generator_assignment":[0,1],"goal":1,"start":4,"action_noise":0,"location_history":"[4,3,4,5,0,1]","action_history":"[0,0,1,0,1]","mutagen_history":"[0,0,1,0,1]","location_rts":"[565,655,341,640,446]","trial_type":"fractal-mutation","trial_index":87,"time_elapsed":1251056,"internal_node_id":"0.0-5.0-33.0"},{"group":"hexagon_bi","fractal_assignment":["../images/cyn_red.png","../images/blu_wht.png","../images/pnk_blu.png","../images/ylw_slt.png","../images/gry_blk.png","../images/org_blu.png"],"mutagen_generator_assignment":[0,1],"goal":2,"start":1,"action_noise":0,"location_history":"[1,0,5,0,1,0,1,0,5,4,3,4,5,0,1,2]","action_history":"[1,0,0,1,1,1,1,0,1,0,0,1,0,1,0]","mutagen_history":"[1,0,0,1,1,1,1,0,1,0,0,1,0,1,0]","location_rts":"[767,490,663,470,689,507,596,565,421,517,568,526,580,522,492]","trial_type":"fractal-mutation","trial_index":88,"time_elapsed":1279976,"internal_node_id":"0.0-5.0-34.0"},{"group":"hexagon_bi","fractal_assignment":["../images/cyn_red.png","../images/blu_wht.png","../images/pnk_blu.png","../images/ylw_slt.png","../images/gry_blk.png","../images/org_blu.png"],"mutagen_generator_assignment":[0,1],"goal":0,"start":2,"action_noise":0,"location_history":"[2,3,4,3,2,3,4,3,2,3,4,3,2,3,4,5,0]","action_history":"[1,0,0,1,1,0,0,1,1,0,0,1,1,0,1,0]","mutagen_history":"[1,0,0,1,1,0,0,1,1,0,0,1,1,0,1,0]","location_rts":"[1137,366,691,350,489,384,375,395,461,377,414,603,443,453,742,449]","trial_type":"fractal-mutation","trial_index":89,"time_elapsed":1309603,"internal_node_id":"0.0-5.0-35.0"},{"group":"hexagon_bi","fractal_assignment":["../images/cyn_red.png","../images/blu_wht.png","../images/pnk_blu.png","../images/ylw_slt.png","../images/gry_blk.png","../images/org_blu.png"],"mutagen_generator_assignment":[0,1],"goal":5,"start":0,"action_noise":0,"location_history":"[0,1,2,3,4,5]","action_history":"[1,0,1,0,1]","mutagen_history":"[1,0,1,0,1]","location_rts":"[514,443,473,457,454]","trial_type":"fractal-mutation","trial_index":90,"time_elapsed":1321346,"internal_node_id":"0.0-5.0-36.0"},{"group":"hexagon_bi","fractal_assignment":["../images/cyn_red.png","../images/blu_wht.png","../images/pnk_blu.png","../images/ylw_slt.png","../images/gry_blk.png","../images/org_blu.png"],"mutagen_generator_assignment":[0,1],"goal":2,"start":5,"action_noise":0,"location_history":"[5,0,1,0,5,0,1,0,1,2]","action_history":"[0,1,1,0,0,1,1,1,0]","mutagen_history":"[0,1,1,0,0,1,1,1,0]","location_rts":"[539,493,706,375,562,365,620,505,439]","trial_type":"fractal-mutation","trial_index":91,"time_elapsed":1339736,"internal_node_id":"0.0-5.0-37.0"},{"group":"hexagon_bi","fractal_assignment":["../images/cyn_red.png","../images/blu_wht.png","../images/pnk_blu.png","../images/ylw_slt.png","../images/gry_blk.png","../images/org_blu.png"],"mutagen_generator_assignment":[0,1],"goal":1,"start":2,"action_noise":0,"location_history":"[2,1]","action_history":"[0]","mutagen_history":"[0]","location_rts":"[549]","trial_type":"fractal-mutation","trial_index":92,"time_elapsed":1345400,"internal_node_id":"0.0-5.0-38.0"},{"group":"hexagon_bi","fractal_assignment":["../images/cyn_red.png","../images/blu_wht.png","../images/pnk_blu.png","../images/ylw_slt.png","../images/gry_blk.png","../images/org_blu.png"],"mutagen_generator_assignment":[0,1],"goal":4,"start":1,"action_noise":0,"location_history":"[1,0,5,0,1,0,5,0,1,0,1,0,5,4]","action_history":"[1,0,0,1,1,0,0,1,1,1,1,0,1]","mutagen_history":"[1,0,0,1,1,0,0,1,1,1,1,0,1]","location_rts":"[950,497,588,368,411,334,532,482,397,545,486,403,513]","trial_type":"fractal-mutation","trial_index":93,"time_elapsed":1370351,"internal_node_id":"0.0-5.0-39.0"},{"group":"hexagon_bi","fractal_assignment":["../images/cyn_red.png","../images/blu_wht.png","../images/pnk_blu.png","../images/ylw_slt.png","../images/gry_blk.png","../images/org_blu.png"],"mutagen_generator_assignment":[0,1],"goal":3,"start":4,"action_noise":0,"location_history":"[4,5,0,1,2,1,2,3]","action_history":"[1,0,1,0,0,0,1]","mutagen_history":"[1,0,1,0,0,0,1]","location_rts":"[413,494,427,423,500,470,379]","trial_type":"fractal-mutation","trial_index":94,"time_elapsed":1385207,"internal_node_id":"0.0-5.0-40.0"},{"group":"hexagon_bi","fractal_assignment":["../images/cyn_red.png","../images/blu_wht.png","../images/pnk_blu.png","../images/ylw_slt.png","../images/gry_blk.png","../images/org_blu.png"],"mutagen_generator_assignment":[0,1],"goal":5,"start":3,"action_noise":0,"location_history":"[3,4,3,2,3,4,3,2,1,0,1,2,3,4,3,2,3,4,3,2,1,0,5]","action_history":"[0,0,1,1,0,0,1,0,1,1,0,1,0,0,1,1,0,0,1,0,1,0]","mutagen_history":"[0,0,1,1,0,0,1,0,1,1,0,1,0,0,1,1,0,0,1,0,1,0]","location_rts":"[634,555,277,353,463,415,349,410,352,436,378,387,346,446,440,443,404,483,486,397,480,394]","trial_type":"fractal-mutation","trial_index":95,"time_elapsed":1422259,"internal_node_id":"0.0-5.0-41.0"},{"group":"hexagon_bi","fractal_assignment":["../images/cyn_red.png","../images/blu_wht.png","../images/pnk_blu.png","../images/ylw_slt.png","../images/gry_blk.png","../images/org_blu.png"],"mutagen_generator_assignment":[0,1],"goal":3,"start":5,"action_noise":0,"location_history":"[5,0,1,0,5,4,3]","action_history":"[0,1,1,0,1,0]","mutagen_history":"[0,1,1,0,1,0]","location_rts":"[647,664,507,369,412,373]","trial_type":"fractal-mutation","trial_index":96,"time_elapsed":1435674,"internal_node_id":"0.0-5.0-42.0"},{"group":"hexagon_bi","fractal_assignment":["../images/cyn_red.png","../images/blu_wht.png","../images/pnk_blu.png","../images/ylw_slt.png","../images/gry_blk.png","../images/org_blu.png"],"mutagen_generator_assignment":[0,1],"goal":0,"start":3,"action_noise":0,"location_history":"[3,4,3,2,1,0]","action_history":"[0,0,1,0,1]","mutagen_history":"[0,0,1,0,1]","location_rts":"[474,484,290,618,339]","trial_type":"fractal-mutation","trial_index":97,"time_elapsed":1447324,"internal_node_id":"0.0-5.0-43.0"},{"group":"hexagon_bi","fractal_assignment":["../images/cyn_red.png","../images/blu_wht.png","../images/pnk_blu.png","../images/ylw_slt.png","../images/gry_blk.png","../images/org_blu.png"],"mutagen_generator_assignment":[0,1],"goal":2,"start":0,"action_noise":0,"location_history":"[0,1,0,5,4,5,0,5,4,3,2]","action_history":"[1,1,0,1,1,0,0,1,0,1]","mutagen_history":"[1,1,0,1,1,0,0,1,0,1]","location_rts":"[614,660,441,437,638,393,484,342,475,840]","trial_type":"fractal-mutation","trial_index":98,"time_elapsed":1467473,"internal_node_id":"0.0-5.0-44.0"},{"group":"hexagon_bi","fractal_assignment":["../images/cyn_red.png","../images/blu_wht.png","../images/pnk_blu.png","../images/ylw_slt.png","../images/gry_blk.png","../images/org_blu.png"],"mutagen_generator_assignment":[0,1],"goal":4,"start":2,"action_noise":0,"location_history":"[2,1,0,1,2,3,4]","action_history":"[0,1,1,0,1,0]","mutagen_history":"[0,1,1,0,1,0]","location_rts":"[610,726,429,443,385,639]","trial_type":"fractal-mutation","trial_index":99,"time_elapsed":1481169,"internal_node_id":"0.0-5.0-45.0"},{"group":"hexagon_bi","fractal_assignment":["../images/cyn_red.png","../images/blu_wht.png","../images/pnk_blu.png","../images/ylw_slt.png","../images/gry_blk.png","../images/org_blu.png"],"mutagen_generator_assignment":[0,1],"goal":1,"start":4,"action_noise":0,"location_history":"[4,3,4,3,2,1]","action_history":"[0,0,0,1,0]","mutagen_history":"[0,0,0,1,0]","location_rts":"[613,561,515,519,592]","trial_type":"fractal-mutation","trial_index":100,"time_elapsed":1493295,"internal_node_id":"0.0-5.0-46.0"},{"group":"hexagon_bi","fractal_assignment":["../images/cyn_red.png","../images/blu_wht.png","../images/pnk_blu.png","../images/ylw_slt.png","../images/gry_blk.png","../images/org_blu.png"],"mutagen_generator_assignment":[0,1],"goal":4,"start":1,"action_noise":0,"location_history":"[1,2,1,0,1,2,1,0,1,0,5,0,1,2,3,4]","action_history":"[0,0,1,1,0,0,1,1,1,0,0,1,0,1,0]","mutagen_history":"[0,0,1,1,0,0,1,1,1,0,0,1,0,1,0]","location_rts":"[726,440,345,368,546,689,449,562,400,402,416,350,454,319,502]","trial_type":"fractal-mutation","trial_index":101,"time_elapsed":1520360,"internal_node_id":"0.0-5.0-47.0"},{"group":"hexagon_bi","fractal_assignment":["../images/cyn_red.png","../images/blu_wht.png","../images/pnk_blu.png","../images/ylw_slt.png","../images/gry_blk.png","../images/org_blu.png"],"mutagen_generator_assignment":[0,1],"goal":3,"start":4,"action_noise":0,"location_history":"[4,3]","action_history":"[0]","mutagen_history":"[0]","location_rts":"[514]","trial_type":"fractal-mutation","trial_index":102,"time_elapsed":1525951,"internal_node_id":"0.0-5.0-48.0"},{"group":"hexagon_bi","fractal_assignment":["../images/cyn_red.png","../images/blu_wht.png","../images/pnk_blu.png","../images/ylw_slt.png","../images/gry_blk.png","../images/org_blu.png"],"mutagen_generator_assignment":[0,1],"goal":5,"start":3,"action_noise":0,"location_history":"[3,4,5]","action_history":"[0,1]","mutagen_history":"[0,1]","location_rts":"[780,472]","trial_type":"fractal-mutation","trial_index":103,"time_elapsed":1533365,"internal_node_id":"0.0-5.0-49.0"},{"view_history":"[{\"page_index\":0,\"viewing_time\":44342}]","rt":44343,"trial_type":"instructions","trial_index":104,"time_elapsed":1578711,"internal_node_id":"0.0-6.0"},{"rt":20688,"responses":"{\"Q0\":\"this was so cool and best one\"}","trial_type":"survey-text","trial_index":105,"time_elapsed":1600417,"internal_node_id":"0.0-7.0"}]