[{"view_history":"[{\"page_index\":0,\"viewing_time\":455111},{\"page_index\":1,\"viewing_time\":112895},{\"page_index\":2,\"viewing_time\":10137}]","rt":578145,"trial_type":"instructions","trial_index":0,"time_elapsed":578148,"internal_node_id":"0.0-0.0"},{"view_history":"[{\"page_index\":0,\"viewing_time\":1595},{\"page_index\":1,\"viewing_time\":46948}]","rt":48544,"trial_type":"instructions","trial_index":1,"time_elapsed":627724,"internal_node_id":"0.0-1.0"},{"group":"hexagon_tri","room_assignment":["grey","green","yellow","purple","red","blue"],"door_color_assignment":["white","black"],"door_generator_assignment":[0,1],"goal":4,"start":0,"action_noise":0,"location_history":"[0,1,5,4]","action_history":"[1,1,0]","door_history":"[1,1,0]","location_rts":"[6443,2529,973]","trial_type":"two-door-navigation","trial_index":2,"time_elapsed":645107,"internal_node_id":"0.0-2.0-0.0"},{"group":"hexagon_tri","room_assignment":["grey","green","yellow","purple","red","blue"],"door_color_assignment":["white","black"],"door_generator_assignment":[0,1],"goal":3,"start":4,"action_noise":0,"location_history":"[4,0,1,5,0,5,4,0,1,3]","action_history":"[0,1,1,1,0,0,0,1,0]","door_history":"[0,1,1,1,0,0,0,1,0]","location_rts":"[2642,976,919,818,1237,1099,1134,1271,614]","trial_type":"two-door-navigation","trial_index":3,"time_elapsed":669492,"internal_node_id":"0.0-2.0-1.0"},{"group":"hexagon_tri","room_assignment":["grey","green","yellow","purple","red","blue"],"door_color_assignment":["white","black"],"door_generator_assignment":[0,1],"goal":5,"start":3,"action_noise":0,"location_history":"[3,4,2,1,3,4,2,3,4,0,5]","action_history":"[1,1,0,0,1,1,1,1,0,0]","door_history":"[1,1,0,0,1,1,1,1,0,0]","location_rts":"[2511,1304,1343,1315,1152,1047,1198,1507,741,661]","trial_type":"two-door-navigation","trial_index":4,"time_elapsed":697157,"internal_node_id":"0.0-2.0-2.0"},{"group":"hexagon_tri","room_assignment":["grey","green","yellow","purple","red","blue"],"door_color_assignment":["white","black"],"door_generator_assignment":[0,1],"goal":2,"start":5,"action_noise":0,"location_history":"[5,0,1,5,4,0,1,3,2]","action_history":"[1,1,1,0,0,1,0,0]","door_history":"[1,1,1,0,0,1,0,0]","location_rts":"[1993,763,651,921,703,1138,1234,1037]","trial_type":"two-door-navigation","trial_index":5,"time_elapsed":718333,"internal_node_id":"0.0-2.0-3.0"},{"group":"hexagon_tri","room_assignment":["grey","green","yellow","purple","red","blue"],"door_color_assignment":["white","black"],"door_generator_assignment":[0,1],"goal":1,"start":2,"action_noise":0,"location_history":"[2,3,2,1]","action_history":"[1,0,0]","door_history":"[1,0,0]","location_rts":"[2485,754,1139]","trial_type":"two-door-navigation","trial_index":6,"time_elapsed":729951,"internal_node_id":"0.0-2.0-4.0"},{"group":"hexagon_tri","room_assignment":["grey","green","yellow","purple","red","blue"],"door_color_assignment":["white","black"],"door_generator_assignment":[0,1],"goal":4,"start":1,"action_noise":0,"location_history":"[1,3,4]","action_history":"[0,1]","door_history":"[0,1]","location_rts":"[2075,644]","trial_type":"two-door-navigation","trial_index":7,"time_elapsed":738805,"internal_node_id":"0.0-2.0-5.0"},{"group":"hexagon_tri","room_assignment":["grey","green","yellow","purple","red","blue"],"door_color_assignment":["white","black"],"door_generator_assignment":[0,1],"goal":1,"start":4,"action_noise":0,"location_history":"[4,2,1]","action_history":"[1,0]","door_history":"[1,0]","location_rts":"[2500,792]","trial_type":"two-door-navigation","trial_index":8,"time_elapsed":748281,"internal_node_id":"0.0-2.0-6.0"},{"group":"hexagon_tri","room_assignment":["grey","green","yellow","purple","red","blue"],"door_color_assignment":["white","black"],"door_generator_assignment":[0,1],"goal":5,"start":1,"action_noise":0,"location_history":"[1,5]","action_history":"[1]","door_history":"[1]","location_rts":"[2146]","trial_type":"two-door-navigation","trial_index":9,"time_elapsed":755527,"internal_node_id":"0.0-2.0-7.0"},{"group":"hexagon_tri","room_assignment":["grey","green","yellow","purple","red","blue"],"door_color_assignment":["white","black"],"door_generator_assignment":[0,1],"goal":0,"start":5,"action_noise":0,"location_history":"[5,0]","action_history":"[1]","door_history":"[1]","location_rts":"[2380]","trial_type":"two-door-navigation","trial_index":10,"time_elapsed":763016,"internal_node_id":"0.0-2.0-8.0"},{"group":"hexagon_tri","room_assignment":["grey","green","yellow","purple","red","blue"],"door_color_assignment":["white","black"],"door_generator_assignment":[0,1],"goal":2,"start":0,"action_noise":0,"location_history":"[0,1,3,2]","action_history":"[1,0,0]","door_history":"[1,0,0]","location_rts":"[1610,712,715]","trial_type":"two-door-navigation","trial_index":11,"time_elapsed":773328,"internal_node_id":"0.0-2.0-9.0"},{"group":"hexagon_tri","room_assignment":["grey","green","yellow","purple","red","blue"],"door_color_assignment":["white","black"],"door_generator_assignment":[0,1],"goal":3,"start":2,"action_noise":0,"location_history":"[2,3]","action_history":"[1]","door_history":"[1]","location_rts":"[2068]","trial_type":"two-door-navigation","trial_index":12,"time_elapsed":780466,"internal_node_id":"0.0-2.0-10.0"},{"group":"hexagon_tri","room_assignment":["grey","green","yellow","purple","red","blue"],"door_color_assignment":["white","black"],"door_generator_assignment":[0,1],"goal":0,"start":3,"action_noise":0,"location_history":"[3,4,0]","action_history":"[1,0]","door_history":"[1,0]","location_rts":"[1452,636]","trial_type":"two-door-navigation","trial_index":13,"time_elapsed":788728,"internal_node_id":"0.0-2.0-11.0"},{"group":"hexagon_tri","room_assignment":["grey","green","yellow","purple","red","blue"],"door_color_assignment":["white","black"],"door_generator_assignment":[0,1],"goal":2,"start":0,"action_noise":0,"location_history":"[0,1,3,2]","action_history":"[1,0,0]","door_history":"[1,0,0]","location_rts":"[1728,557,567]","trial_type":"two-door-navigation","trial_index":14,"time_elapsed":798801,"internal_node_id":"0.0-2.0-12.0"},{"group":"hexagon_tri","room_assignment":["grey","green","yellow","purple","red","blue"],"door_color_assignment":["white","black"],"door_generator_assignment":[0,1],"goal":5,"start":2,"action_noise":0,"location_history":"[2,3,2,1,3,4,2,1,3,2,3,4,0,5]","action_history":"[1,0,0,0,1,1,0,0,0,1,1,0,0]","door_history":"[1,0,0,0,1,1,0,0,0,1,1,0,0]","location_rts":"[1623,638,778,926,1188,697,1428,585,632,1194,631,618,1538]","trial_type":"two-door-navigation","trial_index":15,"time_elapsed":829415,"internal_node_id":"0.0-2.0-13.0"},{"group":"hexagon_tri","room_assignment":["grey","green","yellow","purple","red","blue"],"door_color_assignment":["white","black"],"door_generator_assignment":[0,1],"goal":4,"start":5,"action_noise":0,"location_history":"[5,0,5,4]","action_history":"[1,0,0]","door_history":"[1,0,0]","location_rts":"[1813,590,597]","trial_type":"two-door-navigation","trial_index":16,"time_elapsed":839858,"internal_node_id":"0.0-2.0-14.0"},{"group":"hexagon_tri","room_assignment":["grey","green","yellow","purple","red","blue"],"door_color_assignment":["white","black"],"door_generator_assignment":[0,1],"goal":3,"start":4,"action_noise":0,"location_history":"[4,0,1,5,0,5,4,0,5,0,5,4,0,5,4,2,3]","action_history":"[0,1,1,1,0,0,0,0,1,0,0,0,0,0,1,1]","door_history":"[0,1,1,1,0,0,0,0,1,0,0,0,0,0,1,1]","location_rts":"[1267,949,983,1039,851,743,903,1600,507,612,701,847,749,894,647,1990]","trial_type":"two-door-navigation","trial_index":17,"time_elapsed":876511,"internal_node_id":"0.0-2.0-15.0"},{"group":"hexagon_tri","room_assignment":["grey","green","yellow","purple","red","blue"],"door_color_assignment":["white","black"],"door_generator_assignment":[0,1],"goal":1,"start":3,"action_noise":0,"location_history":"[3,4,0,5,4,2,3,2,3,2,3,4,2,3,2,1]","action_history":"[1,0,0,0,1,1,0,1,0,1,1,1,1,0,0]","door_history":"[1,0,0,0,1,1,0,1,0,1,1,1,1,0,0]","location_rts":"[2421,778,856,1449,948,850,1810,729,1336,668,1105,503,689,784,567]","trial_type":"two-door-navigation","trial_index":18,"time_elapsed":912261,"internal_node_id":"0.0-2.0-16.0"},{"group":"hexagon_tri","room_assignment":["grey","green","yellow","purple","red","blue"],"door_color_assignment":["white","black"],"door_generator_assignment":[0,1],"goal":5,"start":1,"action_noise":0,"location_history":"[1,3,2,1,5]","action_history":"[0,0,0,1]","door_history":"[0,0,0,1]","location_rts":"[1701,809,1267,2308]","trial_type":"two-door-navigation","trial_index":19,"time_elapsed":926712,"internal_node_id":"0.0-2.0-17.0"},{"group":"hexagon_tri","room_assignment":["grey","green","yellow","purple","red","blue"],"door_color_assignment":["white","black"],"door_generator_assignment":[0,1],"goal":4,"start":5,"action_noise":0,"location_history":"[5,0,1,5,4]","action_history":"[1,1,1,0]","door_history":"[1,1,1,0]","location_rts":"[2095,1571,1378,1377]","trial_type":"two-door-navigation","trial_index":20,"time_elapsed":941416,"internal_node_id":"0.0-2.0-18.0"},{"group":"hexagon_tri","room_assignment":["grey","green","yellow","purple","red","blue"],"door_color_assignment":["white","black"],"door_generator_assignment":[0,1],"goal":0,"start":4,"action_noise":0,"location_history":"[4,2,1,3,2,3,4,2,1,3,2,1,5,0]","action_history":"[1,0,0,0,1,1,1,0,0,0,0,1,1]","door_history":"[1,0,0,0,1,1,1,0,0,0,0,1,1]","location_rts":"[1468,915,906,1207,1211,857,595,1638,551,798,1128,692,717]","trial_type":"two-door-navigation","trial_index":21,"time_elapsed":972347,"internal_node_id":"0.0-2.0-19.0"},{"group":"hexagon_tri","room_assignment":["grey","green","yellow","purple","red","blue"],"door_color_assignment":["white","black"],"door_generator_assignment":[0,1],"goal":1,"start":0,"action_noise":0,"location_history":"[0,5,0,1]","action_history":"[0,1,1]","door_history":"[0,1,1]","location_rts":"[1072,538,1183]","trial_type":"two-door-navigation","trial_index":22,"time_elapsed":982445,"internal_node_id":"0.0-2.0-20.0"},{"group":"hexagon_tri","room_assignment":["grey","green","yellow","purple","red","blue"],"door_color_assignment":["white","black"],"door_generator_assignment":[0,1],"goal":3,"start":1,"action_noise":0,"location_history":"[1,3]","action_history":"[0]","door_history":"[0]","location_rts":"[1098]","trial_type":"two-door-navigation","trial_index":23,"time_elapsed":988672,"internal_node_id":"0.0-2.0-21.0"},{"group":"hexagon_tri","room_assignment":["grey","green","yellow","purple","red","blue"],"door_color_assignment":["white","black"],"door_generator_assignment":[0,1],"goal":2,"start":3,"action_noise":0,"location_history":"[3,2]","action_history":"[0]","door_history":"[0]","location_rts":"[1781]","trial_type":"two-door-navigation","trial_index":24,"time_elapsed":995513,"internal_node_id":"0.0-2.0-22.0"},{"group":"hexagon_tri","room_assignment":["grey","green","yellow","purple","red","blue"],"door_color_assignment":["white","black"],"door_generator_assignment":[0,1],"goal":0,"start":2,"action_noise":0,"location_history":"[2,1,5,0]","action_history":"[0,1,1]","door_history":"[0,1,1]","location_rts":"[1368,1218,774]","trial_type":"two-door-navigation","trial_index":25,"time_elapsed":1006220,"internal_node_id":"0.0-2.0-23.0"},{"group":"hexagon_tri","room_assignment":["grey","green","yellow","purple","red","blue"],"door_color_assignment":["white","black"],"door_generator_assignment":[0,1],"goal":3,"start":0,"action_noise":0,"location_history":"[0,5,0,1,5,0,5,4,0,5,4,0,1,5,0,5,4,2,3]","action_history":"[0,1,1,1,1,0,0,0,0,0,0,1,1,1,0,0,1,1]","door_history":"[0,1,1,1,1,0,0,0,0,0,0,1,1,1,0,0,1,1]","location_rts":"[2123,1356,632,926,1747,768,821,2238,3326,764,708,3291,745,750,810,1097,718,992]","trial_type":"two-door-navigation","trial_index":26,"time_elapsed":1053229,"internal_node_id":"0.0-2.0-24.0"},{"group":"hexagon_tri","room_assignment":["grey","green","yellow","purple","red","blue"],"door_color_assignment":["white","black"],"door_generator_assignment":[0,1],"goal":1,"start":3,"action_noise":0,"location_history":"[3,4,0,5,0,1]","action_history":"[1,0,0,1,1]","door_history":"[1,0,0,1,1]","location_rts":"[3440,922,607,781,748]","trial_type":"two-door-navigation","trial_index":27,"time_elapsed":1069162,"internal_node_id":"0.0-2.0-25.0"},{"group":"hexagon_tri","room_assignment":["grey","green","yellow","purple","red","blue"],"door_color_assignment":["white","black"],"door_generator_assignment":[0,1],"goal":2,"start":1,"action_noise":0,"location_history":"[1,3,4,2]","action_history":"[0,1,1]","door_history":"[0,1,1]","location_rts":"[828,588,609]","trial_type":"two-door-navigation","trial_index":28,"time_elapsed":1078588,"internal_node_id":"0.0-2.0-26.0"},{"group":"hexagon_tri","room_assignment":["grey","green","yellow","purple","red","blue"],"door_color_assignment":["white","black"],"door_generator_assignment":[0,1],"goal":5,"start":2,"action_noise":0,"location_history":"[2,1,5]","action_history":"[0,1]","door_history":"[0,1]","location_rts":"[2085,664]","trial_type":"two-door-navigation","trial_index":29,"time_elapsed":1087590,"internal_node_id":"0.0-2.0-27.0"},{"group":"hexagon_tri","room_assignment":["grey","green","yellow","purple","red","blue"],"door_color_assignment":["white","black"],"door_generator_assignment":[0,1],"goal":4,"start":5,"action_noise":0,"location_history":"[5,0,5,4]","action_history":"[1,0,0]","door_history":"[1,0,0]","location_rts":"[1653,685,617]","trial_type":"two-door-navigation","trial_index":30,"time_elapsed":1097775,"internal_node_id":"0.0-2.0-28.0"},{"group":"hexagon_tri","room_assignment":["grey","green","yellow","purple","red","blue"],"door_color_assignment":["white","black"],"door_generator_assignment":[0,1],"goal":5,"start":4,"action_noise":0,"location_history":"[4,0,1,5]","action_history":"[0,1,1]","door_history":"[0,1,1]","location_rts":"[829,1188,629]","trial_type":"two-door-navigation","trial_index":31,"time_elapsed":1107732,"internal_node_id":"0.0-2.0-29.0"},{"group":"hexagon_tri","room_assignment":["grey","green","yellow","purple","red","blue"],"door_color_assignment":["white","black"],"door_generator_assignment":[0,1],"goal":3,"start":5,"action_noise":0,"location_history":"[5,0,5,4,0,1,3]","action_history":"[1,0,0,0,1,0]","door_history":"[1,0,0,0,1,0]","location_rts":"[1085,661,625,773,948,1153]","trial_type":"two-door-navigation","trial_index":32,"time_elapsed":1123575,"internal_node_id":"0.0-2.0-30.0"},{"group":"hexagon_tri","room_assignment":["grey","green","yellow","purple","red","blue"],"door_color_assignment":["white","black"],"door_generator_assignment":[0,1],"goal":0,"start":3,"action_noise":0,"location_history":"[3,2,3,4,2,1,3,4,2,1,3,2,3,4,2,3,2,3,2,1,3,2,1,5,4,2,3,4,2,3,4,0]","action_history":"[0,1,1,1,0,0,1,1,0,0,0,1,1,1,1,0,1,0,0,0,0,0,1,0,1,1,1,1,1,1,0]","door_history":"[0,1,1,1,0,0,1,1,0,0,0,1,1,1,1,0,1,0,0,0,0,0,1,0,1,1,1,1,1,1,0]","location_rts":"[1603,1997,603,708,1041,771,1036,1147,2394,525,1087,828,610,647,764,577,606,594,726,524,668,684,1268,1391,1103,1130,638,601,598,775,642]","trial_type":"two-door-navigation","trial_index":33,"time_elapsed":1189500,"internal_node_id":"0.0-2.0-31.0"},{"group":"hexagon_tri","room_assignment":["grey","green","yellow","purple","red","blue"],"door_color_assignment":["white","black"],"door_generator_assignment":[0,1],"goal":4,"start":0,"action_noise":0,"location_history":"[0,5,0,1,5,0,1,3,2,1,3,2,3,2,3,2,1,5,0,5,4]","action_history":"[0,1,1,1,1,1,0,0,0,0,0,1,0,1,0,0,1,1,0,0]","door_history":"[0,1,1,1,1,1,0,0,0,0,0,1,0,1,0,0,1,1,0,0]","location_rts":"[1706,617,551,600,946,820,647,626,713,1133,1458,537,525,534,595,826,499,573,961,862]","trial_type":"two-door-navigation","trial_index":34,"time_elapsed":1230915,"internal_node_id":"0.0-2.0-32.0"},{"group":"hexagon_tri","room_assignment":["grey","green","yellow","purple","red","blue"],"door_color_assignment":["white","black"],"door_generator_assignment":[0,1],"goal":1,"start":4,"action_noise":0,"location_history":"[4,2,1]","action_history":"[1,0]","door_history":"[1,0]","location_rts":"[83992,949]","trial_type":"two-door-navigation","trial_index":35,"time_elapsed":1322029,"internal_node_id":"0.0-2.0-33.0"},{"group":"hexagon_tri","room_assignment":["grey","green","yellow","purple","red","blue"],"door_color_assignment":["white","black"],"door_generator_assignment":[0,1],"goal":2,"start":1,"action_noise":0,"location_history":"[1,5,4,0,5,4,2]","action_history":"[1,0,0,0,0,1]","door_history":"[1,0,0,0,0,1]","location_rts":"[652,498,539,606,650,745]","trial_type":"two-door-navigation","trial_index":36,"time_elapsed":1336217,"internal_node_id":"0.0-2.0-34.0"},{"group":"hexagon_tri","room_assignment":["grey","green","yellow","purple","red","blue"],"door_color_assignment":["white","black"],"door_generator_assignment":[0,1],"goal":0,"start":2,"action_noise":0,"location_history":"[2,1,5,0]","action_history":"[0,1,1]","door_history":"[0,1,1]","location_rts":"[586,906,573]","trial_type":"two-door-navigation","trial_index":37,"time_elapsed":1345574,"internal_node_id":"0.0-2.0-35.0"},{"group":"hexagon_tri","room_assignment":["grey","green","yellow","purple","red","blue"],"door_color_assignment":["white","black"],"door_generator_assignment":[0,1],"goal":5,"start":0,"action_noise":0,"location_history":"[0,5]","action_history":"[0]","door_history":"[0]","location_rts":"[723]","trial_type":"two-door-navigation","trial_index":38,"time_elapsed":1351358,"internal_node_id":"0.0-2.0-36.0"},{"group":"hexagon_tri","room_assignment":["grey","green","yellow","purple","red","blue"],"door_color_assignment":["white","black"],"door_generator_assignment":[0,1],"goal":2,"start":5,"action_noise":0,"location_history":"[5,0,5,4,0,5,4,2]","action_history":"[1,0,0,0,0,0,1]","door_history":"[1,0,0,0,0,0,1]","location_rts":"[114682,610,504,543,654,1442,568]","trial_type":"two-door-navigation","trial_index":39,"time_elapsed":1481974,"internal_node_id":"0.0-2.0-37.0"},{"group":"hexagon_tri","room_assignment":["grey","green","yellow","purple","red","blue"],"door_color_assignment":["white","black"],"door_generator_assignment":[0,1],"goal":1,"start":2,"action_noise":0,"location_history":"[2,1]","action_history":"[0]","door_history":"[0]","location_rts":"[2017]","trial_type":"two-door-navigation","trial_index":40,"time_elapsed":1489114,"internal_node_id":"0.0-2.0-38.0"},{"group":"hexagon_tri","room_assignment":["grey","green","yellow","purple","red","blue"],"door_color_assignment":["white","black"],"door_generator_assignment":[0,1],"goal":4,"start":1,"action_noise":0,"location_history":"[1,5,4]","action_history":"[1,0]","door_history":"[1,0]","location_rts":"[1797,730]","trial_type":"two-door-navigation","trial_index":41,"time_elapsed":1497858,"internal_node_id":"0.0-2.0-39.0"},{"group":"hexagon_tri","room_assignment":["grey","green","yellow","purple","red","blue"],"door_color_assignment":["white","black"],"door_generator_assignment":[0,1],"goal":3,"start":4,"action_noise":0,"location_history":"[4,0,5,4,0,1,5,0,1,3]","action_history":"[0,0,0,0,1,1,1,1,0]","door_history":"[0,0,0,0,1,1,1,1,0]","location_rts":"[2112,702,624,1063,678,1054,752,1045,665]","trial_type":"two-door-navigation","trial_index":42,"time_elapsed":1520426,"internal_node_id":"0.0-2.0-40.0"},{"group":"hexagon_tri","room_assignment":["grey","green","yellow","purple","red","blue"],"door_color_assignment":["white","black"],"door_generator_assignment":[0,1],"goal":5,"start":3,"action_noise":0,"location_history":"[3,2,3,4,2,1,3,2,1,3,2,3,2,3,2,1,3,4,2,1,3,2,3,2,3,4,2,1,3,2,1,5]","action_history":"[0,1,1,1,0,0,0,0,0,0,1,0,1,0,0,0,1,1,0,0,0,1,0,1,1,1,0,0,0,0,1]","door_history":"[0,1,1,1,0,0,0,0,0,0,1,0,1,0,0,0,1,1,0,0,0,1,0,1,1,1,0,0,0,0,1]","location_rts":"[1790,598,690,1147,1011,673,597,582,582,2485,548,932,1267,941,602,765,441,663,687,1028,1377,613,705,751,743,727,1079,740,1159,731,1069]","trial_type":"two-door-navigation","trial_index":43,"time_elapsed":1585696,"internal_node_id":"0.0-2.0-41.0"},{"group":"hexagon_tri","room_assignment":["grey","green","yellow","purple","red","blue"],"door_color_assignment":["white","black"],"door_generator_assignment":[0,1],"goal":3,"start":5,"action_noise":0,"location_history":"[5,0,1,5,4,2,3]","action_history":"[1,1,1,0,1,1]","door_history":"[1,1,1,0,1,1]","location_rts":"[1518,604,545,1029,815,705]","trial_type":"two-door-navigation","trial_index":44,"time_elapsed":1601430,"internal_node_id":"0.0-2.0-42.0"},{"group":"hexagon_tri","room_assignment":["grey","green","yellow","purple","red","blue"],"door_color_assignment":["white","black"],"door_generator_assignment":[0,1],"goal":0,"start":3,"action_noise":0,"location_history":"[3,4,0]","action_history":"[1,0]","door_history":"[1,0]","location_rts":"[1434,553]","trial_type":"two-door-navigation","trial_index":45,"time_elapsed":1609577,"internal_node_id":"0.0-2.0-43.0"},{"group":"hexagon_tri","room_assignment":["grey","green","yellow","purple","red","blue"],"door_color_assignment":["white","black"],"door_generator_assignment":[0,1],"goal":2,"start":0,"action_noise":0,"location_history":"[0,1,3,2]","action_history":"[1,0,0]","door_history":"[1,0,0]","location_rts":"[984,592,550]","trial_type":"two-door-navigation","trial_index":46,"time_elapsed":1618891,"internal_node_id":"0.0-2.0-44.0"},{"group":"hexagon_tri","room_assignment":["grey","green","yellow","purple","red","blue"],"door_color_assignment":["white","black"],"door_generator_assignment":[0,1],"goal":4,"start":2,"action_noise":0,"location_history":"[2,3,2,1,3,2,3,4]","action_history":"[1,0,0,0,0,1,1]","door_history":"[1,0,0,0,0,1,1]","location_rts":"[714,547,333,538,662,555,559]","trial_type":"two-door-navigation","trial_index":47,"time_elapsed":1634437,"internal_node_id":"0.0-2.0-45.0"},{"group":"hexagon_tri","room_assignment":["grey","green","yellow","purple","red","blue"],"door_color_assignment":["white","black"],"door_generator_assignment":[0,1],"goal":1,"start":4,"action_noise":0,"location_history":"[4,0,5,4,0,1]","action_history":"[0,0,0,0,1]","door_history":"[0,0,0,0,1]","location_rts":"[1878,692,611,585,666]","trial_type":"two-door-navigation","trial_index":48,"time_elapsed":1648274,"internal_node_id":"0.0-2.0-46.0"},{"group":"hexagon_tri","room_assignment":["grey","green","yellow","purple","red","blue"],"door_color_assignment":["white","black"],"door_generator_assignment":[0,1],"goal":4,"start":1,"action_noise":0,"location_history":"[1,5,4]","action_history":"[1,0]","door_history":"[1,0]","location_rts":"[609,425]","trial_type":"two-door-navigation","trial_index":49,"time_elapsed":1655521,"internal_node_id":"0.0-2.0-47.0"},{"group":"hexagon_tri","room_assignment":["grey","green","yellow","purple","red","blue"],"door_color_assignment":["white","black"],"door_generator_assignment":[0,1],"goal":3,"start":4,"action_noise":0,"location_history":"[4,2,1,3]","action_history":"[1,0,0]","door_history":"[1,0,0]","location_rts":"[1110,471,570]","trial_type":"two-door-navigation","trial_index":50,"time_elapsed":1665058,"internal_node_id":"0.0-2.0-48.0"},{"group":"hexagon_tri","room_assignment":["grey","green","yellow","purple","red","blue"],"door_color_assignment":["white","black"],"door_generator_assignment":[0,1],"goal":5,"start":3,"action_noise":0,"location_history":"[3,2,1,5]","action_history":"[0,0,1]","door_history":"[0,0,1]","location_rts":"[614,601,581]","trial_type":"two-door-navigation","trial_index":51,"time_elapsed":1674110,"internal_node_id":"0.0-2.0-49.0"},{"view_history":"[{\"page_index\":0,\"viewing_time\":2081}]","rt":2083,"trial_type":"instructions","trial_index":52,"time_elapsed":1677194,"internal_node_id":"0.0-3.0"},{"view_history":"[{\"page_index\":0,\"viewing_time\":1933},{\"page_index\":1,\"viewing_time\":46590}]","rt":48523,"trial_type":"instructions","trial_index":53,"time_elapsed":1726725,"internal_node_id":"0.0-4.0"},{"group":"hexagon_tri","fractal_assignment":["../images/gry_blk.png","../images/blu_wht.png","../images/ylw_slt.png","../images/pnk_blu.png","../images/cyn_red.png","../images/org_blu.png"],"mutagen_generator_assignment":[0,1],"goal":4,"start":0,"action_noise":0,"location_history":"[0,5,0,1,3,2,1,3,2,1,5,0,1,3,4]","action_history":"[0,1,1,0,0,0,0,0,0,1,1,1,0,1]","mutagen_history":"[0,1,1,0,0,0,0,0,0,1,1,1,0,1]","location_rts":"[5035,3212,2017,666,1864,1156,3836,1077,581,64,834,202,2511,781]","trial_type":"fractal-mutation","trial_index":54,"time_elapsed":1774391,"internal_node_id":"0.0-5.0-0.0"},{"group":"hexagon_tri","fractal_assignment":["../images/gry_blk.png","../images/blu_wht.png","../images/ylw_slt.png","../images/pnk_blu.png","../images/cyn_red.png","../images/org_blu.png"],"mutagen_generator_assignment":[0,1],"goal":3,"start":4,"action_noise":0,"location_history":"[4,0,1,3]","action_history":"[0,1,0]","mutagen_history":"[0,1,0]","location_rts":"[2334,2447,799]","trial_type":"fractal-mutation","trial_index":55,"time_elapsed":1788156,"internal_node_id":"0.0-5.0-1.0"},{"group":"hexagon_tri","fractal_assignment":["../images/gry_blk.png","../images/blu_wht.png","../images/ylw_slt.png","../images/pnk_blu.png","../images/cyn_red.png","../images/org_blu.png"],"mutagen_generator_assignment":[0,1],"goal":5,"start":3,"action_noise":0,"location_history":"[3,2,3,4,2,1,5]","action_history":"[0,1,1,1,0,1]","mutagen_history":"[0,1,1,1,0,1]","location_rts":"[469,834,1301,940,1253,936]","trial_type":"fractal-mutation","trial_index":56,"time_elapsed":1806716,"internal_node_id":"0.0-5.0-2.0"},{"group":"hexagon_tri","fractal_assignment":["../images/gry_blk.png","../images/blu_wht.png","../images/ylw_slt.png","../images/pnk_blu.png","../images/cyn_red.png","../images/org_blu.png"],"mutagen_generator_assignment":[0,1],"goal":2,"start":5,"action_noise":0,"location_history":"[5,4,0,5,4,0,5,0,5,4,2]","action_history":"[0,0,0,0,0,0,1,0,0,1]","mutagen_history":"[0,0,0,0,0,0,1,0,0,1]","location_rts":"[2740,611,1598,1344,691,1193,569,2276,1283,475]","trial_type":"fractal-mutation","trial_index":57,"time_elapsed":1837037,"internal_node_id":"0.0-5.0-3.0"},{"group":"hexagon_tri","fractal_assignment":["../images/gry_blk.png","../images/blu_wht.png","../images/ylw_slt.png","../images/pnk_blu.png","../images/cyn_red.png","../images/org_blu.png"],"mutagen_generator_assignment":[0,1],"goal":1,"start":2,"action_noise":0,"location_history":"[2,1]","action_history":"[0]","mutagen_history":"[0]","location_rts":"[1284]","trial_type":"fractal-mutation","trial_index":58,"time_elapsed":1843614,"internal_node_id":"0.0-5.0-4.0"},{"group":"hexagon_tri","fractal_assignment":["../images/gry_blk.png","../images/blu_wht.png","../images/ylw_slt.png","../images/pnk_blu.png","../images/cyn_red.png","../images/org_blu.png"],"mutagen_generator_assignment":[0,1],"goal":4,"start":1,"action_noise":0,"location_history":"[1,3,4]","action_history":"[0,1]","mutagen_history":"[0,1]","location_rts":"[2109,875]","trial_type":"fractal-mutation","trial_index":59,"time_elapsed":1853418,"internal_node_id":"0.0-5.0-5.0"},{"group":"hexagon_tri","fractal_assignment":["../images/gry_blk.png","../images/blu_wht.png","../images/ylw_slt.png","../images/pnk_blu.png","../images/cyn_red.png","../images/org_blu.png"],"mutagen_generator_assignment":[0,1],"goal":1,"start":4,"action_noise":0,"location_history":"[4,0,5,4,2,3,4,2,1]","action_history":"[0,0,0,1,1,1,1,0]","mutagen_history":"[0,0,0,1,1,1,1,0]","location_rts":"[343,3867,586,936,789,636,1372,554]","trial_type":"fractal-mutation","trial_index":60,"time_elapsed":1877966,"internal_node_id":"0.0-5.0-6.0"},{"group":"hexagon_tri","fractal_assignment":["../images/gry_blk.png","../images/blu_wht.png","../images/ylw_slt.png","../images/pnk_blu.png","../images/cyn_red.png","../images/org_blu.png"],"mutagen_generator_assignment":[0,1],"goal":5,"start":1,"action_noise":0,"location_history":"[1,3,2,1,5]","action_history":"[0,0,0,1]","mutagen_history":"[0,0,0,1]","location_rts":"[733,544,974,447]","trial_type":"fractal-mutation","trial_index":61,"time_elapsed":1890359,"internal_node_id":"0.0-5.0-7.0"},{"group":"hexagon_tri","fractal_assignment":["../images/gry_blk.png","../images/blu_wht.png","../images/ylw_slt.png","../images/pnk_blu.png","../images/cyn_red.png","../images/org_blu.png"],"mutagen_generator_assignment":[0,1],"goal":0,"start":5,"action_noise":0,"location_history":"[5,4,0]","action_history":"[0,0]","mutagen_history":"[0,0]","location_rts":"[549,711]","trial_type":"fractal-mutation","trial_index":62,"time_elapsed":1898321,"internal_node_id":"0.0-5.0-8.0"},{"group":"hexagon_tri","fractal_assignment":["../images/gry_blk.png","../images/blu_wht.png","../images/ylw_slt.png","../images/pnk_blu.png","../images/cyn_red.png","../images/org_blu.png"],"mutagen_generator_assignment":[0,1],"goal":2,"start":0,"action_noise":0,"location_history":"[0,5,4,0,5,0,1,3,2]","action_history":"[0,0,0,0,1,1,0,0]","mutagen_history":"[0,0,0,0,1,1,0,0]","location_rts":"[600,477,385,391,396,832,780,424]","trial_type":"fractal-mutation","trial_index":63,"time_elapsed":1917530,"internal_node_id":"0.0-5.0-9.0"},{"group":"hexagon_tri","fractal_assignment":["../images/gry_blk.png","../images/blu_wht.png","../images/ylw_slt.png","../images/pnk_blu.png","../images/cyn_red.png","../images/org_blu.png"],"mutagen_generator_assignment":[0,1],"goal":3,"start":2,"action_noise":0,"location_history":"[2,1,5,0,1,3]","action_history":"[0,1,1,1,0]","mutagen_history":"[0,1,1,1,0]","location_rts":"[410,675,1082,847,506]","trial_type":"fractal-mutation","trial_index":64,"time_elapsed":1932196,"internal_node_id":"0.0-5.0-10.0"},{"group":"hexagon_tri","fractal_assignment":["../images/gry_blk.png","../images/blu_wht.png","../images/ylw_slt.png","../images/pnk_blu.png","../images/cyn_red.png","../images/org_blu.png"],"mutagen_generator_assignment":[0,1],"goal":0,"start":3,"action_noise":0,"location_history":"[3,2,1,5,4,0]","action_history":"[0,0,1,0,0]","mutagen_history":"[0,0,1,0,0]","location_rts":"[623,469,441,455,422]","trial_type":"fractal-mutation","trial_index":65,"time_elapsed":1945407,"internal_node_id":"0.0-5.0-11.0"},{"group":"hexagon_tri","fractal_assignment":["../images/gry_blk.png","../images/blu_wht.png","../images/ylw_slt.png","../images/pnk_blu.png","../images/cyn_red.png","../images/org_blu.png"],"mutagen_generator_assignment":[0,1],"goal":2,"start":0,"action_noise":0,"location_history":"[0,5,0,1,3,2]","action_history":"[0,1,1,0,0]","mutagen_history":"[0,1,1,0,0]","location_rts":"[569,2650,668,405,417]","trial_type":"fractal-mutation","trial_index":66,"time_elapsed":1961245,"internal_node_id":"0.0-5.0-12.0"},{"group":"hexagon_tri","fractal_assignment":["../images/gry_blk.png","../images/blu_wht.png","../images/ylw_slt.png","../images/pnk_blu.png","../images/cyn_red.png","../images/org_blu.png"],"mutagen_generator_assignment":[0,1],"goal":5,"start":2,"action_noise":0,"location_history":"[2,1,5]","action_history":"[0,1]","mutagen_history":"[0,1]","location_rts":"[1265,597]","trial_type":"fractal-mutation","trial_index":67,"time_elapsed":1969929,"internal_node_id":"0.0-5.0-13.0"},{"group":"hexagon_tri","fractal_assignment":["../images/gry_blk.png","../images/blu_wht.png","../images/ylw_slt.png","../images/pnk_blu.png","../images/cyn_red.png","../images/org_blu.png"],"mutagen_generator_assignment":[0,1],"goal":4,"start":5,"action_noise":0,"location_history":"[5,0,1,3,2,1,3,4]","action_history":"[1,1,0,0,0,0,1]","mutagen_history":"[1,1,0,0,0,0,1]","location_rts":"[3254,907,567,547,416,425,813]","trial_type":"fractal-mutation","trial_index":68,"time_elapsed":1990622,"internal_node_id":"0.0-5.0-14.0"},{"group":"hexagon_tri","fractal_assignment":["../images/gry_blk.png","../images/blu_wht.png","../images/ylw_slt.png","../images/pnk_blu.png","../images/cyn_red.png","../images/org_blu.png"],"mutagen_generator_assignment":[0,1],"goal":3,"start":4,"action_noise":0,"location_history":"[4,0,1,5,4,0,5,0,5,4,2,1,3]","action_history":"[0,1,1,0,0,0,1,0,0,1,0,0]","mutagen_history":"[0,1,1,0,0,0,1,0,0,1,0,0]","location_rts":"[805,2096,1264,429,493,391,616,430,548,1669,658,450]","trial_type":"fractal-mutation","trial_index":69,"time_elapsed":2021669,"internal_node_id":"0.0-5.0-15.0"},{"group":"hexagon_tri","fractal_assignment":["../images/gry_blk.png","../images/blu_wht.png","../images/ylw_slt.png","../images/pnk_blu.png","../images/cyn_red.png","../images/org_blu.png"],"mutagen_generator_assignment":[0,1],"goal":1,"start":3,"action_noise":0,"location_history":"[3,2,3,4,0,1]","action_history":"[0,1,1,0,1]","mutagen_history":"[0,1,1,0,1]","location_rts":"[2378,1150,789,789,1103]","trial_type":"fractal-mutation","trial_index":70,"time_elapsed":2039169,"internal_node_id":"0.0-5.0-16.0"},{"group":"hexagon_tri","fractal_assignment":["../images/gry_blk.png","../images/blu_wht.png","../images/ylw_slt.png","../images/pnk_blu.png","../images/cyn_red.png","../images/org_blu.png"],"mutagen_generator_assignment":[0,1],"goal":5,"start":1,"action_noise":0,"location_history":"[1,3,2,1,3,4,2,3,2,3,2,1,5]","action_history":"[0,0,0,0,1,1,1,0,1,0,0,1]","mutagen_history":"[0,0,0,0,1,1,1,0,1,0,0,1]","location_rts":"[456,2672,597,945,594,520,499,447,551,588,979,657]","trial_type":"fractal-mutation","trial_index":71,"time_elapsed":2069702,"internal_node_id":"0.0-5.0-17.0"},{"group":"hexagon_tri","fractal_assignment":["../images/gry_blk.png","../images/blu_wht.png","../images/ylw_slt.png","../images/pnk_blu.png","../images/cyn_red.png","../images/org_blu.png"],"mutagen_generator_assignment":[0,1],"goal":4,"start":5,"action_noise":0,"location_history":"[5,4]","action_history":"[0]","mutagen_history":"[0]","location_rts":"[1083]","trial_type":"fractal-mutation","trial_index":72,"time_elapsed":2076097,"internal_node_id":"0.0-5.0-18.0"},{"group":"hexagon_tri","fractal_assignment":["../images/gry_blk.png","../images/blu_wht.png","../images/ylw_slt.png","../images/pnk_blu.png","../images/cyn_red.png","../images/org_blu.png"],"mutagen_generator_assignment":[0,1],"goal":0,"start":4,"action_noise":0,"location_history":"[4,0]","action_history":"[0]","mutagen_history":"[0]","location_rts":"[261]","trial_type":"fractal-mutation","trial_index":73,"time_elapsed":2081810,"internal_node_id":"0.0-5.0-19.0"},{"group":"hexagon_tri","fractal_assignment":["../images/gry_blk.png","../images/blu_wht.png","../images/ylw_slt.png","../images/pnk_blu.png","../images/cyn_red.png","../images/org_blu.png"],"mutagen_generator_assignment":[0,1],"goal":1,"start":0,"action_noise":0,"location_history":"[0,5,0,1]","action_history":"[0,1,1]","mutagen_history":"[0,1,1]","location_rts":"[506,954,662]","trial_type":"fractal-mutation","trial_index":74,"time_elapsed":2092237,"internal_node_id":"0.0-5.0-20.0"},{"group":"hexagon_tri","fractal_assignment":["../images/gry_blk.png","../images/blu_wht.png","../images/ylw_slt.png","../images/pnk_blu.png","../images/cyn_red.png","../images/org_blu.png"],"mutagen_generator_assignment":[0,1],"goal":3,"start":1,"action_noise":0,"location_history":"[1,3]","action_history":"[0]","mutagen_history":"[0]","location_rts":"[1125]","trial_type":"fractal-mutation","trial_index":75,"time_elapsed":2098741,"internal_node_id":"0.0-5.0-21.0"},{"group":"hexagon_tri","fractal_assignment":["../images/gry_blk.png","../images/blu_wht.png","../images/ylw_slt.png","../images/pnk_blu.png","../images/cyn_red.png","../images/org_blu.png"],"mutagen_generator_assignment":[0,1],"goal":2,"start":3,"action_noise":0,"location_history":"[3,2]","action_history":"[0]","mutagen_history":"[0]","location_rts":"[289]","trial_type":"fractal-mutation","trial_index":76,"time_elapsed":2104358,"internal_node_id":"0.0-5.0-22.0"},{"group":"hexagon_tri","fractal_assignment":["../images/gry_blk.png","../images/blu_wht.png","../images/ylw_slt.png","../images/pnk_blu.png","../images/cyn_red.png","../images/org_blu.png"],"mutagen_generator_assignment":[0,1],"goal":0,"start":2,"action_noise":0,"location_history":"[2,1,3,2,1,5,0]","action_history":"[0,0,0,0,1,1]","mutagen_history":"[0,0,0,0,1,1]","location_rts":"[319,510,420,516,1685,874]","trial_type":"fractal-mutation","trial_index":77,"time_elapsed":2121121,"internal_node_id":"0.0-5.0-23.0"},{"group":"hexagon_tri","fractal_assignment":["../images/gry_blk.png","../images/blu_wht.png","../images/ylw_slt.png","../images/pnk_blu.png","../images/cyn_red.png","../images/org_blu.png"],"mutagen_generator_assignment":[0,1],"goal":3,"start":0,"action_noise":0,"location_history":"[0,5,4,0,1,3]","action_history":"[0,0,0,1,0]","mutagen_history":"[0,0,0,1,0]","location_rts":"[1272,572,681,1011,727]","trial_type":"fractal-mutation","trial_index":78,"time_elapsed":2136084,"internal_node_id":"0.0-5.0-24.0"},{"group":"hexagon_tri","fractal_assignment":["../images/gry_blk.png","../images/blu_wht.png","../images/ylw_slt.png","../images/pnk_blu.png","../images/cyn_red.png","../images/org_blu.png"],"mutagen_generator_assignment":[0,1],"goal":1,"start":3,"action_noise":0,"location_history":"[3,2,1]","action_history":"[0,0]","mutagen_history":"[0,0]","location_rts":"[1791,430]","trial_type":"fractal-mutation","trial_index":79,"time_elapsed":2144940,"internal_node_id":"0.0-5.0-25.0"},{"group":"hexagon_tri","fractal_assignment":["../images/gry_blk.png","../images/blu_wht.png","../images/ylw_slt.png","../images/pnk_blu.png","../images/cyn_red.png","../images/org_blu.png"],"mutagen_generator_assignment":[0,1],"goal":2,"start":1,"action_noise":0,"location_history":"[1,3,4,2]","action_history":"[0,1,1]","mutagen_history":"[0,1,1]","location_rts":"[307,661,631]","trial_type":"fractal-mutation","trial_index":80,"time_elapsed":2155061,"internal_node_id":"0.0-5.0-26.0"},{"group":"hexagon_tri","fractal_assignment":["../images/gry_blk.png","../images/blu_wht.png","../images/ylw_slt.png","../images/pnk_blu.png","../images/cyn_red.png","../images/org_blu.png"],"mutagen_generator_assignment":[0,1],"goal":5,"start":2,"action_noise":0,"location_history":"[2,3,2,3,4,0,5]","action_history":"[1,0,1,1,0,0]","mutagen_history":"[1,0,1,1,0,0]","location_rts":"[887,582,655,468,491,525]","trial_type":"fractal-mutation","trial_index":81,"time_elapsed":2171325,"internal_node_id":"0.0-5.0-27.0"},{"group":"hexagon_tri","fractal_assignment":["../images/gry_blk.png","../images/blu_wht.png","../images/ylw_slt.png","../images/pnk_blu.png","../images/cyn_red.png","../images/org_blu.png"],"mutagen_generator_assignment":[0,1],"goal":4,"start":5,"action_noise":0,"location_history":"[5,4]","action_history":"[0]","mutagen_history":"[0]","location_rts":"[512]","trial_type":"fractal-mutation","trial_index":82,"time_elapsed":2177140,"internal_node_id":"0.0-5.0-28.0"},{"group":"hexagon_tri","fractal_assignment":["../images/gry_blk.png","../images/blu_wht.png","../images/ylw_slt.png","../images/pnk_blu.png","../images/cyn_red.png","../images/org_blu.png"],"mutagen_generator_assignment":[0,1],"goal":5,"start":4,"action_noise":0,"location_history":"[4,0,1,5]","action_history":"[0,1,1]","mutagen_history":"[0,1,1]","location_rts":"[318,854,704]","trial_type":"fractal-mutation","trial_index":83,"time_elapsed":2187421,"internal_node_id":"0.0-5.0-29.0"},{"group":"hexagon_tri","fractal_assignment":["../images/gry_blk.png","../images/blu_wht.png","../images/ylw_slt.png","../images/pnk_blu.png","../images/cyn_red.png","../images/org_blu.png"],"mutagen_generator_assignment":[0,1],"goal":3,"start":5,"action_noise":0,"location_history":"[5,0,5,4,0,1,3]","action_history":"[1,0,0,0,1,0]","mutagen_history":"[1,0,0,0,1,0]","location_rts":"[725,1002,467,638,587,540]","trial_type":"fractal-mutation","trial_index":84,"time_elapsed":2203686,"internal_node_id":"0.0-5.0-30.0"},{"group":"hexagon_tri","fractal_assignment":["../images/gry_blk.png","../images/blu_wht.png","../images/ylw_slt.png","../images/pnk_blu.png","../images/cyn_red.png","../images/org_blu.png"],"mutagen_generator_assignment":[0,1],"goal":0,"start":3,"action_noise":0,"location_history":"[3,2,1,3,2,1,5,0]","action_history":"[0,0,0,0,0,1,1]","mutagen_history":"[0,0,0,0,0,1,1]","location_rts":"[530,357,583,777,350,338,683]","trial_type":"fractal-mutation","trial_index":85,"time_elapsed":2220897,"internal_node_id":"0.0-5.0-31.0"},{"group":"hexagon_tri","fractal_assignment":["../images/gry_blk.png","../images/blu_wht.png","../images/ylw_slt.png","../images/pnk_blu.png","../images/cyn_red.png","../images/org_blu.png"],"mutagen_generator_assignment":[0,1],"goal":4,"start":0,"action_noise":0,"location_history":"[0,5,4]","action_history":"[0,0]","mutagen_history":"[0,0]","location_rts":"[461,1084]","trial_type":"fractal-mutation","trial_index":86,"time_elapsed":2229032,"internal_node_id":"0.0-5.0-32.0"},{"group":"hexagon_tri","fractal_assignment":["../images/gry_blk.png","../images/blu_wht.png","../images/ylw_slt.png","../images/pnk_blu.png","../images/cyn_red.png","../images/org_blu.png"],"mutagen_generator_assignment":[0,1],"goal":1,"start":4,"action_noise":0,"location_history":"[4,0,1]","action_history":"[0,1]","mutagen_history":"[0,1]","location_rts":"[304,747]","trial_type":"fractal-mutation","trial_index":87,"time_elapsed":2236949,"internal_node_id":"0.0-5.0-33.0"},{"group":"hexagon_tri","fractal_assignment":["../images/gry_blk.png","../images/blu_wht.png","../images/ylw_slt.png","../images/pnk_blu.png","../images/cyn_red.png","../images/org_blu.png"],"mutagen_generator_assignment":[0,1],"goal":2,"start":1,"action_noise":0,"location_history":"[1,3,4,2]","action_history":"[0,1,1]","mutagen_history":"[0,1,1]","location_rts":"[324,811,463]","trial_type":"fractal-mutation","trial_index":88,"time_elapsed":2247192,"internal_node_id":"0.0-5.0-34.0"},{"group":"hexagon_tri","fractal_assignment":["../images/gry_blk.png","../images/blu_wht.png","../images/ylw_slt.png","../images/pnk_blu.png","../images/cyn_red.png","../images/org_blu.png"],"mutagen_generator_assignment":[0,1],"goal":0,"start":2,"action_noise":0,"location_history":"[2,3,4,0]","action_history":"[1,1,0]","mutagen_history":"[1,1,0]","location_rts":"[164,611,807]","trial_type":"fractal-mutation","trial_index":89,"time_elapsed":2257184,"internal_node_id":"0.0-5.0-35.0"},{"group":"hexagon_tri","fractal_assignment":["../images/gry_blk.png","../images/blu_wht.png","../images/ylw_slt.png","../images/pnk_blu.png","../images/cyn_red.png","../images/org_blu.png"],"mutagen_generator_assignment":[0,1],"goal":5,"start":0,"action_noise":0,"location_history":"[0,1,5]","action_history":"[1,1]","mutagen_history":"[1,1]","location_rts":"[1546,1284]","trial_type":"fractal-mutation","trial_index":90,"time_elapsed":2267178,"internal_node_id":"0.0-5.0-36.0"},{"group":"hexagon_tri","fractal_assignment":["../images/gry_blk.png","../images/blu_wht.png","../images/ylw_slt.png","../images/pnk_blu.png","../images/cyn_red.png","../images/org_blu.png"],"mutagen_generator_assignment":[0,1],"goal":2,"start":5,"action_noise":0,"location_history":"[5,4,0,5,0,5,0,1,3,2]","action_history":"[0,0,0,1,0,1,1,0,0]","mutagen_history":"[0,0,0,1,0,1,1,0,0]","location_rts":"[292,408,521,407,612,908,608,869,378]","trial_type":"fractal-mutation","trial_index":91,"time_elapsed":2288614,"internal_node_id":"0.0-5.0-37.0"},{"group":"hexagon_tri","fractal_assignment":["../images/gry_blk.png","../images/blu_wht.png","../images/ylw_slt.png","../images/pnk_blu.png","../images/cyn_red.png","../images/org_blu.png"],"mutagen_generator_assignment":[0,1],"goal":1,"start":2,"action_noise":0,"location_history":"[2,1]","action_history":"[0]","mutagen_history":"[0]","location_rts":"[1738]","trial_type":"fractal-mutation","trial_index":92,"time_elapsed":2295681,"internal_node_id":"0.0-5.0-38.0"},{"group":"hexagon_tri","fractal_assignment":["../images/gry_blk.png","../images/blu_wht.png","../images/ylw_slt.png","../images/pnk_blu.png","../images/cyn_red.png","../images/org_blu.png"],"mutagen_generator_assignment":[0,1],"goal":4,"start":1,"action_noise":0,"location_history":"[1,3,2,1,5,4]","action_history":"[0,0,0,1,0]","mutagen_history":"[0,0,0,1,0]","location_rts":"[318,454,432,453,566]","trial_type":"fractal-mutation","trial_index":93,"time_elapsed":2308920,"internal_node_id":"0.0-5.0-39.0"},{"group":"hexagon_tri","fractal_assignment":["../images/gry_blk.png","../images/blu_wht.png","../images/ylw_slt.png","../images/pnk_blu.png","../images/cyn_red.png","../images/org_blu.png"],"mutagen_generator_assignment":[0,1],"goal":3,"start":4,"action_noise":0,"location_history":"[4,0,5,4,0,1,3]","action_history":"[0,0,0,0,1,0]","mutagen_history":"[0,0,0,0,1,0]","location_rts":"[753,368,560,1177,373,895]","trial_type":"fractal-mutation","trial_index":94,"time_elapsed":2325221,"internal_node_id":"0.0-5.0-40.0"},{"group":"hexagon_tri","fractal_assignment":["../images/gry_blk.png","../images/blu_wht.png","../images/ylw_slt.png","../images/pnk_blu.png","../images/cyn_red.png","../images/org_blu.png"],"mutagen_generator_assignment":[0,1],"goal":5,"start":3,"action_noise":0,"location_history":"[3,2,3,4,0,1,3,2,1,5]","action_history":"[0,1,1,0,1,0,0,0,1]","mutagen_history":"[0,1,1,0,1,0,0,0,1]","location_rts":"[483,655,1052,861,924,551,393,795,876]","trial_type":"fractal-mutation","trial_index":95,"time_elapsed":2348767,"internal_node_id":"0.0-5.0-41.0"},{"group":"hexagon_tri","fractal_assignment":["../images/gry_blk.png","../images/blu_wht.png","../images/ylw_slt.png","../images/pnk_blu.png","../images/cyn_red.png","../images/org_blu.png"],"mutagen_generator_assignment":[0,1],"goal":3,"start":5,"action_noise":0,"location_history":"[5,4,0,5,0,1,3]","action_history":"[0,0,0,1,1,0]","mutagen_history":"[0,0,0,1,1,0]","location_rts":"[725,512,451,99,686,392]","trial_type":"fractal-mutation","trial_index":96,"time_elapsed":2364045,"internal_node_id":"0.0-5.0-42.0"},{"group":"hexagon_tri","fractal_assignment":["../images/gry_blk.png","../images/blu_wht.png","../images/ylw_slt.png","../images/pnk_blu.png","../images/cyn_red.png","../images/org_blu.png"],"mutagen_generator_assignment":[0,1],"goal":0,"start":3,"action_noise":0,"location_history":"[3,2,3,4,0]","action_history":"[0,1,1,0]","mutagen_history":"[0,1,1,0]","location_rts":"[865,602,757,557]","trial_type":"fractal-mutation","trial_index":97,"time_elapsed":2376606,"internal_node_id":"0.0-5.0-43.0"},{"group":"hexagon_tri","fractal_assignment":["../images/gry_blk.png","../images/blu_wht.png","../images/ylw_slt.png","../images/pnk_blu.png","../images/cyn_red.png","../images/org_blu.png"],"mutagen_generator_assignment":[0,1],"goal":2,"start":0,"action_noise":0,"location_history":"[0,5,4,0,1,3,2]","action_history":"[0,0,0,1,0,0]","mutagen_history":"[0,0,0,1,0,0]","location_rts":"[692,455,485,627,439,392]","trial_type":"fractal-mutation","trial_index":98,"time_elapsed":2391936,"internal_node_id":"0.0-5.0-44.0"},{"group":"hexagon_tri","fractal_assignment":["../images/gry_blk.png","../images/blu_wht.png","../images/ylw_slt.png","../images/pnk_blu.png","../images/cyn_red.png","../images/org_blu.png"],"mutagen_generator_assignment":[0,1],"goal":4,"start":2,"action_noise":0,"location_history":"[2,1,5,4]","action_history":"[0,1,0]","mutagen_history":"[0,1,0]","location_rts":"[1257,642,554]","trial_type":"fractal-mutation","trial_index":99,"time_elapsed":2402563,"internal_node_id":"0.0-5.0-45.0"},{"group":"hexagon_tri","fractal_assignment":["../images/gry_blk.png","../images/blu_wht.png","../images/ylw_slt.png","../images/pnk_blu.png","../images/cyn_red.png","../images/org_blu.png"],"mutagen_generator_assignment":[0,1],"goal":1,"start":4,"action_noise":0,"location_history":"[4,0,1]","action_history":"[0,1]","mutagen_history":"[0,1]","location_rts":"[695,589]","trial_type":"fractal-mutation","trial_index":100,"time_elapsed":2410721,"internal_node_id":"0.0-5.0-46.0"},{"group":"hexagon_tri","fractal_assignment":["../images/gry_blk.png","../images/blu_wht.png","../images/ylw_slt.png","../images/pnk_blu.png","../images/cyn_red.png","../images/org_blu.png"],"mutagen_generator_assignment":[0,1],"goal":4,"start":1,"action_noise":0,"location_history":"[1,3,4]","action_history":"[0,1]","mutagen_history":"[0,1]","location_rts":"[621,621]","trial_type":"fractal-mutation","trial_index":101,"time_elapsed":2418855,"internal_node_id":"0.0-5.0-47.0"},{"group":"hexagon_tri","fractal_assignment":["../images/gry_blk.png","../images/blu_wht.png","../images/ylw_slt.png","../images/pnk_blu.png","../images/cyn_red.png","../images/org_blu.png"],"mutagen_generator_assignment":[0,1],"goal":3,"start":4,"action_noise":0,"location_history":"[4,0,1,3]","action_history":"[0,1,0]","mutagen_history":"[0,1,0]","location_rts":"[651,616,541]","trial_type":"fractal-mutation","trial_index":102,"time_elapsed":2428834,"internal_node_id":"0.0-5.0-48.0"},{"group":"hexagon_tri","fractal_assignment":["../images/gry_blk.png","../images/blu_wht.png","../images/ylw_slt.png","../images/pnk_blu.png","../images/cyn_red.png","../images/org_blu.png"],"mutagen_generator_assignment":[0,1],"goal":5,"start":3,"action_noise":0,"location_history":"[3,2,3,4,2,3,2,3,2,1,3,2,1,5]","action_history":"[0,1,1,1,1,0,1,0,0,0,0,0,1]","mutagen_history":"[0,1,1,1,1,0,1,0,0,0,0,0,1]","location_rts":"[858,654,607,880,676,367,899,628,357,482,491,712,378]","trial_type":"fractal-mutation","trial_index":103,"time_elapsed":2459106,"internal_node_id":"0.0-5.0-49.0"},{"view_history":"[{\"page_index\":0,\"viewing_time\":9125}]","rt":9125,"trial_type":"instructions","trial_index":104,"time_elapsed":2469233,"internal_node_id":"0.0-6.0"},{"rt":1252,"responses":"{\"Q0\":\"\"}","trial_type":"survey-text","trial_index":105,"time_elapsed":2471504,"internal_node_id":"0.0-7.0"}]