[{"view_history":"[{\"page_index\":0,\"viewing_time\":1108406},{\"page_index\":1,\"viewing_time\":121520},{\"page_index\":2,\"viewing_time\":84560}]","rt":1314488,"trial_type":"instructions","trial_index":0,"time_elapsed":1314488,"internal_node_id":"0.0-0.0"},{"view_history":"[{\"page_index\":0,\"viewing_time\":19916},{\"page_index\":1,\"viewing_time\":76984}]","rt":96902,"trial_type":"instructions","trial_index":1,"time_elapsed":1412392,"internal_node_id":"0.0-1.0"},{"group":"hexagon_tri","room_assignment":["blue","green","yellow","red","purple","grey"],"door_color_assignment":["white","black"],"door_generator_assignment":[0,1],"goal":4,"start":0,"action_noise":0,"location_history":"[0,5,4]","action_history":"[0,0]","door_history":"[0,0]","location_rts":"[9350,4606]","trial_type":"two-door-navigation","trial_index":2,"time_elapsed":1432410,"internal_node_id":"0.0-2.0-0.0"},{"group":"hexagon_tri","room_assignment":["blue","green","yellow","red","purple","grey"],"door_color_assignment":["white","black"],"door_generator_assignment":[0,1],"goal":3,"start":4,"action_noise":0,"location_history":"[4,2,3]","action_history":"[1,1]","door_history":"[1,1]","location_rts":"[31638,6022]","trial_type":"two-door-navigation","trial_index":3,"time_elapsed":1476150,"internal_node_id":"0.0-2.0-1.0"},{"group":"hexagon_tri","room_assignment":["blue","green","yellow","red","purple","grey"],"door_color_assignment":["white","black"],"door_generator_assignment":[0,1],"goal":5,"start":3,"action_noise":0,"location_history":"[3,2,1,3,2,3,4,2,3,4,0,5]","action_history":"[0,0,0,0,1,1,1,1,1,0,0]","door_history":"[0,0,0,0,1,1,1,1,1,0,0]","location_rts":"[17050,15458,5964,6276,12252,4032,5766,5340,20916,5920,36598]","trial_type":"two-door-navigation","trial_index":4,"time_elapsed":1627062,"internal_node_id":"0.0-2.0-2.0"},{"group":"hexagon_tri","room_assignment":["blue","green","yellow","red","purple","grey"],"door_color_assignment":["white","black"],"door_generator_assignment":[0,1],"goal":2,"start":5,"action_noise":0,"location_history":"[5,4,2]","action_history":"[0,1]","door_history":"[0,1]","location_rts":"[39472,9868]","trial_type":"two-door-navigation","trial_index":5,"time_elapsed":1682464,"internal_node_id":"0.0-2.0-3.0"},{"group":"hexagon_tri","room_assignment":["blue","green","yellow","red","purple","grey"],"door_color_assignment":["white","black"],"door_generator_assignment":[0,1],"goal":1,"start":2,"action_noise":0,"location_history":"[2,1]","action_history":"[0]","door_history":"[0]","location_rts":"[22518]","trial_type":"two-door-navigation","trial_index":6,"time_elapsed":1710044,"internal_node_id":"0.0-2.0-4.0"},{"group":"hexagon_tri","room_assignment":["blue","green","yellow","red","purple","grey"],"door_color_assignment":["white","black"],"door_generator_assignment":[0,1],"goal":4,"start":1,"action_noise":0,"location_history":"[1,3,4]","action_history":"[0,1]","door_history":"[0,1]","location_rts":"[38614,5934]","trial_type":"two-door-navigation","trial_index":7,"time_elapsed":1760646,"internal_node_id":"0.0-2.0-5.0"},{"group":"hexagon_tri","room_assignment":["blue","green","yellow","red","purple","grey"],"door_color_assignment":["white","black"],"door_generator_assignment":[0,1],"goal":1,"start":4,"action_noise":0,"location_history":"[4,2,1]","action_history":"[1,0]","door_history":"[1,0]","location_rts":"[32948,8230]","trial_type":"two-door-navigation","trial_index":8,"time_elapsed":1807924,"internal_node_id":"0.0-2.0-6.0"},{"group":"hexagon_tri","room_assignment":["blue","green","yellow","red","purple","grey"],"door_color_assignment":["white","black"],"door_generator_assignment":[0,1],"goal":5,"start":1,"action_noise":0,"location_history":"[1,5]","action_history":"[1]","door_history":"[1]","location_rts":"[41452]","trial_type":"two-door-navigation","trial_index":9,"time_elapsed":1854416,"internal_node_id":"0.0-2.0-7.0"},{"group":"hexagon_tri","room_assignment":["blue","green","yellow","red","purple","grey"],"door_color_assignment":["white","black"],"door_generator_assignment":[0,1],"goal":0,"start":5,"action_noise":0,"location_history":"[5,4,0]","action_history":"[0,0]","door_history":"[0,0]","location_rts":"[15770,1570]","trial_type":"two-door-navigation","trial_index":10,"time_elapsed":1877814,"internal_node_id":"0.0-2.0-8.0"},{"group":"hexagon_tri","room_assignment":["blue","green","yellow","red","purple","grey"],"door_color_assignment":["white","black"],"door_generator_assignment":[0,1],"goal":2,"start":0,"action_noise":0,"location_history":"[0,5,4,2]","action_history":"[0,0,1]","door_history":"[0,0,1]","location_rts":"[22252,5494,5570]","trial_type":"two-door-navigation","trial_index":11,"time_elapsed":1918230,"internal_node_id":"0.0-2.0-9.0"},{"group":"hexagon_tri","room_assignment":["blue","green","yellow","red","purple","grey"],"door_color_assignment":["white","black"],"door_generator_assignment":[0,1],"goal":3,"start":2,"action_noise":0,"location_history":"[2,1,3]","action_history":"[0,0]","door_history":"[0,0]","location_rts":"[23148,2282]","trial_type":"two-door-navigation","trial_index":12,"time_elapsed":1949756,"internal_node_id":"0.0-2.0-10.0"},{"group":"hexagon_tri","room_assignment":["blue","green","yellow","red","purple","grey"],"door_color_assignment":["white","black"],"door_generator_assignment":[0,1],"goal":0,"start":3,"action_noise":0,"location_history":"[3,4,0]","action_history":"[1,0]","door_history":"[1,0]","location_rts":"[25286,1456]","trial_type":"two-door-navigation","trial_index":13,"time_elapsed":1982556,"internal_node_id":"0.0-2.0-11.0"},{"group":"hexagon_tri","room_assignment":["blue","green","yellow","red","purple","grey"],"door_color_assignment":["white","black"],"door_generator_assignment":[0,1],"goal":2,"start":0,"action_noise":0,"location_history":"[0,1,3,2]","action_history":"[1,0,0]","door_history":"[1,0,0]","location_rts":"[52750,17120,11192]","trial_type":"two-door-navigation","trial_index":14,"time_elapsed":2070736,"internal_node_id":"0.0-2.0-12.0"},{"group":"hexagon_tri","room_assignment":["blue","green","yellow","red","purple","grey"],"door_color_assignment":["white","black"],"door_generator_assignment":[0,1],"goal":5,"start":2,"action_noise":0,"location_history":"[2,3,4,0,5]","action_history":"[1,1,0,0]","door_history":"[1,1,0,0]","location_rts":"[28682,12338,6794,11234]","trial_type":"two-door-navigation","trial_index":15,"time_elapsed":2138052,"internal_node_id":"0.0-2.0-13.0"},{"group":"hexagon_tri","room_assignment":["blue","green","yellow","red","purple","grey"],"door_color_assignment":["white","black"],"door_generator_assignment":[0,1],"goal":4,"start":5,"action_noise":0,"location_history":"[5,4]","action_history":"[0]","door_history":"[0]","location_rts":"[16406]","trial_type":"two-door-navigation","trial_index":16,"time_elapsed":2159482,"internal_node_id":"0.0-2.0-14.0"},{"group":"hexagon_tri","room_assignment":["blue","green","yellow","red","purple","grey"],"door_color_assignment":["white","black"],"door_generator_assignment":[0,1],"goal":3,"start":4,"action_noise":0,"location_history":"[4,2,1,3]","action_history":"[1,0,0]","door_history":"[1,0,0]","location_rts":"[34448,6544,11294]","trial_type":"two-door-navigation","trial_index":17,"time_elapsed":2218828,"internal_node_id":"0.0-2.0-15.0"},{"group":"hexagon_tri","room_assignment":["blue","green","yellow","red","purple","grey"],"door_color_assignment":["white","black"],"door_generator_assignment":[0,1],"goal":1,"start":3,"action_noise":0,"location_history":"[3,2,1]","action_history":"[0,0]","door_history":"[0,0]","location_rts":"[17054,13720]","trial_type":"two-door-navigation","trial_index":18,"time_elapsed":2255670,"internal_node_id":"0.0-2.0-16.0"},{"group":"hexagon_tri","room_assignment":["blue","green","yellow","red","purple","grey"],"door_color_assignment":["white","black"],"door_generator_assignment":[0,1],"goal":5,"start":1,"action_noise":0,"location_history":"[1,5]","action_history":"[1]","door_history":"[1]","location_rts":"[24204]","trial_type":"two-door-navigation","trial_index":19,"time_elapsed":2284910,"internal_node_id":"0.0-2.0-17.0"},{"group":"hexagon_tri","room_assignment":["blue","green","yellow","red","purple","grey"],"door_color_assignment":["white","black"],"door_generator_assignment":[0,1],"goal":4,"start":5,"action_noise":0,"location_history":"[5,4]","action_history":"[0]","door_history":"[0]","location_rts":"[20696]","trial_type":"two-door-navigation","trial_index":20,"time_elapsed":2310654,"internal_node_id":"0.0-2.0-18.0"},{"group":"hexagon_tri","room_assignment":["blue","green","yellow","red","purple","grey"],"door_color_assignment":["white","black"],"door_generator_assignment":[0,1],"goal":0,"start":4,"action_noise":0,"location_history":"[4,0]","action_history":"[0]","door_history":"[0]","location_rts":"[23156]","trial_type":"two-door-navigation","trial_index":21,"time_elapsed":2338880,"internal_node_id":"0.0-2.0-19.0"},{"group":"hexagon_tri","room_assignment":["blue","green","yellow","red","purple","grey"],"door_color_assignment":["white","black"],"door_generator_assignment":[0,1],"goal":1,"start":0,"action_noise":0,"location_history":"[0,1]","action_history":"[1]","door_history":"[1]","location_rts":"[15034]","trial_type":"two-door-navigation","trial_index":22,"time_elapsed":2358948,"internal_node_id":"0.0-2.0-20.0"},{"group":"hexagon_tri","room_assignment":["blue","green","yellow","red","purple","grey"],"door_color_assignment":["white","black"],"door_generator_assignment":[0,1],"goal":3,"start":1,"action_noise":0,"location_history":"[1,3]","action_history":"[0]","door_history":"[0]","location_rts":"[17396]","trial_type":"two-door-navigation","trial_index":23,"time_elapsed":2381376,"internal_node_id":"0.0-2.0-21.0"},{"group":"hexagon_tri","room_assignment":["blue","green","yellow","red","purple","grey"],"door_color_assignment":["white","black"],"door_generator_assignment":[0,1],"goal":2,"start":3,"action_noise":0,"location_history":"[3,2]","action_history":"[0]","door_history":"[0]","location_rts":"[31100]","trial_type":"two-door-navigation","trial_index":24,"time_elapsed":2417514,"internal_node_id":"0.0-2.0-22.0"},{"group":"hexagon_tri","room_assignment":["blue","green","yellow","red","purple","grey"],"door_color_assignment":["white","black"],"door_generator_assignment":[0,1],"goal":0,"start":2,"action_noise":0,"location_history":"[2,3,2,3,4,0]","action_history":"[1,0,1,1,0]","door_history":"[1,0,1,1,0]","location_rts":"[57184,10350,24968,8324,8980]","trial_type":"two-door-navigation","trial_index":25,"time_elapsed":2536492,"internal_node_id":"0.0-2.0-23.0"},{"group":"hexagon_tri","room_assignment":["blue","green","yellow","red","purple","grey"],"door_color_assignment":["white","black"],"door_generator_assignment":[0,1],"goal":3,"start":0,"action_noise":0,"location_history":"[0,1,3]","action_history":"[1,0]","door_history":"[1,0]","location_rts":"[39532,8208]","trial_type":"two-door-navigation","trial_index":26,"time_elapsed":2590306,"internal_node_id":"0.0-2.0-24.0"},{"group":"hexagon_tri","room_assignment":["blue","green","yellow","red","purple","grey"],"door_color_assignment":["white","black"],"door_generator_assignment":[0,1],"goal":1,"start":3,"action_noise":0,"location_history":"[3,2,1]","action_history":"[0,0]","door_history":"[0,0]","location_rts":"[52072,566]","trial_type":"two-door-navigation","trial_index":27,"time_elapsed":2649000,"internal_node_id":"0.0-2.0-25.0"},{"group":"hexagon_tri","room_assignment":["blue","green","yellow","red","purple","grey"],"door_color_assignment":["white","black"],"door_generator_assignment":[0,1],"goal":2,"start":1,"action_noise":0,"location_history":"[1,3,2]","action_history":"[0,0]","door_history":"[0,0]","location_rts":"[77698,3896]","trial_type":"two-door-navigation","trial_index":28,"time_elapsed":2736668,"internal_node_id":"0.0-2.0-26.0"},{"group":"hexagon_tri","room_assignment":["blue","green","yellow","red","purple","grey"],"door_color_assignment":["white","black"],"door_generator_assignment":[0,1],"goal":5,"start":2,"action_noise":0,"location_history":"[2,1,5]","action_history":"[0,1]","door_history":"[0,1]","location_rts":"[44902,9360]","trial_type":"two-door-navigation","trial_index":29,"time_elapsed":2796966,"internal_node_id":"0.0-2.0-27.0"},{"group":"hexagon_tri","room_assignment":["blue","green","yellow","red","purple","grey"],"door_color_assignment":["white","black"],"door_generator_assignment":[0,1],"goal":4,"start":5,"action_noise":0,"location_history":"[5,4]","action_history":"[0]","door_history":"[0]","location_rts":"[25708]","trial_type":"two-door-navigation","trial_index":30,"time_elapsed":2827776,"internal_node_id":"0.0-2.0-28.0"},{"group":"hexagon_tri","room_assignment":["blue","green","yellow","red","purple","grey"],"door_color_assignment":["white","black"],"door_generator_assignment":[0,1],"goal":5,"start":4,"action_noise":0,"location_history":"[4,0,5]","action_history":"[0,0]","door_history":"[0,0]","location_rts":"[40066,4934]","trial_type":"two-door-navigation","trial_index":31,"time_elapsed":2878834,"internal_node_id":"0.0-2.0-29.0"},{"group":"hexagon_tri","room_assignment":["blue","green","yellow","red","purple","grey"],"door_color_assignment":["white","black"],"door_generator_assignment":[0,1],"goal":3,"start":5,"action_noise":0,"location_history":"[5,4,2,3]","action_history":"[0,1,1]","door_history":"[0,1,1]","location_rts":"[97208,7244,7670]","trial_type":"two-door-navigation","trial_index":32,"time_elapsed":2998178,"internal_node_id":"0.0-2.0-30.0"},{"group":"hexagon_tri","room_assignment":["blue","green","yellow","red","purple","grey"],"door_color_assignment":["white","black"],"door_generator_assignment":[0,1],"goal":0,"start":3,"action_noise":0,"location_history":"[3,4,0]","action_history":"[1,0]","door_history":"[1,0]","location_rts":"[24454,10304]","trial_type":"two-door-navigation","trial_index":33,"time_elapsed":3038986,"internal_node_id":"0.0-2.0-31.0"},{"group":"hexagon_tri","room_assignment":["blue","green","yellow","red","purple","grey"],"door_color_assignment":["white","black"],"door_generator_assignment":[0,1],"goal":4,"start":0,"action_noise":0,"location_history":"[0,5,4]","action_history":"[0,0]","door_history":"[0,0]","location_rts":"[8496,4872]","trial_type":"two-door-navigation","trial_index":34,"time_elapsed":3058430,"internal_node_id":"0.0-2.0-32.0"},{"group":"hexagon_tri","room_assignment":["blue","green","yellow","red","purple","grey"],"door_color_assignment":["white","black"],"door_generator_assignment":[0,1],"goal":1,"start":4,"action_noise":0,"location_history":"[4,2,1]","action_history":"[1,0]","door_history":"[1,0]","location_rts":"[16340,9954]","trial_type":"two-door-navigation","trial_index":35,"time_elapsed":3090788,"internal_node_id":"0.0-2.0-33.0"},{"group":"hexagon_tri","room_assignment":["blue","green","yellow","red","purple","grey"],"door_color_assignment":["white","black"],"door_generator_assignment":[0,1],"goal":2,"start":1,"action_noise":0,"location_history":"[1,3,2]","action_history":"[0,0]","door_history":"[0,0]","location_rts":"[41878,4634]","trial_type":"two-door-navigation","trial_index":36,"time_elapsed":3143360,"internal_node_id":"0.0-2.0-34.0"},{"group":"hexagon_tri","room_assignment":["blue","green","yellow","red","purple","grey"],"door_color_assignment":["white","black"],"door_generator_assignment":[0,1],"goal":0,"start":2,"action_noise":0,"location_history":"[2,3,2,3,4,0]","action_history":"[1,0,1,1,0]","door_history":"[1,0,1,1,0]","location_rts":"[64360,12454,6246,1050,8626]","trial_type":"two-door-navigation","trial_index":37,"time_elapsed":3245226,"internal_node_id":"0.0-2.0-35.0"},{"group":"hexagon_tri","room_assignment":["blue","green","yellow","red","purple","grey"],"door_color_assignment":["white","black"],"door_generator_assignment":[0,1],"goal":5,"start":0,"action_noise":0,"location_history":"[0,5]","action_history":"[0]","door_history":"[0]","location_rts":"[16718]","trial_type":"two-door-navigation","trial_index":38,"time_elapsed":3266990,"internal_node_id":"0.0-2.0-36.0"},{"group":"hexagon_tri","room_assignment":["blue","green","yellow","red","purple","grey"],"door_color_assignment":["white","black"],"door_generator_assignment":[0,1],"goal":2,"start":5,"action_noise":0,"location_history":"[5,4,2]","action_history":"[0,1]","door_history":"[0,1]","location_rts":"[11570,6280]","trial_type":"two-door-navigation","trial_index":39,"time_elapsed":3290932,"internal_node_id":"0.0-2.0-37.0"},{"group":"hexagon_tri","room_assignment":["blue","green","yellow","red","purple","grey"],"door_color_assignment":["white","black"],"door_generator_assignment":[0,1],"goal":1,"start":2,"action_noise":0,"location_history":"[2,1]","action_history":"[0]","door_history":"[0]","location_rts":"[21888]","trial_type":"two-door-navigation","trial_index":40,"time_elapsed":3317846,"internal_node_id":"0.0-2.0-38.0"},{"group":"hexagon_tri","room_assignment":["blue","green","yellow","red","purple","grey"],"door_color_assignment":["white","black"],"door_generator_assignment":[0,1],"goal":4,"start":1,"action_noise":0,"location_history":"[1,3,4]","action_history":"[0,1]","door_history":"[0,1]","location_rts":"[14162,14104]","trial_type":"two-door-navigation","trial_index":41,"time_elapsed":3352162,"internal_node_id":"0.0-2.0-39.0"},{"group":"hexagon_tri","room_assignment":["blue","green","yellow","red","purple","grey"],"door_color_assignment":["white","black"],"door_generator_assignment":[0,1],"goal":3,"start":4,"action_noise":0,"location_history":"[4,2,3]","action_history":"[1,1]","door_history":"[1,1]","location_rts":"[36522,18196]","trial_type":"two-door-navigation","trial_index":42,"time_elapsed":3412932,"internal_node_id":"0.0-2.0-40.0"},{"group":"hexagon_tri","room_assignment":["blue","green","yellow","red","purple","grey"],"door_color_assignment":["white","black"],"door_generator_assignment":[0,1],"goal":5,"start":3,"action_noise":0,"location_history":"[3,4,0,5]","action_history":"[1,0,0]","door_history":"[1,0,0]","location_rts":"[29268,4210,870]","trial_type":"two-door-navigation","trial_index":43,"time_elapsed":3454382,"internal_node_id":"0.0-2.0-41.0"},{"group":"hexagon_tri","room_assignment":["blue","green","yellow","red","purple","grey"],"door_color_assignment":["white","black"],"door_generator_assignment":[0,1],"goal":3,"start":5,"action_noise":0,"location_history":"[5,4,2,3]","action_history":"[0,1,1]","door_history":"[0,1,1]","location_rts":"[26804,1594,1888]","trial_type":"two-door-navigation","trial_index":44,"time_elapsed":3491760,"internal_node_id":"0.0-2.0-42.0"},{"group":"hexagon_tri","room_assignment":["blue","green","yellow","red","purple","grey"],"door_color_assignment":["white","black"],"door_generator_assignment":[0,1],"goal":0,"start":3,"action_noise":0,"location_history":"[3,4,0]","action_history":"[1,0]","door_history":"[1,0]","location_rts":"[15452,1354]","trial_type":"two-door-navigation","trial_index":45,"time_elapsed":3514618,"internal_node_id":"0.0-2.0-43.0"},{"group":"hexagon_tri","room_assignment":["blue","green","yellow","red","purple","grey"],"door_color_assignment":["white","black"],"door_generator_assignment":[0,1],"goal":2,"start":0,"action_noise":0,"location_history":"[0,1,3,2]","action_history":"[1,0,0]","door_history":"[1,0,0]","location_rts":"[13274,3272,904]","trial_type":"two-door-navigation","trial_index":46,"time_elapsed":3539218,"internal_node_id":"0.0-2.0-44.0"},{"group":"hexagon_tri","room_assignment":["blue","green","yellow","red","purple","grey"],"door_color_assignment":["white","black"],"door_generator_assignment":[0,1],"goal":4,"start":2,"action_noise":0,"location_history":"[2,3,4]","action_history":"[1,1]","door_history":"[1,1]","location_rts":"[8496,17536]","trial_type":"two-door-navigation","trial_index":47,"time_elapsed":3571322,"internal_node_id":"0.0-2.0-45.0"},{"group":"hexagon_tri","room_assignment":["blue","green","yellow","red","purple","grey"],"door_color_assignment":["white","black"],"door_generator_assignment":[0,1],"goal":1,"start":4,"action_noise":0,"location_history":"[4,2,1]","action_history":"[1,0]","door_history":"[1,0]","location_rts":"[6662,1002]","trial_type":"two-door-navigation","trial_index":48,"time_elapsed":3585050,"internal_node_id":"0.0-2.0-46.0"},{"group":"hexagon_tri","room_assignment":["blue","green","yellow","red","purple","grey"],"door_color_assignment":["white","black"],"door_generator_assignment":[0,1],"goal":4,"start":1,"action_noise":0,"location_history":"[1,3,4]","action_history":"[0,1]","door_history":"[0,1]","location_rts":"[8060,1222]","trial_type":"two-door-navigation","trial_index":49,"time_elapsed":3600378,"internal_node_id":"0.0-2.0-47.0"},{"group":"hexagon_tri","room_assignment":["blue","green","yellow","red","purple","grey"],"door_color_assignment":["white","black"],"door_generator_assignment":[0,1],"goal":3,"start":4,"action_noise":0,"location_history":"[4,2,3]","action_history":"[1,1]","door_history":"[1,1]","location_rts":"[12972,532]","trial_type":"two-door-navigation","trial_index":50,"time_elapsed":3619948,"internal_node_id":"0.0-2.0-48.0"},{"group":"hexagon_tri","room_assignment":["blue","green","yellow","red","purple","grey"],"door_color_assignment":["white","black"],"door_generator_assignment":[0,1],"goal":5,"start":3,"action_noise":0,"location_history":"[3,4,0,5]","action_history":"[1,0,0]","door_history":"[1,0,0]","location_rts":"[12288,808,472]","trial_type":"two-door-navigation","trial_index":51,"time_elapsed":3640592,"internal_node_id":"0.0-2.0-49.0"},{"view_history":"[{\"page_index\":0,\"viewing_time\":11238}]","rt":11238,"trial_type":"instructions","trial_index":52,"time_elapsed":3652832,"internal_node_id":"0.0-3.0"},{"view_history":"[{\"page_index\":0,\"viewing_time\":51366},{\"page_index\":1,\"viewing_time\":151072}]","rt":202440,"trial_type":"instructions","trial_index":53,"time_elapsed":3856274,"internal_node_id":"0.0-4.0"},{"group":"hexagon_bi","fractal_assignment":["../images/pnk_blu.png","../images/gry_blk.png","../images/ylw_slt.png","../images/org_blu.png","../images/blu_wht.png","../images/cyn_red.png"],"mutagen_generator_assignment":[0,1],"goal":4,"start":0,"action_noise":0,"location_history":"[0,5,4]","action_history":"[0,1]","mutagen_history":"[0,1]","location_rts":"[12706,9284]","trial_type":"fractal-mutation","trial_index":54,"time_elapsed":3884374,"internal_node_id":"0.0-5.0-0.0"},{"group":"hexagon_bi","fractal_assignment":["../images/pnk_blu.png","../images/gry_blk.png","../images/ylw_slt.png","../images/org_blu.png","../images/blu_wht.png","../images/cyn_red.png"],"mutagen_generator_assignment":[0,1],"goal":3,"start":4,"action_noise":0,"location_history":"[4,5,0,5,4,5,4,3]","action_history":"[1,0,0,1,1,1,0]","mutagen_history":"[1,0,0,1,1,1,0]","location_rts":"[50082,1574,4600,1824,806,1408,2164]","trial_type":"fractal-mutation","trial_index":55,"time_elapsed":3958216,"internal_node_id":"0.0-5.0-1.0"},{"group":"hexagon_bi","fractal_assignment":["../images/pnk_blu.png","../images/gry_blk.png","../images/ylw_slt.png","../images/org_blu.png","../images/blu_wht.png","../images/cyn_red.png"],"mutagen_generator_assignment":[0,1],"goal":5,"start":3,"action_noise":0,"location_history":"[3,2,1,2,1,2,3,2,3,2,3,2,1,2,3,4,5]","action_history":"[1,0,0,0,0,1,1,1,1,1,1,0,0,1,0,1]","mutagen_history":"[1,0,0,0,0,1,1,1,1,1,1,0,0,1,0,1]","location_rts":"[5422,1374,1930,1458,1176,640,608,668,516,510,512,744,652,824,784,1338]","trial_type":"fractal-mutation","trial_index":56,"time_elapsed":3998100,"internal_node_id":"0.0-5.0-2.0"},{"group":"hexagon_bi","fractal_assignment":["../images/pnk_blu.png","../images/gry_blk.png","../images/ylw_slt.png","../images/org_blu.png","../images/blu_wht.png","../images/cyn_red.png"],"mutagen_generator_assignment":[0,1],"goal":2,"start":5,"action_noise":0,"location_history":"[5,0,5,4,3,4,5,4,5,4,3,4,5,0,5,0,1,0,1,2]","action_history":"[0,0,1,0,0,1,1,1,1,0,0,1,0,0,0,1,1,1,0]","mutagen_history":"[0,0,1,0,0,1,1,1,1,0,0,1,0,0,0,1,1,1,0]","location_rts":"[9636,1552,2550,1432,1816,1302,594,1872,772,464,930,1820,704,2188,1222,556,862,1376,436]","trial_type":"fractal-mutation","trial_index":57,"time_elapsed":4054038,"internal_node_id":"0.0-5.0-3.0"},{"group":"hexagon_bi","fractal_assignment":["../images/pnk_blu.png","../images/gry_blk.png","../images/ylw_slt.png","../images/org_blu.png","../images/blu_wht.png","../images/cyn_red.png"],"mutagen_generator_assignment":[0,1],"goal":1,"start":2,"action_noise":0,"location_history":"[2,1]","action_history":"[0]","mutagen_history":"[0]","location_rts":"[5954]","trial_type":"fractal-mutation","trial_index":58,"time_elapsed":4065028,"internal_node_id":"0.0-5.0-4.0"},{"group":"hexagon_bi","fractal_assignment":["../images/pnk_blu.png","../images/gry_blk.png","../images/ylw_slt.png","../images/org_blu.png","../images/blu_wht.png","../images/cyn_red.png"],"mutagen_generator_assignment":[0,1],"goal":4,"start":1,"action_noise":0,"location_history":"[1,0,5,4]","action_history":"[1,0,1]","mutagen_history":"[1,0,1]","location_rts":"[2340,2822,1860]","trial_type":"fractal-mutation","trial_index":59,"time_elapsed":4079178,"internal_node_id":"0.0-5.0-5.0"},{"group":"hexagon_bi","fractal_assignment":["../images/pnk_blu.png","../images/gry_blk.png","../images/ylw_slt.png","../images/org_blu.png","../images/blu_wht.png","../images/cyn_red.png"],"mutagen_generator_assignment":[0,1],"goal":1,"start":4,"action_noise":0,"location_history":"[4,5,0,1]","action_history":"[1,0,1]","mutagen_history":"[1,0,1]","location_rts":"[4046,1104,3050]","trial_type":"fractal-mutation","trial_index":60,"time_elapsed":4094506,"internal_node_id":"0.0-5.0-6.0"},{"group":"hexagon_bi","fractal_assignment":["../images/pnk_blu.png","../images/gry_blk.png","../images/ylw_slt.png","../images/org_blu.png","../images/blu_wht.png","../images/cyn_red.png"],"mutagen_generator_assignment":[0,1],"goal":5,"start":1,"action_noise":0,"location_history":"[1,2,3,2,1,0,1,2,1,2,3,4,5]","action_history":"[0,1,1,0,1,1,0,0,0,1,0,1]","mutagen_history":"[0,1,1,0,1,1,0,0,0,1,0,1]","location_rts":"[6142,772,1110,2002,692,1088,910,1816,790,426,1550,970]","trial_type":"fractal-mutation","trial_index":61,"time_elapsed":4129436,"internal_node_id":"0.0-5.0-7.0"},{"group":"hexagon_bi","fractal_assignment":["../images/pnk_blu.png","../images/gry_blk.png","../images/ylw_slt.png","../images/org_blu.png","../images/blu_wht.png","../images/cyn_red.png"],"mutagen_generator_assignment":[0,1],"goal":0,"start":5,"action_noise":0,"location_history":"[5,0]","action_history":"[0]","mutagen_history":"[0]","location_rts":"[2046]","trial_type":"fractal-mutation","trial_index":62,"time_elapsed":4136518,"internal_node_id":"0.0-5.0-8.0"},{"group":"hexagon_bi","fractal_assignment":["../images/pnk_blu.png","../images/gry_blk.png","../images/ylw_slt.png","../images/org_blu.png","../images/blu_wht.png","../images/cyn_red.png"],"mutagen_generator_assignment":[0,1],"goal":2,"start":0,"action_noise":0,"location_history":"[0,5,4,5,4,3,4,3,2]","action_history":"[0,1,1,1,0,0,0,1]","mutagen_history":"[0,1,1,1,0,0,0,1]","location_rts":"[5268,2944,950,804,448,1404,1956,432]","trial_type":"fractal-mutation","trial_index":63,"time_elapsed":4163028,"internal_node_id":"0.0-5.0-9.0"},{"group":"hexagon_bi","fractal_assignment":["../images/pnk_blu.png","../images/gry_blk.png","../images/ylw_slt.png","../images/org_blu.png","../images/blu_wht.png","../images/cyn_red.png"],"mutagen_generator_assignment":[0,1],"goal":3,"start":2,"action_noise":0,"location_history":"[2,1,2,3]","action_history":"[0,0,1]","mutagen_history":"[0,0,1]","location_rts":"[2660,1370,716]","trial_type":"fractal-mutation","trial_index":64,"time_elapsed":4174918,"internal_node_id":"0.0-5.0-10.0"},{"group":"hexagon_bi","fractal_assignment":["../images/pnk_blu.png","../images/gry_blk.png","../images/ylw_slt.png","../images/org_blu.png","../images/blu_wht.png","../images/cyn_red.png"],"mutagen_generator_assignment":[0,1],"goal":0,"start":3,"action_noise":0,"location_history":"[3,4,5,0]","action_history":"[0,1,0]","mutagen_history":"[0,1,0]","location_rts":"[2916,992,548]","trial_type":"fractal-mutation","trial_index":65,"time_elapsed":4186630,"internal_node_id":"0.0-5.0-11.0"},{"group":"hexagon_bi","fractal_assignment":["../images/pnk_blu.png","../images/gry_blk.png","../images/ylw_slt.png","../images/org_blu.png","../images/blu_wht.png","../images/cyn_red.png"],"mutagen_generator_assignment":[0,1],"goal":2,"start":0,"action_noise":0,"location_history":"[0,1,2]","action_history":"[1,0]","mutagen_history":"[1,0]","location_rts":"[3152,616]","trial_type":"fractal-mutation","trial_index":66,"time_elapsed":4196538,"internal_node_id":"0.0-5.0-12.0"},{"group":"hexagon_bi","fractal_assignment":["../images/pnk_blu.png","../images/gry_blk.png","../images/ylw_slt.png","../images/org_blu.png","../images/blu_wht.png","../images/cyn_red.png"],"mutagen_generator_assignment":[0,1],"goal":5,"start":2,"action_noise":0,"location_history":"[2,3,4,5]","action_history":"[1,0,1]","mutagen_history":"[1,0,1]","location_rts":"[4444,794,856]","trial_type":"fractal-mutation","trial_index":67,"time_elapsed":4209766,"internal_node_id":"0.0-5.0-13.0"},{"group":"hexagon_bi","fractal_assignment":["../images/pnk_blu.png","../images/gry_blk.png","../images/ylw_slt.png","../images/org_blu.png","../images/blu_wht.png","../images/cyn_red.png"],"mutagen_generator_assignment":[0,1],"goal":4,"start":5,"action_noise":0,"location_history":"[5,4]","action_history":"[1]","mutagen_history":"[1]","location_rts":"[2036]","trial_type":"fractal-mutation","trial_index":68,"time_elapsed":4216846,"internal_node_id":"0.0-5.0-14.0"},{"group":"hexagon_bi","fractal_assignment":["../images/pnk_blu.png","../images/gry_blk.png","../images/ylw_slt.png","../images/org_blu.png","../images/blu_wht.png","../images/cyn_red.png"],"mutagen_generator_assignment":[0,1],"goal":3,"start":4,"action_noise":0,"location_history":"[4,5,0,1,2,1,0,5,4,5,0,5,4,5,0,5,0,1,2,3]","action_history":"[1,0,1,0,0,1,0,1,1,0,0,1,1,0,0,0,1,0,1]","mutagen_history":"[1,0,1,0,0,1,0,1,1,0,0,1,1,0,0,0,1,0,1]","location_rts":"[3260,562,2388,614,762,492,3186,740,598,488,1228,538,526,506,476,790,460,1306,834]","trial_type":"fractal-mutation","trial_index":69,"time_elapsed":4260396,"internal_node_id":"0.0-5.0-15.0"},{"group":"hexagon_bi","fractal_assignment":["../images/pnk_blu.png","../images/gry_blk.png","../images/ylw_slt.png","../images/org_blu.png","../images/blu_wht.png","../images/cyn_red.png"],"mutagen_generator_assignment":[0,1],"goal":1,"start":3,"action_noise":0,"location_history":"[3,2,1]","action_history":"[1,0]","mutagen_history":"[1,0]","location_rts":"[4300,738]","trial_type":"fractal-mutation","trial_index":70,"time_elapsed":4271520,"internal_node_id":"0.0-5.0-16.0"},{"group":"hexagon_bi","fractal_assignment":["../images/pnk_blu.png","../images/gry_blk.png","../images/ylw_slt.png","../images/org_blu.png","../images/blu_wht.png","../images/cyn_red.png"],"mutagen_generator_assignment":[0,1],"goal":5,"start":1,"action_noise":0,"location_history":"[1,0,5]","action_history":"[1,0]","mutagen_history":"[1,0]","location_rts":"[2744,864]","trial_type":"fractal-mutation","trial_index":71,"time_elapsed":4281260,"internal_node_id":"0.0-5.0-17.0"},{"group":"hexagon_bi","fractal_assignment":["../images/pnk_blu.png","../images/gry_blk.png","../images/ylw_slt.png","../images/org_blu.png","../images/blu_wht.png","../images/cyn_red.png"],"mutagen_generator_assignment":[0,1],"goal":4,"start":5,"action_noise":0,"location_history":"[5,4]","action_history":"[1]","mutagen_history":"[1]","location_rts":"[2078]","trial_type":"fractal-mutation","trial_index":72,"time_elapsed":4288390,"internal_node_id":"0.0-5.0-18.0"},{"group":"hexagon_bi","fractal_assignment":["../images/pnk_blu.png","../images/gry_blk.png","../images/ylw_slt.png","../images/org_blu.png","../images/blu_wht.png","../images/cyn_red.png"],"mutagen_generator_assignment":[0,1],"goal":0,"start":4,"action_noise":0,"location_history":"[4,3,2,1,0]","action_history":"[0,1,0,1]","mutagen_history":"[0,1,0,1]","location_rts":"[1698,832,624,1052]","trial_type":"fractal-mutation","trial_index":73,"time_elapsed":4300756,"internal_node_id":"0.0-5.0-19.0"},{"group":"hexagon_bi","fractal_assignment":["../images/pnk_blu.png","../images/gry_blk.png","../images/ylw_slt.png","../images/org_blu.png","../images/blu_wht.png","../images/cyn_red.png"],"mutagen_generator_assignment":[0,1],"goal":1,"start":0,"action_noise":0,"location_history":"[0,5,4,5,0,1]","action_history":"[0,1,1,0,1]","mutagen_history":"[0,1,1,0,1]","location_rts":"[2182,614,698,700,1196]","trial_type":"fractal-mutation","trial_index":74,"time_elapsed":4315360,"internal_node_id":"0.0-5.0-20.0"},{"group":"hexagon_bi","fractal_assignment":["../images/pnk_blu.png","../images/gry_blk.png","../images/ylw_slt.png","../images/org_blu.png","../images/blu_wht.png","../images/cyn_red.png"],"mutagen_generator_assignment":[0,1],"goal":3,"start":1,"action_noise":0,"location_history":"[1,0,5,4,5,0,5,4,5,0,1,2,3]","action_history":"[1,0,1,1,0,0,1,1,0,1,0,1]","mutagen_history":"[1,0,1,1,0,0,1,1,0,1,0,1]","location_rts":"[15226,734,850,576,836,1392,480,658,1076,1608,842,818]","trial_type":"fractal-mutation","trial_index":75,"time_elapsed":4357104,"internal_node_id":"0.0-5.0-21.0"},{"group":"hexagon_bi","fractal_assignment":["../images/pnk_blu.png","../images/gry_blk.png","../images/ylw_slt.png","../images/org_blu.png","../images/blu_wht.png","../images/cyn_red.png"],"mutagen_generator_assignment":[0,1],"goal":2,"start":3,"action_noise":0,"location_history":"[3,2]","action_history":"[1]","mutagen_history":"[1]","location_rts":"[1758]","trial_type":"fractal-mutation","trial_index":76,"time_elapsed":4363970,"internal_node_id":"0.0-5.0-22.0"},{"group":"hexagon_bi","fractal_assignment":["../images/pnk_blu.png","../images/gry_blk.png","../images/ylw_slt.png","../images/org_blu.png","../images/blu_wht.png","../images/cyn_red.png"],"mutagen_generator_assignment":[0,1],"goal":0,"start":2,"action_noise":0,"location_history":"[2,1,0]","action_history":"[0,1]","mutagen_history":"[0,1]","location_rts":"[2134,812]","trial_type":"fractal-mutation","trial_index":77,"time_elapsed":4373016,"internal_node_id":"0.0-5.0-23.0"},{"group":"hexagon_bi","fractal_assignment":["../images/pnk_blu.png","../images/gry_blk.png","../images/ylw_slt.png","../images/org_blu.png","../images/blu_wht.png","../images/cyn_red.png"],"mutagen_generator_assignment":[0,1],"goal":3,"start":0,"action_noise":0,"location_history":"[0,5,4,5,0,5,4,5,0,1,2,3]","action_history":"[0,1,1,0,0,1,1,0,1,0,1]","mutagen_history":"[0,1,1,0,0,1,1,0,1,0,1]","location_rts":"[2162,860,2056,802,1322,996,716,500,1290,1298,720]","trial_type":"fractal-mutation","trial_index":78,"time_elapsed":4401216,"internal_node_id":"0.0-5.0-24.0"},{"group":"hexagon_bi","fractal_assignment":["../images/pnk_blu.png","../images/gry_blk.png","../images/ylw_slt.png","../images/org_blu.png","../images/blu_wht.png","../images/cyn_red.png"],"mutagen_generator_assignment":[0,1],"goal":1,"start":3,"action_noise":0,"location_history":"[3,2,1]","action_history":"[1,0]","mutagen_history":"[1,0]","location_rts":"[4138,710]","trial_type":"fractal-mutation","trial_index":79,"time_elapsed":4412174,"internal_node_id":"0.0-5.0-25.0"},{"group":"hexagon_bi","fractal_assignment":["../images/pnk_blu.png","../images/gry_blk.png","../images/ylw_slt.png","../images/org_blu.png","../images/blu_wht.png","../images/cyn_red.png"],"mutagen_generator_assignment":[0,1],"goal":2,"start":1,"action_noise":0,"location_history":"[1,0,5,0,1,0,1,2]","action_history":"[1,0,0,1,1,1,0]","mutagen_history":"[1,0,0,1,1,1,0]","location_rts":"[1580,798,928,580,1292,1052,486]","trial_type":"fractal-mutation","trial_index":80,"time_elapsed":4430320,"internal_node_id":"0.0-5.0-26.0"},{"group":"hexagon_bi","fractal_assignment":["../images/pnk_blu.png","../images/gry_blk.png","../images/ylw_slt.png","../images/org_blu.png","../images/blu_wht.png","../images/cyn_red.png"],"mutagen_generator_assignment":[0,1],"goal":5,"start":2,"action_noise":0,"location_history":"[2,1,0,1,0,5]","action_history":"[0,1,1,1,0]","mutagen_history":"[0,1,1,1,0]","location_rts":"[2074,1256,1280,734,362]","trial_type":"fractal-mutation","trial_index":81,"time_elapsed":4445340,"internal_node_id":"0.0-5.0-27.0"},{"group":"hexagon_bi","fractal_assignment":["../images/pnk_blu.png","../images/gry_blk.png","../images/ylw_slt.png","../images/org_blu.png","../images/blu_wht.png","../images/cyn_red.png"],"mutagen_generator_assignment":[0,1],"goal":4,"start":5,"action_noise":0,"location_history":"[5,4]","action_history":"[1]","mutagen_history":"[1]","location_rts":"[1932]","trial_type":"fractal-mutation","trial_index":82,"time_elapsed":4452316,"internal_node_id":"0.0-5.0-28.0"},{"group":"hexagon_bi","fractal_assignment":["../images/pnk_blu.png","../images/gry_blk.png","../images/ylw_slt.png","../images/org_blu.png","../images/blu_wht.png","../images/cyn_red.png"],"mutagen_generator_assignment":[0,1],"goal":5,"start":4,"action_noise":0,"location_history":"[4,5]","action_history":"[1]","mutagen_history":"[1]","location_rts":"[1804]","trial_type":"fractal-mutation","trial_index":83,"time_elapsed":4459184,"internal_node_id":"0.0-5.0-29.0"},{"group":"hexagon_bi","fractal_assignment":["../images/pnk_blu.png","../images/gry_blk.png","../images/ylw_slt.png","../images/org_blu.png","../images/blu_wht.png","../images/cyn_red.png"],"mutagen_generator_assignment":[0,1],"goal":3,"start":5,"action_noise":0,"location_history":"[5,0,1,0,5,0,1,2,3]","action_history":"[0,1,1,0,0,1,0,1]","mutagen_history":"[0,1,1,0,0,1,0,1]","location_rts":"[2168,1336,1148,454,1262,476,446,692]","trial_type":"fractal-mutation","trial_index":84,"time_elapsed":4479476,"internal_node_id":"0.0-5.0-30.0"},{"group":"hexagon_bi","fractal_assignment":["../images/pnk_blu.png","../images/gry_blk.png","../images/ylw_slt.png","../images/org_blu.png","../images/blu_wht.png","../images/cyn_red.png"],"mutagen_generator_assignment":[0,1],"goal":0,"start":3,"action_noise":0,"location_history":"[3,2,1,0]","action_history":"[1,0,1]","mutagen_history":"[1,0,1]","location_rts":"[3412,712,786]","trial_type":"fractal-mutation","trial_index":85,"time_elapsed":4491512,"internal_node_id":"0.0-5.0-31.0"},{"group":"hexagon_bi","fractal_assignment":["../images/pnk_blu.png","../images/gry_blk.png","../images/ylw_slt.png","../images/org_blu.png","../images/blu_wht.png","../images/cyn_red.png"],"mutagen_generator_assignment":[0,1],"goal":4,"start":0,"action_noise":0,"location_history":"[0,1,2,3,4]","action_history":"[1,0,1,0]","mutagen_history":"[1,0,1,0]","location_rts":"[1426,710,2070,750]","trial_type":"fractal-mutation","trial_index":86,"time_elapsed":4504638,"internal_node_id":"0.0-5.0-32.0"},{"group":"hexagon_bi","fractal_assignment":["../images/pnk_blu.png","../images/gry_blk.png","../images/ylw_slt.png","../images/org_blu.png","../images/blu_wht.png","../images/cyn_red.png"],"mutagen_generator_assignment":[0,1],"goal":1,"start":4,"action_noise":0,"location_history":"[4,5,0,1]","action_history":"[1,0,1]","mutagen_history":"[1,0,1]","location_rts":"[1610,436,1110]","trial_type":"fractal-mutation","trial_index":87,"time_elapsed":4514958,"internal_node_id":"0.0-5.0-33.0"},{"group":"hexagon_bi","fractal_assignment":["../images/pnk_blu.png","../images/gry_blk.png","../images/ylw_slt.png","../images/org_blu.png","../images/blu_wht.png","../images/cyn_red.png"],"mutagen_generator_assignment":[0,1],"goal":2,"start":1,"action_noise":0,"location_history":"[1,0,5,4,5,0,1,0,5,0,5,4,5,4,3,2]","action_history":"[1,0,1,1,0,1,1,0,0,0,1,1,1,0,1]","mutagen_history":"[1,0,1,1,0,1,1,0,0,0,1,1,1,0,1]","location_rts":"[1716,918,826,652,1232,1358,1306,1114,550,1426,362,608,1162,862,824]","trial_type":"fractal-mutation","trial_index":88,"time_elapsed":4549604,"internal_node_id":"0.0-5.0-34.0"},{"group":"hexagon_bi","fractal_assignment":["../images/pnk_blu.png","../images/gry_blk.png","../images/ylw_slt.png","../images/org_blu.png","../images/blu_wht.png","../images/cyn_red.png"],"mutagen_generator_assignment":[0,1],"goal":0,"start":2,"action_noise":0,"location_history":"[2,1,2,3,4,5,0]","action_history":"[0,0,1,0,1,0]","mutagen_history":"[0,0,1,0,1,0]","location_rts":"[1972,1158,518,1008,804,722]","trial_type":"fractal-mutation","trial_index":89,"time_elapsed":4566028,"internal_node_id":"0.0-5.0-35.0"},{"group":"hexagon_bi","fractal_assignment":["../images/pnk_blu.png","../images/gry_blk.png","../images/ylw_slt.png","../images/org_blu.png","../images/blu_wht.png","../images/cyn_red.png"],"mutagen_generator_assignment":[0,1],"goal":5,"start":0,"action_noise":0,"location_history":"[0,1,0,5]","action_history":"[1,1,0]","mutagen_history":"[1,1,0]","location_rts":"[1870,1216,400]","trial_type":"fractal-mutation","trial_index":90,"time_elapsed":4576630,"internal_node_id":"0.0-5.0-36.0"},{"group":"hexagon_bi","fractal_assignment":["../images/pnk_blu.png","../images/gry_blk.png","../images/ylw_slt.png","../images/org_blu.png","../images/blu_wht.png","../images/cyn_red.png"],"mutagen_generator_assignment":[0,1],"goal":2,"start":5,"action_noise":0,"location_history":"[5,0,1,2]","action_history":"[0,1,0]","mutagen_history":"[0,1,0]","location_rts":"[3074,626,680]","trial_type":"fractal-mutation","trial_index":91,"time_elapsed":4588154,"internal_node_id":"0.0-5.0-37.0"},{"group":"hexagon_bi","fractal_assignment":["../images/pnk_blu.png","../images/gry_blk.png","../images/ylw_slt.png","../images/org_blu.png","../images/blu_wht.png","../images/cyn_red.png"],"mutagen_generator_assignment":[0,1],"goal":1,"start":2,"action_noise":0,"location_history":"[2,3,4,5,0,5,4,3,2,3,2,1]","action_history":"[1,0,1,0,0,1,0,1,1,1,0]","mutagen_history":"[1,0,1,0,0,1,0,1,1,1,0]","location_rts":"[2926,688,642,672,680,468,718,1724,1172,978,400]","trial_type":"fractal-mutation","trial_index":92,"time_elapsed":4614848,"internal_node_id":"0.0-5.0-38.0"},{"group":"hexagon_bi","fractal_assignment":["../images/pnk_blu.png","../images/gry_blk.png","../images/ylw_slt.png","../images/org_blu.png","../images/blu_wht.png","../images/cyn_red.png"],"mutagen_generator_assignment":[0,1],"goal":4,"start":1,"action_noise":0,"location_history":"[1,0,5,4]","action_history":"[1,0,1]","mutagen_history":"[1,0,1]","location_rts":"[1350,1140,1056]","trial_type":"fractal-mutation","trial_index":93,"time_elapsed":4625528,"internal_node_id":"0.0-5.0-39.0"},{"group":"hexagon_bi","fractal_assignment":["../images/pnk_blu.png","../images/gry_blk.png","../images/ylw_slt.png","../images/org_blu.png","../images/blu_wht.png","../images/cyn_red.png"],"mutagen_generator_assignment":[0,1],"goal":3,"start":4,"action_noise":0,"location_history":"[4,5,0,1,2,3]","action_history":"[1,0,1,0,1]","mutagen_history":"[1,0,1,0,1]","location_rts":"[1956,660,1232,604,580]","trial_type":"fractal-mutation","trial_index":94,"time_elapsed":4639784,"internal_node_id":"0.0-5.0-40.0"},{"group":"hexagon_bi","fractal_assignment":["../images/pnk_blu.png","../images/gry_blk.png","../images/ylw_slt.png","../images/org_blu.png","../images/blu_wht.png","../images/cyn_red.png"],"mutagen_generator_assignment":[0,1],"goal":5,"start":3,"action_noise":0,"location_history":"[3,2,1,0,5]","action_history":"[1,0,1,0]","mutagen_history":"[1,0,1,0]","location_rts":"[1746,638,546,776]","trial_type":"fractal-mutation","trial_index":95,"time_elapsed":4651662,"internal_node_id":"0.0-5.0-41.0"},{"group":"hexagon_bi","fractal_assignment":["../images/pnk_blu.png","../images/gry_blk.png","../images/ylw_slt.png","../images/org_blu.png","../images/blu_wht.png","../images/cyn_red.png"],"mutagen_generator_assignment":[0,1],"goal":3,"start":5,"action_noise":0,"location_history":"[5,0,1,2,3]","action_history":"[0,1,0,1]","mutagen_history":"[0,1,0,1]","location_rts":"[2490,762,884,640]","trial_type":"fractal-mutation","trial_index":96,"time_elapsed":4664606,"internal_node_id":"0.0-5.0-42.0"},{"group":"hexagon_bi","fractal_assignment":["../images/pnk_blu.png","../images/gry_blk.png","../images/ylw_slt.png","../images/org_blu.png","../images/blu_wht.png","../images/cyn_red.png"],"mutagen_generator_assignment":[0,1],"goal":0,"start":3,"action_noise":0,"location_history":"[3,2,1,0]","action_history":"[1,0,1]","mutagen_history":"[1,0,1]","location_rts":"[3532,658,656]","trial_type":"fractal-mutation","trial_index":97,"time_elapsed":4676612,"internal_node_id":"0.0-5.0-43.0"},{"group":"hexagon_bi","fractal_assignment":["../images/pnk_blu.png","../images/gry_blk.png","../images/ylw_slt.png","../images/org_blu.png","../images/blu_wht.png","../images/cyn_red.png"],"mutagen_generator_assignment":[0,1],"goal":2,"start":0,"action_noise":0,"location_history":"[0,1,2]","action_history":"[1,0]","mutagen_history":"[1,0]","location_rts":"[1748,632]","trial_type":"fractal-mutation","trial_index":98,"time_elapsed":4685092,"internal_node_id":"0.0-5.0-44.0"},{"group":"hexagon_bi","fractal_assignment":["../images/pnk_blu.png","../images/gry_blk.png","../images/ylw_slt.png","../images/org_blu.png","../images/blu_wht.png","../images/cyn_red.png"],"mutagen_generator_assignment":[0,1],"goal":4,"start":2,"action_noise":0,"location_history":"[2,3,4]","action_history":"[1,0]","mutagen_history":"[1,0]","location_rts":"[2146,742]","trial_type":"fractal-mutation","trial_index":99,"time_elapsed":4694076,"internal_node_id":"0.0-5.0-45.0"},{"group":"hexagon_bi","fractal_assignment":["../images/pnk_blu.png","../images/gry_blk.png","../images/ylw_slt.png","../images/org_blu.png","../images/blu_wht.png","../images/cyn_red.png"],"mutagen_generator_assignment":[0,1],"goal":1,"start":4,"action_noise":0,"location_history":"[4,3,2,1]","action_history":"[0,1,0]","mutagen_history":"[0,1,0]","location_rts":"[2108,512,544]","trial_type":"fractal-mutation","trial_index":100,"time_elapsed":4704352,"internal_node_id":"0.0-5.0-46.0"},{"group":"hexagon_bi","fractal_assignment":["../images/pnk_blu.png","../images/gry_blk.png","../images/ylw_slt.png","../images/org_blu.png","../images/blu_wht.png","../images/cyn_red.png"],"mutagen_generator_assignment":[0,1],"goal":4,"start":1,"action_noise":0,"location_history":"[1,0,5,4]","action_history":"[1,0,1]","mutagen_history":"[1,0,1]","location_rts":"[2040,1108,538]","trial_type":"fractal-mutation","trial_index":101,"time_elapsed":4715174,"internal_node_id":"0.0-5.0-47.0"},{"group":"hexagon_bi","fractal_assignment":["../images/pnk_blu.png","../images/gry_blk.png","../images/ylw_slt.png","../images/org_blu.png","../images/blu_wht.png","../images/cyn_red.png"],"mutagen_generator_assignment":[0,1],"goal":3,"start":4,"action_noise":0,"location_history":"[4,5,0,1,2,3]","action_history":"[1,0,1,0,1]","mutagen_history":"[1,0,1,0,1]","location_rts":"[2068,400,1028,836,680]","trial_type":"fractal-mutation","trial_index":102,"time_elapsed":4729380,"internal_node_id":"0.0-5.0-48.0"},{"group":"hexagon_bi","fractal_assignment":["../images/pnk_blu.png","../images/gry_blk.png","../images/ylw_slt.png","../images/org_blu.png","../images/blu_wht.png","../images/cyn_red.png"],"mutagen_generator_assignment":[0,1],"goal":5,"start":3,"action_noise":0,"location_history":"[3,2,1,0,5]","action_history":"[1,0,1,0]","mutagen_history":"[1,0,1,0]","location_rts":"[3044,634,764,772]","trial_type":"fractal-mutation","trial_index":103,"time_elapsed":4742858,"internal_node_id":"0.0-5.0-49.0"},{"view_history":"[{\"page_index\":0,\"viewing_time\":65598}]","rt":65598,"trial_type":"instructions","trial_index":104,"time_elapsed":4809458,"internal_node_id":"0.0-6.0"},{"rt":75176,"responses":"{\"Q0\":\"I found this interesting.  I took longer on the first experiment because I wanted to try my best to remember so I wouldn't have to go through so many doors.  The second I did my best but I did not take as long because I already took so long on the first experiment.\"}","trial_type":"survey-text","trial_index":105,"time_elapsed":4885644,"internal_node_id":"0.0-7.0"}]