[{"view_history":"[{\"page_index\":0,\"viewing_time\":821},{\"page_index\":1,\"viewing_time\":1218},{\"page_index\":0,\"viewing_time\":1816},{\"page_index\":1,\"viewing_time\":1263},{\"page_index\":2,\"viewing_time\":1914}]","rt":7032,"trial_type":"instructions","trial_index":0,"time_elapsed":7032,"internal_node_id":"0.0-0.0"},{"view_history":"[{\"page_index\":0,\"viewing_time\":877},{\"page_index\":1,\"viewing_time\":3896}]","rt":4773,"trial_type":"instructions","trial_index":1,"time_elapsed":12806,"internal_node_id":"0.0-1.0"},{"group":"hexagon_bi","room_assignment":["blue","purple","green","grey","red","yellow"],"door_color_assignment":["black","white"],"door_generator_assignment":[0,1],"goal":4,"start":0,"action_noise":0,"location_history":"[0,1,0,1,0,5,4]","action_history":"[1,1,1,1,0,1]","door_history":"[1,1,1,1,0,1]","location_rts":"[2196,3940,419,380,276,790]","trial_type":"two-door-navigation","trial_index":2,"time_elapsed":30969,"internal_node_id":"0.0-2.0-0.0"},{"group":"hexagon_bi","room_assignment":["blue","purple","green","grey","red","yellow"],"door_color_assignment":["black","white"],"door_generator_assignment":[0,1],"goal":3,"start":4,"action_noise":0,"location_history":"[4,3]","action_history":"[0]","door_history":"[0]","location_rts":"[6689]","trial_type":"two-door-navigation","trial_index":3,"time_elapsed":42683,"internal_node_id":"0.0-2.0-1.0"},{"group":"hexagon_bi","room_assignment":["blue","purple","green","grey","red","yellow"],"door_color_assignment":["black","white"],"door_generator_assignment":[0,1],"goal":5,"start":3,"action_noise":0,"location_history":"[3,2,1,2,1,2,3,2,3,2,1,0,1,0,5]","action_history":"[1,0,0,0,0,1,1,1,1,0,1,1,1,0]","door_history":"[1,0,0,0,0,1,1,1,1,0,1,1,1,0]","location_rts":"[434,399,380,1147,422,689,408,584,595,38,267,1088,637,294]","trial_type":"two-door-navigation","trial_index":4,"time_elapsed":68921,"internal_node_id":"0.0-2.0-2.0"},{"group":"hexagon_bi","room_assignment":["blue","purple","green","grey","red","yellow"],"door_color_assignment":["black","white"],"door_generator_assignment":[0,1],"goal":2,"start":5,"action_noise":0,"location_history":"[5,0,5,4,3,2]","action_history":"[0,0,1,0,1]","door_history":"[0,0,1,0,1]","location_rts":"[25821,387,452,222,334]","trial_type":"two-door-navigation","trial_index":5,"time_elapsed":106254,"internal_node_id":"0.0-2.0-3.0"},{"group":"hexagon_bi","room_assignment":["blue","purple","green","grey","red","yellow"],"door_color_assignment":["black","white"],"door_generator_assignment":[0,1],"goal":1,"start":2,"action_noise":0,"location_history":"[2,3,2,1]","action_history":"[1,1,0]","door_history":"[1,1,0]","location_rts":"[774,1555,1146]","trial_type":"two-door-navigation","trial_index":6,"time_elapsed":116831,"internal_node_id":"0.0-2.0-4.0"},{"group":"hexagon_bi","room_assignment":["blue","purple","green","grey","red","yellow"],"door_color_assignment":["black","white"],"door_generator_assignment":[0,1],"goal":4,"start":1,"action_noise":0,"location_history":"[1,0,5,4]","action_history":"[1,0,1]","door_history":"[1,0,1]","location_rts":"[360,385,462]","trial_type":"two-door-navigation","trial_index":7,"time_elapsed":125900,"internal_node_id":"0.0-2.0-5.0"},{"group":"hexagon_bi","room_assignment":["blue","purple","green","grey","red","yellow"],"door_color_assignment":["black","white"],"door_generator_assignment":[0,1],"goal":1,"start":4,"action_noise":0,"location_history":"[4,3,4,5,4,5,0,1]","action_history":"[0,0,1,1,1,0,1]","door_history":"[0,0,1,1,1,0,1]","location_rts":"[10023,467,843,699,501,22,4114]","trial_type":"two-door-navigation","trial_index":8,"time_elapsed":153747,"internal_node_id":"0.0-2.0-6.0"},{"group":"hexagon_bi","room_assignment":["blue","purple","green","grey","red","yellow"],"door_color_assignment":["black","white"],"door_generator_assignment":[0,1],"goal":5,"start":1,"action_noise":0,"location_history":"[1,2,1,0,5]","action_history":"[0,0,1,0]","door_history":"[0,0,1,0]","location_rts":"[3705,345,422,210]","trial_type":"two-door-navigation","trial_index":9,"time_elapsed":166572,"internal_node_id":"0.0-2.0-7.0"},{"group":"hexagon_bi","room_assignment":["blue","purple","green","grey","red","yellow"],"door_color_assignment":["black","white"],"door_generator_assignment":[0,1],"goal":0,"start":5,"action_noise":0,"location_history":"[5,0]","action_history":"[0]","door_history":"[0]","location_rts":"[387]","trial_type":"two-door-navigation","trial_index":10,"time_elapsed":172042,"internal_node_id":"0.0-2.0-8.0"},{"group":"hexagon_bi","room_assignment":["blue","purple","green","grey","red","yellow"],"door_color_assignment":["black","white"],"door_generator_assignment":[0,1],"goal":2,"start":0,"action_noise":0,"location_history":"[0,1,0,5,4,3,4,5,4,5,0,5,4,3,2]","action_history":"[1,1,0,1,0,0,1,1,1,0,0,1,0,1]","door_history":"[1,1,0,1,0,0,1,1,1,0,0,1,0,1]","location_rts":"[372,375,102,62,332,406,364,467,452,268,526,626,693,686]","trial_type":"two-door-navigation","trial_index":11,"time_elapsed":196181,"internal_node_id":"0.0-2.0-9.0"},{"group":"hexagon_bi","room_assignment":["blue","purple","green","grey","red","yellow"],"door_color_assignment":["black","white"],"door_generator_assignment":[0,1],"goal":3,"start":2,"action_noise":0,"location_history":"[2,3]","action_history":"[1]","door_history":"[1]","location_rts":"[682]","trial_type":"two-door-navigation","trial_index":12,"time_elapsed":201926,"internal_node_id":"0.0-2.0-10.0"},{"group":"hexagon_bi","room_assignment":["blue","purple","green","grey","red","yellow"],"door_color_assignment":["black","white"],"door_generator_assignment":[0,1],"goal":0,"start":3,"action_noise":0,"location_history":"[3,2,1,2,3,4,3,4,5,4,5,0]","action_history":"[1,0,0,1,0,0,0,1,1,1,0]","door_history":"[1,0,0,1,0,0,0,1,1,1,0]","location_rts":"[631,578,435,402,1287,359,755,37,627,539,120]","trial_type":"two-door-navigation","trial_index":13,"time_elapsed":222986,"internal_node_id":"0.0-2.0-11.0"},{"group":"hexagon_bi","room_assignment":["blue","purple","green","grey","red","yellow"],"door_color_assignment":["black","white"],"door_generator_assignment":[0,1],"goal":2,"start":0,"action_noise":0,"location_history":"[0,1,2]","action_history":"[1,0]","door_history":"[1,0]","location_rts":"[369,444]","trial_type":"two-door-navigation","trial_index":14,"time_elapsed":229873,"internal_node_id":"0.0-2.0-12.0"},{"group":"hexagon_bi","room_assignment":["blue","purple","green","grey","red","yellow"],"door_color_assignment":["black","white"],"door_generator_assignment":[0,1],"goal":5,"start":2,"action_noise":0,"location_history":"[2,1,0,1,0,5]","action_history":"[0,1,1,1,0]","door_history":"[0,1,1,1,0]","location_rts":"[1966,371,330,346,309]","trial_type":"two-door-navigation","trial_index":15,"time_elapsed":242383,"internal_node_id":"0.0-2.0-13.0"},{"group":"hexagon_bi","room_assignment":["blue","purple","green","grey","red","yellow"],"door_color_assignment":["black","white"],"door_generator_assignment":[0,1],"goal":4,"start":5,"action_noise":0,"location_history":"[5,0,5,4]","action_history":"[0,0,1]","door_history":"[0,0,1]","location_rts":"[47724,14271,11664]","trial_type":"two-door-navigation","trial_index":16,"time_elapsed":323152,"internal_node_id":"0.0-2.0-14.0"},{"group":"hexagon_bi","room_assignment":["blue","purple","green","grey","red","yellow"],"door_color_assignment":["black","white"],"door_generator_assignment":[0,1],"goal":3,"start":4,"action_noise":0,"location_history":"[4,5,0,1,2,1,0,5,4,3]","action_history":"[1,0,1,0,0,1,0,1,0]","door_history":"[1,0,1,0,0,1,0,1,0]","location_rts":"[2933,8571,3099,9076,7933,7899,9585,1713,3998]","trial_type":"two-door-navigation","trial_index":17,"time_elapsed":391307,"internal_node_id":"0.0-2.0-15.0"},{"group":"hexagon_bi","room_assignment":["blue","purple","green","grey","red","yellow"],"door_color_assignment":["black","white"],"door_generator_assignment":[0,1],"goal":1,"start":3,"action_noise":0,"location_history":"[3,4,5,0,1]","action_history":"[0,1,0,1]","door_history":"[0,1,0,1]","location_rts":"[8790,13337,2337,331]","trial_type":"two-door-navigation","trial_index":18,"time_elapsed":424248,"internal_node_id":"0.0-2.0-16.0"},{"group":"hexagon_bi","room_assignment":["blue","purple","green","grey","red","yellow"],"door_color_assignment":["black","white"],"door_generator_assignment":[0,1],"goal":5,"start":1,"action_noise":0,"location_history":"[1,0,5]","action_history":"[1,0]","door_history":"[1,0]","location_rts":"[6052,21]","trial_type":"two-door-navigation","trial_index":19,"time_elapsed":436365,"internal_node_id":"0.0-2.0-17.0"},{"group":"hexagon_bi","room_assignment":["blue","purple","green","grey","red","yellow"],"door_color_assignment":["black","white"],"door_generator_assignment":[0,1],"goal":4,"start":5,"action_noise":0,"location_history":"[5,4]","action_history":"[1]","door_history":"[1]","location_rts":"[18125]","trial_type":"two-door-navigation","trial_index":20,"time_elapsed":459513,"internal_node_id":"0.0-2.0-18.0"},{"group":"hexagon_bi","room_assignment":["blue","purple","green","grey","red","yellow"],"door_color_assignment":["black","white"],"door_generator_assignment":[0,1],"goal":0,"start":4,"action_noise":0,"location_history":"[4,5,0]","action_history":"[1,0]","door_history":"[1,0]","location_rts":"[3813,290]","trial_type":"two-door-navigation","trial_index":21,"time_elapsed":469682,"internal_node_id":"0.0-2.0-19.0"},{"group":"hexagon_bi","room_assignment":["blue","purple","green","grey","red","yellow"],"door_color_assignment":["black","white"],"door_generator_assignment":[0,1],"goal":1,"start":0,"action_noise":0,"location_history":"[0,1]","action_history":"[1]","door_history":"[1]","location_rts":"[6332]","trial_type":"two-door-navigation","trial_index":22,"time_elapsed":481038,"internal_node_id":"0.0-2.0-20.0"},{"group":"hexagon_bi","room_assignment":["blue","purple","green","grey","red","yellow"],"door_color_assignment":["black","white"],"door_generator_assignment":[0,1],"goal":3,"start":1,"action_noise":0,"location_history":"[1,2,3]","action_history":"[0,1]","door_history":"[0,1]","location_rts":"[4424,733]","trial_type":"two-door-navigation","trial_index":23,"time_elapsed":492240,"internal_node_id":"0.0-2.0-21.0"},{"group":"hexagon_bi","room_assignment":["blue","purple","green","grey","red","yellow"],"door_color_assignment":["black","white"],"door_generator_assignment":[0,1],"goal":2,"start":3,"action_noise":0,"location_history":"[3,4,5,0,1,2]","action_history":"[0,1,0,1,0]","door_history":"[0,1,0,1,0]","location_rts":"[11782,6460,903,732,418]","trial_type":"two-door-navigation","trial_index":24,"time_elapsed":521668,"internal_node_id":"0.0-2.0-22.0"},{"group":"hexagon_bi","room_assignment":["blue","purple","green","grey","red","yellow"],"door_color_assignment":["black","white"],"door_generator_assignment":[0,1],"goal":0,"start":2,"action_noise":0,"location_history":"[2,1,2,3,2,1,0]","action_history":"[0,0,1,1,0,1]","door_history":"[0,0,1,1,0,1]","location_rts":"[5869,1846,946,3472,13820,382]","trial_type":"two-door-navigation","trial_index":25,"time_elapsed":558133,"internal_node_id":"0.0-2.0-23.0"},{"group":"hexagon_bi","room_assignment":["blue","purple","green","grey","red","yellow"],"door_color_assignment":["black","white"],"door_generator_assignment":[0,1],"goal":3,"start":0,"action_noise":0,"location_history":"[0,5,4,3]","action_history":"[0,1,0]","door_history":"[0,1,0]","location_rts":"[9594,566,381]","trial_type":"two-door-navigation","trial_index":26,"time_elapsed":575791,"internal_node_id":"0.0-2.0-24.0"},{"group":"hexagon_bi","room_assignment":["blue","purple","green","grey","red","yellow"],"door_color_assignment":["black","white"],"door_generator_assignment":[0,1],"goal":1,"start":3,"action_noise":0,"location_history":"[3,4,5,0,1]","action_history":"[0,1,0,1]","door_history":"[0,1,0,1]","location_rts":"[6774,397,332,420]","trial_type":"two-door-navigation","trial_index":27,"time_elapsed":591799,"internal_node_id":"0.0-2.0-25.0"},{"group":"hexagon_bi","room_assignment":["blue","purple","green","grey","red","yellow"],"door_color_assignment":["black","white"],"door_generator_assignment":[0,1],"goal":2,"start":1,"action_noise":0,"location_history":"[1,0,1,2]","action_history":"[1,1,0]","door_history":"[1,1,0]","location_rts":"[960,222,1452]","trial_type":"two-door-navigation","trial_index":28,"time_elapsed":601903,"internal_node_id":"0.0-2.0-26.0"},{"group":"hexagon_bi","room_assignment":["blue","purple","green","grey","red","yellow"],"door_color_assignment":["black","white"],"door_generator_assignment":[0,1],"goal":5,"start":2,"action_noise":0,"location_history":"[2,3,4,5]","action_history":"[1,0,1]","door_history":"[1,0,1]","location_rts":"[14888,320,295]","trial_type":"two-door-navigation","trial_index":29,"time_elapsed":625474,"internal_node_id":"0.0-2.0-27.0"},{"group":"hexagon_bi","room_assignment":["blue","purple","green","grey","red","yellow"],"door_color_assignment":["black","white"],"door_generator_assignment":[0,1],"goal":4,"start":5,"action_noise":0,"location_history":"[5,4]","action_history":"[1]","door_history":"[1]","location_rts":"[1964]","trial_type":"two-door-navigation","trial_index":30,"time_elapsed":632487,"internal_node_id":"0.0-2.0-28.0"},{"group":"hexagon_bi","room_assignment":["blue","purple","green","grey","red","yellow"],"door_color_assignment":["black","white"],"door_generator_assignment":[0,1],"goal":5,"start":4,"action_noise":0,"location_history":"[4,5]","action_history":"[1]","door_history":"[1]","location_rts":"[2561]","trial_type":"two-door-navigation","trial_index":31,"time_elapsed":640102,"internal_node_id":"0.0-2.0-29.0"},{"group":"hexagon_bi","room_assignment":["blue","purple","green","grey","red","yellow"],"door_color_assignment":["black","white"],"door_generator_assignment":[0,1],"goal":3,"start":5,"action_noise":0,"location_history":"[5,4,3]","action_history":"[1,0]","door_history":"[1,0]","location_rts":"[9120,92]","trial_type":"two-door-navigation","trial_index":32,"time_elapsed":655358,"internal_node_id":"0.0-2.0-30.0"},{"group":"hexagon_bi","room_assignment":["blue","purple","green","grey","red","yellow"],"door_color_assignment":["black","white"],"door_generator_assignment":[0,1],"goal":0,"start":3,"action_noise":0,"location_history":"[3,4,5,0]","action_history":"[0,1,0]","door_history":"[0,1,0]","location_rts":"[9785,318,283]","trial_type":"two-door-navigation","trial_index":33,"time_elapsed":672942,"internal_node_id":"0.0-2.0-31.0"},{"group":"hexagon_bi","room_assignment":["blue","purple","green","grey","red","yellow"],"door_color_assignment":["black","white"],"door_generator_assignment":[0,1],"goal":4,"start":0,"action_noise":0,"location_history":"[0,5,4]","action_history":"[0,1]","door_history":"[0,1]","location_rts":"[3424,13]","trial_type":"two-door-navigation","trial_index":34,"time_elapsed":682433,"internal_node_id":"0.0-2.0-32.0"},{"group":"hexagon_bi","room_assignment":["blue","purple","green","grey","red","yellow"],"door_color_assignment":["black","white"],"door_generator_assignment":[0,1],"goal":1,"start":4,"action_noise":0,"location_history":"[4,5,0,1]","action_history":"[1,0,1]","door_history":"[1,0,1]","location_rts":"[8272,346,81]","trial_type":"two-door-navigation","trial_index":35,"time_elapsed":698202,"internal_node_id":"0.0-2.0-33.0"},{"group":"hexagon_bi","room_assignment":["blue","purple","green","grey","red","yellow"],"door_color_assignment":["black","white"],"door_generator_assignment":[0,1],"goal":2,"start":1,"action_noise":0,"location_history":"[1,2]","action_history":"[0]","door_history":"[0]","location_rts":"[2776]","trial_type":"two-door-navigation","trial_index":36,"time_elapsed":706002,"internal_node_id":"0.0-2.0-34.0"},{"group":"hexagon_bi","room_assignment":["blue","purple","green","grey","red","yellow"],"door_color_assignment":["black","white"],"door_generator_assignment":[0,1],"goal":0,"start":2,"action_noise":0,"location_history":"[2,1,0]","action_history":"[0,1]","door_history":"[0,1]","location_rts":"[5244,369]","trial_type":"two-door-navigation","trial_index":37,"time_elapsed":717663,"internal_node_id":"0.0-2.0-35.0"},{"group":"hexagon_bi","room_assignment":["blue","purple","green","grey","red","yellow"],"door_color_assignment":["black","white"],"door_generator_assignment":[0,1],"goal":5,"start":0,"action_noise":0,"location_history":"[0,5]","action_history":"[0]","door_history":"[0]","location_rts":"[3637]","trial_type":"two-door-navigation","trial_index":38,"time_elapsed":726326,"internal_node_id":"0.0-2.0-36.0"},{"group":"hexagon_bi","room_assignment":["blue","purple","green","grey","red","yellow"],"door_color_assignment":["black","white"],"door_generator_assignment":[0,1],"goal":2,"start":5,"action_noise":0,"location_history":"[5,0,1,2]","action_history":"[0,1,0]","door_history":"[0,1,0]","location_rts":"[11576,1066,383]","trial_type":"two-door-navigation","trial_index":39,"time_elapsed":746441,"internal_node_id":"0.0-2.0-37.0"},{"group":"hexagon_bi","room_assignment":["blue","purple","green","grey","red","yellow"],"door_color_assignment":["black","white"],"door_generator_assignment":[0,1],"goal":1,"start":2,"action_noise":0,"location_history":"[2,1]","action_history":"[0]","door_history":"[0]","location_rts":"[2621]","trial_type":"two-door-navigation","trial_index":40,"time_elapsed":754105,"internal_node_id":"0.0-2.0-38.0"},{"group":"hexagon_bi","room_assignment":["blue","purple","green","grey","red","yellow"],"door_color_assignment":["black","white"],"door_generator_assignment":[0,1],"goal":4,"start":1,"action_noise":0,"location_history":"[1,0,5,4]","action_history":"[1,0,1]","door_history":"[1,0,1]","location_rts":"[9637,516,336]","trial_type":"two-door-navigation","trial_index":41,"time_elapsed":771678,"internal_node_id":"0.0-2.0-39.0"},{"group":"hexagon_bi","room_assignment":["blue","purple","green","grey","red","yellow"],"door_color_assignment":["black","white"],"door_generator_assignment":[0,1],"goal":3,"start":4,"action_noise":0,"location_history":"[4,3]","action_history":"[0]","door_history":"[0]","location_rts":"[2356]","trial_type":"two-door-navigation","trial_index":42,"time_elapsed":779060,"internal_node_id":"0.0-2.0-40.0"},{"group":"hexagon_bi","room_assignment":["blue","purple","green","grey","red","yellow"],"door_color_assignment":["black","white"],"door_generator_assignment":[0,1],"goal":5,"start":3,"action_noise":0,"location_history":"[3,4,5]","action_history":"[0,1]","door_history":"[0,1]","location_rts":"[3954,120]","trial_type":"two-door-navigation","trial_index":43,"time_elapsed":789183,"internal_node_id":"0.0-2.0-41.0"},{"group":"hexagon_bi","room_assignment":["blue","purple","green","grey","red","yellow"],"door_color_assignment":["black","white"],"door_generator_assignment":[0,1],"goal":3,"start":5,"action_noise":0,"location_history":"[5,4,3]","action_history":"[1,0]","door_history":"[1,0]","location_rts":"[6999,287]","trial_type":"two-door-navigation","trial_index":44,"time_elapsed":802553,"internal_node_id":"0.0-2.0-42.0"},{"group":"hexagon_bi","room_assignment":["blue","purple","green","grey","red","yellow"],"door_color_assignment":["black","white"],"door_generator_assignment":[0,1],"goal":0,"start":3,"action_noise":0,"location_history":"[3,4,5,0]","action_history":"[0,1,0]","door_history":"[0,1,0]","location_rts":"[5493,513,323]","trial_type":"two-door-navigation","trial_index":45,"time_elapsed":815973,"internal_node_id":"0.0-2.0-43.0"},{"group":"hexagon_bi","room_assignment":["blue","purple","green","grey","red","yellow"],"door_color_assignment":["black","white"],"door_generator_assignment":[0,1],"goal":2,"start":0,"action_noise":0,"location_history":"[0,1,2]","action_history":"[1,0]","door_history":"[1,0]","location_rts":"[6292,36]","trial_type":"two-door-navigation","trial_index":46,"time_elapsed":828350,"internal_node_id":"0.0-2.0-44.0"},{"group":"hexagon_bi","room_assignment":["blue","purple","green","grey","red","yellow"],"door_color_assignment":["black","white"],"door_generator_assignment":[0,1],"goal":4,"start":2,"action_noise":0,"location_history":"[2,3,4]","action_history":"[1,0]","door_history":"[1,0]","location_rts":"[7463,45]","trial_type":"two-door-navigation","trial_index":47,"time_elapsed":841904,"internal_node_id":"0.0-2.0-45.0"},{"group":"hexagon_bi","room_assignment":["blue","purple","green","grey","red","yellow"],"door_color_assignment":["black","white"],"door_generator_assignment":[0,1],"goal":1,"start":4,"action_noise":0,"location_history":"[4,5,0,1]","action_history":"[1,0,1]","door_history":"[1,0,1]","location_rts":"[7170,363,371]","trial_type":"two-door-navigation","trial_index":48,"time_elapsed":856891,"internal_node_id":"0.0-2.0-46.0"},{"group":"hexagon_bi","room_assignment":["blue","purple","green","grey","red","yellow"],"door_color_assignment":["black","white"],"door_generator_assignment":[0,1],"goal":4,"start":1,"action_noise":0,"location_history":"[1,0,5,4]","action_history":"[1,0,1]","door_history":"[1,0,1]","location_rts":"[15716,388,183]","trial_type":"two-door-navigation","trial_index":49,"time_elapsed":880910,"internal_node_id":"0.0-2.0-47.0"},{"group":"hexagon_bi","room_assignment":["blue","purple","green","grey","red","yellow"],"door_color_assignment":["black","white"],"door_generator_assignment":[0,1],"goal":3,"start":4,"action_noise":0,"location_history":"[4,3]","action_history":"[0]","door_history":"[0]","location_rts":"[19034]","trial_type":"two-door-navigation","trial_index":50,"time_elapsed":905983,"internal_node_id":"0.0-2.0-48.0"},{"group":"hexagon_bi","room_assignment":["blue","purple","green","grey","red","yellow"],"door_color_assignment":["black","white"],"door_generator_assignment":[0,1],"goal":5,"start":3,"action_noise":0,"location_history":"[3,4,5]","action_history":"[0,1]","door_history":"[0,1]","location_rts":"[82126,262]","trial_type":"two-door-navigation","trial_index":51,"time_elapsed":994543,"internal_node_id":"0.0-2.0-49.0"},{"view_history":"[{\"page_index\":0,\"viewing_time\":1042}]","rt":1043,"trial_type":"instructions","trial_index":52,"time_elapsed":996593,"internal_node_id":"0.0-3.0"},{"view_history":"[{\"page_index\":0,\"viewing_time\":5377},{\"page_index\":1,\"viewing_time\":4814}]","rt":10192,"trial_type":"instructions","trial_index":53,"time_elapsed":1007785,"internal_node_id":"0.0-4.0"},{"group":"hexagon_bi","fractal_assignment":["../images/blu_wht.png","../images/gry_blk.png","../images/pnk_blu.png","../images/org_blu.png","../images/ylw_slt.png","../images/cyn_red.png"],"mutagen_generator_assignment":[1,0],"goal":4,"start":0,"action_noise":0,"location_history":"[0,1,2,1,0,5,4]","action_history":"[1,0,0,1,0,1]","mutagen_history":"[0,1,1,0,1,0]","location_rts":"[3803,8228,574,351,626,762]","trial_type":"fractal-mutation","trial_index":54,"time_elapsed":1032351,"internal_node_id":"0.0-5.0-0.0"},{"group":"hexagon_bi","fractal_assignment":["../images/blu_wht.png","../images/gry_blk.png","../images/pnk_blu.png","../images/org_blu.png","../images/ylw_slt.png","../images/cyn_red.png"],"mutagen_generator_assignment":[1,0],"goal":3,"start":4,"action_noise":0,"location_history":"[4,3]","action_history":"[0]","mutagen_history":"[1]","location_rts":"[13695]","trial_type":"fractal-mutation","trial_index":55,"time_elapsed":1051110,"internal_node_id":"0.0-5.0-1.0"},{"group":"hexagon_bi","fractal_assignment":["../images/blu_wht.png","../images/gry_blk.png","../images/pnk_blu.png","../images/org_blu.png","../images/ylw_slt.png","../images/cyn_red.png"],"mutagen_generator_assignment":[1,0],"goal":5,"start":3,"action_noise":0,"location_history":"[3,4,5]","action_history":"[0,1]","mutagen_history":"[1,0]","location_rts":"[239,189]","trial_type":"fractal-mutation","trial_index":56,"time_elapsed":1057639,"internal_node_id":"0.0-5.0-2.0"},{"group":"hexagon_bi","fractal_assignment":["../images/blu_wht.png","../images/gry_blk.png","../images/pnk_blu.png","../images/org_blu.png","../images/ylw_slt.png","../images/cyn_red.png"],"mutagen_generator_assignment":[1,0],"goal":2,"start":5,"action_noise":0,"location_history":"[5,0,1,2]","action_history":"[0,1,0]","mutagen_history":"[1,0,1]","location_rts":"[260,201,225]","trial_type":"fractal-mutation","trial_index":57,"time_elapsed":1065445,"internal_node_id":"0.0-5.0-3.0"},{"group":"hexagon_bi","fractal_assignment":["../images/blu_wht.png","../images/gry_blk.png","../images/pnk_blu.png","../images/org_blu.png","../images/ylw_slt.png","../images/cyn_red.png"],"mutagen_generator_assignment":[1,0],"goal":1,"start":2,"action_noise":0,"location_history":"[2,1]","action_history":"[0]","mutagen_history":"[1]","location_rts":"[255]","trial_type":"fractal-mutation","trial_index":58,"time_elapsed":1070743,"internal_node_id":"0.0-5.0-4.0"},{"group":"hexagon_bi","fractal_assignment":["../images/blu_wht.png","../images/gry_blk.png","../images/pnk_blu.png","../images/org_blu.png","../images/ylw_slt.png","../images/cyn_red.png"],"mutagen_generator_assignment":[1,0],"goal":4,"start":1,"action_noise":0,"location_history":"[1,2,3,2,3,4]","action_history":"[0,1,1,1,0]","mutagen_history":"[1,0,0,0,1]","location_rts":"[263,223,227,194,195]","trial_type":"fractal-mutation","trial_index":59,"time_elapsed":1081028,"internal_node_id":"0.0-5.0-5.0"},{"group":"hexagon_bi","fractal_assignment":["../images/blu_wht.png","../images/gry_blk.png","../images/pnk_blu.png","../images/org_blu.png","../images/ylw_slt.png","../images/cyn_red.png"],"mutagen_generator_assignment":[1,0],"goal":1,"start":4,"action_noise":0,"location_history":"[4,3,2,3,2,3,4,5,0,5,4,5,4,3,2,3,2,3,2,1]","action_history":"[0,1,1,1,1,0,1,0,0,1,1,1,0,1,1,1,1,1,0]","mutagen_history":"[1,0,0,0,0,1,0,1,1,0,0,0,1,0,0,0,0,0,1]","location_rts":"[262,226,210,213,217,226,199,222,226,200,231,209,206,222,220,211,218,224,230]","trial_type":"fractal-mutation","trial_index":60,"time_elapsed":1108802,"internal_node_id":"0.0-5.0-6.0"},{"group":"hexagon_bi","fractal_assignment":["../images/blu_wht.png","../images/gry_blk.png","../images/pnk_blu.png","../images/org_blu.png","../images/ylw_slt.png","../images/cyn_red.png"],"mutagen_generator_assignment":[1,0],"goal":5,"start":1,"action_noise":0,"location_history":"[1,2,3,2,1,2,1,2,1,0,5]","action_history":"[0,1,1,0,0,0,0,0,1,0]","mutagen_history":"[1,0,0,1,1,1,1,1,0,1]","location_rts":"[266,215,183,227,218,200,207,227,221,222]","trial_type":"fractal-mutation","trial_index":61,"time_elapsed":1125351,"internal_node_id":"0.0-5.0-7.0"},{"group":"hexagon_bi","fractal_assignment":["../images/blu_wht.png","../images/gry_blk.png","../images/pnk_blu.png","../images/org_blu.png","../images/ylw_slt.png","../images/cyn_red.png"],"mutagen_generator_assignment":[1,0],"goal":0,"start":5,"action_noise":0,"location_history":"[5,0]","action_history":"[0]","mutagen_history":"[1]","location_rts":"[255]","trial_type":"fractal-mutation","trial_index":62,"time_elapsed":1130638,"internal_node_id":"0.0-5.0-8.0"},{"group":"hexagon_bi","fractal_assignment":["../images/blu_wht.png","../images/gry_blk.png","../images/pnk_blu.png","../images/org_blu.png","../images/ylw_slt.png","../images/cyn_red.png"],"mutagen_generator_assignment":[1,0],"goal":2,"start":0,"action_noise":0,"location_history":"[0,5,0,1,0,5,0,1,0,5,0,5,0,5,0,1,0,1,0,1,2]","action_history":"[0,0,1,1,0,0,1,1,0,0,0,0,0,0,1,1,1,1,1,0]","mutagen_history":"[1,1,0,0,1,1,0,0,1,1,1,1,1,1,0,0,0,0,0,1]","location_rts":"[268,224,221,225,225,224,225,214,219,226,194,224,227,201,213,224,221,227,219,224]","trial_type":"fractal-mutation","trial_index":63,"time_elapsed":1159665,"internal_node_id":"0.0-5.0-9.0"},{"group":"hexagon_bi","fractal_assignment":["../images/blu_wht.png","../images/gry_blk.png","../images/pnk_blu.png","../images/org_blu.png","../images/ylw_slt.png","../images/cyn_red.png"],"mutagen_generator_assignment":[1,0],"goal":3,"start":2,"action_noise":0,"location_history":"[2,1,2,3]","action_history":"[0,0,1]","mutagen_history":"[1,1,0]","location_rts":"[261,219,223]","trial_type":"fractal-mutation","trial_index":64,"time_elapsed":1167456,"internal_node_id":"0.0-5.0-10.0"},{"group":"hexagon_bi","fractal_assignment":["../images/blu_wht.png","../images/gry_blk.png","../images/pnk_blu.png","../images/org_blu.png","../images/ylw_slt.png","../images/cyn_red.png"],"mutagen_generator_assignment":[1,0],"goal":0,"start":3,"action_noise":0,"location_history":"[3,4,5,0]","action_history":"[0,1,0]","mutagen_history":"[1,0,1]","location_rts":"[271,215,226]","trial_type":"fractal-mutation","trial_index":65,"time_elapsed":1175258,"internal_node_id":"0.0-5.0-11.0"},{"group":"hexagon_bi","fractal_assignment":["../images/blu_wht.png","../images/gry_blk.png","../images/pnk_blu.png","../images/org_blu.png","../images/ylw_slt.png","../images/cyn_red.png"],"mutagen_generator_assignment":[1,0],"goal":2,"start":0,"action_noise":0,"location_history":"[0,5,4,3,4,5,4,3,2]","action_history":"[0,1,0,0,1,1,0,1]","mutagen_history":"[1,0,1,1,0,0,1,0]","location_rts":"[272,221,175,178,225,211,221,219]","trial_type":"fractal-mutation","trial_index":66,"time_elapsed":1189310,"internal_node_id":"0.0-5.0-12.0"},{"group":"hexagon_bi","fractal_assignment":["../images/blu_wht.png","../images/gry_blk.png","../images/pnk_blu.png","../images/org_blu.png","../images/ylw_slt.png","../images/cyn_red.png"],"mutagen_generator_assignment":[1,0],"goal":5,"start":2,"action_noise":0,"location_history":"[2,1,2,1,0,1,2,3,4,5]","action_history":"[0,0,0,1,1,0,1,0,1]","mutagen_history":"[1,1,1,0,0,1,0,1,0]","location_rts":"[254,174,209,221,202,227,220,203,198]","trial_type":"fractal-mutation","trial_index":67,"time_elapsed":1204574,"internal_node_id":"0.0-5.0-13.0"},{"group":"hexagon_bi","fractal_assignment":["../images/blu_wht.png","../images/gry_blk.png","../images/pnk_blu.png","../images/org_blu.png","../images/ylw_slt.png","../images/cyn_red.png"],"mutagen_generator_assignment":[1,0],"goal":4,"start":5,"action_noise":0,"location_history":"[5,0,1,2,1,2,1,0,5,4]","action_history":"[0,1,0,0,0,0,1,0,1]","mutagen_history":"[1,0,1,1,1,1,0,1,0]","location_rts":"[282,215,224,202,222,219,212,200,229]","trial_type":"fractal-mutation","trial_index":68,"time_elapsed":1219866,"internal_node_id":"0.0-5.0-14.0"},{"group":"hexagon_bi","fractal_assignment":["../images/blu_wht.png","../images/gry_blk.png","../images/pnk_blu.png","../images/org_blu.png","../images/ylw_slt.png","../images/cyn_red.png"],"mutagen_generator_assignment":[1,0],"goal":3,"start":4,"action_noise":0,"location_history":"[4,5,0,1,0,1,0,5,0,5,4,3]","action_history":"[1,0,1,1,1,1,0,0,0,1,0]","mutagen_history":"[0,1,0,0,0,0,1,1,1,0,1]","location_rts":"[275,224,187,229,199,220,217,218,204,226,224]","trial_type":"fractal-mutation","trial_index":69,"time_elapsed":1237681,"internal_node_id":"0.0-5.0-15.0"},{"group":"hexagon_bi","fractal_assignment":["../images/blu_wht.png","../images/gry_blk.png","../images/pnk_blu.png","../images/org_blu.png","../images/ylw_slt.png","../images/cyn_red.png"],"mutagen_generator_assignment":[1,0],"goal":1,"start":3,"action_noise":0,"location_history":"[3,4,3,2,1]","action_history":"[0,0,1,0]","mutagen_history":"[1,1,0,1]","location_rts":"[261,195,205,226]","trial_type":"fractal-mutation","trial_index":70,"time_elapsed":1246748,"internal_node_id":"0.0-5.0-16.0"},{"group":"hexagon_bi","fractal_assignment":["../images/blu_wht.png","../images/gry_blk.png","../images/pnk_blu.png","../images/org_blu.png","../images/ylw_slt.png","../images/cyn_red.png"],"mutagen_generator_assignment":[1,0],"goal":5,"start":1,"action_noise":0,"location_history":"[1,0,5]","action_history":"[1,0]","mutagen_history":"[0,1]","location_rts":"[227,212]","trial_type":"fractal-mutation","trial_index":71,"time_elapsed":1253285,"internal_node_id":"0.0-5.0-17.0"},{"group":"hexagon_bi","fractal_assignment":["../images/blu_wht.png","../images/gry_blk.png","../images/pnk_blu.png","../images/org_blu.png","../images/ylw_slt.png","../images/cyn_red.png"],"mutagen_generator_assignment":[1,0],"goal":4,"start":5,"action_noise":0,"location_history":"[5,0,1,0,5,0,1,0,1,2,3,4]","action_history":"[0,1,1,0,0,1,1,1,0,1,0]","mutagen_history":"[1,0,0,1,1,0,0,0,1,0,1]","location_rts":"[243,180,195,225,213,248,202,196,222,169,223]","trial_type":"fractal-mutation","trial_index":72,"time_elapsed":1271055,"internal_node_id":"0.0-5.0-18.0"},{"group":"hexagon_bi","fractal_assignment":["../images/blu_wht.png","../images/gry_blk.png","../images/pnk_blu.png","../images/org_blu.png","../images/ylw_slt.png","../images/cyn_red.png"],"mutagen_generator_assignment":[1,0],"goal":0,"start":4,"action_noise":0,"location_history":"[4,5,0]","action_history":"[1,0]","mutagen_history":"[0,1]","location_rts":"[254,186]","trial_type":"fractal-mutation","trial_index":73,"time_elapsed":1277582,"internal_node_id":"0.0-5.0-19.0"},{"group":"hexagon_bi","fractal_assignment":["../images/blu_wht.png","../images/gry_blk.png","../images/pnk_blu.png","../images/org_blu.png","../images/ylw_slt.png","../images/cyn_red.png"],"mutagen_generator_assignment":[1,0],"goal":1,"start":0,"action_noise":0,"location_history":"[0,1]","action_history":"[1]","mutagen_history":"[0]","location_rts":"[282]","trial_type":"fractal-mutation","trial_index":74,"time_elapsed":1282897,"internal_node_id":"0.0-5.0-20.0"},{"group":"hexagon_bi","fractal_assignment":["../images/blu_wht.png","../images/gry_blk.png","../images/pnk_blu.png","../images/org_blu.png","../images/ylw_slt.png","../images/cyn_red.png"],"mutagen_generator_assignment":[1,0],"goal":3,"start":1,"action_noise":0,"location_history":"[1,0,1,0,1,2,1,0,1,2,3]","action_history":"[1,1,1,1,0,0,1,1,0,1]","mutagen_history":"[0,0,0,0,1,1,0,0,1,0]","location_rts":"[269,223,222,215,223,226,203,222,230,219]","trial_type":"fractal-mutation","trial_index":75,"time_elapsed":1299427,"internal_node_id":"0.0-5.0-21.0"},{"group":"hexagon_bi","fractal_assignment":["../images/blu_wht.png","../images/gry_blk.png","../images/pnk_blu.png","../images/org_blu.png","../images/ylw_slt.png","../images/cyn_red.png"],"mutagen_generator_assignment":[1,0],"goal":2,"start":3,"action_noise":0,"location_history":"[3,2]","action_history":"[1]","mutagen_history":"[0]","location_rts":"[253]","trial_type":"fractal-mutation","trial_index":76,"time_elapsed":1304730,"internal_node_id":"0.0-5.0-22.0"},{"group":"hexagon_bi","fractal_assignment":["../images/blu_wht.png","../images/gry_blk.png","../images/pnk_blu.png","../images/org_blu.png","../images/ylw_slt.png","../images/cyn_red.png"],"mutagen_generator_assignment":[1,0],"goal":0,"start":2,"action_noise":0,"location_history":"[2,1,2,3,2,3,4,3,2,1,0]","action_history":"[0,0,1,1,1,0,0,1,0,1]","mutagen_history":"[1,1,0,0,0,1,1,0,1,0]","location_rts":"[277,209,181,227,222,228,201,224,196,217]","trial_type":"fractal-mutation","trial_index":77,"time_elapsed":1321273,"internal_node_id":"0.0-5.0-23.0"},{"group":"hexagon_bi","fractal_assignment":["../images/blu_wht.png","../images/gry_blk.png","../images/pnk_blu.png","../images/org_blu.png","../images/ylw_slt.png","../images/cyn_red.png"],"mutagen_generator_assignment":[1,0],"goal":3,"start":0,"action_noise":0,"location_history":"[0,5,4,3]","action_history":"[0,1,0]","mutagen_history":"[1,0,1]","location_rts":"[270,213,217]","trial_type":"fractal-mutation","trial_index":78,"time_elapsed":1329098,"internal_node_id":"0.0-5.0-24.0"},{"group":"hexagon_bi","fractal_assignment":["../images/blu_wht.png","../images/gry_blk.png","../images/pnk_blu.png","../images/org_blu.png","../images/ylw_slt.png","../images/cyn_red.png"],"mutagen_generator_assignment":[1,0],"goal":1,"start":3,"action_noise":0,"location_history":"[3,4,3,4,3,2,3,4,5,4,3,2,3,4,3,4,5,4,3,2,1]","action_history":"[0,0,0,0,1,1,0,1,1,0,1,1,0,0,0,1,1,0,1,0]","mutagen_history":"[1,1,1,1,0,0,1,0,0,1,0,0,1,1,1,0,0,1,0,1]","location_rts":"[246,220,220,196,210,225,230,211,227,225,219,171,195,222,182,216,225,205,222,219]","trial_type":"fractal-mutation","trial_index":79,"time_elapsed":1358090,"internal_node_id":"0.0-5.0-25.0"},{"group":"hexagon_bi","fractal_assignment":["../images/blu_wht.png","../images/gry_blk.png","../images/pnk_blu.png","../images/org_blu.png","../images/ylw_slt.png","../images/cyn_red.png"],"mutagen_generator_assignment":[1,0],"goal":2,"start":1,"action_noise":0,"location_history":"[1,0,1,0,1,2]","action_history":"[1,1,1,1,0]","mutagen_history":"[0,0,0,0,1]","location_rts":"[1528,216,221,194,229]","trial_type":"fractal-mutation","trial_index":80,"time_elapsed":1369638,"internal_node_id":"0.0-5.0-26.0"},{"group":"hexagon_bi","fractal_assignment":["../images/blu_wht.png","../images/gry_blk.png","../images/pnk_blu.png","../images/org_blu.png","../images/ylw_slt.png","../images/cyn_red.png"],"mutagen_generator_assignment":[1,0],"goal":5,"start":2,"action_noise":0,"location_history":"[2,3,4,5]","action_history":"[1,0,1]","mutagen_history":"[0,1,0]","location_rts":"[263,222,225]","trial_type":"fractal-mutation","trial_index":81,"time_elapsed":1377463,"internal_node_id":"0.0-5.0-27.0"},{"group":"hexagon_bi","fractal_assignment":["../images/blu_wht.png","../images/gry_blk.png","../images/pnk_blu.png","../images/org_blu.png","../images/ylw_slt.png","../images/cyn_red.png"],"mutagen_generator_assignment":[1,0],"goal":4,"start":5,"action_noise":0,"location_history":"[5,0,5,0,1,2,1,0,1,0,5,0,1,0,1,0,5,0,5,0,1,0,5,4]","action_history":"[0,0,0,1,0,0,1,1,1,0,0,1,1,1,1,0,0,0,0,1,1,0,1]","mutagen_history":"[1,1,1,0,1,1,0,0,0,1,1,0,0,0,0,1,1,1,1,0,0,1,0]","location_rts":"[238,192,220,236,207,232,204,201,211,217,218,207,227,222,210,221,210,166,204,242,190,225,244]","trial_type":"fractal-mutation","trial_index":82,"time_elapsed":1410213,"internal_node_id":"0.0-5.0-28.0"},{"group":"hexagon_bi","fractal_assignment":["../images/blu_wht.png","../images/gry_blk.png","../images/pnk_blu.png","../images/org_blu.png","../images/ylw_slt.png","../images/cyn_red.png"],"mutagen_generator_assignment":[1,0],"goal":5,"start":4,"action_noise":0,"location_history":"[4,3,2,1,2,1,2,1,2,1,2,3,2,3,4,3,2,1,0,5]","action_history":"[0,1,0,0,0,0,0,0,0,0,1,1,1,0,0,1,0,1,0]","mutagen_history":"[1,0,1,1,1,1,1,1,1,1,0,0,0,1,1,0,1,0,1]","location_rts":"[251,174,221,222,202,201,217,218,203,224,217,216,231,223,189,224,227,224,197]","trial_type":"fractal-mutation","trial_index":83,"time_elapsed":1437959,"internal_node_id":"0.0-5.0-29.0"},{"group":"hexagon_bi","fractal_assignment":["../images/blu_wht.png","../images/gry_blk.png","../images/pnk_blu.png","../images/org_blu.png","../images/ylw_slt.png","../images/cyn_red.png"],"mutagen_generator_assignment":[1,0],"goal":3,"start":5,"action_noise":0,"location_history":"[5,4,5,0,1,0,1,0,5,4,5,0,1,0,5,0,5,4,5,4,3]","action_history":"[1,1,0,1,1,1,1,0,1,1,0,1,1,0,0,0,1,1,1,0]","mutagen_history":"[0,0,1,0,0,0,0,1,0,0,1,0,0,1,1,1,0,0,0,1]","location_rts":"[272,189,226,221,215,222,223,230,197,225,219,226,221,219,199,218,212,200,218,225]","trial_type":"fractal-mutation","trial_index":84,"time_elapsed":1466988,"internal_node_id":"0.0-5.0-30.0"},{"group":"hexagon_bi","fractal_assignment":["../images/blu_wht.png","../images/gry_blk.png","../images/pnk_blu.png","../images/org_blu.png","../images/ylw_slt.png","../images/cyn_red.png"],"mutagen_generator_assignment":[1,0],"goal":0,"start":3,"action_noise":0,"location_history":"[3,2,1,2,3,2,1,2,3,2,3,4,5,0]","action_history":"[1,0,0,1,1,0,0,1,1,1,0,1,0]","mutagen_history":"[0,1,1,0,0,1,1,0,0,0,1,0,1]","location_rts":"[258,229,212,221,223,226,221,220,199,219,222,221,227]","trial_type":"fractal-mutation","trial_index":85,"time_elapsed":1487303,"internal_node_id":"0.0-5.0-31.0"},{"group":"hexagon_bi","fractal_assignment":["../images/blu_wht.png","../images/gry_blk.png","../images/pnk_blu.png","../images/org_blu.png","../images/ylw_slt.png","../images/cyn_red.png"],"mutagen_generator_assignment":[1,0],"goal":4,"start":0,"action_noise":0,"location_history":"[0,5,0,1,2,1,0,5,0,1,2,3,2,3,2,1,0,1,2,3,4]","action_history":"[0,0,1,0,0,1,0,0,1,0,1,1,1,1,0,1,1,0,1,0]","mutagen_history":"[1,1,0,1,1,0,1,1,0,1,0,0,0,0,1,0,0,1,0,1]","location_rts":"[222,225,224,225,202,215,226,224,224,228,211,224,226,213,186,201,222,229,218,219]","trial_type":"fractal-mutation","trial_index":86,"time_elapsed":1516272,"internal_node_id":"0.0-5.0-32.0"},{"group":"hexagon_bi","fractal_assignment":["../images/blu_wht.png","../images/gry_blk.png","../images/pnk_blu.png","../images/org_blu.png","../images/ylw_slt.png","../images/cyn_red.png"],"mutagen_generator_assignment":[1,0],"goal":1,"start":4,"action_noise":0,"location_history":"[4,3,4,5,0,1]","action_history":"[0,0,1,0,1]","mutagen_history":"[1,1,0,1,0]","location_rts":"[270,227,189,203,222]","trial_type":"fractal-mutation","trial_index":87,"time_elapsed":1526575,"internal_node_id":"0.0-5.0-33.0"},{"group":"hexagon_bi","fractal_assignment":["../images/blu_wht.png","../images/gry_blk.png","../images/pnk_blu.png","../images/org_blu.png","../images/ylw_slt.png","../images/cyn_red.png"],"mutagen_generator_assignment":[1,0],"goal":2,"start":1,"action_noise":0,"location_history":"[1,0,5,4,3,2]","action_history":"[1,0,1,0,1]","mutagen_history":"[0,1,0,1,0]","location_rts":"[268,211,211,205,184]","trial_type":"fractal-mutation","trial_index":88,"time_elapsed":1536863,"internal_node_id":"0.0-5.0-34.0"},{"group":"hexagon_bi","fractal_assignment":["../images/blu_wht.png","../images/gry_blk.png","../images/pnk_blu.png","../images/org_blu.png","../images/ylw_slt.png","../images/cyn_red.png"],"mutagen_generator_assignment":[1,0],"goal":0,"start":2,"action_noise":0,"location_history":"[2,3,2,3,2,1,0]","action_history":"[1,1,1,1,0,1]","mutagen_history":"[0,0,0,0,1,0]","location_rts":"[276,225,220,192,219,173]","trial_type":"fractal-mutation","trial_index":89,"time_elapsed":1548409,"internal_node_id":"0.0-5.0-35.0"},{"group":"hexagon_bi","fractal_assignment":["../images/blu_wht.png","../images/gry_blk.png","../images/pnk_blu.png","../images/org_blu.png","../images/ylw_slt.png","../images/cyn_red.png"],"mutagen_generator_assignment":[1,0],"goal":5,"start":0,"action_noise":0,"location_history":"[0,5]","action_history":"[0]","mutagen_history":"[1]","location_rts":"[268]","trial_type":"fractal-mutation","trial_index":90,"time_elapsed":1553722,"internal_node_id":"0.0-5.0-36.0"},{"group":"hexagon_bi","fractal_assignment":["../images/blu_wht.png","../images/gry_blk.png","../images/pnk_blu.png","../images/org_blu.png","../images/ylw_slt.png","../images/cyn_red.png"],"mutagen_generator_assignment":[1,0],"goal":2,"start":5,"action_noise":0,"location_history":"[5,0,5,4,3,4,3,4,5,4,3,4,3,4,3,4,3,2]","action_history":"[0,0,1,0,0,0,0,1,1,0,0,0,0,0,0,0,1]","mutagen_history":"[1,1,0,1,1,1,1,0,0,1,1,1,1,1,1,1,0]","location_rts":"[258,223,185,222,221,218,221,199,225,227,225,220,221,205,213,221,210]","trial_type":"fractal-mutation","trial_index":91,"time_elapsed":1578977,"internal_node_id":"0.0-5.0-37.0"},{"group":"hexagon_bi","fractal_assignment":["../images/blu_wht.png","../images/gry_blk.png","../images/pnk_blu.png","../images/org_blu.png","../images/ylw_slt.png","../images/cyn_red.png"],"mutagen_generator_assignment":[1,0],"goal":1,"start":2,"action_noise":0,"location_history":"[2,3,2,1]","action_history":"[1,1,0]","mutagen_history":"[0,0,1]","location_rts":"[281,202,229]","trial_type":"fractal-mutation","trial_index":92,"time_elapsed":1586781,"internal_node_id":"0.0-5.0-38.0"},{"group":"hexagon_bi","fractal_assignment":["../images/blu_wht.png","../images/gry_blk.png","../images/pnk_blu.png","../images/org_blu.png","../images/ylw_slt.png","../images/cyn_red.png"],"mutagen_generator_assignment":[1,0],"goal":4,"start":1,"action_noise":0,"location_history":"[1,2,3,4]","action_history":"[0,1,0]","mutagen_history":"[1,0,1]","location_rts":"[276,223,198]","trial_type":"fractal-mutation","trial_index":93,"time_elapsed":1594587,"internal_node_id":"0.0-5.0-39.0"},{"group":"hexagon_bi","fractal_assignment":["../images/blu_wht.png","../images/gry_blk.png","../images/pnk_blu.png","../images/org_blu.png","../images/ylw_slt.png","../images/cyn_red.png"],"mutagen_generator_assignment":[1,0],"goal":3,"start":4,"action_noise":0,"location_history":"[4,3]","action_history":"[0]","mutagen_history":"[1]","location_rts":"[271]","trial_type":"fractal-mutation","trial_index":94,"time_elapsed":1599895,"internal_node_id":"0.0-5.0-40.0"},{"group":"hexagon_bi","fractal_assignment":["../images/blu_wht.png","../images/gry_blk.png","../images/pnk_blu.png","../images/org_blu.png","../images/ylw_slt.png","../images/cyn_red.png"],"mutagen_generator_assignment":[1,0],"goal":5,"start":3,"action_noise":0,"location_history":"[3,2,3,4,5]","action_history":"[1,1,0,1]","mutagen_history":"[0,0,1,0]","location_rts":"[263,225,219,201]","trial_type":"fractal-mutation","trial_index":95,"time_elapsed":1608944,"internal_node_id":"0.0-5.0-41.0"},{"group":"hexagon_bi","fractal_assignment":["../images/blu_wht.png","../images/gry_blk.png","../images/pnk_blu.png","../images/org_blu.png","../images/ylw_slt.png","../images/cyn_red.png"],"mutagen_generator_assignment":[1,0],"goal":3,"start":5,"action_noise":0,"location_history":"[5,4,5,4,3]","action_history":"[1,1,1,0]","mutagen_history":"[0,0,0,1]","location_rts":"[267,224,207,215]","trial_type":"fractal-mutation","trial_index":96,"time_elapsed":1617995,"internal_node_id":"0.0-5.0-42.0"},{"group":"hexagon_bi","fractal_assignment":["../images/blu_wht.png","../images/gry_blk.png","../images/pnk_blu.png","../images/org_blu.png","../images/ylw_slt.png","../images/cyn_red.png"],"mutagen_generator_assignment":[1,0],"goal":0,"start":3,"action_noise":0,"location_history":"[3,4,5,4,3,4,3,4,5,0]","action_history":"[0,1,1,0,0,0,0,1,0]","mutagen_history":"[1,0,0,1,1,1,1,0,1]","location_rts":"[263,221,228,224,212,190,220,225,163]","trial_type":"fractal-mutation","trial_index":97,"time_elapsed":1633269,"internal_node_id":"0.0-5.0-43.0"},{"group":"hexagon_bi","fractal_assignment":["../images/blu_wht.png","../images/gry_blk.png","../images/pnk_blu.png","../images/org_blu.png","../images/ylw_slt.png","../images/cyn_red.png"],"mutagen_generator_assignment":[1,0],"goal":2,"start":0,"action_noise":0,"location_history":"[0,1,2]","action_history":"[1,0]","mutagen_history":"[0,1]","location_rts":"[273,220]","trial_type":"fractal-mutation","trial_index":98,"time_elapsed":1639856,"internal_node_id":"0.0-5.0-44.0"},{"group":"hexagon_bi","fractal_assignment":["../images/blu_wht.png","../images/gry_blk.png","../images/pnk_blu.png","../images/org_blu.png","../images/ylw_slt.png","../images/cyn_red.png"],"mutagen_generator_assignment":[1,0],"goal":4,"start":2,"action_noise":0,"location_history":"[2,1,2,3,4]","action_history":"[0,0,1,0]","mutagen_history":"[1,1,0,1]","location_rts":"[237,223,224,223]","trial_type":"fractal-mutation","trial_index":99,"time_elapsed":1648870,"internal_node_id":"0.0-5.0-45.0"},{"group":"hexagon_bi","fractal_assignment":["../images/blu_wht.png","../images/gry_blk.png","../images/pnk_blu.png","../images/org_blu.png","../images/ylw_slt.png","../images/cyn_red.png"],"mutagen_generator_assignment":[1,0],"goal":1,"start":4,"action_noise":0,"location_history":"[4,3,2,1]","action_history":"[0,1,0]","mutagen_history":"[1,0,1]","location_rts":"[272,221,221]","trial_type":"fractal-mutation","trial_index":100,"time_elapsed":1656668,"internal_node_id":"0.0-5.0-46.0"},{"group":"hexagon_bi","fractal_assignment":["../images/blu_wht.png","../images/gry_blk.png","../images/pnk_blu.png","../images/org_blu.png","../images/ylw_slt.png","../images/cyn_red.png"],"mutagen_generator_assignment":[1,0],"goal":4,"start":1,"action_noise":0,"location_history":"[1,2,1,2,1,0,1,2,1,2,3,4]","action_history":"[0,0,0,0,1,1,0,0,0,1,0]","mutagen_history":"[1,1,1,1,0,0,1,1,1,0,1]","location_rts":"[278,223,216,193,222,227,236,212,216,224,224]","trial_type":"fractal-mutation","trial_index":101,"time_elapsed":1674457,"internal_node_id":"0.0-5.0-47.0"},{"group":"hexagon_bi","fractal_assignment":["../images/blu_wht.png","../images/gry_blk.png","../images/pnk_blu.png","../images/org_blu.png","../images/ylw_slt.png","../images/cyn_red.png"],"mutagen_generator_assignment":[1,0],"goal":3,"start":4,"action_noise":0,"location_history":"[4,3]","action_history":"[0]","mutagen_history":"[1]","location_rts":"[231]","trial_type":"fractal-mutation","trial_index":102,"time_elapsed":1679760,"internal_node_id":"0.0-5.0-48.0"},{"group":"hexagon_bi","fractal_assignment":["../images/blu_wht.png","../images/gry_blk.png","../images/pnk_blu.png","../images/org_blu.png","../images/ylw_slt.png","../images/cyn_red.png"],"mutagen_generator_assignment":[1,0],"goal":5,"start":3,"action_noise":0,"location_history":"[3,4,3,2,3,4,5]","action_history":"[0,0,1,1,0,1]","mutagen_history":"[1,1,0,0,1,0]","location_rts":"[270,228,225,227,214,227]","trial_type":"fractal-mutation","trial_index":103,"time_elapsed":1691305,"internal_node_id":"0.0-5.0-49.0"},{"view_history":"[{\"page_index\":0,\"viewing_time\":168574}]","rt":168574,"trial_type":"instructions","trial_index":104,"time_elapsed":1860880,"internal_node_id":"0.0-6.0"},{"rt":2037,"responses":"{\"Q0\":\"\"}","trial_type":"survey-text","trial_index":105,"time_elapsed":1863928,"internal_node_id":"0.0-7.0"}]