[{"view_history":"[{\"page_index\":0,\"viewing_time\":1071},{\"page_index\":1,\"viewing_time\":1277},{\"page_index\":2,\"viewing_time\":11096}]","rt":13445,"trial_type":"instructions","trial_index":0,"time_elapsed":13447,"internal_node_id":"0.0-0.0"},{"view_history":"[{\"page_index\":0,\"viewing_time\":1963},{\"page_index\":1,\"viewing_time\":12812}]","rt":14775,"trial_type":"instructions","trial_index":1,"time_elapsed":29223,"internal_node_id":"0.0-1.0"},{"group":"hexagon_tri","room_assignment":["red","grey","green","purple","yellow","blue"],"door_color_assignment":["white","black"],"door_generator_assignment":[0,1],"goal":4,"start":0,"action_noise":0,"location_history":"[0,5,4]","action_history":"[0,0]","door_history":"[0,0]","location_rts":"[2314,2568]","trial_type":"two-door-navigation","trial_index":2,"time_elapsed":40273,"internal_node_id":"0.0-2.0-0.0"},{"group":"hexagon_tri","room_assignment":["red","grey","green","purple","yellow","blue"],"door_color_assignment":["white","black"],"door_generator_assignment":[0,1],"goal":3,"start":4,"action_noise":0,"location_history":"[4,0,5,4,2,3]","action_history":"[0,0,0,1,1]","door_history":"[0,0,0,1,1]","location_rts":"[2785,1346,3072,2703,2467]","trial_type":"two-door-navigation","trial_index":3,"time_elapsed":61952,"internal_node_id":"0.0-2.0-1.0"},{"group":"hexagon_tri","room_assignment":["red","grey","green","purple","yellow","blue"],"door_color_assignment":["white","black"],"door_generator_assignment":[0,1],"goal":5,"start":3,"action_noise":0,"location_history":"[3,4,2,1,3,4,2,1,5]","action_history":"[1,1,0,0,1,1,0,1]","door_history":"[1,1,0,0,1,1,0,1]","location_rts":"[966,3288,678,9562,2817,3326,334,16625]","trial_type":"two-door-navigation","trial_index":4,"time_elapsed":112036,"internal_node_id":"0.0-2.0-2.0"},{"group":"hexagon_tri","room_assignment":["red","grey","green","purple","yellow","blue"],"door_color_assignment":["white","black"],"door_generator_assignment":[0,1],"goal":2,"start":5,"action_noise":0,"location_history":"[5,4,2]","action_history":"[0,1]","door_history":"[0,1]","location_rts":"[9493,350]","trial_type":"two-door-navigation","trial_index":5,"time_elapsed":128015,"internal_node_id":"0.0-2.0-3.0"},{"group":"hexagon_tri","room_assignment":["red","grey","green","purple","yellow","blue"],"door_color_assignment":["white","black"],"door_generator_assignment":[0,1],"goal":1,"start":2,"action_noise":0,"location_history":"[2,1]","action_history":"[0]","door_history":"[0]","location_rts":"[830]","trial_type":"two-door-navigation","trial_index":6,"time_elapsed":133911,"internal_node_id":"0.0-2.0-4.0"},{"group":"hexagon_tri","room_assignment":["red","grey","green","purple","yellow","blue"],"door_color_assignment":["white","black"],"door_generator_assignment":[0,1],"goal":4,"start":1,"action_noise":0,"location_history":"[1,5,4]","action_history":"[1,0]","door_history":"[1,0]","location_rts":"[3141,264]","trial_type":"two-door-navigation","trial_index":7,"time_elapsed":143451,"internal_node_id":"0.0-2.0-5.0"},{"group":"hexagon_tri","room_assignment":["red","grey","green","purple","yellow","blue"],"door_color_assignment":["white","black"],"door_generator_assignment":[0,1],"goal":1,"start":4,"action_noise":0,"location_history":"[4,2,1]","action_history":"[1,0]","door_history":"[1,0]","location_rts":"[1716,62]","trial_type":"two-door-navigation","trial_index":8,"time_elapsed":151348,"internal_node_id":"0.0-2.0-6.0"},{"group":"hexagon_tri","room_assignment":["red","grey","green","purple","yellow","blue"],"door_color_assignment":["white","black"],"door_generator_assignment":[0,1],"goal":5,"start":1,"action_noise":0,"location_history":"[1,3,4,0,1,3,4,2,1,5]","action_history":"[0,1,0,1,0,1,1,0,1]","door_history":"[0,1,0,1,0,1,1,0,1]","location_rts":"[2374,346,1063,336,1954,1944,696,401,619]","trial_type":"two-door-navigation","trial_index":9,"time_elapsed":174609,"internal_node_id":"0.0-2.0-7.0"},{"group":"hexagon_tri","room_assignment":["red","grey","green","purple","yellow","blue"],"door_color_assignment":["white","black"],"door_generator_assignment":[0,1],"goal":0,"start":5,"action_noise":0,"location_history":"[5,0]","action_history":"[1]","door_history":"[1]","location_rts":"[5885]","trial_type":"two-door-navigation","trial_index":10,"time_elapsed":185569,"internal_node_id":"0.0-2.0-8.0"},{"group":"hexagon_tri","room_assignment":["red","grey","green","purple","yellow","blue"],"door_color_assignment":["white","black"],"door_generator_assignment":[0,1],"goal":2,"start":0,"action_noise":0,"location_history":"[0,5,0,5,4,2]","action_history":"[0,1,0,0,1]","door_history":"[0,1,0,0,1]","location_rts":"[11259,375,894,316,1917]","trial_type":"two-door-navigation","trial_index":11,"time_elapsed":209618,"internal_node_id":"0.0-2.0-9.0"},{"group":"hexagon_tri","room_assignment":["red","grey","green","purple","yellow","blue"],"door_color_assignment":["white","black"],"door_generator_assignment":[0,1],"goal":3,"start":2,"action_noise":0,"location_history":"[2,3]","action_history":"[1]","door_history":"[1]","location_rts":"[4628]","trial_type":"two-door-navigation","trial_index":12,"time_elapsed":219306,"internal_node_id":"0.0-2.0-10.0"},{"group":"hexagon_tri","room_assignment":["red","grey","green","purple","yellow","blue"],"door_color_assignment":["white","black"],"door_generator_assignment":[0,1],"goal":0,"start":3,"action_noise":0,"location_history":"[3,2,3,2,3,2,1,5,4,2,1,3,4,0]","action_history":"[0,1,0,1,0,0,1,0,1,0,0,1,0]","door_history":"[0,1,0,1,0,0,1,0,1,0,0,1,0]","location_rts":"[6388,325,346,300,334,919,335,513,825,822,533,682,401]","trial_type":"two-door-navigation","trial_index":13,"time_elapsed":249762,"internal_node_id":"0.0-2.0-11.0"},{"group":"hexagon_tri","room_assignment":["red","grey","green","purple","yellow","blue"],"door_color_assignment":["white","black"],"door_generator_assignment":[0,1],"goal":2,"start":0,"action_noise":0,"location_history":"[0,5,0,5,0,1,3,4,0,1,5,4,2]","action_history":"[0,1,0,1,1,0,1,0,1,1,0,1]","door_history":"[0,1,0,1,1,0,1,0,1,1,0,1]","location_rts":"[8254,313,270,354,931,328,264,390,310,371,274,291]","trial_type":"two-door-navigation","trial_index":14,"time_elapsed":278804,"internal_node_id":"0.0-2.0-12.0"},{"group":"hexagon_tri","room_assignment":["red","grey","green","purple","yellow","blue"],"door_color_assignment":["white","black"],"door_generator_assignment":[0,1],"goal":5,"start":2,"action_noise":0,"location_history":"[2,3,2,1,5]","action_history":"[1,0,0,1]","door_history":"[1,0,0,1]","location_rts":"[10613,1064,1051,319]","trial_type":"two-door-navigation","trial_index":15,"time_elapsed":300082,"internal_node_id":"0.0-2.0-13.0"},{"group":"hexagon_tri","room_assignment":["red","grey","green","purple","yellow","blue"],"door_color_assignment":["white","black"],"door_generator_assignment":[0,1],"goal":4,"start":5,"action_noise":0,"location_history":"[5,0,5,0,1,3,4]","action_history":"[1,0,1,1,0,1]","door_history":"[1,0,1,1,0,1]","location_rts":"[1784,351,325,1070,313,268]","trial_type":"two-door-navigation","trial_index":16,"time_elapsed":314522,"internal_node_id":"0.0-2.0-14.0"},{"group":"hexagon_tri","room_assignment":["red","grey","green","purple","yellow","blue"],"door_color_assignment":["white","black"],"door_generator_assignment":[0,1],"goal":3,"start":4,"action_noise":0,"location_history":"[4,0,5,0,1,3]","action_history":"[0,0,1,1,0]","door_history":"[0,0,1,1,0]","location_rts":"[9760,365,242,975,264]","trial_type":"two-door-navigation","trial_index":17,"time_elapsed":335415,"internal_node_id":"0.0-2.0-15.0"},{"group":"hexagon_tri","room_assignment":["red","grey","green","purple","yellow","blue"],"door_color_assignment":["white","black"],"door_generator_assignment":[0,1],"goal":1,"start":3,"action_noise":0,"location_history":"[3,2,3,2,3,2,1]","action_history":"[0,1,0,1,0,0]","door_history":"[0,1,0,1,0,0]","location_rts":"[9196,269,323,277,251,222]","trial_type":"two-door-navigation","trial_index":18,"time_elapsed":356596,"internal_node_id":"0.0-2.0-16.0"},{"group":"hexagon_tri","room_assignment":["red","grey","green","purple","yellow","blue"],"door_color_assignment":["white","black"],"door_generator_assignment":[0,1],"goal":5,"start":1,"action_noise":0,"location_history":"[1,5]","action_history":"[1]","door_history":"[1]","location_rts":"[891]","trial_type":"two-door-navigation","trial_index":19,"time_elapsed":363546,"internal_node_id":"0.0-2.0-17.0"},{"group":"hexagon_tri","room_assignment":["red","grey","green","purple","yellow","blue"],"door_color_assignment":["white","black"],"door_generator_assignment":[0,1],"goal":4,"start":5,"action_noise":0,"location_history":"[5,4]","action_history":"[0]","door_history":"[0]","location_rts":"[8197]","trial_type":"two-door-navigation","trial_index":20,"time_elapsed":376803,"internal_node_id":"0.0-2.0-18.0"},{"group":"hexagon_tri","room_assignment":["red","grey","green","purple","yellow","blue"],"door_color_assignment":["white","black"],"door_generator_assignment":[0,1],"goal":0,"start":4,"action_noise":0,"location_history":"[4,0]","action_history":"[0]","door_history":"[0]","location_rts":"[2405]","trial_type":"two-door-navigation","trial_index":21,"time_elapsed":384266,"internal_node_id":"0.0-2.0-19.0"},{"group":"hexagon_tri","room_assignment":["red","grey","green","purple","yellow","blue"],"door_color_assignment":["white","black"],"door_generator_assignment":[0,1],"goal":1,"start":0,"action_noise":0,"location_history":"[0,1]","action_history":"[1]","door_history":"[1]","location_rts":"[1054]","trial_type":"two-door-navigation","trial_index":22,"time_elapsed":390391,"internal_node_id":"0.0-2.0-20.0"},{"group":"hexagon_tri","room_assignment":["red","grey","green","purple","yellow","blue"],"door_color_assignment":["white","black"],"door_generator_assignment":[0,1],"goal":3,"start":1,"action_noise":0,"location_history":"[1,3]","action_history":"[0]","door_history":"[0]","location_rts":"[19629]","trial_type":"two-door-navigation","trial_index":23,"time_elapsed":415084,"internal_node_id":"0.0-2.0-21.0"},{"group":"hexagon_tri","room_assignment":["red","grey","green","purple","yellow","blue"],"door_color_assignment":["white","black"],"door_generator_assignment":[0,1],"goal":2,"start":3,"action_noise":0,"location_history":"[3,2]","action_history":"[0]","door_history":"[0]","location_rts":"[2032]","trial_type":"two-door-navigation","trial_index":24,"time_elapsed":422178,"internal_node_id":"0.0-2.0-22.0"},{"group":"hexagon_tri","room_assignment":["red","grey","green","purple","yellow","blue"],"door_color_assignment":["white","black"],"door_generator_assignment":[0,1],"goal":0,"start":2,"action_noise":0,"location_history":"[2,1,5,4,2,1,5,4,0]","action_history":"[0,1,0,1,0,1,0,0]","door_history":"[0,1,0,1,0,1,0,0]","location_rts":"[6655,339,385,741,377,310,731,395]","trial_type":"two-door-navigation","trial_index":25,"time_elapsed":444595,"internal_node_id":"0.0-2.0-23.0"},{"group":"hexagon_tri","room_assignment":["red","grey","green","purple","yellow","blue"],"door_color_assignment":["white","black"],"door_generator_assignment":[0,1],"goal":3,"start":0,"action_noise":0,"location_history":"[0,5,0,5,0,5,4,0,1,3]","action_history":"[0,1,0,1,0,0,0,1,0]","door_history":"[0,1,0,1,0,0,0,1,0]","location_rts":"[4360,250,1270,471,357,341,786,320,733]","trial_type":"two-door-navigation","trial_index":26,"time_elapsed":467006,"internal_node_id":"0.0-2.0-24.0"},{"group":"hexagon_tri","room_assignment":["red","grey","green","purple","yellow","blue"],"door_color_assignment":["white","black"],"door_generator_assignment":[0,1],"goal":1,"start":3,"action_noise":0,"location_history":"[3,2,3,2,3,4,2,3,2,1]","action_history":"[0,1,0,1,1,1,1,0,0]","door_history":"[0,1,0,1,1,1,1,0,0]","location_rts":"[12473,574,632,362,376,324,436,428,326]","trial_type":"two-door-navigation","trial_index":27,"time_elapsed":496446,"internal_node_id":"0.0-2.0-25.0"},{"group":"hexagon_tri","room_assignment":["red","grey","green","purple","yellow","blue"],"door_color_assignment":["white","black"],"door_generator_assignment":[0,1],"goal":2,"start":1,"action_noise":0,"location_history":"[1,5,4,2]","action_history":"[1,0,1]","door_history":"[1,0,1]","location_rts":"[5497,283,491]","trial_type":"two-door-navigation","trial_index":28,"time_elapsed":509895,"internal_node_id":"0.0-2.0-26.0"},{"group":"hexagon_tri","room_assignment":["red","grey","green","purple","yellow","blue"],"door_color_assignment":["white","black"],"door_generator_assignment":[0,1],"goal":5,"start":2,"action_noise":0,"location_history":"[2,1,5]","action_history":"[0,1]","door_history":"[0,1]","location_rts":"[1348,276]","trial_type":"two-door-navigation","trial_index":29,"time_elapsed":517648,"internal_node_id":"0.0-2.0-27.0"},{"group":"hexagon_tri","room_assignment":["red","grey","green","purple","yellow","blue"],"door_color_assignment":["white","black"],"door_generator_assignment":[0,1],"goal":4,"start":5,"action_noise":0,"location_history":"[5,4]","action_history":"[0]","door_history":"[0]","location_rts":"[3408]","trial_type":"two-door-navigation","trial_index":30,"time_elapsed":526106,"internal_node_id":"0.0-2.0-28.0"},{"group":"hexagon_tri","room_assignment":["red","grey","green","purple","yellow","blue"],"door_color_assignment":["white","black"],"door_generator_assignment":[0,1],"goal":5,"start":4,"action_noise":0,"location_history":"[4,2,1,5]","action_history":"[1,0,1]","door_history":"[1,0,1]","location_rts":"[2401,356,384]","trial_type":"two-door-navigation","trial_index":31,"time_elapsed":536429,"internal_node_id":"0.0-2.0-29.0"},{"group":"hexagon_tri","room_assignment":["red","grey","green","purple","yellow","blue"],"door_color_assignment":["white","black"],"door_generator_assignment":[0,1],"goal":3,"start":5,"action_noise":0,"location_history":"[5,0,5,0,1,3]","action_history":"[1,0,1,1,0]","door_history":"[1,0,1,1,0]","location_rts":"[1849,337,643,371,472]","trial_type":"two-door-navigation","trial_index":32,"time_elapsed":549389,"internal_node_id":"0.0-2.0-30.0"},{"group":"hexagon_tri","room_assignment":["red","grey","green","purple","yellow","blue"],"door_color_assignment":["white","black"],"door_generator_assignment":[0,1],"goal":0,"start":3,"action_noise":0,"location_history":"[3,4,0]","action_history":"[1,0]","door_history":"[1,0]","location_rts":"[316,280]","trial_type":"two-door-navigation","trial_index":33,"time_elapsed":556108,"internal_node_id":"0.0-2.0-31.0"},{"group":"hexagon_tri","room_assignment":["red","grey","green","purple","yellow","blue"],"door_color_assignment":["white","black"],"door_generator_assignment":[0,1],"goal":4,"start":0,"action_noise":0,"location_history":"[0,1,3,4]","action_history":"[1,0,1]","door_history":"[1,0,1]","location_rts":"[19622,343,284]","trial_type":"two-door-navigation","trial_index":34,"time_elapsed":583601,"internal_node_id":"0.0-2.0-32.0"},{"group":"hexagon_tri","room_assignment":["red","grey","green","purple","yellow","blue"],"door_color_assignment":["white","black"],"door_generator_assignment":[0,1],"goal":1,"start":4,"action_noise":0,"location_history":"[4,0,1]","action_history":"[0,1]","door_history":"[0,1]","location_rts":"[4447,317]","trial_type":"two-door-navigation","trial_index":35,"time_elapsed":594451,"internal_node_id":"0.0-2.0-33.0"},{"group":"hexagon_tri","room_assignment":["red","grey","green","purple","yellow","blue"],"door_color_assignment":["white","black"],"door_generator_assignment":[0,1],"goal":2,"start":1,"action_noise":0,"location_history":"[1,5,0,1,3,2]","action_history":"[1,1,1,0,0]","door_history":"[1,1,1,0,0]","location_rts":"[4872,410,327,892,552]","trial_type":"two-door-navigation","trial_index":36,"time_elapsed":610785,"internal_node_id":"0.0-2.0-34.0"},{"group":"hexagon_tri","room_assignment":["red","grey","green","purple","yellow","blue"],"door_color_assignment":["white","black"],"door_generator_assignment":[0,1],"goal":0,"start":2,"action_noise":0,"location_history":"[2,3,2,3,4,0]","action_history":"[1,0,1,1,0]","door_history":"[1,0,1,1,0]","location_rts":"[3260,407,311,441,477]","trial_type":"two-door-navigation","trial_index":37,"time_elapsed":624978,"internal_node_id":"0.0-2.0-35.0"},{"group":"hexagon_tri","room_assignment":["red","grey","green","purple","yellow","blue"],"door_color_assignment":["white","black"],"door_generator_assignment":[0,1],"goal":5,"start":0,"action_noise":0,"location_history":"[0,5]","action_history":"[0]","door_history":"[0]","location_rts":"[5488]","trial_type":"two-door-navigation","trial_index":38,"time_elapsed":635515,"internal_node_id":"0.0-2.0-36.0"},{"group":"hexagon_tri","room_assignment":["red","grey","green","purple","yellow","blue"],"door_color_assignment":["white","black"],"door_generator_assignment":[0,1],"goal":2,"start":5,"action_noise":0,"location_history":"[5,4,2]","action_history":"[0,1]","door_history":"[0,1]","location_rts":"[3574,463]","trial_type":"two-door-navigation","trial_index":39,"time_elapsed":645656,"internal_node_id":"0.0-2.0-37.0"},{"group":"hexagon_tri","room_assignment":["red","grey","green","purple","yellow","blue"],"door_color_assignment":["white","black"],"door_generator_assignment":[0,1],"goal":1,"start":2,"action_noise":0,"location_history":"[2,3,2,3,4,0,1]","action_history":"[1,0,1,1,0,1]","door_history":"[1,0,1,1,0,1]","location_rts":"[911,356,369,325,982,910]","trial_type":"two-door-navigation","trial_index":40,"time_elapsed":659842,"internal_node_id":"0.0-2.0-38.0"},{"group":"hexagon_tri","room_assignment":["red","grey","green","purple","yellow","blue"],"door_color_assignment":["white","black"],"door_generator_assignment":[0,1],"goal":4,"start":1,"action_noise":0,"location_history":"[1,3,4]","action_history":"[0,1]","door_history":"[0,1]","location_rts":"[2932,349]","trial_type":"two-door-navigation","trial_index":41,"time_elapsed":669244,"internal_node_id":"0.0-2.0-39.0"},{"group":"hexagon_tri","room_assignment":["red","grey","green","purple","yellow","blue"],"door_color_assignment":["white","black"],"door_generator_assignment":[0,1],"goal":3,"start":4,"action_noise":0,"location_history":"[4,0,1,3]","action_history":"[0,1,0]","door_history":"[0,1,0]","location_rts":"[5458,263,386]","trial_type":"two-door-navigation","trial_index":42,"time_elapsed":682534,"internal_node_id":"0.0-2.0-40.0"},{"group":"hexagon_tri","room_assignment":["red","grey","green","purple","yellow","blue"],"door_color_assignment":["white","black"],"door_generator_assignment":[0,1],"goal":5,"start":3,"action_noise":0,"location_history":"[3,4,0,1,3,4,0,5]","action_history":"[1,0,1,0,1,0,0]","door_history":"[1,0,1,0,1,0,0]","location_rts":"[8508,416,277,266,256,314,222]","trial_type":"two-door-navigation","trial_index":43,"time_elapsed":704053,"internal_node_id":"0.0-2.0-41.0"},{"group":"hexagon_tri","room_assignment":["red","grey","green","purple","yellow","blue"],"door_color_assignment":["white","black"],"door_generator_assignment":[0,1],"goal":3,"start":5,"action_noise":0,"location_history":"[5,0,5,0,5,0,1,3]","action_history":"[1,0,1,0,1,1,0]","door_history":"[1,0,1,0,1,1,0]","location_rts":"[5107,274,364,340,476,244,314]","trial_type":"two-door-navigation","trial_index":44,"time_elapsed":723243,"internal_node_id":"0.0-2.0-42.0"},{"group":"hexagon_tri","room_assignment":["red","grey","green","purple","yellow","blue"],"door_color_assignment":["white","black"],"door_generator_assignment":[0,1],"goal":0,"start":3,"action_noise":0,"location_history":"[3,2,3,4,0]","action_history":"[0,1,1,0]","door_history":"[0,1,1,0]","location_rts":"[5324,277,690,333]","trial_type":"two-door-navigation","trial_index":45,"time_elapsed":738019,"internal_node_id":"0.0-2.0-43.0"},{"group":"hexagon_tri","room_assignment":["red","grey","green","purple","yellow","blue"],"door_color_assignment":["white","black"],"door_generator_assignment":[0,1],"goal":2,"start":0,"action_noise":0,"location_history":"[0,5,0,1,3,4,0,5,0,5,4,2]","action_history":"[0,1,1,0,1,0,0,1,0,0,1]","door_history":"[0,1,1,0,1,0,0,1,0,0,1]","location_rts":"[3544,267,289,241,351,349,386,230,1087,640,379]","trial_type":"two-door-navigation","trial_index":46,"time_elapsed":761201,"internal_node_id":"0.0-2.0-44.0"},{"group":"hexagon_tri","room_assignment":["red","grey","green","purple","yellow","blue"],"door_color_assignment":["white","black"],"door_generator_assignment":[0,1],"goal":4,"start":2,"action_noise":0,"location_history":"[2,1,5,0,5,0,1,5,4]","action_history":"[0,1,1,0,1,1,1,0]","door_history":"[0,1,1,0,1,1,1,0]","location_rts":"[4597,372,328,359,359,344,395,459]","trial_type":"two-door-navigation","trial_index":47,"time_elapsed":780895,"internal_node_id":"0.0-2.0-45.0"},{"group":"hexagon_tri","room_assignment":["red","grey","green","purple","yellow","blue"],"door_color_assignment":["white","black"],"door_generator_assignment":[0,1],"goal":1,"start":4,"action_noise":0,"location_history":"[4,2,1]","action_history":"[1,0]","door_history":"[1,0]","location_rts":"[2585,303]","trial_type":"two-door-navigation","trial_index":48,"time_elapsed":789915,"internal_node_id":"0.0-2.0-46.0"},{"group":"hexagon_tri","room_assignment":["red","grey","green","purple","yellow","blue"],"door_color_assignment":["white","black"],"door_generator_assignment":[0,1],"goal":4,"start":1,"action_noise":0,"location_history":"[1,3,4]","action_history":"[0,1]","door_history":"[0,1]","location_rts":"[2475,322]","trial_type":"two-door-navigation","trial_index":49,"time_elapsed":798830,"internal_node_id":"0.0-2.0-47.0"},{"group":"hexagon_tri","room_assignment":["red","grey","green","purple","yellow","blue"],"door_color_assignment":["white","black"],"door_generator_assignment":[0,1],"goal":3,"start":4,"action_noise":0,"location_history":"[4,2,1,5,4,0,1,5,4,0,5,0,1,3]","action_history":"[1,0,1,0,0,1,1,0,0,0,1,1,0]","door_history":"[1,0,1,0,0,1,1,0,0,0,1,1,0]","location_rts":"[817,339,382,307,281,679,312,332,305,332,304,297,382]","trial_type":"two-door-navigation","trial_index":50,"time_elapsed":821665,"internal_node_id":"0.0-2.0-48.0"},{"group":"hexagon_tri","room_assignment":["red","grey","green","purple","yellow","blue"],"door_color_assignment":["white","black"],"door_generator_assignment":[0,1],"goal":5,"start":3,"action_noise":0,"location_history":"[3,4,2,3,2,1,5]","action_history":"[1,1,1,0,0,1]","door_history":"[1,1,1,0,0,1]","location_rts":"[752,325,412,1367,421,339]","trial_type":"two-door-navigation","trial_index":51,"time_elapsed":835631,"internal_node_id":"0.0-2.0-49.0"},{"view_history":"[{\"page_index\":0,\"viewing_time\":2985}]","rt":2985,"trial_type":"instructions","trial_index":52,"time_elapsed":839616,"internal_node_id":"0.0-3.0"},{"view_history":"[{\"page_index\":0,\"viewing_time\":15018},{\"page_index\":1,\"viewing_time\":1637}]","rt":16659,"trial_type":"instructions","trial_index":53,"time_elapsed":857276,"internal_node_id":"0.0-4.0"},{"group":"hexagon_tri","fractal_assignment":["../images/gry_blk.png","../images/org_blu.png","../images/ylw_slt.png","../images/pnk_blu.png","../images/blu_wht.png","../images/cyn_red.png"],"mutagen_generator_assignment":[1,0],"goal":4,"start":0,"action_noise":0,"location_history":"[0,1,3,4]","action_history":"[1,0,1]","mutagen_history":"[0,1,0]","location_rts":"[33429,1357,364]","trial_type":"fractal-mutation","trial_index":54,"time_elapsed":899718,"internal_node_id":"0.0-5.0-0.0"},{"group":"hexagon_tri","fractal_assignment":["../images/gry_blk.png","../images/org_blu.png","../images/ylw_slt.png","../images/pnk_blu.png","../images/blu_wht.png","../images/cyn_red.png"],"mutagen_generator_assignment":[1,0],"goal":3,"start":4,"action_noise":0,"location_history":"[4,0,1,3]","action_history":"[0,1,0]","mutagen_history":"[1,0,1]","location_rts":"[324,1896,56]","trial_type":"fractal-mutation","trial_index":55,"time_elapsed":909285,"internal_node_id":"0.0-5.0-1.0"},{"group":"hexagon_tri","fractal_assignment":["../images/gry_blk.png","../images/org_blu.png","../images/ylw_slt.png","../images/pnk_blu.png","../images/blu_wht.png","../images/cyn_red.png"],"mutagen_generator_assignment":[1,0],"goal":5,"start":3,"action_noise":0,"location_history":"[3,4,2,1,3,4,0,1,3,4,0,1,5]","action_history":"[1,1,0,0,1,0,1,0,1,0,1,1]","mutagen_history":"[0,0,1,1,0,1,0,1,0,1,0,0]","location_rts":"[2033,1255,953,627,487,809,835,976,223,433,1725,4665]","trial_type":"fractal-mutation","trial_index":56,"time_elapsed":941133,"internal_node_id":"0.0-5.0-2.0"},{"group":"hexagon_tri","fractal_assignment":["../images/gry_blk.png","../images/org_blu.png","../images/ylw_slt.png","../images/pnk_blu.png","../images/blu_wht.png","../images/cyn_red.png"],"mutagen_generator_assignment":[1,0],"goal":2,"start":5,"action_noise":0,"location_history":"[5,4,2]","action_history":"[0,1]","mutagen_history":"[1,0]","location_rts":"[2562,1669]","trial_type":"fractal-mutation","trial_index":57,"time_elapsed":951518,"internal_node_id":"0.0-5.0-3.0"},{"group":"hexagon_tri","fractal_assignment":["../images/gry_blk.png","../images/org_blu.png","../images/ylw_slt.png","../images/pnk_blu.png","../images/blu_wht.png","../images/cyn_red.png"],"mutagen_generator_assignment":[1,0],"goal":1,"start":2,"action_noise":0,"location_history":"[2,3,2,3,4,2,3,2,1]","action_history":"[1,0,1,1,1,1,0,0]","mutagen_history":"[0,1,0,0,0,0,1,1]","location_rts":"[643,2616,594,1445,780,629,482,353]","trial_type":"fractal-mutation","trial_index":58,"time_elapsed":971588,"internal_node_id":"0.0-5.0-4.0"},{"group":"hexagon_tri","fractal_assignment":["../images/gry_blk.png","../images/org_blu.png","../images/ylw_slt.png","../images/pnk_blu.png","../images/blu_wht.png","../images/cyn_red.png"],"mutagen_generator_assignment":[1,0],"goal":4,"start":1,"action_noise":0,"location_history":"[1,3,4]","action_history":"[0,1]","mutagen_history":"[1,0]","location_rts":"[290,368]","trial_type":"fractal-mutation","trial_index":59,"time_elapsed":978366,"internal_node_id":"0.0-5.0-5.0"},{"group":"hexagon_tri","fractal_assignment":["../images/gry_blk.png","../images/org_blu.png","../images/ylw_slt.png","../images/pnk_blu.png","../images/blu_wht.png","../images/cyn_red.png"],"mutagen_generator_assignment":[1,0],"goal":1,"start":4,"action_noise":0,"location_history":"[4,2,3,4,0,1]","action_history":"[1,1,1,0,1]","mutagen_history":"[0,0,0,1,0]","location_rts":"[185,222,121,180,169]","trial_type":"fractal-mutation","trial_index":60,"time_elapsed":988601,"internal_node_id":"0.0-5.0-6.0"},{"group":"hexagon_tri","fractal_assignment":["../images/gry_blk.png","../images/org_blu.png","../images/ylw_slt.png","../images/pnk_blu.png","../images/blu_wht.png","../images/cyn_red.png"],"mutagen_generator_assignment":[1,0],"goal":5,"start":1,"action_noise":0,"location_history":"[1,5]","action_history":"[1]","mutagen_history":"[0]","location_rts":"[892]","trial_type":"fractal-mutation","trial_index":61,"time_elapsed":994566,"internal_node_id":"0.0-5.0-7.0"},{"group":"hexagon_tri","fractal_assignment":["../images/gry_blk.png","../images/org_blu.png","../images/ylw_slt.png","../images/pnk_blu.png","../images/blu_wht.png","../images/cyn_red.png"],"mutagen_generator_assignment":[1,0],"goal":0,"start":5,"action_noise":0,"location_history":"[5,0]","action_history":"[1]","mutagen_history":"[0]","location_rts":"[566]","trial_type":"fractal-mutation","trial_index":62,"time_elapsed":1000205,"internal_node_id":"0.0-5.0-8.0"},{"group":"hexagon_tri","fractal_assignment":["../images/gry_blk.png","../images/org_blu.png","../images/ylw_slt.png","../images/pnk_blu.png","../images/blu_wht.png","../images/cyn_red.png"],"mutagen_generator_assignment":[1,0],"goal":2,"start":0,"action_noise":0,"location_history":"[0,1,3,2]","action_history":"[1,0,0]","mutagen_history":"[0,1,1]","location_rts":"[511,233,104]","trial_type":"fractal-mutation","trial_index":63,"time_elapsed":1008275,"internal_node_id":"0.0-5.0-9.0"},{"group":"hexagon_tri","fractal_assignment":["../images/gry_blk.png","../images/org_blu.png","../images/ylw_slt.png","../images/pnk_blu.png","../images/blu_wht.png","../images/cyn_red.png"],"mutagen_generator_assignment":[1,0],"goal":3,"start":2,"action_noise":0,"location_history":"[2,3]","action_history":"[1]","mutagen_history":"[0]","location_rts":"[352]","trial_type":"fractal-mutation","trial_index":64,"time_elapsed":1013700,"internal_node_id":"0.0-5.0-10.0"},{"group":"hexagon_tri","fractal_assignment":["../images/gry_blk.png","../images/org_blu.png","../images/ylw_slt.png","../images/pnk_blu.png","../images/blu_wht.png","../images/cyn_red.png"],"mutagen_generator_assignment":[1,0],"goal":0,"start":3,"action_noise":0,"location_history":"[3,4,2,3,2,1,5,0]","action_history":"[1,1,1,0,0,1,1]","mutagen_history":"[0,0,0,1,1,0,0]","location_rts":"[287,99,336,159,325,35,139]","trial_type":"fractal-mutation","trial_index":65,"time_elapsed":1026614,"internal_node_id":"0.0-5.0-11.0"},{"group":"hexagon_tri","fractal_assignment":["../images/gry_blk.png","../images/org_blu.png","../images/ylw_slt.png","../images/pnk_blu.png","../images/blu_wht.png","../images/cyn_red.png"],"mutagen_generator_assignment":[1,0],"goal":2,"start":0,"action_noise":0,"location_history":"[0,5,4,2]","action_history":"[0,0,1]","mutagen_history":"[1,1,0]","location_rts":"[123,328,573]","trial_type":"fractal-mutation","trial_index":66,"time_elapsed":1034861,"internal_node_id":"0.0-5.0-12.0"},{"group":"hexagon_tri","fractal_assignment":["../images/gry_blk.png","../images/org_blu.png","../images/ylw_slt.png","../images/pnk_blu.png","../images/blu_wht.png","../images/cyn_red.png"],"mutagen_generator_assignment":[1,0],"goal":5,"start":2,"action_noise":0,"location_history":"[2,3,4,2,3,2,3,4,0,1,3,4,0,1,5]","action_history":"[1,1,1,1,0,1,1,0,1,0,1,0,1,1]","mutagen_history":"[0,0,0,0,1,0,0,1,0,1,0,1,0,0]","location_rts":"[45,508,367,75,100,0,81,105,289,32,185,259,163,218]","trial_type":"fractal-mutation","trial_index":67,"time_elapsed":1056224,"internal_node_id":"0.0-5.0-13.0"},{"group":"hexagon_tri","fractal_assignment":["../images/gry_blk.png","../images/org_blu.png","../images/ylw_slt.png","../images/pnk_blu.png","../images/blu_wht.png","../images/cyn_red.png"],"mutagen_generator_assignment":[1,0],"goal":4,"start":5,"action_noise":0,"location_history":"[5,0,1,3,4]","action_history":"[1,1,0,1]","mutagen_history":"[0,0,1,0]","location_rts":"[21,124,107,174]","trial_type":"fractal-mutation","trial_index":68,"time_elapsed":1064913,"internal_node_id":"0.0-5.0-14.0"},{"group":"hexagon_tri","fractal_assignment":["../images/gry_blk.png","../images/org_blu.png","../images/ylw_slt.png","../images/pnk_blu.png","../images/blu_wht.png","../images/cyn_red.png"],"mutagen_generator_assignment":[1,0],"goal":3,"start":4,"action_noise":0,"location_history":"[4,2,3]","action_history":"[1,1]","mutagen_history":"[0,0]","location_rts":"[310,303]","trial_type":"fractal-mutation","trial_index":69,"time_elapsed":1071644,"internal_node_id":"0.0-5.0-15.0"},{"group":"hexagon_tri","fractal_assignment":["../images/gry_blk.png","../images/org_blu.png","../images/ylw_slt.png","../images/pnk_blu.png","../images/blu_wht.png","../images/cyn_red.png"],"mutagen_generator_assignment":[1,0],"goal":1,"start":3,"action_noise":0,"location_history":"[3,2,3,2,1]","action_history":"[0,1,0,0]","mutagen_history":"[1,0,1,1]","location_rts":"[306,36,96,75]","trial_type":"fractal-mutation","trial_index":70,"time_elapsed":1080438,"internal_node_id":"0.0-5.0-16.0"},{"group":"hexagon_tri","fractal_assignment":["../images/gry_blk.png","../images/org_blu.png","../images/ylw_slt.png","../images/pnk_blu.png","../images/blu_wht.png","../images/cyn_red.png"],"mutagen_generator_assignment":[1,0],"goal":5,"start":1,"action_noise":0,"location_history":"[1,3,4,0,5]","action_history":"[0,1,0,0]","mutagen_history":"[1,0,1,1]","location_rts":"[343,232,200,69]","trial_type":"fractal-mutation","trial_index":71,"time_elapsed":1089549,"internal_node_id":"0.0-5.0-17.0"},{"group":"hexagon_tri","fractal_assignment":["../images/gry_blk.png","../images/org_blu.png","../images/ylw_slt.png","../images/pnk_blu.png","../images/blu_wht.png","../images/cyn_red.png"],"mutagen_generator_assignment":[1,0],"goal":4,"start":5,"action_noise":0,"location_history":"[5,0,5,0,5,4]","action_history":"[1,0,1,0,0]","mutagen_history":"[0,1,0,1,1]","location_rts":"[211,75,221,108,12]","trial_type":"fractal-mutation","trial_index":72,"time_elapsed":1099517,"internal_node_id":"0.0-5.0-18.0"},{"group":"hexagon_tri","fractal_assignment":["../images/gry_blk.png","../images/org_blu.png","../images/ylw_slt.png","../images/pnk_blu.png","../images/blu_wht.png","../images/cyn_red.png"],"mutagen_generator_assignment":[1,0],"goal":0,"start":4,"action_noise":0,"location_history":"[4,0]","action_history":"[0]","mutagen_history":"[1]","location_rts":"[431]","trial_type":"fractal-mutation","trial_index":73,"time_elapsed":1105021,"internal_node_id":"0.0-5.0-19.0"},{"group":"hexagon_tri","fractal_assignment":["../images/gry_blk.png","../images/org_blu.png","../images/ylw_slt.png","../images/pnk_blu.png","../images/blu_wht.png","../images/cyn_red.png"],"mutagen_generator_assignment":[1,0],"goal":1,"start":0,"action_noise":0,"location_history":"[0,1]","action_history":"[1]","mutagen_history":"[0]","location_rts":"[467]","trial_type":"fractal-mutation","trial_index":74,"time_elapsed":1110551,"internal_node_id":"0.0-5.0-20.0"},{"group":"hexagon_tri","fractal_assignment":["../images/gry_blk.png","../images/org_blu.png","../images/ylw_slt.png","../images/pnk_blu.png","../images/blu_wht.png","../images/cyn_red.png"],"mutagen_generator_assignment":[1,0],"goal":3,"start":1,"action_noise":0,"location_history":"[1,5,4,0,5,4,0,5,4,0,1,5,4,0,1,3]","action_history":"[1,0,0,0,0,0,0,0,0,1,1,0,0,1,0]","mutagen_history":"[0,1,1,1,1,1,1,1,1,0,0,1,1,0,1]","location_rts":"[393,74,221,121,245,198,112,23,167,67,1388,760,104,32,765]","trial_type":"fractal-mutation","trial_index":75,"time_elapsed":1135215,"internal_node_id":"0.0-5.0-21.0"},{"group":"hexagon_tri","fractal_assignment":["../images/gry_blk.png","../images/org_blu.png","../images/ylw_slt.png","../images/pnk_blu.png","../images/blu_wht.png","../images/cyn_red.png"],"mutagen_generator_assignment":[1,0],"goal":2,"start":3,"action_noise":0,"location_history":"[3,4,2]","action_history":"[1,1]","mutagen_history":"[0,0]","location_rts":"[43,17]","trial_type":"fractal-mutation","trial_index":76,"time_elapsed":1141404,"internal_node_id":"0.0-5.0-22.0"},{"group":"hexagon_tri","fractal_assignment":["../images/gry_blk.png","../images/org_blu.png","../images/ylw_slt.png","../images/pnk_blu.png","../images/blu_wht.png","../images/cyn_red.png"],"mutagen_generator_assignment":[1,0],"goal":0,"start":2,"action_noise":0,"location_history":"[2,3,4,0]","action_history":"[1,1,0]","mutagen_history":"[0,0,1]","location_rts":"[1299,15,267]","trial_type":"fractal-mutation","trial_index":77,"time_elapsed":1150190,"internal_node_id":"0.0-5.0-23.0"},{"group":"hexagon_tri","fractal_assignment":["../images/gry_blk.png","../images/org_blu.png","../images/ylw_slt.png","../images/pnk_blu.png","../images/blu_wht.png","../images/cyn_red.png"],"mutagen_generator_assignment":[1,0],"goal":3,"start":0,"action_noise":0,"location_history":"[0,1,3]","action_history":"[1,0]","mutagen_history":"[0,1]","location_rts":"[450,453]","trial_type":"fractal-mutation","trial_index":78,"time_elapsed":1157227,"internal_node_id":"0.0-5.0-24.0"},{"group":"hexagon_tri","fractal_assignment":["../images/gry_blk.png","../images/org_blu.png","../images/ylw_slt.png","../images/pnk_blu.png","../images/blu_wht.png","../images/cyn_red.png"],"mutagen_generator_assignment":[1,0],"goal":1,"start":3,"action_noise":0,"location_history":"[3,4,2,3,4,2,3,2,3,2,3,4,2,3,4,0,5,4,2,1]","action_history":"[1,1,1,1,1,1,0,1,0,1,1,1,1,1,0,0,0,1,0]","mutagen_history":"[0,0,0,0,0,0,1,0,1,0,0,0,0,0,1,1,1,0,1]","location_rts":"[672,16,43,195,241,119,12,141,178,197,132,495,201,103,194,1867,69,86,89]","trial_type":"fractal-mutation","trial_index":79,"time_elapsed":1186469,"internal_node_id":"0.0-5.0-25.0"},{"group":"hexagon_tri","fractal_assignment":["../images/gry_blk.png","../images/org_blu.png","../images/ylw_slt.png","../images/pnk_blu.png","../images/blu_wht.png","../images/cyn_red.png"],"mutagen_generator_assignment":[1,0],"goal":2,"start":1,"action_noise":0,"location_history":"[1,5,0,5,0,1,5,0,1,5,0,1,5,0,5,0,1,3,4,0,5,4,2]","action_history":"[1,1,0,1,1,1,1,1,1,1,1,1,1,0,1,1,0,1,0,0,0,1]","mutagen_history":"[0,0,1,0,0,0,0,0,0,0,0,0,0,1,0,0,1,0,1,1,1,0]","location_rts":"[832,138,62,148,16,289,200,264,167,190,946,24,114,95,249,126,142,53,217,169,252,176]","trial_type":"fractal-mutation","trial_index":80,"time_elapsed":1218750,"internal_node_id":"0.0-5.0-26.0"},{"group":"hexagon_tri","fractal_assignment":["../images/gry_blk.png","../images/org_blu.png","../images/ylw_slt.png","../images/pnk_blu.png","../images/blu_wht.png","../images/cyn_red.png"],"mutagen_generator_assignment":[1,0],"goal":5,"start":2,"action_noise":0,"location_history":"[2,3,4,2,3,2,3,4,0,1,5]","action_history":"[1,1,1,1,0,1,1,0,1,1]","mutagen_history":"[0,0,0,0,1,0,0,1,0,0]","location_rts":"[277,244,32,40,89,609,210,57,234,84]","trial_type":"fractal-mutation","trial_index":81,"time_elapsed":1235301,"internal_node_id":"0.0-5.0-27.0"},{"group":"hexagon_tri","fractal_assignment":["../images/gry_blk.png","../images/org_blu.png","../images/ylw_slt.png","../images/pnk_blu.png","../images/blu_wht.png","../images/cyn_red.png"],"mutagen_generator_assignment":[1,0],"goal":4,"start":5,"action_noise":0,"location_history":"[5,0,1,5,0,5,4]","action_history":"[1,1,1,1,0,0]","mutagen_history":"[0,0,0,0,1,1]","location_rts":"[1227,640,19868,105,89,111]","trial_type":"fractal-mutation","trial_index":82,"time_elapsed":1267737,"internal_node_id":"0.0-5.0-28.0"},{"group":"hexagon_tri","fractal_assignment":["../images/gry_blk.png","../images/org_blu.png","../images/ylw_slt.png","../images/pnk_blu.png","../images/blu_wht.png","../images/cyn_red.png"],"mutagen_generator_assignment":[1,0],"goal":5,"start":4,"action_noise":0,"location_history":"[4,2,1,3,4,2,3,4,2,1,3,4,2,1,5]","action_history":"[1,0,0,1,1,1,1,1,0,0,1,1,0,1]","mutagen_history":"[0,1,1,0,0,0,0,0,1,1,0,0,1,0]","location_rts":"[772,203,131,343,144,328,313,217,48,8,296,412,91,386]","trial_type":"fractal-mutation","trial_index":83,"time_elapsed":1290329,"internal_node_id":"0.0-5.0-29.0"},{"group":"hexagon_tri","fractal_assignment":["../images/gry_blk.png","../images/org_blu.png","../images/ylw_slt.png","../images/pnk_blu.png","../images/blu_wht.png","../images/cyn_red.png"],"mutagen_generator_assignment":[1,0],"goal":3,"start":5,"action_noise":0,"location_history":"[5,0,5,0,5,0,5,0,1,3]","action_history":"[1,0,1,0,1,0,1,1,0]","mutagen_history":"[0,1,0,1,0,1,0,0,1]","location_rts":"[1212,120,672,170,71,360,218,346,137]","trial_type":"fractal-mutation","trial_index":84,"time_elapsed":1307229,"internal_node_id":"0.0-5.0-30.0"},{"group":"hexagon_tri","fractal_assignment":["../images/gry_blk.png","../images/org_blu.png","../images/ylw_slt.png","../images/pnk_blu.png","../images/blu_wht.png","../images/cyn_red.png"],"mutagen_generator_assignment":[1,0],"goal":0,"start":3,"action_noise":0,"location_history":"[3,2,3,2,3,4,0]","action_history":"[0,1,0,1,1,0]","mutagen_history":"[1,0,1,0,0,1]","location_rts":"[3114,52,561,88,330,90]","trial_type":"fractal-mutation","trial_index":85,"time_elapsed":1321861,"internal_node_id":"0.0-5.0-31.0"},{"group":"hexagon_tri","fractal_assignment":["../images/gry_blk.png","../images/org_blu.png","../images/ylw_slt.png","../images/pnk_blu.png","../images/blu_wht.png","../images/cyn_red.png"],"mutagen_generator_assignment":[1,0],"goal":4,"start":0,"action_noise":0,"location_history":"[0,1,5,0,1,5,0,1,5,4]","action_history":"[1,1,1,1,1,1,1,1,0]","mutagen_history":"[0,0,0,0,0,0,0,0,1]","location_rts":"[2200,8,137,110,58,101,119,168,168]","trial_type":"fractal-mutation","trial_index":86,"time_elapsed":1338500,"internal_node_id":"0.0-5.0-32.0"},{"group":"hexagon_tri","fractal_assignment":["../images/gry_blk.png","../images/org_blu.png","../images/ylw_slt.png","../images/pnk_blu.png","../images/blu_wht.png","../images/cyn_red.png"],"mutagen_generator_assignment":[1,0],"goal":1,"start":4,"action_noise":0,"location_history":"[4,2,1]","action_history":"[1,0]","mutagen_history":"[0,1]","location_rts":"[1470,118]","trial_type":"fractal-mutation","trial_index":87,"time_elapsed":1346230,"internal_node_id":"0.0-5.0-33.0"},{"group":"hexagon_tri","fractal_assignment":["../images/gry_blk.png","../images/org_blu.png","../images/ylw_slt.png","../images/pnk_blu.png","../images/blu_wht.png","../images/cyn_red.png"],"mutagen_generator_assignment":[1,0],"goal":2,"start":1,"action_noise":0,"location_history":"[1,5,4,0,1,5,4,0,1,5,4,0,1,5,4,2]","action_history":"[1,0,0,1,1,0,0,1,1,0,0,1,1,0,1]","mutagen_history":"[0,1,1,0,0,1,1,0,0,1,1,0,0,1,0]","location_rts":"[658,39,188,102,164,345,206,228,221,539,498,328,130,36,246]","trial_type":"fractal-mutation","trial_index":88,"time_elapsed":1370135,"internal_node_id":"0.0-5.0-34.0"},{"group":"hexagon_tri","fractal_assignment":["../images/gry_blk.png","../images/org_blu.png","../images/ylw_slt.png","../images/pnk_blu.png","../images/blu_wht.png","../images/cyn_red.png"],"mutagen_generator_assignment":[1,0],"goal":0,"start":2,"action_noise":0,"location_history":"[2,1,5,4,0]","action_history":"[0,1,0,0]","mutagen_history":"[1,0,1,1]","location_rts":"[335,628,234,286]","trial_type":"fractal-mutation","trial_index":89,"time_elapsed":1379900,"internal_node_id":"0.0-5.0-35.0"},{"group":"hexagon_tri","fractal_assignment":["../images/gry_blk.png","../images/org_blu.png","../images/ylw_slt.png","../images/pnk_blu.png","../images/blu_wht.png","../images/cyn_red.png"],"mutagen_generator_assignment":[1,0],"goal":5,"start":0,"action_noise":0,"location_history":"[0,1,5]","action_history":"[1,1]","mutagen_history":"[0,0]","location_rts":"[430,330]","trial_type":"fractal-mutation","trial_index":90,"time_elapsed":1386802,"internal_node_id":"0.0-5.0-36.0"},{"group":"hexagon_tri","fractal_assignment":["../images/gry_blk.png","../images/org_blu.png","../images/ylw_slt.png","../images/pnk_blu.png","../images/blu_wht.png","../images/cyn_red.png"],"mutagen_generator_assignment":[1,0],"goal":2,"start":5,"action_noise":0,"location_history":"[5,4,0,5,4,2]","action_history":"[0,0,0,0,1]","mutagen_history":"[1,1,1,1,0]","location_rts":"[578,101,233,71,27]","trial_type":"fractal-mutation","trial_index":91,"time_elapsed":1397146,"internal_node_id":"0.0-5.0-37.0"},{"group":"hexagon_tri","fractal_assignment":["../images/gry_blk.png","../images/org_blu.png","../images/ylw_slt.png","../images/pnk_blu.png","../images/blu_wht.png","../images/cyn_red.png"],"mutagen_generator_assignment":[1,0],"goal":1,"start":2,"action_noise":0,"location_history":"[2,1]","action_history":"[0]","mutagen_history":"[1]","location_rts":"[853]","trial_type":"fractal-mutation","trial_index":92,"time_elapsed":1403062,"internal_node_id":"0.0-5.0-38.0"},{"group":"hexagon_tri","fractal_assignment":["../images/gry_blk.png","../images/org_blu.png","../images/ylw_slt.png","../images/pnk_blu.png","../images/blu_wht.png","../images/cyn_red.png"],"mutagen_generator_assignment":[1,0],"goal":4,"start":1,"action_noise":0,"location_history":"[1,5,0,5,0,5,4]","action_history":"[1,1,0,1,0,0]","mutagen_history":"[0,0,1,0,1,1]","location_rts":"[1736,111,203,266,192,107]","trial_type":"fractal-mutation","trial_index":93,"time_elapsed":1416086,"internal_node_id":"0.0-5.0-39.0"},{"group":"hexagon_tri","fractal_assignment":["../images/gry_blk.png","../images/org_blu.png","../images/ylw_slt.png","../images/pnk_blu.png","../images/blu_wht.png","../images/cyn_red.png"],"mutagen_generator_assignment":[1,0],"goal":3,"start":4,"action_noise":0,"location_history":"[4,2,1,5,4,2,3]","action_history":"[1,0,1,0,1,1]","mutagen_history":"[0,1,0,1,0,0]","location_rts":"[1050,147,149,992,423,289]","trial_type":"fractal-mutation","trial_index":94,"time_elapsed":1429521,"internal_node_id":"0.0-5.0-40.0"},{"group":"hexagon_tri","fractal_assignment":["../images/gry_blk.png","../images/org_blu.png","../images/ylw_slt.png","../images/pnk_blu.png","../images/blu_wht.png","../images/cyn_red.png"],"mutagen_generator_assignment":[1,0],"goal":5,"start":3,"action_noise":0,"location_history":"[3,4,2,1,3,2,3,4,2,1,3,4,2,3,4,2,3,2,1,5]","action_history":"[1,1,0,0,0,1,1,1,0,0,1,1,1,1,1,1,0,0,1]","mutagen_history":"[0,0,1,1,1,0,0,0,1,1,0,0,0,0,0,0,1,1,0]","location_rts":"[653,307,404,241,119,111,67,3004,291,1648,2051,299,276,61,238,53,84,52,120]","trial_type":"fractal-mutation","trial_index":95,"time_elapsed":1463869,"internal_node_id":"0.0-5.0-41.0"},{"group":"hexagon_tri","fractal_assignment":["../images/gry_blk.png","../images/org_blu.png","../images/ylw_slt.png","../images/pnk_blu.png","../images/blu_wht.png","../images/cyn_red.png"],"mutagen_generator_assignment":[1,0],"goal":3,"start":5,"action_noise":0,"location_history":"[5,0,5,0,1,3]","action_history":"[1,0,1,1,0]","mutagen_history":"[0,1,0,0,1]","location_rts":"[903,195,19,278,24]","trial_type":"fractal-mutation","trial_index":96,"time_elapsed":1474623,"internal_node_id":"0.0-5.0-42.0"},{"group":"hexagon_tri","fractal_assignment":["../images/gry_blk.png","../images/org_blu.png","../images/ylw_slt.png","../images/pnk_blu.png","../images/blu_wht.png","../images/cyn_red.png"],"mutagen_generator_assignment":[1,0],"goal":0,"start":3,"action_noise":0,"location_history":"[3,4,0]","action_history":"[1,0]","mutagen_history":"[0,1]","location_rts":"[921,20]","trial_type":"fractal-mutation","trial_index":97,"time_elapsed":1481700,"internal_node_id":"0.0-5.0-43.0"},{"group":"hexagon_tri","fractal_assignment":["../images/gry_blk.png","../images/org_blu.png","../images/ylw_slt.png","../images/pnk_blu.png","../images/blu_wht.png","../images/cyn_red.png"],"mutagen_generator_assignment":[1,0],"goal":2,"start":0,"action_noise":0,"location_history":"[0,1,3,2]","action_history":"[1,0,0]","mutagen_history":"[0,1,1]","location_rts":"[608,60,98]","trial_type":"fractal-mutation","trial_index":98,"time_elapsed":1489679,"internal_node_id":"0.0-5.0-44.0"},{"group":"hexagon_tri","fractal_assignment":["../images/gry_blk.png","../images/org_blu.png","../images/ylw_slt.png","../images/pnk_blu.png","../images/blu_wht.png","../images/cyn_red.png"],"mutagen_generator_assignment":[1,0],"goal":4,"start":2,"action_noise":0,"location_history":"[2,3,2,1,5,4]","action_history":"[1,0,0,1,0]","mutagen_history":"[0,1,1,0,1]","location_rts":"[845,28,91,67,75]","trial_type":"fractal-mutation","trial_index":99,"time_elapsed":1500137,"internal_node_id":"0.0-5.0-45.0"},{"group":"hexagon_tri","fractal_assignment":["../images/gry_blk.png","../images/org_blu.png","../images/ylw_slt.png","../images/pnk_blu.png","../images/blu_wht.png","../images/cyn_red.png"],"mutagen_generator_assignment":[1,0],"goal":1,"start":4,"action_noise":0,"location_history":"[4,2,1]","action_history":"[1,0]","mutagen_history":"[0,1]","location_rts":"[795,157]","trial_type":"fractal-mutation","trial_index":100,"time_elapsed":1507222,"internal_node_id":"0.0-5.0-46.0"},{"group":"hexagon_tri","fractal_assignment":["../images/gry_blk.png","../images/org_blu.png","../images/ylw_slt.png","../images/pnk_blu.png","../images/blu_wht.png","../images/cyn_red.png"],"mutagen_generator_assignment":[1,0],"goal":4,"start":1,"action_noise":0,"location_history":"[1,5,4]","action_history":"[1,0]","mutagen_history":"[0,1]","location_rts":"[511,126]","trial_type":"fractal-mutation","trial_index":101,"time_elapsed":1514009,"internal_node_id":"0.0-5.0-47.0"},{"group":"hexagon_tri","fractal_assignment":["../images/gry_blk.png","../images/org_blu.png","../images/ylw_slt.png","../images/pnk_blu.png","../images/blu_wht.png","../images/cyn_red.png"],"mutagen_generator_assignment":[1,0],"goal":3,"start":4,"action_noise":0,"location_history":"[4,2,1,3]","action_history":"[1,0,0]","mutagen_history":"[0,1,1]","location_rts":"[24216,72,15]","trial_type":"fractal-mutation","trial_index":102,"time_elapsed":1545510,"internal_node_id":"0.0-5.0-48.0"},{"group":"hexagon_tri","fractal_assignment":["../images/gry_blk.png","../images/org_blu.png","../images/ylw_slt.png","../images/pnk_blu.png","../images/blu_wht.png","../images/cyn_red.png"],"mutagen_generator_assignment":[1,0],"goal":5,"start":3,"action_noise":0,"location_history":"[3,4,0,5]","action_history":"[1,0,0]","mutagen_history":"[0,1,1]","location_rts":"[373,34,70]","trial_type":"fractal-mutation","trial_index":103,"time_elapsed":1553183,"internal_node_id":"0.0-5.0-49.0"},{"view_history":"[{\"page_index\":0,\"viewing_time\":7261}]","rt":7265,"trial_type":"instructions","trial_index":104,"time_elapsed":1561447,"internal_node_id":"0.0-6.0"},{"rt":2990,"responses":"{\"Q0\":\"na\"}","trial_type":"survey-text","trial_index":105,"time_elapsed":1565446,"internal_node_id":"0.0-7.0"}]