[{"view_history":"[{\"page_index\":0,\"viewing_time\":11765},{\"page_index\":1,\"viewing_time\":10486},{\"page_index\":2,\"viewing_time\":11072}]","rt":33323,"trial_type":"instructions","trial_index":0,"time_elapsed":33325,"internal_node_id":"0.0-0.0"},{"view_history":"[{\"page_index\":0,\"viewing_time\":7046},{\"page_index\":1,\"viewing_time\":82631}]","rt":89679,"trial_type":"instructions","trial_index":1,"time_elapsed":124004,"internal_node_id":"0.0-1.0"},{"group":"hexagon_bi","room_assignment":["grey","red","blue","yellow","purple","green"],"door_color_assignment":["black","white"],"door_generator_assignment":[1,0],"goal":4,"start":0,"action_noise":0,"location_history":"[0,1,0,5,0,1,2,1,0,1,0,5,4]","action_history":"[1,1,0,0,1,0,0,1,1,1,0,1]","door_history":"[0,0,1,1,0,1,1,0,0,0,1,0]","location_rts":"[2169,2293,982,792,2015,625,1991,408,655,812,663,342]","trial_type":"two-door-navigation","trial_index":2,"time_elapsed":153796,"internal_node_id":"0.0-2.0-0.0"},{"group":"hexagon_bi","room_assignment":["grey","red","blue","yellow","purple","green"],"door_color_assignment":["black","white"],"door_generator_assignment":[1,0],"goal":3,"start":4,"action_noise":0,"location_history":"[4,3]","action_history":"[0]","door_history":"[1]","location_rts":"[2527]","trial_type":"two-door-navigation","trial_index":3,"time_elapsed":161335,"internal_node_id":"0.0-2.0-1.0"},{"group":"hexagon_bi","room_assignment":["grey","red","blue","yellow","purple","green"],"door_color_assignment":["black","white"],"door_generator_assignment":[1,0],"goal":5,"start":3,"action_noise":0,"location_history":"[3,4,5]","action_history":"[0,1]","door_history":"[1,0]","location_rts":"[2347,393]","trial_type":"two-door-navigation","trial_index":4,"time_elapsed":170076,"internal_node_id":"0.0-2.0-2.0"},{"group":"hexagon_bi","room_assignment":["grey","red","blue","yellow","purple","green"],"door_color_assignment":["black","white"],"door_generator_assignment":[1,0],"goal":2,"start":5,"action_noise":0,"location_history":"[5,4,3,2]","action_history":"[1,0,1]","door_history":"[0,1,0]","location_rts":"[1599,442,569]","trial_type":"two-door-navigation","trial_index":5,"time_elapsed":179693,"internal_node_id":"0.0-2.0-3.0"},{"group":"hexagon_bi","room_assignment":["grey","red","blue","yellow","purple","green"],"door_color_assignment":["black","white"],"door_generator_assignment":[1,0],"goal":1,"start":2,"action_noise":0,"location_history":"[2,3,4,5,4,5,0,1]","action_history":"[1,0,1,1,1,0,1]","door_history":"[0,1,0,0,0,1,0]","location_rts":"[1525,375,325,415,336,367,299]","trial_type":"two-door-navigation","trial_index":6,"time_elapsed":194349,"internal_node_id":"0.0-2.0-4.0"},{"group":"hexagon_bi","room_assignment":["grey","red","blue","yellow","purple","green"],"door_color_assignment":["black","white"],"door_generator_assignment":[1,0],"goal":4,"start":1,"action_noise":0,"location_history":"[1,2,3,4]","action_history":"[0,1,0]","door_history":"[1,0,1]","location_rts":"[2110,458,1167]","trial_type":"two-door-navigation","trial_index":7,"time_elapsed":205093,"internal_node_id":"0.0-2.0-5.0"},{"group":"hexagon_bi","room_assignment":["grey","red","blue","yellow","purple","green"],"door_color_assignment":["black","white"],"door_generator_assignment":[1,0],"goal":1,"start":4,"action_noise":0,"location_history":"[4,5,4,3,4,3,2,3,2,1]","action_history":"[1,1,0,0,0,1,1,1,0]","door_history":"[0,0,1,1,1,0,0,0,1]","location_rts":"[3054,1108,488,479,415,920,832,484,383]","trial_type":"two-door-navigation","trial_index":8,"time_elapsed":226268,"internal_node_id":"0.0-2.0-6.0"},{"group":"hexagon_bi","room_assignment":["grey","red","blue","yellow","purple","green"],"door_color_assignment":["black","white"],"door_generator_assignment":[1,0],"goal":5,"start":1,"action_noise":0,"location_history":"[1,2,3,4,3,2,3,4,5]","action_history":"[0,1,0,0,1,1,0,1]","door_history":"[1,0,1,1,0,0,1,0]","location_rts":"[14439,613,416,360,944,335,386,300]","trial_type":"two-door-navigation","trial_index":9,"time_elapsed":256069,"internal_node_id":"0.0-2.0-7.0"},{"group":"hexagon_bi","room_assignment":["grey","red","blue","yellow","purple","green"],"door_color_assignment":["black","white"],"door_generator_assignment":[1,0],"goal":0,"start":5,"action_noise":0,"location_history":"[5,0]","action_history":"[0]","door_history":"[1]","location_rts":"[1948]","trial_type":"two-door-navigation","trial_index":10,"time_elapsed":263019,"internal_node_id":"0.0-2.0-8.0"},{"group":"hexagon_bi","room_assignment":["grey","red","blue","yellow","purple","green"],"door_color_assignment":["black","white"],"door_generator_assignment":[1,0],"goal":2,"start":0,"action_noise":0,"location_history":"[0,5,4,5,0,5,0,1,2]","action_history":"[0,1,1,0,0,0,1,0]","door_history":"[1,0,0,1,1,1,0,1]","location_rts":"[2730,350,1004,407,416,287,935,569]","trial_type":"two-door-navigation","trial_index":11,"time_elapsed":281725,"internal_node_id":"0.0-2.0-9.0"},{"group":"hexagon_bi","room_assignment":["grey","red","blue","yellow","purple","green"],"door_color_assignment":["black","white"],"door_generator_assignment":[1,0],"goal":3,"start":2,"action_noise":0,"location_history":"[2,1,2,3]","action_history":"[0,0,1]","door_history":"[1,1,0]","location_rts":"[2709,886,288]","trial_type":"two-door-navigation","trial_index":12,"time_elapsed":292616,"internal_node_id":"0.0-2.0-10.0"},{"group":"hexagon_bi","room_assignment":["grey","red","blue","yellow","purple","green"],"door_color_assignment":["black","white"],"door_generator_assignment":[1,0],"goal":0,"start":3,"action_noise":0,"location_history":"[3,2,3,4,5,0]","action_history":"[1,1,0,1,0]","door_history":"[0,0,1,0,1]","location_rts":"[2182,1216,223,1847,1247]","trial_type":"two-door-navigation","trial_index":13,"time_elapsed":308343,"internal_node_id":"0.0-2.0-11.0"},{"group":"hexagon_bi","room_assignment":["grey","red","blue","yellow","purple","green"],"door_color_assignment":["black","white"],"door_generator_assignment":[1,0],"goal":2,"start":0,"action_noise":0,"location_history":"[0,5,0,1,2]","action_history":"[0,0,1,0]","door_history":"[1,1,0,1]","location_rts":"[2829,767,248,919]","trial_type":"two-door-navigation","trial_index":14,"time_elapsed":321109,"internal_node_id":"0.0-2.0-12.0"},{"group":"hexagon_bi","room_assignment":["grey","red","blue","yellow","purple","green"],"door_color_assignment":["black","white"],"door_generator_assignment":[1,0],"goal":5,"start":2,"action_noise":0,"location_history":"[2,1,0,1,2,1,2,3,4,5]","action_history":"[0,1,1,0,0,0,1,0,1]","door_history":"[1,0,0,1,1,1,0,1,0]","location_rts":"[2437,678,410,383,347,1021,319,1230,530]","trial_type":"two-door-navigation","trial_index":15,"time_elapsed":341484,"internal_node_id":"0.0-2.0-13.0"},{"group":"hexagon_bi","room_assignment":["grey","red","blue","yellow","purple","green"],"door_color_assignment":["black","white"],"door_generator_assignment":[1,0],"goal":4,"start":5,"action_noise":0,"location_history":"[5,4]","action_history":"[1]","door_history":"[0]","location_rts":"[2181]","trial_type":"two-door-navigation","trial_index":16,"time_elapsed":348668,"internal_node_id":"0.0-2.0-14.0"},{"group":"hexagon_bi","room_assignment":["grey","red","blue","yellow","purple","green"],"door_color_assignment":["black","white"],"door_generator_assignment":[1,0],"goal":3,"start":4,"action_noise":0,"location_history":"[4,5,0,5,4,3]","action_history":"[1,0,0,1,0]","door_history":"[0,1,1,0,1]","location_rts":"[1576,1086,847,238,575]","trial_type":"two-door-navigation","trial_index":17,"time_elapsed":361995,"internal_node_id":"0.0-2.0-15.0"},{"group":"hexagon_bi","room_assignment":["grey","red","blue","yellow","purple","green"],"door_color_assignment":["black","white"],"door_generator_assignment":[1,0],"goal":1,"start":3,"action_noise":0,"location_history":"[3,4,5,4,3,4,5,0,5,4,3,4,3,2,1]","action_history":"[0,1,1,0,0,1,0,0,1,0,0,0,1,0]","door_history":"[1,0,0,1,1,0,1,1,0,1,1,1,0,1]","location_rts":"[1126,1056,568,996,430,367,462,648,726,742,1505,274,214,1328]","trial_type":"two-door-navigation","trial_index":18,"time_elapsed":390454,"internal_node_id":"0.0-2.0-16.0"},{"group":"hexagon_bi","room_assignment":["grey","red","blue","yellow","purple","green"],"door_color_assignment":["black","white"],"door_generator_assignment":[1,0],"goal":5,"start":1,"action_noise":0,"location_history":"[1,2,3,4,3,2,3,2,1,0,5]","action_history":"[0,1,0,0,1,1,1,0,1,0]","door_history":"[1,0,1,1,0,0,0,1,0,1]","location_rts":"[22090,886,1137,759,225,774,1219,215,1198,1631]","trial_type":"two-door-navigation","trial_index":19,"time_elapsed":434603,"internal_node_id":"0.0-2.0-17.0"},{"group":"hexagon_bi","room_assignment":["grey","red","blue","yellow","purple","green"],"door_color_assignment":["black","white"],"door_generator_assignment":[1,0],"goal":4,"start":5,"action_noise":0,"location_history":"[5,0,1,2,1,2,3,4]","action_history":"[0,1,0,0,0,1,0]","door_history":"[1,0,1,1,1,0,1]","location_rts":"[11472,336,1040,1414,216,253,1792]","trial_type":"two-door-navigation","trial_index":20,"time_elapsed":462138,"internal_node_id":"0.0-2.0-18.0"},{"group":"hexagon_bi","room_assignment":["grey","red","blue","yellow","purple","green"],"door_color_assignment":["black","white"],"door_generator_assignment":[1,0],"goal":0,"start":4,"action_noise":0,"location_history":"[4,5,4,3,2,1,0]","action_history":"[1,1,0,1,0,1]","door_history":"[0,0,1,0,1,0]","location_rts":"[10064,761,224,1759,3170,1035]","trial_type":"two-door-navigation","trial_index":21,"time_elapsed":489155,"internal_node_id":"0.0-2.0-19.0"},{"group":"hexagon_bi","room_assignment":["grey","red","blue","yellow","purple","green"],"door_color_assignment":["black","white"],"door_generator_assignment":[1,0],"goal":1,"start":0,"action_noise":0,"location_history":"[0,5,4,3,2,1]","action_history":"[0,1,0,1,0]","door_history":"[1,0,1,0,1]","location_rts":"[8557,880,1599,1159,1046]","trial_type":"two-door-navigation","trial_index":22,"time_elapsed":511407,"internal_node_id":"0.0-2.0-20.0"},{"group":"hexagon_bi","room_assignment":["grey","red","blue","yellow","purple","green"],"door_color_assignment":["black","white"],"door_generator_assignment":[1,0],"goal":3,"start":1,"action_noise":0,"location_history":"[1,0,1,2,3]","action_history":"[1,1,0,1]","door_history":"[0,0,1,0]","location_rts":"[5997,628,238,1486]","trial_type":"two-door-navigation","trial_index":23,"time_elapsed":527764,"internal_node_id":"0.0-2.0-21.0"},{"group":"hexagon_bi","room_assignment":["grey","red","blue","yellow","purple","green"],"door_color_assignment":["black","white"],"door_generator_assignment":[1,0],"goal":2,"start":3,"action_noise":0,"location_history":"[3,4,3,2]","action_history":"[0,0,1]","door_history":"[1,1,0]","location_rts":"[9879,795,269]","trial_type":"two-door-navigation","trial_index":24,"time_elapsed":545715,"internal_node_id":"0.0-2.0-22.0"},{"group":"hexagon_bi","room_assignment":["grey","red","blue","yellow","purple","green"],"door_color_assignment":["black","white"],"door_generator_assignment":[1,0],"goal":0,"start":2,"action_noise":0,"location_history":"[2,1,0]","action_history":"[0,1]","door_history":"[1,0]","location_rts":"[10301,4914]","trial_type":"two-door-navigation","trial_index":25,"time_elapsed":566932,"internal_node_id":"0.0-2.0-23.0"},{"group":"hexagon_bi","room_assignment":["grey","red","blue","yellow","purple","green"],"door_color_assignment":["black","white"],"door_generator_assignment":[1,0],"goal":3,"start":0,"action_noise":0,"location_history":"[0,5,4,3]","action_history":"[0,1,0]","door_history":"[1,0,1]","location_rts":"[10464,2655,695]","trial_type":"two-door-navigation","trial_index":26,"time_elapsed":587748,"internal_node_id":"0.0-2.0-24.0"},{"group":"hexagon_bi","room_assignment":["grey","red","blue","yellow","purple","green"],"door_color_assignment":["black","white"],"door_generator_assignment":[1,0],"goal":1,"start":3,"action_noise":0,"location_history":"[3,2,1]","action_history":"[1,0]","door_history":"[0,1]","location_rts":"[6591,991]","trial_type":"two-door-navigation","trial_index":27,"time_elapsed":601332,"internal_node_id":"0.0-2.0-25.0"},{"group":"hexagon_bi","room_assignment":["grey","red","blue","yellow","purple","green"],"door_color_assignment":["black","white"],"door_generator_assignment":[1,0],"goal":2,"start":1,"action_noise":0,"location_history":"[1,2]","action_history":"[0]","door_history":"[1]","location_rts":"[3871]","trial_type":"two-door-navigation","trial_index":28,"time_elapsed":610207,"internal_node_id":"0.0-2.0-26.0"},{"group":"hexagon_bi","room_assignment":["grey","red","blue","yellow","purple","green"],"door_color_assignment":["black","white"],"door_generator_assignment":[1,0],"goal":5,"start":2,"action_noise":0,"location_history":"[2,1,0,5]","action_history":"[0,1,0]","door_history":"[1,0,1]","location_rts":"[6765,4710,920]","trial_type":"two-door-navigation","trial_index":29,"time_elapsed":629605,"internal_node_id":"0.0-2.0-27.0"},{"group":"hexagon_bi","room_assignment":["grey","red","blue","yellow","purple","green"],"door_color_assignment":["black","white"],"door_generator_assignment":[1,0],"goal":4,"start":5,"action_noise":0,"location_history":"[5,0,1,2,3,4]","action_history":"[0,1,0,1,0]","door_history":"[1,0,1,0,1]","location_rts":"[3366,3458,2215,2729,3559]","trial_type":"two-door-navigation","trial_index":30,"time_elapsed":653942,"internal_node_id":"0.0-2.0-28.0"},{"group":"hexagon_bi","room_assignment":["grey","red","blue","yellow","purple","green"],"door_color_assignment":["black","white"],"door_generator_assignment":[1,0],"goal":5,"start":4,"action_noise":0,"location_history":"[4,5]","action_history":"[1]","door_history":"[0]","location_rts":"[4758]","trial_type":"two-door-navigation","trial_index":31,"time_elapsed":663701,"internal_node_id":"0.0-2.0-29.0"},{"group":"hexagon_bi","room_assignment":["grey","red","blue","yellow","purple","green"],"door_color_assignment":["black","white"],"door_generator_assignment":[1,0],"goal":3,"start":5,"action_noise":0,"location_history":"[5,0,5,4,3]","action_history":"[0,0,1,0]","door_history":"[1,1,0,1]","location_rts":"[21573,3246,262,1495]","trial_type":"two-door-navigation","trial_index":32,"time_elapsed":698284,"internal_node_id":"0.0-2.0-30.0"},{"group":"hexagon_bi","room_assignment":["grey","red","blue","yellow","purple","green"],"door_color_assignment":["black","white"],"door_generator_assignment":[1,0],"goal":0,"start":3,"action_noise":0,"location_history":"[3,4,5,0]","action_history":"[0,1,0]","door_history":"[1,0,1]","location_rts":"[15370,2592,2031]","trial_type":"two-door-navigation","trial_index":33,"time_elapsed":725288,"internal_node_id":"0.0-2.0-31.0"},{"group":"hexagon_bi","room_assignment":["grey","red","blue","yellow","purple","green"],"door_color_assignment":["black","white"],"door_generator_assignment":[1,0],"goal":4,"start":0,"action_noise":0,"location_history":"[0,5,0,1,2,3,4]","action_history":"[0,0,1,0,1,0]","door_history":"[1,1,0,1,0,1]","location_rts":"[13819,687,78,832,814,887]","trial_type":"two-door-navigation","trial_index":34,"time_elapsed":752413,"internal_node_id":"0.0-2.0-32.0"},{"group":"hexagon_bi","room_assignment":["grey","red","blue","yellow","purple","green"],"door_color_assignment":["black","white"],"door_generator_assignment":[1,0],"goal":1,"start":4,"action_noise":0,"location_history":"[4,3,4,5,0,1]","action_history":"[0,0,1,0,1]","door_history":"[1,1,0,1,0]","location_rts":"[6598,637,265,1481,1470]","trial_type":"two-door-navigation","trial_index":35,"time_elapsed":771873,"internal_node_id":"0.0-2.0-33.0"},{"group":"hexagon_bi","room_assignment":["grey","red","blue","yellow","purple","green"],"door_color_assignment":["black","white"],"door_generator_assignment":[1,0],"goal":2,"start":1,"action_noise":0,"location_history":"[1,0,5,4,3,2]","action_history":"[1,0,1,0,1]","door_history":"[0,1,0,1,0]","location_rts":"[15313,1248,3198,1254,911]","trial_type":"two-door-navigation","trial_index":36,"time_elapsed":802805,"internal_node_id":"0.0-2.0-34.0"},{"group":"hexagon_bi","room_assignment":["grey","red","blue","yellow","purple","green"],"door_color_assignment":["black","white"],"door_generator_assignment":[1,0],"goal":0,"start":2,"action_noise":0,"location_history":"[2,3,2,1,0]","action_history":"[1,1,0,1]","door_history":"[0,0,1,0]","location_rts":"[7049,1018,106,4262]","trial_type":"two-door-navigation","trial_index":37,"time_elapsed":823248,"internal_node_id":"0.0-2.0-35.0"},{"group":"hexagon_bi","room_assignment":["grey","red","blue","yellow","purple","green"],"door_color_assignment":["black","white"],"door_generator_assignment":[1,0],"goal":5,"start":0,"action_noise":0,"location_history":"[0,5]","action_history":"[0]","door_history":"[1]","location_rts":"[4853]","trial_type":"two-door-navigation","trial_index":38,"time_elapsed":833103,"internal_node_id":"0.0-2.0-36.0"},{"group":"hexagon_bi","room_assignment":["grey","red","blue","yellow","purple","green"],"door_color_assignment":["black","white"],"door_generator_assignment":[1,0],"goal":2,"start":5,"action_noise":0,"location_history":"[5,4,5,0,5,4,3,2]","action_history":"[1,1,0,0,1,0,1]","door_history":"[0,0,1,1,0,1,0]","location_rts":"[7149,1198,263,4351,409,331,4079]","trial_type":"two-door-navigation","trial_index":39,"time_elapsed":861893,"internal_node_id":"0.0-2.0-37.0"},{"group":"hexagon_bi","room_assignment":["grey","red","blue","yellow","purple","green"],"door_color_assignment":["black","white"],"door_generator_assignment":[1,0],"goal":1,"start":2,"action_noise":0,"location_history":"[2,1]","action_history":"[0]","door_history":"[1]","location_rts":"[4230]","trial_type":"two-door-navigation","trial_index":40,"time_elapsed":871128,"internal_node_id":"0.0-2.0-38.0"},{"group":"hexagon_bi","room_assignment":["grey","red","blue","yellow","purple","green"],"door_color_assignment":["black","white"],"door_generator_assignment":[1,0],"goal":4,"start":1,"action_noise":0,"location_history":"[1,0,1,2,3,4]","action_history":"[1,1,0,1,0]","door_history":"[0,0,1,0,1]","location_rts":"[10557,655,280,1757,4553]","trial_type":"two-door-navigation","trial_index":41,"time_elapsed":897941,"internal_node_id":"0.0-2.0-39.0"},{"group":"hexagon_bi","room_assignment":["grey","red","blue","yellow","purple","green"],"door_color_assignment":["black","white"],"door_generator_assignment":[1,0],"goal":3,"start":4,"action_noise":0,"location_history":"[4,3]","action_history":"[0]","door_history":"[1]","location_rts":"[3932]","trial_type":"two-door-navigation","trial_index":42,"time_elapsed":906875,"internal_node_id":"0.0-2.0-40.0"},{"group":"hexagon_bi","room_assignment":["grey","red","blue","yellow","purple","green"],"door_color_assignment":["black","white"],"door_generator_assignment":[1,0],"goal":5,"start":3,"action_noise":0,"location_history":"[3,4,5]","action_history":"[0,1]","door_history":"[1,0]","location_rts":"[11183,622]","trial_type":"two-door-navigation","trial_index":43,"time_elapsed":924683,"internal_node_id":"0.0-2.0-41.0"},{"group":"hexagon_bi","room_assignment":["grey","red","blue","yellow","purple","green"],"door_color_assignment":["black","white"],"door_generator_assignment":[1,0],"goal":3,"start":5,"action_noise":0,"location_history":"[5,0,1,2,3]","action_history":"[0,1,0,1]","door_history":"[1,0,1,0]","location_rts":"[17161,1324,1814,4287]","trial_type":"two-door-navigation","trial_index":44,"time_elapsed":957277,"internal_node_id":"0.0-2.0-42.0"},{"group":"hexagon_bi","room_assignment":["grey","red","blue","yellow","purple","green"],"door_color_assignment":["black","white"],"door_generator_assignment":[1,0],"goal":0,"start":3,"action_noise":0,"location_history":"[3,4,3,2,1,0]","action_history":"[0,0,1,0,1]","door_history":"[1,1,0,1,0]","location_rts":"[19959,995,223,4607,4393]","trial_type":"two-door-navigation","trial_index":45,"time_elapsed":996464,"internal_node_id":"0.0-2.0-43.0"},{"group":"hexagon_bi","room_assignment":["grey","red","blue","yellow","purple","green"],"door_color_assignment":["black","white"],"door_generator_assignment":[1,0],"goal":2,"start":0,"action_noise":0,"location_history":"[0,5,4,3,2]","action_history":"[0,1,0,1]","door_history":"[1,0,1,0]","location_rts":"[8626,1542,7847,2732]","trial_type":"two-door-navigation","trial_index":46,"time_elapsed":1025220,"internal_node_id":"0.0-2.0-44.0"},{"group":"hexagon_bi","room_assignment":["grey","red","blue","yellow","purple","green"],"door_color_assignment":["black","white"],"door_generator_assignment":[1,0],"goal":4,"start":2,"action_noise":0,"location_history":"[2,3,4]","action_history":"[1,0]","door_history":"[0,1]","location_rts":"[8118,348]","trial_type":"two-door-navigation","trial_index":47,"time_elapsed":1039692,"internal_node_id":"0.0-2.0-45.0"},{"group":"hexagon_bi","room_assignment":["grey","red","blue","yellow","purple","green"],"door_color_assignment":["black","white"],"door_generator_assignment":[1,0],"goal":1,"start":4,"action_noise":0,"location_history":"[4,5,0,1]","action_history":"[1,0,1]","door_history":"[0,1,0]","location_rts":"[16871,5829,2338]","trial_type":"two-door-navigation","trial_index":48,"time_elapsed":1071734,"internal_node_id":"0.0-2.0-46.0"},{"group":"hexagon_bi","room_assignment":["grey","red","blue","yellow","purple","green"],"door_color_assignment":["black","white"],"door_generator_assignment":[1,0],"goal":4,"start":1,"action_noise":0,"location_history":"[1,0,5,4]","action_history":"[1,0,1]","door_history":"[0,1,0]","location_rts":"[14703,1925,1151]","trial_type":"two-door-navigation","trial_index":49,"time_elapsed":1096515,"internal_node_id":"0.0-2.0-47.0"},{"group":"hexagon_bi","room_assignment":["grey","red","blue","yellow","purple","green"],"door_color_assignment":["black","white"],"door_generator_assignment":[1,0],"goal":3,"start":4,"action_noise":0,"location_history":"[4,3]","action_history":"[0]","door_history":"[1]","location_rts":"[15590]","trial_type":"two-door-navigation","trial_index":50,"time_elapsed":1117108,"internal_node_id":"0.0-2.0-48.0"},{"group":"hexagon_bi","room_assignment":["grey","red","blue","yellow","purple","green"],"door_color_assignment":["black","white"],"door_generator_assignment":[1,0],"goal":5,"start":3,"action_noise":0,"location_history":"[3,4,5]","action_history":"[0,1]","door_history":"[1,0]","location_rts":"[9647,7564]","trial_type":"two-door-navigation","trial_index":51,"time_elapsed":1140323,"internal_node_id":"0.0-2.0-49.0"},{"view_history":"[{\"page_index\":0,\"viewing_time\":2641}]","rt":2642,"trial_type":"instructions","trial_index":52,"time_elapsed":1143965,"internal_node_id":"0.0-3.0"},{"view_history":"[{\"page_index\":0,\"viewing_time\":4223},{\"page_index\":1,\"viewing_time\":24327}]","rt":28551,"trial_type":"instructions","trial_index":53,"time_elapsed":1173516,"internal_node_id":"0.0-4.0"},{"group":"hexagon_bi","fractal_assignment":["../images/gry_blk.png","../images/cyn_red.png","../images/blu_wht.png","../images/pnk_blu.png","../images/ylw_slt.png","../images/org_blu.png"],"mutagen_generator_assignment":[0,1],"goal":4,"start":0,"action_noise":0,"location_history":"[0,5,0,5,0,5,0,1,2,3,4]","action_history":"[0,0,0,0,0,0,1,0,1,0]","mutagen_history":"[0,0,0,0,0,0,1,0,1,0]","location_rts":"[13106,44069,1323,540,16107,1460,1268,8859,2418,792]","trial_type":"fractal-mutation","trial_index":54,"time_elapsed":1277605,"internal_node_id":"0.0-5.0-0.0"},{"group":"hexagon_bi","fractal_assignment":["../images/gry_blk.png","../images/cyn_red.png","../images/blu_wht.png","../images/pnk_blu.png","../images/ylw_slt.png","../images/org_blu.png"],"mutagen_generator_assignment":[0,1],"goal":3,"start":4,"action_noise":0,"location_history":"[4,5,0,1,2,3]","action_history":"[1,0,1,0,1]","mutagen_history":"[1,0,1,0,1]","location_rts":"[1316,275,249,259,352]","trial_type":"fractal-mutation","trial_index":55,"time_elapsed":1289166,"internal_node_id":"0.0-5.0-1.0"},{"group":"hexagon_bi","fractal_assignment":["../images/gry_blk.png","../images/cyn_red.png","../images/blu_wht.png","../images/pnk_blu.png","../images/ylw_slt.png","../images/org_blu.png"],"mutagen_generator_assignment":[0,1],"goal":5,"start":3,"action_noise":0,"location_history":"[3,4,5]","action_history":"[0,1]","mutagen_history":"[0,1]","location_rts":"[313,251]","trial_type":"fractal-mutation","trial_index":56,"time_elapsed":1295791,"internal_node_id":"0.0-5.0-2.0"},{"group":"hexagon_bi","fractal_assignment":["../images/gry_blk.png","../images/cyn_red.png","../images/blu_wht.png","../images/pnk_blu.png","../images/ylw_slt.png","../images/org_blu.png"],"mutagen_generator_assignment":[0,1],"goal":2,"start":5,"action_noise":0,"location_history":"[5,0,1,2]","action_history":"[0,1,0]","mutagen_history":"[0,1,0]","location_rts":"[243,222,222]","trial_type":"fractal-mutation","trial_index":57,"time_elapsed":1303523,"internal_node_id":"0.0-5.0-3.0"},{"group":"hexagon_bi","fractal_assignment":["../images/gry_blk.png","../images/cyn_red.png","../images/blu_wht.png","../images/pnk_blu.png","../images/ylw_slt.png","../images/org_blu.png"],"mutagen_generator_assignment":[0,1],"goal":1,"start":2,"action_noise":0,"location_history":"[2,3,4,5,0,1]","action_history":"[1,0,1,0,1]","mutagen_history":"[1,0,1,0,1]","location_rts":"[208,243,221,166,173]","trial_type":"fractal-mutation","trial_index":58,"time_elapsed":1313609,"internal_node_id":"0.0-5.0-4.0"},{"group":"hexagon_bi","fractal_assignment":["../images/gry_blk.png","../images/cyn_red.png","../images/blu_wht.png","../images/pnk_blu.png","../images/ylw_slt.png","../images/org_blu.png"],"mutagen_generator_assignment":[0,1],"goal":4,"start":1,"action_noise":0,"location_history":"[1,2,3,4]","action_history":"[0,1,0]","mutagen_history":"[0,1,0]","location_rts":"[398,250,257]","trial_type":"fractal-mutation","trial_index":59,"time_elapsed":1321550,"internal_node_id":"0.0-5.0-5.0"},{"group":"hexagon_bi","fractal_assignment":["../images/gry_blk.png","../images/cyn_red.png","../images/blu_wht.png","../images/pnk_blu.png","../images/ylw_slt.png","../images/org_blu.png"],"mutagen_generator_assignment":[0,1],"goal":1,"start":4,"action_noise":0,"location_history":"[4,3,2,1]","action_history":"[0,1,0]","mutagen_history":"[0,1,0]","location_rts":"[350,290,302]","trial_type":"fractal-mutation","trial_index":60,"time_elapsed":1329536,"internal_node_id":"0.0-5.0-6.0"},{"group":"hexagon_bi","fractal_assignment":["../images/gry_blk.png","../images/cyn_red.png","../images/blu_wht.png","../images/pnk_blu.png","../images/ylw_slt.png","../images/org_blu.png"],"mutagen_generator_assignment":[0,1],"goal":5,"start":1,"action_noise":0,"location_history":"[1,2,3,4,5]","action_history":"[0,1,0,1]","mutagen_history":"[0,1,0,1]","location_rts":"[277,210,221,215]","trial_type":"fractal-mutation","trial_index":61,"time_elapsed":1338529,"internal_node_id":"0.0-5.0-7.0"},{"group":"hexagon_bi","fractal_assignment":["../images/gry_blk.png","../images/cyn_red.png","../images/blu_wht.png","../images/pnk_blu.png","../images/ylw_slt.png","../images/org_blu.png"],"mutagen_generator_assignment":[0,1],"goal":0,"start":5,"action_noise":0,"location_history":"[5,0]","action_history":"[0]","mutagen_history":"[0]","location_rts":"[275]","trial_type":"fractal-mutation","trial_index":62,"time_elapsed":1343817,"internal_node_id":"0.0-5.0-8.0"},{"group":"hexagon_bi","fractal_assignment":["../images/gry_blk.png","../images/cyn_red.png","../images/blu_wht.png","../images/pnk_blu.png","../images/ylw_slt.png","../images/org_blu.png"],"mutagen_generator_assignment":[0,1],"goal":2,"start":0,"action_noise":0,"location_history":"[0,5,4,3,2]","action_history":"[0,1,0,1]","mutagen_history":"[0,1,0,1]","location_rts":"[275,268,226,178]","trial_type":"fractal-mutation","trial_index":63,"time_elapsed":1352826,"internal_node_id":"0.0-5.0-9.0"},{"group":"hexagon_bi","fractal_assignment":["../images/gry_blk.png","../images/cyn_red.png","../images/blu_wht.png","../images/pnk_blu.png","../images/ylw_slt.png","../images/org_blu.png"],"mutagen_generator_assignment":[0,1],"goal":3,"start":2,"action_noise":0,"location_history":"[2,1,0,5,4,3]","action_history":"[0,1,0,1,0]","mutagen_history":"[0,1,0,1,0]","location_rts":"[236,174,216,123,162]","trial_type":"fractal-mutation","trial_index":64,"time_elapsed":1362813,"internal_node_id":"0.0-5.0-10.0"},{"group":"hexagon_bi","fractal_assignment":["../images/gry_blk.png","../images/cyn_red.png","../images/blu_wht.png","../images/pnk_blu.png","../images/ylw_slt.png","../images/org_blu.png"],"mutagen_generator_assignment":[0,1],"goal":0,"start":3,"action_noise":0,"location_history":"[3,4,5,0]","action_history":"[0,1,0]","mutagen_history":"[0,1,0]","location_rts":"[256,194,160]","trial_type":"fractal-mutation","trial_index":65,"time_elapsed":1370467,"internal_node_id":"0.0-5.0-11.0"},{"group":"hexagon_bi","fractal_assignment":["../images/gry_blk.png","../images/cyn_red.png","../images/blu_wht.png","../images/pnk_blu.png","../images/ylw_slt.png","../images/org_blu.png"],"mutagen_generator_assignment":[0,1],"goal":2,"start":0,"action_noise":0,"location_history":"[0,5,4,3,2]","action_history":"[0,1,0,1]","mutagen_history":"[0,1,0,1]","location_rts":"[23571,338,298,277]","trial_type":"fractal-mutation","trial_index":66,"time_elapsed":1402992,"internal_node_id":"0.0-5.0-12.0"},{"group":"hexagon_bi","fractal_assignment":["../images/gry_blk.png","../images/cyn_red.png","../images/blu_wht.png","../images/pnk_blu.png","../images/ylw_slt.png","../images/org_blu.png"],"mutagen_generator_assignment":[0,1],"goal":5,"start":2,"action_noise":0,"location_history":"[2,1,0,5]","action_history":"[0,1,0]","mutagen_history":"[0,1,0]","location_rts":"[284,336,222]","trial_type":"fractal-mutation","trial_index":67,"time_elapsed":1410847,"internal_node_id":"0.0-5.0-13.0"},{"group":"hexagon_bi","fractal_assignment":["../images/gry_blk.png","../images/cyn_red.png","../images/blu_wht.png","../images/pnk_blu.png","../images/ylw_slt.png","../images/org_blu.png"],"mutagen_generator_assignment":[0,1],"goal":4,"start":5,"action_noise":0,"location_history":"[5,0,1,2,3,4]","action_history":"[0,1,0,1,0]","mutagen_history":"[0,1,0,1,0]","location_rts":"[262,234,182,206,235]","trial_type":"fractal-mutation","trial_index":68,"time_elapsed":1421017,"internal_node_id":"0.0-5.0-14.0"},{"group":"hexagon_bi","fractal_assignment":["../images/gry_blk.png","../images/cyn_red.png","../images/blu_wht.png","../images/pnk_blu.png","../images/ylw_slt.png","../images/org_blu.png"],"mutagen_generator_assignment":[0,1],"goal":3,"start":4,"action_noise":0,"location_history":"[4,3]","action_history":"[0]","mutagen_history":"[0]","location_rts":"[276]","trial_type":"fractal-mutation","trial_index":69,"time_elapsed":1426295,"internal_node_id":"0.0-5.0-15.0"},{"group":"hexagon_bi","fractal_assignment":["../images/gry_blk.png","../images/cyn_red.png","../images/blu_wht.png","../images/pnk_blu.png","../images/ylw_slt.png","../images/org_blu.png"],"mutagen_generator_assignment":[0,1],"goal":1,"start":3,"action_noise":0,"location_history":"[3,4,5,0,1]","action_history":"[0,1,0,1]","mutagen_history":"[0,1,0,1]","location_rts":"[381,250,101,115]","trial_type":"fractal-mutation","trial_index":70,"time_elapsed":1435197,"internal_node_id":"0.0-5.0-16.0"},{"group":"hexagon_bi","fractal_assignment":["../images/gry_blk.png","../images/cyn_red.png","../images/blu_wht.png","../images/pnk_blu.png","../images/ylw_slt.png","../images/org_blu.png"],"mutagen_generator_assignment":[0,1],"goal":5,"start":1,"action_noise":0,"location_history":"[1,2,3,4,5]","action_history":"[0,1,0,1]","mutagen_history":"[0,1,0,1]","location_rts":"[266,253,253,188]","trial_type":"fractal-mutation","trial_index":71,"time_elapsed":1444196,"internal_node_id":"0.0-5.0-17.0"},{"group":"hexagon_bi","fractal_assignment":["../images/gry_blk.png","../images/cyn_red.png","../images/blu_wht.png","../images/pnk_blu.png","../images/ylw_slt.png","../images/org_blu.png"],"mutagen_generator_assignment":[0,1],"goal":4,"start":5,"action_noise":0,"location_history":"[5,0,1,0,5,4]","action_history":"[0,1,1,0,1]","mutagen_history":"[0,1,1,0,1]","location_rts":"[400,558,460,136,380]","trial_type":"fractal-mutation","trial_index":72,"time_elapsed":1455184,"internal_node_id":"0.0-5.0-18.0"},{"group":"hexagon_bi","fractal_assignment":["../images/gry_blk.png","../images/cyn_red.png","../images/blu_wht.png","../images/pnk_blu.png","../images/ylw_slt.png","../images/org_blu.png"],"mutagen_generator_assignment":[0,1],"goal":0,"start":4,"action_noise":0,"location_history":"[4,3,2,1,0]","action_history":"[0,1,0,1]","mutagen_history":"[0,1,0,1]","location_rts":"[335,130,292,237]","trial_type":"fractal-mutation","trial_index":73,"time_elapsed":1464211,"internal_node_id":"0.0-5.0-19.0"},{"group":"hexagon_bi","fractal_assignment":["../images/gry_blk.png","../images/cyn_red.png","../images/blu_wht.png","../images/pnk_blu.png","../images/ylw_slt.png","../images/org_blu.png"],"mutagen_generator_assignment":[0,1],"goal":1,"start":0,"action_noise":0,"location_history":"[0,5,4,3,2,1]","action_history":"[0,1,0,1,0]","mutagen_history":"[0,1,0,1,0]","location_rts":"[347,230,54,251,159]","trial_type":"fractal-mutation","trial_index":74,"time_elapsed":1474283,"internal_node_id":"0.0-5.0-20.0"},{"group":"hexagon_bi","fractal_assignment":["../images/gry_blk.png","../images/cyn_red.png","../images/blu_wht.png","../images/pnk_blu.png","../images/ylw_slt.png","../images/org_blu.png"],"mutagen_generator_assignment":[0,1],"goal":3,"start":1,"action_noise":0,"location_history":"[1,2,3]","action_history":"[0,1]","mutagen_history":"[0,1]","location_rts":"[298,223]","trial_type":"fractal-mutation","trial_index":75,"time_elapsed":1480825,"internal_node_id":"0.0-5.0-21.0"},{"group":"hexagon_bi","fractal_assignment":["../images/gry_blk.png","../images/cyn_red.png","../images/blu_wht.png","../images/pnk_blu.png","../images/ylw_slt.png","../images/org_blu.png"],"mutagen_generator_assignment":[0,1],"goal":2,"start":3,"action_noise":0,"location_history":"[3,4,5,0,1,2]","action_history":"[0,1,0,1,0]","mutagen_history":"[0,1,0,1,0]","location_rts":"[323,212,241,209,207]","trial_type":"fractal-mutation","trial_index":76,"time_elapsed":1491059,"internal_node_id":"0.0-5.0-22.0"},{"group":"hexagon_bi","fractal_assignment":["../images/gry_blk.png","../images/cyn_red.png","../images/blu_wht.png","../images/pnk_blu.png","../images/ylw_slt.png","../images/org_blu.png"],"mutagen_generator_assignment":[0,1],"goal":0,"start":2,"action_noise":0,"location_history":"[2,1,0]","action_history":"[0,1]","mutagen_history":"[0,1]","location_rts":"[265,237]","trial_type":"fractal-mutation","trial_index":77,"time_elapsed":1497579,"internal_node_id":"0.0-5.0-23.0"},{"group":"hexagon_bi","fractal_assignment":["../images/gry_blk.png","../images/cyn_red.png","../images/blu_wht.png","../images/pnk_blu.png","../images/ylw_slt.png","../images/org_blu.png"],"mutagen_generator_assignment":[0,1],"goal":3,"start":0,"action_noise":0,"location_history":"[0,5,4,3]","action_history":"[0,1,0]","mutagen_history":"[0,1,0]","location_rts":"[234,231,244]","trial_type":"fractal-mutation","trial_index":78,"time_elapsed":1505314,"internal_node_id":"0.0-5.0-24.0"},{"group":"hexagon_bi","fractal_assignment":["../images/gry_blk.png","../images/cyn_red.png","../images/blu_wht.png","../images/pnk_blu.png","../images/ylw_slt.png","../images/org_blu.png"],"mutagen_generator_assignment":[0,1],"goal":1,"start":3,"action_noise":0,"location_history":"[3,4,5,0,1]","action_history":"[0,1,0,1]","mutagen_history":"[0,1,0,1]","location_rts":"[236,270,366,125]","trial_type":"fractal-mutation","trial_index":79,"time_elapsed":1514342,"internal_node_id":"0.0-5.0-25.0"},{"group":"hexagon_bi","fractal_assignment":["../images/gry_blk.png","../images/cyn_red.png","../images/blu_wht.png","../images/pnk_blu.png","../images/ylw_slt.png","../images/org_blu.png"],"mutagen_generator_assignment":[0,1],"goal":2,"start":1,"action_noise":0,"location_history":"[1,2]","action_history":"[0]","mutagen_history":"[0]","location_rts":"[300]","trial_type":"fractal-mutation","trial_index":80,"time_elapsed":1519650,"internal_node_id":"0.0-5.0-26.0"},{"group":"hexagon_bi","fractal_assignment":["../images/gry_blk.png","../images/cyn_red.png","../images/blu_wht.png","../images/pnk_blu.png","../images/ylw_slt.png","../images/org_blu.png"],"mutagen_generator_assignment":[0,1],"goal":5,"start":2,"action_noise":0,"location_history":"[2,1,0,5]","action_history":"[0,1,0]","mutagen_history":"[0,1,0]","location_rts":"[489,206,127]","trial_type":"fractal-mutation","trial_index":81,"time_elapsed":1527480,"internal_node_id":"0.0-5.0-27.0"},{"group":"hexagon_bi","fractal_assignment":["../images/gry_blk.png","../images/cyn_red.png","../images/blu_wht.png","../images/pnk_blu.png","../images/ylw_slt.png","../images/org_blu.png"],"mutagen_generator_assignment":[0,1],"goal":4,"start":5,"action_noise":0,"location_history":"[5,0,1,2,3,4]","action_history":"[0,1,0,1,0]","mutagen_history":"[0,1,0,1,0]","location_rts":"[286,183,207,246,315]","trial_type":"fractal-mutation","trial_index":82,"time_elapsed":1537781,"internal_node_id":"0.0-5.0-28.0"},{"group":"hexagon_bi","fractal_assignment":["../images/gry_blk.png","../images/cyn_red.png","../images/blu_wht.png","../images/pnk_blu.png","../images/ylw_slt.png","../images/org_blu.png"],"mutagen_generator_assignment":[0,1],"goal":5,"start":4,"action_noise":0,"location_history":"[4,3,2,1,0,5]","action_history":"[0,1,0,1,0]","mutagen_history":"[0,1,0,1,0]","location_rts":"[277,152,146,181,174]","trial_type":"fractal-mutation","trial_index":83,"time_elapsed":1547768,"internal_node_id":"0.0-5.0-29.0"},{"group":"hexagon_bi","fractal_assignment":["../images/gry_blk.png","../images/cyn_red.png","../images/blu_wht.png","../images/pnk_blu.png","../images/ylw_slt.png","../images/org_blu.png"],"mutagen_generator_assignment":[0,1],"goal":3,"start":5,"action_noise":0,"location_history":"[5,0,1,2,3]","action_history":"[0,1,0,1]","mutagen_history":"[0,1,0,1]","location_rts":"[276,367,202,134]","trial_type":"fractal-mutation","trial_index":84,"time_elapsed":1556791,"internal_node_id":"0.0-5.0-30.0"},{"group":"hexagon_bi","fractal_assignment":["../images/gry_blk.png","../images/cyn_red.png","../images/blu_wht.png","../images/pnk_blu.png","../images/ylw_slt.png","../images/org_blu.png"],"mutagen_generator_assignment":[0,1],"goal":0,"start":3,"action_noise":0,"location_history":"[3,4,5,0]","action_history":"[0,1,0]","mutagen_history":"[0,1,0]","location_rts":"[232,209,158]","trial_type":"fractal-mutation","trial_index":85,"time_elapsed":1564411,"internal_node_id":"0.0-5.0-31.0"},{"group":"hexagon_bi","fractal_assignment":["../images/gry_blk.png","../images/cyn_red.png","../images/blu_wht.png","../images/pnk_blu.png","../images/ylw_slt.png","../images/org_blu.png"],"mutagen_generator_assignment":[0,1],"goal":4,"start":0,"action_noise":0,"location_history":"[0,5,4]","action_history":"[0,1]","mutagen_history":"[0,1]","location_rts":"[266,175]","trial_type":"fractal-mutation","trial_index":86,"time_elapsed":1570866,"internal_node_id":"0.0-5.0-32.0"},{"group":"hexagon_bi","fractal_assignment":["../images/gry_blk.png","../images/cyn_red.png","../images/blu_wht.png","../images/pnk_blu.png","../images/ylw_slt.png","../images/org_blu.png"],"mutagen_generator_assignment":[0,1],"goal":1,"start":4,"action_noise":0,"location_history":"[4,3,2,1]","action_history":"[0,1,0]","mutagen_history":"[0,1,0]","location_rts":"[331,472,188]","trial_type":"fractal-mutation","trial_index":87,"time_elapsed":1578885,"internal_node_id":"0.0-5.0-33.0"},{"group":"hexagon_bi","fractal_assignment":["../images/gry_blk.png","../images/cyn_red.png","../images/blu_wht.png","../images/pnk_blu.png","../images/ylw_slt.png","../images/org_blu.png"],"mutagen_generator_assignment":[0,1],"goal":2,"start":1,"action_noise":0,"location_history":"[1,2]","action_history":"[0]","mutagen_history":"[0]","location_rts":"[360]","trial_type":"fractal-mutation","trial_index":88,"time_elapsed":1584252,"internal_node_id":"0.0-5.0-34.0"},{"group":"hexagon_bi","fractal_assignment":["../images/gry_blk.png","../images/cyn_red.png","../images/blu_wht.png","../images/pnk_blu.png","../images/ylw_slt.png","../images/org_blu.png"],"mutagen_generator_assignment":[0,1],"goal":0,"start":2,"action_noise":0,"location_history":"[2,3,4,5,0]","action_history":"[1,0,1,0]","mutagen_history":"[1,0,1,0]","location_rts":"[419,128,100,161]","trial_type":"fractal-mutation","trial_index":89,"time_elapsed":1593093,"internal_node_id":"0.0-5.0-35.0"},{"group":"hexagon_bi","fractal_assignment":["../images/gry_blk.png","../images/cyn_red.png","../images/blu_wht.png","../images/pnk_blu.png","../images/ylw_slt.png","../images/org_blu.png"],"mutagen_generator_assignment":[0,1],"goal":5,"start":0,"action_noise":0,"location_history":"[0,5]","action_history":"[0]","mutagen_history":"[0]","location_rts":"[217]","trial_type":"fractal-mutation","trial_index":90,"time_elapsed":1598315,"internal_node_id":"0.0-5.0-36.0"},{"group":"hexagon_bi","fractal_assignment":["../images/gry_blk.png","../images/cyn_red.png","../images/blu_wht.png","../images/pnk_blu.png","../images/ylw_slt.png","../images/org_blu.png"],"mutagen_generator_assignment":[0,1],"goal":2,"start":5,"action_noise":0,"location_history":"[5,0,1,2]","action_history":"[0,1,0]","mutagen_history":"[0,1,0]","location_rts":"[259,180,164]","trial_type":"fractal-mutation","trial_index":91,"time_elapsed":1605946,"internal_node_id":"0.0-5.0-37.0"},{"group":"hexagon_bi","fractal_assignment":["../images/gry_blk.png","../images/cyn_red.png","../images/blu_wht.png","../images/pnk_blu.png","../images/ylw_slt.png","../images/org_blu.png"],"mutagen_generator_assignment":[0,1],"goal":1,"start":2,"action_noise":0,"location_history":"[2,1]","action_history":"[0]","mutagen_history":"[0]","location_rts":"[210]","trial_type":"fractal-mutation","trial_index":92,"time_elapsed":1611161,"internal_node_id":"0.0-5.0-38.0"},{"group":"hexagon_bi","fractal_assignment":["../images/gry_blk.png","../images/cyn_red.png","../images/blu_wht.png","../images/pnk_blu.png","../images/ylw_slt.png","../images/org_blu.png"],"mutagen_generator_assignment":[0,1],"goal":4,"start":1,"action_noise":0,"location_history":"[1,2,3,4]","action_history":"[0,1,0]","mutagen_history":"[0,1,0]","location_rts":"[280,145,70]","trial_type":"fractal-mutation","trial_index":93,"time_elapsed":1618686,"internal_node_id":"0.0-5.0-39.0"},{"group":"hexagon_bi","fractal_assignment":["../images/gry_blk.png","../images/cyn_red.png","../images/blu_wht.png","../images/pnk_blu.png","../images/ylw_slt.png","../images/org_blu.png"],"mutagen_generator_assignment":[0,1],"goal":3,"start":4,"action_noise":0,"location_history":"[4,3]","action_history":"[0]","mutagen_history":"[0]","location_rts":"[136]","trial_type":"fractal-mutation","trial_index":94,"time_elapsed":1623830,"internal_node_id":"0.0-5.0-40.0"},{"group":"hexagon_bi","fractal_assignment":["../images/gry_blk.png","../images/cyn_red.png","../images/blu_wht.png","../images/pnk_blu.png","../images/ylw_slt.png","../images/org_blu.png"],"mutagen_generator_assignment":[0,1],"goal":5,"start":3,"action_noise":0,"location_history":"[3,4,5]","action_history":"[0,1]","mutagen_history":"[0,1]","location_rts":"[227,223]","trial_type":"fractal-mutation","trial_index":95,"time_elapsed":1630299,"internal_node_id":"0.0-5.0-41.0"},{"group":"hexagon_bi","fractal_assignment":["../images/gry_blk.png","../images/cyn_red.png","../images/blu_wht.png","../images/pnk_blu.png","../images/ylw_slt.png","../images/org_blu.png"],"mutagen_generator_assignment":[0,1],"goal":3,"start":5,"action_noise":0,"location_history":"[5,0,1,2,3]","action_history":"[0,1,0,1]","mutagen_history":"[0,1,0,1]","location_rts":"[259,212,230,199]","trial_type":"fractal-mutation","trial_index":96,"time_elapsed":1639245,"internal_node_id":"0.0-5.0-42.0"},{"group":"hexagon_bi","fractal_assignment":["../images/gry_blk.png","../images/cyn_red.png","../images/blu_wht.png","../images/pnk_blu.png","../images/ylw_slt.png","../images/org_blu.png"],"mutagen_generator_assignment":[0,1],"goal":0,"start":3,"action_noise":0,"location_history":"[3,4,5,0]","action_history":"[0,1,0]","mutagen_history":"[0,1,0]","location_rts":"[346,354,227]","trial_type":"fractal-mutation","trial_index":97,"time_elapsed":1647197,"internal_node_id":"0.0-5.0-43.0"},{"group":"hexagon_bi","fractal_assignment":["../images/gry_blk.png","../images/cyn_red.png","../images/blu_wht.png","../images/pnk_blu.png","../images/ylw_slt.png","../images/org_blu.png"],"mutagen_generator_assignment":[0,1],"goal":2,"start":0,"action_noise":0,"location_history":"[0,5,4,3,2]","action_history":"[0,1,0,1]","mutagen_history":"[0,1,0,1]","location_rts":"[319,293,142,136]","trial_type":"fractal-mutation","trial_index":98,"time_elapsed":1656129,"internal_node_id":"0.0-5.0-44.0"},{"group":"hexagon_bi","fractal_assignment":["../images/gry_blk.png","../images/cyn_red.png","../images/blu_wht.png","../images/pnk_blu.png","../images/ylw_slt.png","../images/org_blu.png"],"mutagen_generator_assignment":[0,1],"goal":4,"start":2,"action_noise":0,"location_history":"[2,1,0,5,4]","action_history":"[0,1,0,1]","mutagen_history":"[0,1,0,1]","location_rts":"[300,110,192,236]","trial_type":"fractal-mutation","trial_index":99,"time_elapsed":1665005,"internal_node_id":"0.0-5.0-45.0"},{"group":"hexagon_bi","fractal_assignment":["../images/gry_blk.png","../images/cyn_red.png","../images/blu_wht.png","../images/pnk_blu.png","../images/ylw_slt.png","../images/org_blu.png"],"mutagen_generator_assignment":[0,1],"goal":1,"start":4,"action_noise":0,"location_history":"[4,3,2,1]","action_history":"[0,1,0]","mutagen_history":"[0,1,0]","location_rts":"[297,208,160]","trial_type":"fractal-mutation","trial_index":100,"time_elapsed":1672700,"internal_node_id":"0.0-5.0-46.0"},{"group":"hexagon_bi","fractal_assignment":["../images/gry_blk.png","../images/cyn_red.png","../images/blu_wht.png","../images/pnk_blu.png","../images/ylw_slt.png","../images/org_blu.png"],"mutagen_generator_assignment":[0,1],"goal":4,"start":1,"action_noise":0,"location_history":"[1,2,3,4]","action_history":"[0,1,0]","mutagen_history":"[0,1,0]","location_rts":"[242,231,221]","trial_type":"fractal-mutation","trial_index":101,"time_elapsed":1680409,"internal_node_id":"0.0-5.0-47.0"},{"group":"hexagon_bi","fractal_assignment":["../images/gry_blk.png","../images/cyn_red.png","../images/blu_wht.png","../images/pnk_blu.png","../images/ylw_slt.png","../images/org_blu.png"],"mutagen_generator_assignment":[0,1],"goal":3,"start":4,"action_noise":0,"location_history":"[4,3]","action_history":"[0]","mutagen_history":"[0]","location_rts":"[301]","trial_type":"fractal-mutation","trial_index":102,"time_elapsed":1685715,"internal_node_id":"0.0-5.0-48.0"},{"group":"hexagon_bi","fractal_assignment":["../images/gry_blk.png","../images/cyn_red.png","../images/blu_wht.png","../images/pnk_blu.png","../images/ylw_slt.png","../images/org_blu.png"],"mutagen_generator_assignment":[0,1],"goal":5,"start":3,"action_noise":0,"location_history":"[3,4,5]","action_history":"[0,1]","mutagen_history":"[0,1]","location_rts":"[266,237]","trial_type":"fractal-mutation","trial_index":103,"time_elapsed":1692241,"internal_node_id":"0.0-5.0-49.0"},{"view_history":"[{\"page_index\":0,\"viewing_time\":12203}]","rt":12203,"trial_type":"instructions","trial_index":104,"time_elapsed":1705444,"internal_node_id":"0.0-6.0"},{"rt":3311,"responses":"{\"Q0\":\"no\"}","trial_type":"survey-text","trial_index":105,"time_elapsed":1709759,"internal_node_id":"0.0-7.0"}]