[{"view_history":"[{\"page_index\":0,\"viewing_time\":8123},{\"page_index\":1,\"viewing_time\":7780},{\"page_index\":2,\"viewing_time\":15389}]","rt":31293,"trial_type":"instructions","trial_index":0,"time_elapsed":31296,"internal_node_id":"0.0-0.0"},{"view_history":"[{\"page_index\":0,\"viewing_time\":1322},{\"page_index\":1,\"viewing_time\":13357}]","rt":14679,"trial_type":"instructions","trial_index":1,"time_elapsed":46981,"internal_node_id":"0.0-1.0"},{"group":"hexagon_bi","room_assignment":["purple","red","grey","blue","green","yellow"],"door_color_assignment":["white","black"],"door_generator_assignment":[1,0],"goal":4,"start":0,"action_noise":0,"location_history":"[0,1,0,5,0,5,4]","action_history":"[1,1,0,0,0,1]","door_history":"[0,0,1,1,1,0]","location_rts":"[2555,1536,2237,1124,1157,1083]","trial_type":"two-door-navigation","trial_index":2,"time_elapsed":68033,"internal_node_id":"0.0-2.0-0.0"},{"group":"hexagon_bi","room_assignment":["purple","red","grey","blue","green","yellow"],"door_color_assignment":["white","black"],"door_generator_assignment":[1,0],"goal":3,"start":4,"action_noise":0,"location_history":"[4,5,4,3]","action_history":"[1,1,0]","door_history":"[0,0,1]","location_rts":"[1525,537,1041]","trial_type":"two-door-navigation","trial_index":3,"time_elapsed":79045,"internal_node_id":"0.0-2.0-1.0"},{"group":"hexagon_bi","room_assignment":["purple","red","grey","blue","green","yellow"],"door_color_assignment":["white","black"],"door_generator_assignment":[1,0],"goal":5,"start":3,"action_noise":0,"location_history":"[3,2,3,2,1,2,3,2,1,2,1,0,1,0,5]","action_history":"[1,1,1,0,0,1,1,0,0,0,1,1,1,0]","door_history":"[0,0,0,1,1,0,0,1,1,1,0,0,0,1]","location_rts":"[1772,776,859,830,758,799,799,733,655,636,1258,598,730,1052]","trial_type":"two-door-navigation","trial_index":4,"time_elapsed":112691,"internal_node_id":"0.0-2.0-2.0"},{"group":"hexagon_bi","room_assignment":["purple","red","grey","blue","green","yellow"],"door_color_assignment":["white","black"],"door_generator_assignment":[1,0],"goal":2,"start":5,"action_noise":0,"location_history":"[5,4,3,2]","action_history":"[1,0,1]","door_history":"[0,1,0]","location_rts":"[2605,775,762]","trial_type":"two-door-navigation","trial_index":5,"time_elapsed":124505,"internal_node_id":"0.0-2.0-3.0"},{"group":"hexagon_bi","room_assignment":["purple","red","grey","blue","green","yellow"],"door_color_assignment":["white","black"],"door_generator_assignment":[1,0],"goal":1,"start":2,"action_noise":0,"location_history":"[2,1]","action_history":"[0]","door_history":"[1]","location_rts":"[2040]","trial_type":"two-door-navigation","trial_index":6,"time_elapsed":131760,"internal_node_id":"0.0-2.0-4.0"},{"group":"hexagon_bi","room_assignment":["purple","red","grey","blue","green","yellow"],"door_color_assignment":["white","black"],"door_generator_assignment":[1,0],"goal":4,"start":1,"action_noise":0,"location_history":"[1,0,1,2,1,0,1,0,1,2,1,0,5,0,1,0,5,0,5,4]","action_history":"[1,1,0,0,1,1,1,1,0,0,1,0,0,1,1,0,0,0,1]","door_history":"[0,0,1,1,0,0,0,0,1,1,0,1,1,0,0,1,1,1,0]","location_rts":"[1902,846,1815,500,1308,463,575,732,590,585,892,1037,649,1241,479,813,516,640,987]","trial_type":"two-door-navigation","trial_index":7,"time_elapsed":173237,"internal_node_id":"0.0-2.0-5.0"},{"group":"hexagon_bi","room_assignment":["purple","red","grey","blue","green","yellow"],"door_color_assignment":["white","black"],"door_generator_assignment":[1,0],"goal":1,"start":4,"action_noise":0,"location_history":"[4,5,4,3,4,5,4,5,0,5,4,5,4,3,4,5,0,5,0,5,4,3,2,3,2,1]","action_history":"[1,1,0,0,1,1,1,0,0,1,1,1,0,0,1,0,0,0,0,1,0,1,1,1,0]","door_history":"[0,0,1,1,0,0,0,1,1,0,0,0,1,1,0,1,1,1,1,0,1,0,0,0,1]","location_rts":"[1886,1093,683,977,823,772,736,1006,1456,681,561,671,662,649,1019,466,653,680,1229,507,533,642,416,443,525]","trial_type":"two-door-navigation","trial_index":8,"time_elapsed":228100,"internal_node_id":"0.0-2.0-6.0"},{"group":"hexagon_bi","room_assignment":["purple","red","grey","blue","green","yellow"],"door_color_assignment":["white","black"],"door_generator_assignment":[1,0],"goal":5,"start":1,"action_noise":0,"location_history":"[1,0,5]","action_history":"[1,0]","door_history":"[0,1]","location_rts":"[2299,791]","trial_type":"two-door-navigation","trial_index":9,"time_elapsed":237981,"internal_node_id":"0.0-2.0-7.0"},{"group":"hexagon_bi","room_assignment":["purple","red","grey","blue","green","yellow"],"door_color_assignment":["white","black"],"door_generator_assignment":[1,0],"goal":0,"start":5,"action_noise":0,"location_history":"[5,4,3,2,1,2,3,2,1,2,3,4,5,4,3,4,5,0]","action_history":"[1,0,1,0,0,1,1,0,0,1,0,1,1,0,0,1,0]","door_history":"[0,1,0,1,1,0,0,1,1,0,1,0,0,1,1,0,1]","location_rts":"[3310,1717,918,929,461,1493,928,752,936,962,2279,1259,492,1093,1014,608,585]","trial_type":"two-door-navigation","trial_index":10,"time_elapsed":281220,"internal_node_id":"0.0-2.0-8.0"},{"group":"hexagon_bi","room_assignment":["purple","red","grey","blue","green","yellow"],"door_color_assignment":["white","black"],"door_generator_assignment":[1,0],"goal":2,"start":0,"action_noise":0,"location_history":"[0,5,4,5,0,5,4,5,0,1,0,5,4,5,0,5,4,3,2]","action_history":"[0,1,1,0,0,1,1,0,1,1,0,1,1,0,0,1,0,1]","door_history":"[1,0,0,1,1,0,0,1,0,0,1,0,0,1,1,0,1,0]","location_rts":"[2486,923,1215,719,753,840,818,1278,2062,1595,745,993,813,930,687,713,1960,1787]","trial_type":"two-door-navigation","trial_index":11,"time_elapsed":327312,"internal_node_id":"0.0-2.0-9.0"},{"group":"hexagon_bi","room_assignment":["purple","red","grey","blue","green","yellow"],"door_color_assignment":["white","black"],"door_generator_assignment":[1,0],"goal":3,"start":2,"action_noise":0,"location_history":"[2,1,0,1,2,3]","action_history":"[0,1,1,0,1]","door_history":"[1,0,0,1,0]","location_rts":"[1951,1751,925,695,4762]","trial_type":"two-door-navigation","trial_index":12,"time_elapsed":348328,"internal_node_id":"0.0-2.0-10.0"},{"group":"hexagon_bi","room_assignment":["purple","red","grey","blue","green","yellow"],"door_color_assignment":["white","black"],"door_generator_assignment":[1,0],"goal":0,"start":3,"action_noise":0,"location_history":"[3,4,5,0]","action_history":"[0,1,0]","door_history":"[1,0,1]","location_rts":"[2127,1382,1038]","trial_type":"two-door-navigation","trial_index":13,"time_elapsed":360093,"internal_node_id":"0.0-2.0-11.0"},{"group":"hexagon_bi","room_assignment":["purple","red","grey","blue","green","yellow"],"door_color_assignment":["white","black"],"door_generator_assignment":[1,0],"goal":2,"start":0,"action_noise":0,"location_history":"[0,1,2]","action_history":"[1,0]","door_history":"[0,1]","location_rts":"[1432,1143]","trial_type":"two-door-navigation","trial_index":14,"time_elapsed":369480,"internal_node_id":"0.0-2.0-12.0"},{"group":"hexagon_bi","room_assignment":["purple","red","grey","blue","green","yellow"],"door_color_assignment":["white","black"],"door_generator_assignment":[1,0],"goal":5,"start":2,"action_noise":0,"location_history":"[2,3,4,5]","action_history":"[1,0,1]","door_history":"[0,1,0]","location_rts":"[1870,964,1811]","trial_type":"two-door-navigation","trial_index":15,"time_elapsed":381665,"internal_node_id":"0.0-2.0-13.0"},{"group":"hexagon_bi","room_assignment":["purple","red","grey","blue","green","yellow"],"door_color_assignment":["white","black"],"door_generator_assignment":[1,0],"goal":4,"start":5,"action_noise":0,"location_history":"[5,4]","action_history":"[1]","door_history":"[0]","location_rts":"[3653]","trial_type":"two-door-navigation","trial_index":16,"time_elapsed":390375,"internal_node_id":"0.0-2.0-14.0"},{"group":"hexagon_bi","room_assignment":["purple","red","grey","blue","green","yellow"],"door_color_assignment":["white","black"],"door_generator_assignment":[1,0],"goal":3,"start":4,"action_noise":0,"location_history":"[4,3]","action_history":"[0]","door_history":"[1]","location_rts":"[1063]","trial_type":"two-door-navigation","trial_index":17,"time_elapsed":396779,"internal_node_id":"0.0-2.0-15.0"},{"group":"hexagon_bi","room_assignment":["purple","red","grey","blue","green","yellow"],"door_color_assignment":["white","black"],"door_generator_assignment":[1,0],"goal":1,"start":3,"action_noise":0,"location_history":"[3,2,1]","action_history":"[1,0]","door_history":"[0,1]","location_rts":"[1521,2948]","trial_type":"two-door-navigation","trial_index":18,"time_elapsed":408119,"internal_node_id":"0.0-2.0-16.0"},{"group":"hexagon_bi","room_assignment":["purple","red","grey","blue","green","yellow"],"door_color_assignment":["white","black"],"door_generator_assignment":[1,0],"goal":5,"start":1,"action_noise":0,"location_history":"[1,0,5]","action_history":"[1,0]","door_history":"[0,1]","location_rts":"[2260,1291]","trial_type":"two-door-navigation","trial_index":19,"time_elapsed":417905,"internal_node_id":"0.0-2.0-17.0"},{"group":"hexagon_bi","room_assignment":["purple","red","grey","blue","green","yellow"],"door_color_assignment":["white","black"],"door_generator_assignment":[1,0],"goal":4,"start":5,"action_noise":0,"location_history":"[5,4]","action_history":"[1]","door_history":"[0]","location_rts":"[1286]","trial_type":"two-door-navigation","trial_index":20,"time_elapsed":424222,"internal_node_id":"0.0-2.0-18.0"},{"group":"hexagon_bi","room_assignment":["purple","red","grey","blue","green","yellow"],"door_color_assignment":["white","black"],"door_generator_assignment":[1,0],"goal":0,"start":4,"action_noise":0,"location_history":"[4,3,2,1,2,3,2,1,2,3,4,5,0]","action_history":"[0,1,0,0,1,1,0,0,1,0,1,0]","door_history":"[1,0,1,1,0,0,1,1,0,1,0,1]","location_rts":"[1449,2337,871,729,844,2075,892,808,939,3317,1516,1340]","trial_type":"two-door-navigation","trial_index":21,"time_elapsed":458329,"internal_node_id":"0.0-2.0-19.0"},{"group":"hexagon_bi","room_assignment":["purple","red","grey","blue","green","yellow"],"door_color_assignment":["white","black"],"door_generator_assignment":[1,0],"goal":1,"start":0,"action_noise":0,"location_history":"[0,1]","action_history":"[1]","door_history":"[0]","location_rts":"[1711]","trial_type":"two-door-navigation","trial_index":22,"time_elapsed":465055,"internal_node_id":"0.0-2.0-20.0"},{"group":"hexagon_bi","room_assignment":["purple","red","grey","blue","green","yellow"],"door_color_assignment":["white","black"],"door_generator_assignment":[1,0],"goal":3,"start":1,"action_noise":0,"location_history":"[1,2,3]","action_history":"[0,1]","door_history":"[1,0]","location_rts":"[2191,814]","trial_type":"two-door-navigation","trial_index":23,"time_elapsed":474772,"internal_node_id":"0.0-2.0-21.0"},{"group":"hexagon_bi","room_assignment":["purple","red","grey","blue","green","yellow"],"door_color_assignment":["white","black"],"door_generator_assignment":[1,0],"goal":2,"start":3,"action_noise":0,"location_history":"[3,2]","action_history":"[1]","door_history":"[0]","location_rts":"[1724]","trial_type":"two-door-navigation","trial_index":24,"time_elapsed":481779,"internal_node_id":"0.0-2.0-22.0"},{"group":"hexagon_bi","room_assignment":["purple","red","grey","blue","green","yellow"],"door_color_assignment":["white","black"],"door_generator_assignment":[1,0],"goal":0,"start":2,"action_noise":0,"location_history":"[2,1,0]","action_history":"[0,1]","door_history":"[1,0]","location_rts":"[5969,913]","trial_type":"two-door-navigation","trial_index":25,"time_elapsed":494819,"internal_node_id":"0.0-2.0-23.0"},{"group":"hexagon_bi","room_assignment":["purple","red","grey","blue","green","yellow"],"door_color_assignment":["white","black"],"door_generator_assignment":[1,0],"goal":3,"start":0,"action_noise":0,"location_history":"[0,5,4,3]","action_history":"[0,1,0]","door_history":"[1,0,1]","location_rts":"[1660,959,1184]","trial_type":"two-door-navigation","trial_index":26,"time_elapsed":506640,"internal_node_id":"0.0-2.0-24.0"},{"group":"hexagon_bi","room_assignment":["purple","red","grey","blue","green","yellow"],"door_color_assignment":["white","black"],"door_generator_assignment":[1,0],"goal":1,"start":3,"action_noise":0,"location_history":"[3,2,1]","action_history":"[1,0]","door_history":"[0,1]","location_rts":"[1924,865]","trial_type":"two-door-navigation","trial_index":27,"time_elapsed":515454,"internal_node_id":"0.0-2.0-25.0"},{"group":"hexagon_bi","room_assignment":["purple","red","grey","blue","green","yellow"],"door_color_assignment":["white","black"],"door_generator_assignment":[1,0],"goal":2,"start":1,"action_noise":0,"location_history":"[1,0,5,4,3,2]","action_history":"[1,0,1,0,1]","door_history":"[0,1,0,1,0]","location_rts":"[1203,1519,1653,1081,710]","trial_type":"two-door-navigation","trial_index":28,"time_elapsed":531862,"internal_node_id":"0.0-2.0-26.0"},{"group":"hexagon_bi","room_assignment":["purple","red","grey","blue","green","yellow"],"door_color_assignment":["white","black"],"door_generator_assignment":[1,0],"goal":5,"start":2,"action_noise":0,"location_history":"[2,1,0,1,2,3,2,1,2,3,2,1,2,1,0,1,2,1,0,1,0,5]","action_history":"[0,1,1,0,1,1,0,0,1,1,0,0,0,1,1,0,0,1,1,1,0]","door_history":"[1,0,0,1,0,0,1,1,0,0,1,1,1,0,0,1,1,0,0,0,1]","location_rts":"[1738,1110,493,873,1120,1243,629,774,2754,1143,640,588,1022,733,607,760,759,1037,410,1980,1417]","trial_type":"two-door-navigation","trial_index":29,"time_elapsed":588468,"internal_node_id":"0.0-2.0-27.0"},{"group":"hexagon_bi","room_assignment":["purple","red","grey","blue","green","yellow"],"door_color_assignment":["white","black"],"door_generator_assignment":[1,0],"goal":4,"start":5,"action_noise":0,"location_history":"[5,4]","action_history":"[1]","door_history":"[0]","location_rts":"[1678]","trial_type":"two-door-navigation","trial_index":30,"time_elapsed":595190,"internal_node_id":"0.0-2.0-28.0"},{"group":"hexagon_bi","room_assignment":["purple","red","grey","blue","green","yellow"],"door_color_assignment":["white","black"],"door_generator_assignment":[1,0],"goal":5,"start":4,"action_noise":0,"location_history":"[4,5]","action_history":"[1]","door_history":"[0]","location_rts":"[1761]","trial_type":"two-door-navigation","trial_index":31,"time_elapsed":602690,"internal_node_id":"0.0-2.0-29.0"},{"group":"hexagon_bi","room_assignment":["purple","red","grey","blue","green","yellow"],"door_color_assignment":["white","black"],"door_generator_assignment":[1,0],"goal":3,"start":5,"action_noise":0,"location_history":"[5,0,1,2,3]","action_history":"[0,1,0,1]","door_history":"[1,0,1,0]","location_rts":"[1731,2437,1100,809]","trial_type":"two-door-navigation","trial_index":32,"time_elapsed":617941,"internal_node_id":"0.0-2.0-30.0"},{"group":"hexagon_bi","room_assignment":["purple","red","grey","blue","green","yellow"],"door_color_assignment":["white","black"],"door_generator_assignment":[1,0],"goal":0,"start":3,"action_noise":0,"location_history":"[3,4,5,0]","action_history":"[0,1,0]","door_history":"[1,0,1]","location_rts":"[2013,1275,1114]","trial_type":"two-door-navigation","trial_index":33,"time_elapsed":629979,"internal_node_id":"0.0-2.0-31.0"},{"group":"hexagon_bi","room_assignment":["purple","red","grey","blue","green","yellow"],"door_color_assignment":["white","black"],"door_generator_assignment":[1,0],"goal":4,"start":0,"action_noise":0,"location_history":"[0,1,2,1,0,1,2,3,2,1,2,3,4]","action_history":"[1,0,0,1,1,0,1,1,0,0,1,0]","door_history":"[0,1,1,0,0,1,0,0,1,1,0,1]","location_rts":"[1677,866,752,1457,652,692,1583,1718,750,633,1014,2184]","trial_type":"two-door-navigation","trial_index":34,"time_elapsed":663322,"internal_node_id":"0.0-2.0-32.0"},{"group":"hexagon_bi","room_assignment":["purple","red","grey","blue","green","yellow"],"door_color_assignment":["white","black"],"door_generator_assignment":[1,0],"goal":1,"start":4,"action_noise":0,"location_history":"[4,5,0,1]","action_history":"[1,0,1]","door_history":"[0,1,0]","location_rts":"[2387,1517,2382]","trial_type":"two-door-navigation","trial_index":35,"time_elapsed":678156,"internal_node_id":"0.0-2.0-33.0"},{"group":"hexagon_bi","room_assignment":["purple","red","grey","blue","green","yellow"],"door_color_assignment":["white","black"],"door_generator_assignment":[1,0],"goal":2,"start":1,"action_noise":0,"location_history":"[1,0,5,0,1,0,5,0,1,0,5,0,1,2]","action_history":"[1,0,0,1,1,0,0,1,1,0,0,1,0]","door_history":"[0,1,1,0,0,1,1,0,0,1,1,0,1]","location_rts":"[22450,1549,478,1643,702,757,1390,1008,566,825,893,1468,1219]","trial_type":"two-door-navigation","trial_index":36,"time_elapsed":734114,"internal_node_id":"0.0-2.0-34.0"},{"group":"hexagon_bi","room_assignment":["purple","red","grey","blue","green","yellow"],"door_color_assignment":["white","black"],"door_generator_assignment":[1,0],"goal":0,"start":2,"action_noise":0,"location_history":"[2,1,0]","action_history":"[0,1]","door_history":"[1,0]","location_rts":"[6086,1249]","trial_type":"two-door-navigation","trial_index":37,"time_elapsed":748083,"internal_node_id":"0.0-2.0-35.0"},{"group":"hexagon_bi","room_assignment":["purple","red","grey","blue","green","yellow"],"door_color_assignment":["white","black"],"door_generator_assignment":[1,0],"goal":5,"start":0,"action_noise":0,"location_history":"[0,1,2,3,4,5]","action_history":"[1,0,1,0,1]","door_history":"[0,1,0,1,0]","location_rts":"[2938,1553,993,1508,708]","trial_type":"two-door-navigation","trial_index":38,"time_elapsed":767842,"internal_node_id":"0.0-2.0-36.0"},{"group":"hexagon_bi","room_assignment":["purple","red","grey","blue","green","yellow"],"door_color_assignment":["white","black"],"door_generator_assignment":[1,0],"goal":2,"start":5,"action_noise":0,"location_history":"[5,0,1,0,5,0,1,2]","action_history":"[0,1,1,0,0,1,0]","door_history":"[1,0,0,1,1,0,1]","location_rts":"[1175,1008,2601,629,758,661,2272]","trial_type":"two-door-navigation","trial_index":39,"time_elapsed":789437,"internal_node_id":"0.0-2.0-37.0"},{"group":"hexagon_bi","room_assignment":["purple","red","grey","blue","green","yellow"],"door_color_assignment":["white","black"],"door_generator_assignment":[1,0],"goal":1,"start":2,"action_noise":0,"location_history":"[2,1]","action_history":"[0]","door_history":"[1]","location_rts":"[1864]","trial_type":"two-door-navigation","trial_index":40,"time_elapsed":796801,"internal_node_id":"0.0-2.0-38.0"},{"group":"hexagon_bi","room_assignment":["purple","red","grey","blue","green","yellow"],"door_color_assignment":["white","black"],"door_generator_assignment":[1,0],"goal":4,"start":1,"action_noise":0,"location_history":"[1,0,5,4]","action_history":"[1,0,1]","door_history":"[0,1,0]","location_rts":"[1319,1284,1552]","trial_type":"two-door-navigation","trial_index":41,"time_elapsed":808833,"internal_node_id":"0.0-2.0-39.0"},{"group":"hexagon_bi","room_assignment":["purple","red","grey","blue","green","yellow"],"door_color_assignment":["white","black"],"door_generator_assignment":[1,0],"goal":3,"start":4,"action_noise":0,"location_history":"[4,3]","action_history":"[0]","door_history":"[1]","location_rts":"[4258]","trial_type":"two-door-navigation","trial_index":42,"time_elapsed":818964,"internal_node_id":"0.0-2.0-40.0"},{"group":"hexagon_bi","room_assignment":["purple","red","grey","blue","green","yellow"],"door_color_assignment":["white","black"],"door_generator_assignment":[1,0],"goal":5,"start":3,"action_noise":0,"location_history":"[3,2,1,0,5]","action_history":"[1,0,1,0]","door_history":"[0,1,0,1]","location_rts":"[1702,1159,2813,635]","trial_type":"two-door-navigation","trial_index":43,"time_elapsed":834682,"internal_node_id":"0.0-2.0-41.0"},{"group":"hexagon_bi","room_assignment":["purple","red","grey","blue","green","yellow"],"door_color_assignment":["white","black"],"door_generator_assignment":[1,0],"goal":3,"start":5,"action_noise":0,"location_history":"[5,4,3]","action_history":"[1,0]","door_history":"[0,1]","location_rts":"[1962,1101]","trial_type":"two-door-navigation","trial_index":44,"time_elapsed":844694,"internal_node_id":"0.0-2.0-42.0"},{"group":"hexagon_bi","room_assignment":["purple","red","grey","blue","green","yellow"],"door_color_assignment":["white","black"],"door_generator_assignment":[1,0],"goal":0,"start":3,"action_noise":0,"location_history":"[3,2,1,0]","action_history":"[1,0,1]","door_history":"[0,1,0]","location_rts":"[3193,1107,1270]","trial_type":"two-door-navigation","trial_index":45,"time_elapsed":858005,"internal_node_id":"0.0-2.0-43.0"},{"group":"hexagon_bi","room_assignment":["purple","red","grey","blue","green","yellow"],"door_color_assignment":["white","black"],"door_generator_assignment":[1,0],"goal":2,"start":0,"action_noise":0,"location_history":"[0,5,4,3,2]","action_history":"[0,1,0,1]","door_history":"[1,0,1,0]","location_rts":"[3053,1008,1109,1576]","trial_type":"two-door-navigation","trial_index":46,"time_elapsed":874289,"internal_node_id":"0.0-2.0-44.0"},{"group":"hexagon_bi","room_assignment":["purple","red","grey","blue","green","yellow"],"door_color_assignment":["white","black"],"door_generator_assignment":[1,0],"goal":4,"start":2,"action_noise":0,"location_history":"[2,1,0,1,2,1,0,1,2,3,4]","action_history":"[0,1,1,0,0,1,1,0,1,0]","door_history":"[1,0,0,1,1,0,0,1,0,1]","location_rts":"[1905,1008,567,599,2558,847,541,1167,2958,898]","trial_type":"two-door-navigation","trial_index":47,"time_elapsed":904094,"internal_node_id":"0.0-2.0-45.0"},{"group":"hexagon_bi","room_assignment":["purple","red","grey","blue","green","yellow"],"door_color_assignment":["white","black"],"door_generator_assignment":[1,0],"goal":1,"start":4,"action_noise":0,"location_history":"[4,3,2,1]","action_history":"[0,1,0]","door_history":"[1,0,1]","location_rts":"[5078,1016,1332]","trial_type":"two-door-navigation","trial_index":48,"time_elapsed":919168,"internal_node_id":"0.0-2.0-46.0"},{"group":"hexagon_bi","room_assignment":["purple","red","grey","blue","green","yellow"],"door_color_assignment":["white","black"],"door_generator_assignment":[1,0],"goal":4,"start":1,"action_noise":0,"location_history":"[1,2,3,4]","action_history":"[0,1,0]","door_history":"[1,0,1]","location_rts":"[1515,1404,1655]","trial_type":"two-door-navigation","trial_index":49,"time_elapsed":931426,"internal_node_id":"0.0-2.0-47.0"},{"group":"hexagon_bi","room_assignment":["purple","red","grey","blue","green","yellow"],"door_color_assignment":["white","black"],"door_generator_assignment":[1,0],"goal":3,"start":4,"action_noise":0,"location_history":"[4,5,0,1,2,3]","action_history":"[1,0,1,0,1]","door_history":"[0,1,0,1,0]","location_rts":"[1701,1003,1507,548,2398]","trial_type":"two-door-navigation","trial_index":50,"time_elapsed":948256,"internal_node_id":"0.0-2.0-48.0"},{"group":"hexagon_bi","room_assignment":["purple","red","grey","blue","green","yellow"],"door_color_assignment":["white","black"],"door_generator_assignment":[1,0],"goal":5,"start":3,"action_noise":0,"location_history":"[3,4,5]","action_history":"[0,1]","door_history":"[1,0]","location_rts":"[1631,695]","trial_type":"two-door-navigation","trial_index":51,"time_elapsed":957082,"internal_node_id":"0.0-2.0-49.0"},{"view_history":"[{\"page_index\":0,\"viewing_time\":1903}]","rt":1903,"trial_type":"instructions","trial_index":52,"time_elapsed":959986,"internal_node_id":"0.0-3.0"},{"view_history":"[{\"page_index\":0,\"viewing_time\":3360},{\"page_index\":1,\"viewing_time\":24425}]","rt":27786,"trial_type":"instructions","trial_index":53,"time_elapsed":988773,"internal_node_id":"0.0-4.0"},{"group":"hexagon_bi","fractal_assignment":["../images/cyn_red.png","../images/gry_blk.png","../images/org_blu.png","../images/pnk_blu.png","../images/blu_wht.png","../images/ylw_slt.png"],"mutagen_generator_assignment":[0,1],"goal":4,"start":0,"action_noise":0,"location_history":"[0,5,4]","action_history":"[0,1]","mutagen_history":"[0,1]","location_rts":"[4812,2215]","trial_type":"fractal-mutation","trial_index":54,"time_elapsed":1002680,"internal_node_id":"0.0-5.0-0.0"},{"group":"hexagon_bi","fractal_assignment":["../images/cyn_red.png","../images/gry_blk.png","../images/org_blu.png","../images/pnk_blu.png","../images/blu_wht.png","../images/ylw_slt.png"],"mutagen_generator_assignment":[0,1],"goal":3,"start":4,"action_noise":0,"location_history":"[4,5,0,1,2,3]","action_history":"[1,0,1,0,1]","mutagen_history":"[1,0,1,0,1]","location_rts":"[3143,945,737,694,607]","trial_type":"fractal-mutation","trial_index":55,"time_elapsed":1019079,"internal_node_id":"0.0-5.0-1.0"},{"group":"hexagon_bi","fractal_assignment":["../images/cyn_red.png","../images/gry_blk.png","../images/org_blu.png","../images/pnk_blu.png","../images/blu_wht.png","../images/ylw_slt.png"],"mutagen_generator_assignment":[0,1],"goal":5,"start":3,"action_noise":0,"location_history":"[3,2,1,2,3,4,5]","action_history":"[1,0,0,1,0,1]","mutagen_history":"[1,0,0,1,0,1]","location_rts":"[1536,6718,1508,956,1564,1558]","trial_type":"fractal-mutation","trial_index":56,"time_elapsed":1049258,"internal_node_id":"0.0-5.0-2.0"},{"group":"hexagon_bi","fractal_assignment":["../images/cyn_red.png","../images/gry_blk.png","../images/org_blu.png","../images/pnk_blu.png","../images/blu_wht.png","../images/ylw_slt.png"],"mutagen_generator_assignment":[0,1],"goal":2,"start":5,"action_noise":0,"location_history":"[5,0,1,2]","action_history":"[0,1,0]","mutagen_history":"[0,1,0]","location_rts":"[595,1128,1056]","trial_type":"fractal-mutation","trial_index":57,"time_elapsed":1060290,"internal_node_id":"0.0-5.0-3.0"},{"group":"hexagon_bi","fractal_assignment":["../images/cyn_red.png","../images/gry_blk.png","../images/org_blu.png","../images/pnk_blu.png","../images/blu_wht.png","../images/ylw_slt.png"],"mutagen_generator_assignment":[0,1],"goal":1,"start":2,"action_noise":0,"location_history":"[2,1]","action_history":"[0]","mutagen_history":"[0]","location_rts":"[1701]","trial_type":"fractal-mutation","trial_index":58,"time_elapsed":1068004,"internal_node_id":"0.0-5.0-4.0"},{"group":"hexagon_bi","fractal_assignment":["../images/cyn_red.png","../images/gry_blk.png","../images/org_blu.png","../images/pnk_blu.png","../images/blu_wht.png","../images/ylw_slt.png"],"mutagen_generator_assignment":[0,1],"goal":4,"start":1,"action_noise":0,"location_history":"[1,0,5,0,1,2,3,4]","action_history":"[1,0,0,1,0,1,0]","mutagen_history":"[1,0,0,1,0,1,0]","location_rts":"[1724,1461,1217,402,683,440,1087]","trial_type":"fractal-mutation","trial_index":59,"time_elapsed":1088829,"internal_node_id":"0.0-5.0-5.0"},{"group":"hexagon_bi","fractal_assignment":["../images/cyn_red.png","../images/gry_blk.png","../images/org_blu.png","../images/pnk_blu.png","../images/blu_wht.png","../images/ylw_slt.png"],"mutagen_generator_assignment":[0,1],"goal":1,"start":4,"action_noise":0,"location_history":"[4,3,4,5,0,5,0,1]","action_history":"[0,0,1,0,0,0,1]","mutagen_history":"[0,0,1,0,0,0,1]","location_rts":"[1381,658,1052,439,784,951,457]","trial_type":"fractal-mutation","trial_index":60,"time_elapsed":1108280,"internal_node_id":"0.0-5.0-6.0"},{"group":"hexagon_bi","fractal_assignment":["../images/cyn_red.png","../images/gry_blk.png","../images/org_blu.png","../images/pnk_blu.png","../images/blu_wht.png","../images/ylw_slt.png"],"mutagen_generator_assignment":[0,1],"goal":5,"start":1,"action_noise":0,"location_history":"[1,0,5]","action_history":"[1,0]","mutagen_history":"[1,0]","location_rts":"[1950,466]","trial_type":"fractal-mutation","trial_index":61,"time_elapsed":1117650,"internal_node_id":"0.0-5.0-7.0"},{"group":"hexagon_bi","fractal_assignment":["../images/cyn_red.png","../images/gry_blk.png","../images/org_blu.png","../images/pnk_blu.png","../images/blu_wht.png","../images/ylw_slt.png"],"mutagen_generator_assignment":[0,1],"goal":0,"start":5,"action_noise":0,"location_history":"[5,0]","action_history":"[0]","mutagen_history":"[0]","location_rts":"[1577]","trial_type":"fractal-mutation","trial_index":62,"time_elapsed":1124471,"internal_node_id":"0.0-5.0-8.0"},{"group":"hexagon_bi","fractal_assignment":["../images/cyn_red.png","../images/gry_blk.png","../images/org_blu.png","../images/pnk_blu.png","../images/blu_wht.png","../images/ylw_slt.png"],"mutagen_generator_assignment":[0,1],"goal":2,"start":0,"action_noise":0,"location_history":"[0,1,2]","action_history":"[1,0]","mutagen_history":"[1,0]","location_rts":"[1032,1202]","trial_type":"fractal-mutation","trial_index":63,"time_elapsed":1133785,"internal_node_id":"0.0-5.0-9.0"},{"group":"hexagon_bi","fractal_assignment":["../images/cyn_red.png","../images/gry_blk.png","../images/org_blu.png","../images/pnk_blu.png","../images/blu_wht.png","../images/ylw_slt.png"],"mutagen_generator_assignment":[0,1],"goal":3,"start":2,"action_noise":0,"location_history":"[2,3]","action_history":"[1]","mutagen_history":"[1]","location_rts":"[946]","trial_type":"fractal-mutation","trial_index":64,"time_elapsed":1139778,"internal_node_id":"0.0-5.0-10.0"},{"group":"hexagon_bi","fractal_assignment":["../images/cyn_red.png","../images/gry_blk.png","../images/org_blu.png","../images/pnk_blu.png","../images/blu_wht.png","../images/ylw_slt.png"],"mutagen_generator_assignment":[0,1],"goal":0,"start":3,"action_noise":0,"location_history":"[3,4,3,2,1,2,1,0]","action_history":"[0,0,1,0,0,0,1]","mutagen_history":"[0,0,1,0,0,0,1]","location_rts":"[1042,1054,674,665,549,687,461]","trial_type":"fractal-mutation","trial_index":65,"time_elapsed":1158263,"internal_node_id":"0.0-5.0-11.0"},{"group":"hexagon_bi","fractal_assignment":["../images/cyn_red.png","../images/gry_blk.png","../images/org_blu.png","../images/pnk_blu.png","../images/blu_wht.png","../images/ylw_slt.png"],"mutagen_generator_assignment":[0,1],"goal":2,"start":0,"action_noise":0,"location_history":"[0,1,2]","action_history":"[1,0]","mutagen_history":"[1,0]","location_rts":"[2013,565]","trial_type":"fractal-mutation","trial_index":66,"time_elapsed":1167878,"internal_node_id":"0.0-5.0-12.0"},{"group":"hexagon_bi","fractal_assignment":["../images/cyn_red.png","../images/gry_blk.png","../images/org_blu.png","../images/pnk_blu.png","../images/blu_wht.png","../images/ylw_slt.png"],"mutagen_generator_assignment":[0,1],"goal":5,"start":2,"action_noise":0,"location_history":"[2,3,4,5]","action_history":"[1,0,1]","mutagen_history":"[1,0,1]","location_rts":"[2367,407,1011]","trial_type":"fractal-mutation","trial_index":67,"time_elapsed":1179861,"internal_node_id":"0.0-5.0-13.0"},{"group":"hexagon_bi","fractal_assignment":["../images/cyn_red.png","../images/gry_blk.png","../images/org_blu.png","../images/pnk_blu.png","../images/blu_wht.png","../images/ylw_slt.png"],"mutagen_generator_assignment":[0,1],"goal":4,"start":5,"action_noise":0,"location_history":"[5,0,1,0,5,0,1,2,3,4]","action_history":"[0,1,1,0,0,1,0,1,0]","mutagen_history":"[0,1,1,0,0,1,0,1,0]","location_rts":"[2014,457,586,768,654,452,820,428,418]","trial_type":"fractal-mutation","trial_index":68,"time_elapsed":1202076,"internal_node_id":"0.0-5.0-14.0"},{"group":"hexagon_bi","fractal_assignment":["../images/cyn_red.png","../images/gry_blk.png","../images/org_blu.png","../images/pnk_blu.png","../images/blu_wht.png","../images/ylw_slt.png"],"mutagen_generator_assignment":[0,1],"goal":3,"start":4,"action_noise":0,"location_history":"[4,3]","action_history":"[0]","mutagen_history":"[0]","location_rts":"[2166]","trial_type":"fractal-mutation","trial_index":69,"time_elapsed":1209333,"internal_node_id":"0.0-5.0-15.0"},{"group":"hexagon_bi","fractal_assignment":["../images/cyn_red.png","../images/gry_blk.png","../images/org_blu.png","../images/pnk_blu.png","../images/blu_wht.png","../images/ylw_slt.png"],"mutagen_generator_assignment":[0,1],"goal":1,"start":3,"action_noise":0,"location_history":"[3,4,5,0,1]","action_history":"[0,1,0,1]","mutagen_history":"[0,1,0,1]","location_rts":"[1311,395,390,766]","trial_type":"fractal-mutation","trial_index":70,"time_elapsed":1221301,"internal_node_id":"0.0-5.0-16.0"},{"group":"hexagon_bi","fractal_assignment":["../images/cyn_red.png","../images/gry_blk.png","../images/org_blu.png","../images/pnk_blu.png","../images/blu_wht.png","../images/ylw_slt.png"],"mutagen_generator_assignment":[0,1],"goal":5,"start":1,"action_noise":0,"location_history":"[1,0,5]","action_history":"[1,0]","mutagen_history":"[1,0]","location_rts":"[2090,456]","trial_type":"fractal-mutation","trial_index":71,"time_elapsed":1230530,"internal_node_id":"0.0-5.0-17.0"},{"group":"hexagon_bi","fractal_assignment":["../images/cyn_red.png","../images/gry_blk.png","../images/org_blu.png","../images/pnk_blu.png","../images/blu_wht.png","../images/ylw_slt.png"],"mutagen_generator_assignment":[0,1],"goal":4,"start":5,"action_noise":0,"location_history":"[5,4]","action_history":"[1]","mutagen_history":"[1]","location_rts":"[1219]","trial_type":"fractal-mutation","trial_index":72,"time_elapsed":1238097,"internal_node_id":"0.0-5.0-18.0"},{"group":"hexagon_bi","fractal_assignment":["../images/cyn_red.png","../images/gry_blk.png","../images/org_blu.png","../images/pnk_blu.png","../images/blu_wht.png","../images/ylw_slt.png"],"mutagen_generator_assignment":[0,1],"goal":0,"start":4,"action_noise":0,"location_history":"[4,3,2,1,2,3,4,5,0]","action_history":"[0,1,0,0,1,0,1,0]","mutagen_history":"[0,1,0,0,1,0,1,0]","location_rts":"[1535,1144,752,808,701,2434,480,595]","trial_type":"fractal-mutation","trial_index":73,"time_elapsed":1263029,"internal_node_id":"0.0-5.0-19.0"},{"group":"hexagon_bi","fractal_assignment":["../images/cyn_red.png","../images/gry_blk.png","../images/org_blu.png","../images/pnk_blu.png","../images/blu_wht.png","../images/ylw_slt.png"],"mutagen_generator_assignment":[0,1],"goal":1,"start":0,"action_noise":0,"location_history":"[0,5,4,3,2,1]","action_history":"[0,1,0,1,0]","mutagen_history":"[0,1,0,1,0]","location_rts":"[1676,515,832,471,401]","trial_type":"fractal-mutation","trial_index":74,"time_elapsed":1278263,"internal_node_id":"0.0-5.0-20.0"},{"group":"hexagon_bi","fractal_assignment":["../images/cyn_red.png","../images/gry_blk.png","../images/org_blu.png","../images/pnk_blu.png","../images/blu_wht.png","../images/ylw_slt.png"],"mutagen_generator_assignment":[0,1],"goal":3,"start":1,"action_noise":0,"location_history":"[1,2,3]","action_history":"[0,1]","mutagen_history":"[0,1]","location_rts":"[2009,851]","trial_type":"fractal-mutation","trial_index":75,"time_elapsed":1288961,"internal_node_id":"0.0-5.0-21.0"},{"group":"hexagon_bi","fractal_assignment":["../images/cyn_red.png","../images/gry_blk.png","../images/org_blu.png","../images/pnk_blu.png","../images/blu_wht.png","../images/ylw_slt.png"],"mutagen_generator_assignment":[0,1],"goal":2,"start":3,"action_noise":0,"location_history":"[3,2]","action_history":"[1]","mutagen_history":"[1]","location_rts":"[3836]","trial_type":"fractal-mutation","trial_index":76,"time_elapsed":1298328,"internal_node_id":"0.0-5.0-22.0"},{"group":"hexagon_bi","fractal_assignment":["../images/cyn_red.png","../images/gry_blk.png","../images/org_blu.png","../images/pnk_blu.png","../images/blu_wht.png","../images/ylw_slt.png"],"mutagen_generator_assignment":[0,1],"goal":0,"start":2,"action_noise":0,"location_history":"[2,1,2,3,4,5,0]","action_history":"[0,0,1,0,1,0]","mutagen_history":"[0,0,1,0,1,0]","location_rts":"[1206,648,669,445,528,483]","trial_type":"fractal-mutation","trial_index":77,"time_elapsed":1314963,"internal_node_id":"0.0-5.0-23.0"},{"group":"hexagon_bi","fractal_assignment":["../images/cyn_red.png","../images/gry_blk.png","../images/org_blu.png","../images/pnk_blu.png","../images/blu_wht.png","../images/ylw_slt.png"],"mutagen_generator_assignment":[0,1],"goal":3,"start":0,"action_noise":0,"location_history":"[0,1,2,3]","action_history":"[1,0,1]","mutagen_history":"[1,0,1]","location_rts":"[1609,764,734]","trial_type":"fractal-mutation","trial_index":78,"time_elapsed":1325659,"internal_node_id":"0.0-5.0-24.0"},{"group":"hexagon_bi","fractal_assignment":["../images/cyn_red.png","../images/gry_blk.png","../images/org_blu.png","../images/pnk_blu.png","../images/blu_wht.png","../images/ylw_slt.png"],"mutagen_generator_assignment":[0,1],"goal":1,"start":3,"action_noise":0,"location_history":"[3,4,5,0,1]","action_history":"[0,1,0,1]","mutagen_history":"[0,1,0,1]","location_rts":"[1435,850,937,601]","trial_type":"fractal-mutation","trial_index":79,"time_elapsed":1340170,"internal_node_id":"0.0-5.0-25.0"},{"group":"hexagon_bi","fractal_assignment":["../images/cyn_red.png","../images/gry_blk.png","../images/org_blu.png","../images/pnk_blu.png","../images/blu_wht.png","../images/ylw_slt.png"],"mutagen_generator_assignment":[0,1],"goal":2,"start":1,"action_noise":0,"location_history":"[1,0,5,4,3,2]","action_history":"[1,0,1,0,1]","mutagen_history":"[1,0,1,0,1]","location_rts":"[3538,421,451,578,483]","trial_type":"fractal-mutation","trial_index":80,"time_elapsed":1355498,"internal_node_id":"0.0-5.0-26.0"},{"group":"hexagon_bi","fractal_assignment":["../images/cyn_red.png","../images/gry_blk.png","../images/org_blu.png","../images/pnk_blu.png","../images/blu_wht.png","../images/ylw_slt.png"],"mutagen_generator_assignment":[0,1],"goal":5,"start":2,"action_noise":0,"location_history":"[2,3,4,5]","action_history":"[1,0,1]","mutagen_history":"[1,0,1]","location_rts":"[1739,527,560]","trial_type":"fractal-mutation","trial_index":81,"time_elapsed":1366821,"internal_node_id":"0.0-5.0-27.0"},{"group":"hexagon_bi","fractal_assignment":["../images/cyn_red.png","../images/gry_blk.png","../images/org_blu.png","../images/pnk_blu.png","../images/blu_wht.png","../images/ylw_slt.png"],"mutagen_generator_assignment":[0,1],"goal":4,"start":5,"action_noise":0,"location_history":"[5,4]","action_history":"[1]","mutagen_history":"[1]","location_rts":"[3420]","trial_type":"fractal-mutation","trial_index":82,"time_elapsed":1375306,"internal_node_id":"0.0-5.0-28.0"},{"group":"hexagon_bi","fractal_assignment":["../images/cyn_red.png","../images/gry_blk.png","../images/org_blu.png","../images/pnk_blu.png","../images/blu_wht.png","../images/ylw_slt.png"],"mutagen_generator_assignment":[0,1],"goal":5,"start":4,"action_noise":0,"location_history":"[4,5]","action_history":"[1]","mutagen_history":"[1]","location_rts":"[1044]","trial_type":"fractal-mutation","trial_index":83,"time_elapsed":1381998,"internal_node_id":"0.0-5.0-29.0"},{"group":"hexagon_bi","fractal_assignment":["../images/cyn_red.png","../images/gry_blk.png","../images/org_blu.png","../images/pnk_blu.png","../images/blu_wht.png","../images/ylw_slt.png"],"mutagen_generator_assignment":[0,1],"goal":3,"start":5,"action_noise":0,"location_history":"[5,0,1,2,3]","action_history":"[0,1,0,1]","mutagen_history":"[0,1,0,1]","location_rts":"[856,414,546,772]","trial_type":"fractal-mutation","trial_index":84,"time_elapsed":1394058,"internal_node_id":"0.0-5.0-30.0"},{"group":"hexagon_bi","fractal_assignment":["../images/cyn_red.png","../images/gry_blk.png","../images/org_blu.png","../images/pnk_blu.png","../images/blu_wht.png","../images/ylw_slt.png"],"mutagen_generator_assignment":[0,1],"goal":0,"start":3,"action_noise":0,"location_history":"[3,4,3,2,1,0]","action_history":"[0,0,1,0,1]","mutagen_history":"[0,0,1,0,1]","location_rts":"[1355,1343,473,898,523]","trial_type":"fractal-mutation","trial_index":85,"time_elapsed":1409535,"internal_node_id":"0.0-5.0-31.0"},{"group":"hexagon_bi","fractal_assignment":["../images/cyn_red.png","../images/gry_blk.png","../images/org_blu.png","../images/pnk_blu.png","../images/blu_wht.png","../images/ylw_slt.png"],"mutagen_generator_assignment":[0,1],"goal":4,"start":0,"action_noise":0,"location_history":"[0,1,2,3,4]","action_history":"[1,0,1,0]","mutagen_history":"[1,0,1,0]","location_rts":"[2141,630,587,1106]","trial_type":"fractal-mutation","trial_index":86,"time_elapsed":1424643,"internal_node_id":"0.0-5.0-32.0"},{"group":"hexagon_bi","fractal_assignment":["../images/cyn_red.png","../images/gry_blk.png","../images/org_blu.png","../images/pnk_blu.png","../images/blu_wht.png","../images/ylw_slt.png"],"mutagen_generator_assignment":[0,1],"goal":1,"start":4,"action_noise":0,"location_history":"[4,3,2,1]","action_history":"[0,1,0]","mutagen_history":"[0,1,0]","location_rts":"[1231,1072,388]","trial_type":"fractal-mutation","trial_index":87,"time_elapsed":1435202,"internal_node_id":"0.0-5.0-33.0"},{"group":"hexagon_bi","fractal_assignment":["../images/cyn_red.png","../images/gry_blk.png","../images/org_blu.png","../images/pnk_blu.png","../images/blu_wht.png","../images/ylw_slt.png"],"mutagen_generator_assignment":[0,1],"goal":2,"start":1,"action_noise":0,"location_history":"[1,2]","action_history":"[0]","mutagen_history":"[0]","location_rts":"[2101]","trial_type":"fractal-mutation","trial_index":88,"time_elapsed":1443310,"internal_node_id":"0.0-5.0-34.0"},{"group":"hexagon_bi","fractal_assignment":["../images/cyn_red.png","../images/gry_blk.png","../images/org_blu.png","../images/pnk_blu.png","../images/blu_wht.png","../images/ylw_slt.png"],"mutagen_generator_assignment":[0,1],"goal":0,"start":2,"action_noise":0,"location_history":"[2,3,4,3,2,1,0]","action_history":"[1,0,0,1,0,1]","mutagen_history":"[1,0,0,1,0,1]","location_rts":"[1843,381,1067,534,929,516]","trial_type":"fractal-mutation","trial_index":89,"time_elapsed":1459863,"internal_node_id":"0.0-5.0-35.0"},{"group":"hexagon_bi","fractal_assignment":["../images/cyn_red.png","../images/gry_blk.png","../images/org_blu.png","../images/pnk_blu.png","../images/blu_wht.png","../images/ylw_slt.png"],"mutagen_generator_assignment":[0,1],"goal":5,"start":0,"action_noise":0,"location_history":"[0,1,2,3,4,5]","action_history":"[1,0,1,0,1]","mutagen_history":"[1,0,1,0,1]","location_rts":"[2171,1762,534,390,1496]","trial_type":"fractal-mutation","trial_index":90,"time_elapsed":1478408,"internal_node_id":"0.0-5.0-36.0"},{"group":"hexagon_bi","fractal_assignment":["../images/cyn_red.png","../images/gry_blk.png","../images/org_blu.png","../images/pnk_blu.png","../images/blu_wht.png","../images/ylw_slt.png"],"mutagen_generator_assignment":[0,1],"goal":2,"start":5,"action_noise":0,"location_history":"[5,0,1,2]","action_history":"[0,1,0]","mutagen_history":"[0,1,0]","location_rts":"[1387,538,433]","trial_type":"fractal-mutation","trial_index":91,"time_elapsed":1488836,"internal_node_id":"0.0-5.0-37.0"},{"group":"hexagon_bi","fractal_assignment":["../images/cyn_red.png","../images/gry_blk.png","../images/org_blu.png","../images/pnk_blu.png","../images/blu_wht.png","../images/ylw_slt.png"],"mutagen_generator_assignment":[0,1],"goal":1,"start":2,"action_noise":0,"location_history":"[2,3,4,5,0,1]","action_history":"[1,0,1,0,1]","mutagen_history":"[1,0,1,0,1]","location_rts":"[2322,823,818,353,859]","trial_type":"fractal-mutation","trial_index":92,"time_elapsed":1504690,"internal_node_id":"0.0-5.0-38.0"},{"group":"hexagon_bi","fractal_assignment":["../images/cyn_red.png","../images/gry_blk.png","../images/org_blu.png","../images/pnk_blu.png","../images/blu_wht.png","../images/ylw_slt.png"],"mutagen_generator_assignment":[0,1],"goal":4,"start":1,"action_noise":0,"location_history":"[1,0,5,4]","action_history":"[1,0,1]","mutagen_history":"[1,0,1]","location_rts":"[2585,647,2243]","trial_type":"fractal-mutation","trial_index":93,"time_elapsed":1518400,"internal_node_id":"0.0-5.0-39.0"},{"group":"hexagon_bi","fractal_assignment":["../images/cyn_red.png","../images/gry_blk.png","../images/org_blu.png","../images/pnk_blu.png","../images/blu_wht.png","../images/ylw_slt.png"],"mutagen_generator_assignment":[0,1],"goal":3,"start":4,"action_noise":0,"location_history":"[4,3]","action_history":"[0]","mutagen_history":"[0]","location_rts":"[1037]","trial_type":"fractal-mutation","trial_index":94,"time_elapsed":1524526,"internal_node_id":"0.0-5.0-40.0"},{"group":"hexagon_bi","fractal_assignment":["../images/cyn_red.png","../images/gry_blk.png","../images/org_blu.png","../images/pnk_blu.png","../images/blu_wht.png","../images/ylw_slt.png"],"mutagen_generator_assignment":[0,1],"goal":5,"start":3,"action_noise":0,"location_history":"[3,2,1,0,5]","action_history":"[1,0,1,0]","mutagen_history":"[1,0,1,0]","location_rts":"[2010,523,402,568]","trial_type":"fractal-mutation","trial_index":95,"time_elapsed":1537375,"internal_node_id":"0.0-5.0-41.0"},{"group":"hexagon_bi","fractal_assignment":["../images/cyn_red.png","../images/gry_blk.png","../images/org_blu.png","../images/pnk_blu.png","../images/blu_wht.png","../images/ylw_slt.png"],"mutagen_generator_assignment":[0,1],"goal":3,"start":5,"action_noise":0,"location_history":"[5,0,1,2,3]","action_history":"[0,1,0,1]","mutagen_history":"[0,1,0,1]","location_rts":"[1509,663,1182,1192]","trial_type":"fractal-mutation","trial_index":96,"time_elapsed":1551456,"internal_node_id":"0.0-5.0-42.0"},{"group":"hexagon_bi","fractal_assignment":["../images/cyn_red.png","../images/gry_blk.png","../images/org_blu.png","../images/pnk_blu.png","../images/blu_wht.png","../images/ylw_slt.png"],"mutagen_generator_assignment":[0,1],"goal":0,"start":3,"action_noise":0,"location_history":"[3,2,1,0]","action_history":"[1,0,1]","mutagen_history":"[1,0,1]","location_rts":"[8421,431,617]","trial_type":"fractal-mutation","trial_index":97,"time_elapsed":1569305,"internal_node_id":"0.0-5.0-43.0"},{"group":"hexagon_bi","fractal_assignment":["../images/cyn_red.png","../images/gry_blk.png","../images/org_blu.png","../images/pnk_blu.png","../images/blu_wht.png","../images/ylw_slt.png"],"mutagen_generator_assignment":[0,1],"goal":2,"start":0,"action_noise":0,"location_history":"[0,5,4,5,0,1,2]","action_history":"[0,1,1,0,1,0]","mutagen_history":"[0,1,1,0,1,0]","location_rts":"[1630,879,459,338,552,460]","trial_type":"fractal-mutation","trial_index":98,"time_elapsed":1584866,"internal_node_id":"0.0-5.0-44.0"},{"group":"hexagon_bi","fractal_assignment":["../images/cyn_red.png","../images/gry_blk.png","../images/org_blu.png","../images/pnk_blu.png","../images/blu_wht.png","../images/ylw_slt.png"],"mutagen_generator_assignment":[0,1],"goal":4,"start":2,"action_noise":0,"location_history":"[2,3,4]","action_history":"[1,0]","mutagen_history":"[1,0]","location_rts":"[1209,1029]","trial_type":"fractal-mutation","trial_index":99,"time_elapsed":1593922,"internal_node_id":"0.0-5.0-45.0"},{"group":"hexagon_bi","fractal_assignment":["../images/cyn_red.png","../images/gry_blk.png","../images/org_blu.png","../images/pnk_blu.png","../images/blu_wht.png","../images/ylw_slt.png"],"mutagen_generator_assignment":[0,1],"goal":1,"start":4,"action_noise":0,"location_history":"[4,3,2,1]","action_history":"[0,1,0]","mutagen_history":"[0,1,0]","location_rts":"[1336,466,598]","trial_type":"fractal-mutation","trial_index":100,"time_elapsed":1604139,"internal_node_id":"0.0-5.0-46.0"},{"group":"hexagon_bi","fractal_assignment":["../images/cyn_red.png","../images/gry_blk.png","../images/org_blu.png","../images/pnk_blu.png","../images/blu_wht.png","../images/ylw_slt.png"],"mutagen_generator_assignment":[0,1],"goal":4,"start":1,"action_noise":0,"location_history":"[1,2,3,4]","action_history":"[0,1,0]","mutagen_history":"[0,1,0]","location_rts":"[2068,608,555]","trial_type":"fractal-mutation","trial_index":101,"time_elapsed":1616131,"internal_node_id":"0.0-5.0-47.0"},{"group":"hexagon_bi","fractal_assignment":["../images/cyn_red.png","../images/gry_blk.png","../images/org_blu.png","../images/pnk_blu.png","../images/blu_wht.png","../images/ylw_slt.png"],"mutagen_generator_assignment":[0,1],"goal":3,"start":4,"action_noise":0,"location_history":"[4,3]","action_history":"[0]","mutagen_history":"[0]","location_rts":"[1168]","trial_type":"fractal-mutation","trial_index":102,"time_elapsed":1624155,"internal_node_id":"0.0-5.0-48.0"},{"group":"hexagon_bi","fractal_assignment":["../images/cyn_red.png","../images/gry_blk.png","../images/org_blu.png","../images/pnk_blu.png","../images/blu_wht.png","../images/ylw_slt.png"],"mutagen_generator_assignment":[0,1],"goal":5,"start":3,"action_noise":0,"location_history":"[3,2,1,0,5]","action_history":"[1,0,1,0]","mutagen_history":"[1,0,1,0]","location_rts":"[1286,568,1134,776]","trial_type":"fractal-mutation","trial_index":103,"time_elapsed":1638743,"internal_node_id":"0.0-5.0-49.0"},{"view_history":"[{\"page_index\":0,\"viewing_time\":9798}]","rt":9799,"trial_type":"instructions","trial_index":104,"time_elapsed":1649610,"internal_node_id":"0.0-6.0"},{"rt":1481,"responses":"{\"Q0\":\"\"}","trial_type":"survey-text","trial_index":105,"time_elapsed":1652096,"internal_node_id":"0.0-7.0"}]