[{"view_history":"[{\"page_index\":0,\"viewing_time\":65499},{\"page_index\":1,\"viewing_time\":7305},{\"page_index\":2,\"viewing_time\":13622}]","rt":86427,"trial_type":"instructions","trial_index":0,"time_elapsed":86427,"internal_node_id":"0.0-0.0"},{"view_history":"[{\"page_index\":0,\"viewing_time\":1172},{\"page_index\":1,\"viewing_time\":58134}]","rt":59307,"trial_type":"instructions","trial_index":1,"time_elapsed":146735,"internal_node_id":"0.0-1.0"},{"group":"hexagon_tri","room_assignment":["green","purple","yellow","red","grey","blue"],"door_color_assignment":["black","white"],"door_generator_assignment":[0,1],"goal":4,"start":0,"action_noise":0,"location_history":"[0,1,5,0,1,5,4]","action_history":"[1,1,1,1,1,0]","door_history":"[1,1,1,1,1,0]","location_rts":"[10822,1632,810,2044,1268,1256]","trial_type":"two-door-navigation","trial_index":2,"time_elapsed":174717,"internal_node_id":"0.0-2.0-0.0"},{"group":"hexagon_tri","room_assignment":["green","purple","yellow","red","grey","blue"],"door_color_assignment":["black","white"],"door_generator_assignment":[0,1],"goal":3,"start":4,"action_noise":0,"location_history":"[4,0,5,0,1,5,4,0,5,4,0,1,3]","action_history":"[0,0,1,1,1,0,0,0,0,0,1,0]","door_history":"[0,0,1,1,1,0,0,0,0,0,1,0]","location_rts":"[1004,1804,1850,1149,1127,891,521,459,445,510,903,1206]","trial_type":"two-door-navigation","trial_index":3,"time_elapsed":202862,"internal_node_id":"0.0-2.0-1.0"},{"group":"hexagon_tri","room_assignment":["green","purple","yellow","red","grey","blue"],"door_color_assignment":["black","white"],"door_generator_assignment":[0,1],"goal":5,"start":3,"action_noise":0,"location_history":"[3,4,2,1,5]","action_history":"[1,1,0,1]","door_history":"[1,1,0,1]","location_rts":"[1771,986,1020,934]","trial_type":"two-door-navigation","trial_index":4,"time_elapsed":215667,"internal_node_id":"0.0-2.0-2.0"},{"group":"hexagon_tri","room_assignment":["green","purple","yellow","red","grey","blue"],"door_color_assignment":["black","white"],"door_generator_assignment":[0,1],"goal":2,"start":5,"action_noise":0,"location_history":"[5,4,2]","action_history":"[0,1]","door_history":"[0,1]","location_rts":"[1893,1249]","trial_type":"two-door-navigation","trial_index":5,"time_elapsed":224861,"internal_node_id":"0.0-2.0-3.0"},{"group":"hexagon_tri","room_assignment":["green","purple","yellow","red","grey","blue"],"door_color_assignment":["black","white"],"door_generator_assignment":[0,1],"goal":1,"start":2,"action_noise":0,"location_history":"[2,3,2,1]","action_history":"[1,0,0]","door_history":"[1,0,0]","location_rts":"[1874,716,975]","trial_type":"two-door-navigation","trial_index":6,"time_elapsed":235498,"internal_node_id":"0.0-2.0-4.0"},{"group":"hexagon_tri","room_assignment":["green","purple","yellow","red","grey","blue"],"door_color_assignment":["black","white"],"door_generator_assignment":[0,1],"goal":4,"start":1,"action_noise":0,"location_history":"[1,3,2,1,3,2,3,4]","action_history":"[0,0,0,0,0,1,1]","door_history":"[0,0,0,0,0,1,1]","location_rts":"[2033,607,552,862,779,1266,564]","trial_type":"two-door-navigation","trial_index":7,"time_elapsed":253359,"internal_node_id":"0.0-2.0-5.0"},{"group":"hexagon_tri","room_assignment":["green","purple","yellow","red","grey","blue"],"door_color_assignment":["black","white"],"door_generator_assignment":[0,1],"goal":1,"start":4,"action_noise":0,"location_history":"[4,0,1]","action_history":"[0,1]","door_history":"[0,1]","location_rts":"[2304,925]","trial_type":"two-door-navigation","trial_index":8,"time_elapsed":262638,"internal_node_id":"0.0-2.0-6.0"},{"group":"hexagon_tri","room_assignment":["green","purple","yellow","red","grey","blue"],"door_color_assignment":["black","white"],"door_generator_assignment":[0,1],"goal":5,"start":1,"action_noise":0,"location_history":"[1,5]","action_history":"[1]","door_history":"[1]","location_rts":"[2979]","trial_type":"two-door-navigation","trial_index":9,"time_elapsed":270645,"internal_node_id":"0.0-2.0-7.0"},{"group":"hexagon_tri","room_assignment":["green","purple","yellow","red","grey","blue"],"door_color_assignment":["black","white"],"door_generator_assignment":[0,1],"goal":0,"start":5,"action_noise":0,"location_history":"[5,4,2,3,2,1,3,2,3,4,2,3,4,0]","action_history":"[0,1,1,0,0,0,0,1,1,1,1,1,0]","door_history":"[0,1,1,0,0,0,0,1,1,1,1,1,0]","location_rts":"[3316,996,827,600,533,482,628,1071,521,563,463,525,1179]","trial_type":"two-door-navigation","trial_index":10,"time_elapsed":299666,"internal_node_id":"0.0-2.0-8.0"},{"group":"hexagon_tri","room_assignment":["green","purple","yellow","red","grey","blue"],"door_color_assignment":["black","white"],"door_generator_assignment":[0,1],"goal":2,"start":0,"action_noise":0,"location_history":"[0,1,3,2]","action_history":"[1,0,0]","door_history":"[1,0,0]","location_rts":"[1737,1325,1025]","trial_type":"two-door-navigation","trial_index":11,"time_elapsed":310822,"internal_node_id":"0.0-2.0-9.0"},{"group":"hexagon_tri","room_assignment":["green","purple","yellow","red","grey","blue"],"door_color_assignment":["black","white"],"door_generator_assignment":[0,1],"goal":3,"start":2,"action_noise":0,"location_history":"[2,1,5,4,2,1,5,0,1,3]","action_history":"[0,1,0,1,0,1,1,1,0]","door_history":"[0,1,0,1,0,1,1,1,0]","location_rts":"[1576,1276,1631,1184,1212,1616,507,846,776]","trial_type":"two-door-navigation","trial_index":12,"time_elapsed":334687,"internal_node_id":"0.0-2.0-10.0"},{"group":"hexagon_tri","room_assignment":["green","purple","yellow","red","grey","blue"],"door_color_assignment":["black","white"],"door_generator_assignment":[0,1],"goal":0,"start":3,"action_noise":0,"location_history":"[3,2,3,2,1,3,4,0]","action_history":"[0,1,0,0,0,1,0]","door_history":"[0,1,0,0,0,1,0]","location_rts":"[4305,2142,1325,810,1620,1636,1111]","trial_type":"two-door-navigation","trial_index":13,"time_elapsed":358803,"internal_node_id":"0.0-2.0-11.0"},{"group":"hexagon_tri","room_assignment":["green","purple","yellow","red","grey","blue"],"door_color_assignment":["black","white"],"door_generator_assignment":[0,1],"goal":2,"start":0,"action_noise":0,"location_history":"[0,5,4,0,5,0,5,4,2]","action_history":"[0,0,0,0,1,0,0,1]","door_history":"[0,0,0,0,1,0,0,1]","location_rts":"[2322,1105,875,735,637,1109,521,1371]","trial_type":"two-door-navigation","trial_index":14,"time_elapsed":379692,"internal_node_id":"0.0-2.0-12.0"},{"group":"hexagon_tri","room_assignment":["green","purple","yellow","red","grey","blue"],"door_color_assignment":["black","white"],"door_generator_assignment":[0,1],"goal":5,"start":2,"action_noise":0,"location_history":"[2,3,4,2,3,2,1,3,2,3,2,3,4,0,5]","action_history":"[1,1,1,1,0,0,0,0,1,0,1,1,0,0]","door_history":"[1,1,1,1,0,0,0,0,1,0,1,1,0,0]","location_rts":"[14759,4059,4209,3345,6419,4041,2803,3162,4544,650,10320,1873,3305,14852]","trial_type":"two-door-navigation","trial_index":15,"time_elapsed":476357,"internal_node_id":"0.0-2.0-13.0"},{"group":"hexagon_tri","room_assignment":["green","purple","yellow","red","grey","blue"],"door_color_assignment":["black","white"],"door_generator_assignment":[0,1],"goal":4,"start":5,"action_noise":0,"location_history":"[5,0,5,0,1,5,0,1,3,2,1,5,4]","action_history":"[1,0,1,1,1,1,1,0,0,0,1,0]","door_history":"[1,0,1,1,1,1,1,0,0,0,1,0]","location_rts":"[5109,11227,4114,9383,32349,10507,3121,3605,327,539,1007,758]","trial_type":"two-door-navigation","trial_index":16,"time_elapsed":574695,"internal_node_id":"0.0-2.0-14.0"},{"group":"hexagon_tri","room_assignment":["green","purple","yellow","red","grey","blue"],"door_color_assignment":["black","white"],"door_generator_assignment":[0,1],"goal":3,"start":4,"action_noise":0,"location_history":"[4,2,3]","action_history":"[1,1]","door_history":"[1,1]","location_rts":"[11482,9503]","trial_type":"two-door-navigation","trial_index":17,"time_elapsed":601770,"internal_node_id":"0.0-2.0-15.0"},{"group":"hexagon_tri","room_assignment":["green","purple","yellow","red","grey","blue"],"door_color_assignment":["black","white"],"door_generator_assignment":[0,1],"goal":1,"start":3,"action_noise":0,"location_history":"[3,2,1]","action_history":"[0,0]","door_history":"[0,0]","location_rts":"[12012,6400]","trial_type":"two-door-navigation","trial_index":18,"time_elapsed":626225,"internal_node_id":"0.0-2.0-16.0"},{"group":"hexagon_tri","room_assignment":["green","purple","yellow","red","grey","blue"],"door_color_assignment":["black","white"],"door_generator_assignment":[0,1],"goal":5,"start":1,"action_noise":0,"location_history":"[1,5]","action_history":"[1]","door_history":"[1]","location_rts":"[24544]","trial_type":"two-door-navigation","trial_index":19,"time_elapsed":655796,"internal_node_id":"0.0-2.0-17.0"},{"group":"hexagon_tri","room_assignment":["green","purple","yellow","red","grey","blue"],"door_color_assignment":["black","white"],"door_generator_assignment":[0,1],"goal":4,"start":5,"action_noise":0,"location_history":"[5,0,5,4]","action_history":"[1,0,0]","door_history":"[1,0,0]","location_rts":"[3679,4511,9959]","trial_type":"two-door-navigation","trial_index":20,"time_elapsed":681013,"internal_node_id":"0.0-2.0-18.0"},{"group":"hexagon_tri","room_assignment":["green","purple","yellow","red","grey","blue"],"door_color_assignment":["black","white"],"door_generator_assignment":[0,1],"goal":0,"start":4,"action_noise":0,"location_history":"[4,0]","action_history":"[0]","door_history":"[0]","location_rts":"[6888]","trial_type":"two-door-navigation","trial_index":21,"time_elapsed":692923,"internal_node_id":"0.0-2.0-19.0"},{"group":"hexagon_tri","room_assignment":["green","purple","yellow","red","grey","blue"],"door_color_assignment":["black","white"],"door_generator_assignment":[0,1],"goal":1,"start":0,"action_noise":0,"location_history":"[0,1]","action_history":"[1]","door_history":"[1]","location_rts":"[31732]","trial_type":"two-door-navigation","trial_index":22,"time_elapsed":729685,"internal_node_id":"0.0-2.0-20.0"},{"group":"hexagon_tri","room_assignment":["green","purple","yellow","red","grey","blue"],"door_color_assignment":["black","white"],"door_generator_assignment":[0,1],"goal":3,"start":1,"action_noise":0,"location_history":"[1,5,0,5,0,1,5,4,0,1,3]","action_history":"[1,1,0,1,1,1,0,0,1,0]","door_history":"[1,1,0,1,1,1,0,0,1,0]","location_rts":"[9649,8761,4204,4924,4582,4612,8321,4552,11315,12710]","trial_type":"two-door-navigation","trial_index":23,"time_elapsed":817549,"internal_node_id":"0.0-2.0-21.0"},{"group":"hexagon_tri","room_assignment":["green","purple","yellow","red","grey","blue"],"door_color_assignment":["black","white"],"door_generator_assignment":[0,1],"goal":2,"start":3,"action_noise":0,"location_history":"[3,2]","action_history":"[0]","door_history":"[0]","location_rts":"[10582]","trial_type":"two-door-navigation","trial_index":24,"time_elapsed":833157,"internal_node_id":"0.0-2.0-22.0"},{"group":"hexagon_tri","room_assignment":["green","purple","yellow","red","grey","blue"],"door_color_assignment":["black","white"],"door_generator_assignment":[0,1],"goal":0,"start":2,"action_noise":0,"location_history":"[2,3,4,0]","action_history":"[1,1,0]","door_history":"[1,1,0]","location_rts":"[12824,6775,4757]","trial_type":"two-door-navigation","trial_index":25,"time_elapsed":864584,"internal_node_id":"0.0-2.0-23.0"},{"group":"hexagon_tri","room_assignment":["green","purple","yellow","red","grey","blue"],"door_color_assignment":["black","white"],"door_generator_assignment":[0,1],"goal":3,"start":0,"action_noise":0,"location_history":"[0,1,5,0,5,4,0,5,0,1,3]","action_history":"[1,1,1,0,0,0,0,1,1,0]","door_history":"[1,1,1,0,0,0,0,1,1,0]","location_rts":"[2997,4178,541,516,417,499,967,1362,827,504]","trial_type":"two-door-navigation","trial_index":26,"time_elapsed":891612,"internal_node_id":"0.0-2.0-24.0"},{"group":"hexagon_tri","room_assignment":["green","purple","yellow","red","grey","blue"],"door_color_assignment":["black","white"],"door_generator_assignment":[0,1],"goal":1,"start":3,"action_noise":0,"location_history":"[3,2,1]","action_history":"[0,0]","door_history":"[0,0]","location_rts":"[4566,3834]","trial_type":"two-door-navigation","trial_index":27,"time_elapsed":906104,"internal_node_id":"0.0-2.0-25.0"},{"group":"hexagon_tri","room_assignment":["green","purple","yellow","red","grey","blue"],"door_color_assignment":["black","white"],"door_generator_assignment":[0,1],"goal":2,"start":1,"action_noise":0,"location_history":"[1,3,2]","action_history":"[0,0]","door_history":"[0,0]","location_rts":"[6562,3794]","trial_type":"two-door-navigation","trial_index":28,"time_elapsed":922511,"internal_node_id":"0.0-2.0-26.0"},{"group":"hexagon_tri","room_assignment":["green","purple","yellow","red","grey","blue"],"door_color_assignment":["black","white"],"door_generator_assignment":[0,1],"goal":5,"start":2,"action_noise":0,"location_history":"[2,3,4,2,1,5]","action_history":"[1,1,1,0,1]","door_history":"[1,1,1,0,1]","location_rts":"[3929,2708,3364,2843,2609]","trial_type":"two-door-navigation","trial_index":29,"time_elapsed":947086,"internal_node_id":"0.0-2.0-27.0"},{"group":"hexagon_tri","room_assignment":["green","purple","yellow","red","grey","blue"],"door_color_assignment":["black","white"],"door_generator_assignment":[0,1],"goal":4,"start":5,"action_noise":0,"location_history":"[5,0,1,5,4]","action_history":"[1,1,1,0]","door_history":"[1,1,1,0]","location_rts":"[4319,2594,4803,544]","trial_type":"two-door-navigation","trial_index":30,"time_elapsed":967435,"internal_node_id":"0.0-2.0-28.0"},{"group":"hexagon_tri","room_assignment":["green","purple","yellow","red","grey","blue"],"door_color_assignment":["black","white"],"door_generator_assignment":[0,1],"goal":5,"start":4,"action_noise":0,"location_history":"[4,0,5]","action_history":"[0,0]","door_history":"[0,0]","location_rts":"[5302,4661]","trial_type":"two-door-navigation","trial_index":31,"time_elapsed":983449,"internal_node_id":"0.0-2.0-29.0"},{"group":"hexagon_tri","room_assignment":["green","purple","yellow","red","grey","blue"],"door_color_assignment":["black","white"],"door_generator_assignment":[0,1],"goal":3,"start":5,"action_noise":0,"location_history":"[5,0,1,3]","action_history":"[1,1,0]","door_history":"[1,1,0]","location_rts":"[6605,1030,512]","trial_type":"two-door-navigation","trial_index":32,"time_elapsed":998674,"internal_node_id":"0.0-2.0-30.0"},{"group":"hexagon_tri","room_assignment":["green","purple","yellow","red","grey","blue"],"door_color_assignment":["black","white"],"door_generator_assignment":[0,1],"goal":0,"start":3,"action_noise":0,"location_history":"[3,2,3,2,1,5,4,0]","action_history":"[0,1,0,0,1,0,0]","door_history":"[0,1,0,0,1,0,0]","location_rts":"[1554,1311,4016,815,818,1336,2871]","trial_type":"two-door-navigation","trial_index":33,"time_elapsed":1022576,"internal_node_id":"0.0-2.0-31.0"},{"group":"hexagon_tri","room_assignment":["green","purple","yellow","red","grey","blue"],"door_color_assignment":["black","white"],"door_generator_assignment":[0,1],"goal":4,"start":0,"action_noise":0,"location_history":"[0,5,0,5,0,5,0,5,4]","action_history":"[0,1,0,1,0,1,0,0]","door_history":"[0,1,0,1,0,1,0,0]","location_rts":"[4312,610,991,1275,525,398,835,407]","trial_type":"two-door-navigation","trial_index":34,"time_elapsed":1044132,"internal_node_id":"0.0-2.0-32.0"},{"group":"hexagon_tri","room_assignment":["green","purple","yellow","red","grey","blue"],"door_color_assignment":["black","white"],"door_generator_assignment":[0,1],"goal":1,"start":4,"action_noise":0,"location_history":"[4,0,1]","action_history":"[0,1]","door_history":"[0,1]","location_rts":"[10142,724]","trial_type":"two-door-navigation","trial_index":35,"time_elapsed":1061048,"internal_node_id":"0.0-2.0-33.0"},{"group":"hexagon_tri","room_assignment":["green","purple","yellow","red","grey","blue"],"door_color_assignment":["black","white"],"door_generator_assignment":[0,1],"goal":2,"start":1,"action_noise":0,"location_history":"[1,5,0,5,4,0,5,0,1,5,0,5,4,2]","action_history":"[1,1,0,0,0,0,1,1,1,1,0,0,1]","door_history":"[1,1,0,0,0,0,1,1,1,1,0,0,1]","location_rts":"[1770,1307,1075,579,540,745,884,297,615,488,435,644,309]","trial_type":"two-door-navigation","trial_index":36,"time_elapsed":1088023,"internal_node_id":"0.0-2.0-34.0"},{"group":"hexagon_tri","room_assignment":["green","purple","yellow","red","grey","blue"],"door_color_assignment":["black","white"],"door_generator_assignment":[0,1],"goal":0,"start":2,"action_noise":0,"location_history":"[2,3,4,0]","action_history":"[1,1,0]","door_history":"[1,1,0]","location_rts":"[4645,3286,1280]","trial_type":"two-door-navigation","trial_index":37,"time_elapsed":1104305,"internal_node_id":"0.0-2.0-35.0"},{"group":"hexagon_tri","room_assignment":["green","purple","yellow","red","grey","blue"],"door_color_assignment":["black","white"],"door_generator_assignment":[0,1],"goal":5,"start":0,"action_noise":0,"location_history":"[0,5]","action_history":"[0]","door_history":"[0]","location_rts":"[5528]","trial_type":"two-door-navigation","trial_index":38,"time_elapsed":1114862,"internal_node_id":"0.0-2.0-36.0"},{"group":"hexagon_tri","room_assignment":["green","purple","yellow","red","grey","blue"],"door_color_assignment":["black","white"],"door_generator_assignment":[0,1],"goal":2,"start":5,"action_noise":0,"location_history":"[5,4,2]","action_history":"[0,1]","door_history":"[0,1]","location_rts":"[1845,382]","trial_type":"two-door-navigation","trial_index":39,"time_elapsed":1123140,"internal_node_id":"0.0-2.0-37.0"},{"group":"hexagon_tri","room_assignment":["green","purple","yellow","red","grey","blue"],"door_color_assignment":["black","white"],"door_generator_assignment":[0,1],"goal":1,"start":2,"action_noise":0,"location_history":"[2,3,2,1]","action_history":"[1,0,0]","door_history":"[1,0,0]","location_rts":"[1269,961,905]","trial_type":"two-door-navigation","trial_index":40,"time_elapsed":1133352,"internal_node_id":"0.0-2.0-38.0"},{"group":"hexagon_tri","room_assignment":["green","purple","yellow","red","grey","blue"],"door_color_assignment":["black","white"],"door_generator_assignment":[0,1],"goal":4,"start":1,"action_noise":0,"location_history":"[1,3,4]","action_history":"[0,1]","door_history":"[0,1]","location_rts":"[1881,620]","trial_type":"two-door-navigation","trial_index":41,"time_elapsed":1141904,"internal_node_id":"0.0-2.0-39.0"},{"group":"hexagon_tri","room_assignment":["green","purple","yellow","red","grey","blue"],"door_color_assignment":["black","white"],"door_generator_assignment":[0,1],"goal":3,"start":4,"action_noise":0,"location_history":"[4,2,1,3]","action_history":"[1,0,0]","door_history":"[1,0,0]","location_rts":"[2105,388,812]","trial_type":"two-door-navigation","trial_index":42,"time_elapsed":1152295,"internal_node_id":"0.0-2.0-40.0"},{"group":"hexagon_tri","room_assignment":["green","purple","yellow","red","grey","blue"],"door_color_assignment":["black","white"],"door_generator_assignment":[0,1],"goal":5,"start":3,"action_noise":0,"location_history":"[3,4,0,5]","action_history":"[1,0,0]","door_history":"[1,0,0]","location_rts":"[1345,657,581]","trial_type":"two-door-navigation","trial_index":43,"time_elapsed":1161946,"internal_node_id":"0.0-2.0-41.0"},{"group":"hexagon_tri","room_assignment":["green","purple","yellow","red","grey","blue"],"door_color_assignment":["black","white"],"door_generator_assignment":[0,1],"goal":3,"start":5,"action_noise":0,"location_history":"[5,0,1,3]","action_history":"[1,1,0]","door_history":"[1,1,0]","location_rts":"[1212,841,783]","trial_type":"two-door-navigation","trial_index":44,"time_elapsed":1171852,"internal_node_id":"0.0-2.0-42.0"},{"group":"hexagon_tri","room_assignment":["green","purple","yellow","red","grey","blue"],"door_color_assignment":["black","white"],"door_generator_assignment":[0,1],"goal":0,"start":3,"action_noise":0,"location_history":"[3,2,3,4,0]","action_history":"[0,1,1,0]","door_history":"[0,1,1,0]","location_rts":"[1440,1901,932,511]","trial_type":"two-door-navigation","trial_index":45,"time_elapsed":1184733,"internal_node_id":"0.0-2.0-43.0"},{"group":"hexagon_tri","room_assignment":["green","purple","yellow","red","grey","blue"],"door_color_assignment":["black","white"],"door_generator_assignment":[0,1],"goal":2,"start":0,"action_noise":0,"location_history":"[0,1,3,2]","action_history":"[1,0,0]","door_history":"[1,0,0]","location_rts":"[1541,641,874]","trial_type":"two-door-navigation","trial_index":46,"time_elapsed":1194877,"internal_node_id":"0.0-2.0-44.0"},{"group":"hexagon_tri","room_assignment":["green","purple","yellow","red","grey","blue"],"door_color_assignment":["black","white"],"door_generator_assignment":[0,1],"goal":4,"start":2,"action_noise":0,"location_history":"[2,1,5,0,1,3,2,1,3,4]","action_history":"[0,1,1,1,0,0,0,0,1]","door_history":"[0,1,1,1,0,0,0,0,1]","location_rts":"[2419,568,513,525,797,313,417,551,3147]","trial_type":"two-door-navigation","trial_index":47,"time_elapsed":1217319,"internal_node_id":"0.0-2.0-45.0"},{"group":"hexagon_tri","room_assignment":["green","purple","yellow","red","grey","blue"],"door_color_assignment":["black","white"],"door_generator_assignment":[0,1],"goal":1,"start":4,"action_noise":0,"location_history":"[4,2,1]","action_history":"[1,0]","door_history":"[1,0]","location_rts":"[1517,606]","trial_type":"two-door-navigation","trial_index":48,"time_elapsed":1225489,"internal_node_id":"0.0-2.0-46.0"},{"group":"hexagon_tri","room_assignment":["green","purple","yellow","red","grey","blue"],"door_color_assignment":["black","white"],"door_generator_assignment":[0,1],"goal":4,"start":1,"action_noise":0,"location_history":"[1,5,4]","action_history":"[1,0]","door_history":"[1,0]","location_rts":"[1724,652]","trial_type":"two-door-navigation","trial_index":49,"time_elapsed":1233920,"internal_node_id":"0.0-2.0-47.0"},{"group":"hexagon_tri","room_assignment":["green","purple","yellow","red","grey","blue"],"door_color_assignment":["black","white"],"door_generator_assignment":[0,1],"goal":3,"start":4,"action_noise":0,"location_history":"[4,0,1,5,4,0,1,5,4,0,1,3]","action_history":"[0,1,1,0,0,1,1,0,0,1,0]","door_history":"[0,1,1,0,0,1,1,0,0,1,0]","location_rts":"[1583,1097,563,871,262,1025,465,659,310,868,690]","trial_type":"two-door-navigation","trial_index":50,"time_elapsed":1257565,"internal_node_id":"0.0-2.0-48.0"},{"group":"hexagon_tri","room_assignment":["green","purple","yellow","red","grey","blue"],"door_color_assignment":["black","white"],"door_generator_assignment":[0,1],"goal":5,"start":3,"action_noise":0,"location_history":"[3,4,0,5]","action_history":"[1,0,0]","door_history":"[1,0,0]","location_rts":"[12806,6656,3117]","trial_type":"two-door-navigation","trial_index":51,"time_elapsed":1287219,"internal_node_id":"0.0-2.0-49.0"},{"view_history":"[{\"page_index\":0,\"viewing_time\":1677}]","rt":1678,"trial_type":"instructions","trial_index":52,"time_elapsed":1289897,"internal_node_id":"0.0-3.0"},{"view_history":"[{\"page_index\":0,\"viewing_time\":1790},{\"page_index\":1,\"viewing_time\":11810}]","rt":13601,"trial_type":"instructions","trial_index":53,"time_elapsed":1304499,"internal_node_id":"0.0-4.0"},{"group":"hexagon_tri","fractal_assignment":["../images/org_blu.png","../images/blu_wht.png","../images/gry_blk.png","../images/cyn_red.png","../images/pnk_blu.png","../images/ylw_slt.png"],"mutagen_generator_assignment":[0,1],"goal":4,"start":0,"action_noise":0,"location_history":"[0,5,4]","action_history":"[0,0]","mutagen_history":"[0,0]","location_rts":"[3448,869]","trial_type":"fractal-mutation","trial_index":54,"time_elapsed":1314985,"internal_node_id":"0.0-5.0-0.0"},{"group":"hexagon_tri","fractal_assignment":["../images/org_blu.png","../images/blu_wht.png","../images/gry_blk.png","../images/cyn_red.png","../images/pnk_blu.png","../images/ylw_slt.png"],"mutagen_generator_assignment":[0,1],"goal":3,"start":4,"action_noise":0,"location_history":"[4,2,3]","action_history":"[1,1]","mutagen_history":"[1,1]","location_rts":"[1040,219]","trial_type":"fractal-mutation","trial_index":55,"time_elapsed":1322504,"internal_node_id":"0.0-5.0-1.0"},{"group":"hexagon_tri","fractal_assignment":["../images/org_blu.png","../images/blu_wht.png","../images/gry_blk.png","../images/cyn_red.png","../images/pnk_blu.png","../images/ylw_slt.png"],"mutagen_generator_assignment":[0,1],"goal":5,"start":3,"action_noise":0,"location_history":"[3,2,1,3,4,2,3,4,2,1,3,2,1,3,2,3,4,0,5]","action_history":"[0,0,0,1,1,1,1,1,0,0,0,0,0,0,1,1,0,0]","mutagen_history":"[0,0,0,1,1,1,1,1,0,0,0,0,0,0,1,1,0,0]","location_rts":"[1799,1750,791,722,770,472,495,580,545,491,1405,605,466,307,290,337,886,664]","trial_type":"fractal-mutation","trial_index":56,"time_elapsed":1359575,"internal_node_id":"0.0-5.0-2.0"},{"group":"hexagon_tri","fractal_assignment":["../images/org_blu.png","../images/blu_wht.png","../images/gry_blk.png","../images/cyn_red.png","../images/pnk_blu.png","../images/ylw_slt.png"],"mutagen_generator_assignment":[0,1],"goal":2,"start":5,"action_noise":0,"location_history":"[5,4,0,1,5,0,1,5,0,1,5,4,0,1,3,2]","action_history":"[0,0,1,1,1,1,1,1,1,1,0,0,1,0,0]","mutagen_history":"[0,0,1,1,1,1,1,1,1,1,0,0,1,0,0]","location_rts":"[977,865,310,495,548,719,601,989,607,569,674,609,759,698,609]","trial_type":"fractal-mutation","trial_index":57,"time_elapsed":1390048,"internal_node_id":"0.0-5.0-3.0"},{"group":"hexagon_tri","fractal_assignment":["../images/org_blu.png","../images/blu_wht.png","../images/gry_blk.png","../images/cyn_red.png","../images/pnk_blu.png","../images/ylw_slt.png"],"mutagen_generator_assignment":[0,1],"goal":1,"start":2,"action_noise":0,"location_history":"[2,3,2,1]","action_history":"[1,0,0]","mutagen_history":"[1,0,0]","location_rts":"[1775,1484,735]","trial_type":"fractal-mutation","trial_index":58,"time_elapsed":1401328,"internal_node_id":"0.0-5.0-4.0"},{"group":"hexagon_tri","fractal_assignment":["../images/org_blu.png","../images/blu_wht.png","../images/gry_blk.png","../images/cyn_red.png","../images/pnk_blu.png","../images/ylw_slt.png"],"mutagen_generator_assignment":[0,1],"goal":4,"start":1,"action_noise":0,"location_history":"[1,5,0,1,5,0,1,3,2,1,3,2,1,3,4]","action_history":"[1,1,1,1,1,1,0,0,0,0,0,0,0,1]","mutagen_history":"[1,1,1,1,1,1,0,0,0,0,0,0,0,1]","location_rts":"[1270,536,626,540,583,667,873,403,352,430,419,445,496,303]","trial_type":"fractal-mutation","trial_index":59,"time_elapsed":1428643,"internal_node_id":"0.0-5.0-5.0"},{"group":"hexagon_tri","fractal_assignment":["../images/org_blu.png","../images/blu_wht.png","../images/gry_blk.png","../images/cyn_red.png","../images/pnk_blu.png","../images/ylw_slt.png"],"mutagen_generator_assignment":[0,1],"goal":1,"start":4,"action_noise":0,"location_history":"[4,2,3,4,2,3,2,3,2,1]","action_history":"[1,1,1,1,1,0,1,0,0]","mutagen_history":"[1,1,1,1,1,0,1,0,0]","location_rts":"[1283,501,462,439,709,700,346,570,575]","trial_type":"fractal-mutation","trial_index":60,"time_elapsed":1448119,"internal_node_id":"0.0-5.0-6.0"},{"group":"hexagon_tri","fractal_assignment":["../images/org_blu.png","../images/blu_wht.png","../images/gry_blk.png","../images/cyn_red.png","../images/pnk_blu.png","../images/ylw_slt.png"],"mutagen_generator_assignment":[0,1],"goal":5,"start":1,"action_noise":0,"location_history":"[1,3,2,1,3,4,2,3,4,0,5]","action_history":"[0,0,0,0,1,1,1,1,0,0]","mutagen_history":"[0,0,0,0,1,1,1,1,0,0]","location_rts":"[1461,753,606,612,612,449,440,479,731,1330]","trial_type":"fractal-mutation","trial_index":61,"time_elapsed":1470470,"internal_node_id":"0.0-5.0-7.0"},{"group":"hexagon_tri","fractal_assignment":["../images/org_blu.png","../images/blu_wht.png","../images/gry_blk.png","../images/cyn_red.png","../images/pnk_blu.png","../images/ylw_slt.png"],"mutagen_generator_assignment":[0,1],"goal":0,"start":5,"action_noise":0,"location_history":"[5,4,2,1,3,2,3,2,1,5,4,0]","action_history":"[0,1,0,0,0,1,0,0,1,0,0]","mutagen_history":"[0,1,0,0,0,1,0,0,1,0,0]","location_rts":"[624,758,622,347,410,722,413,504,572,350,749]","trial_type":"fractal-mutation","trial_index":62,"time_elapsed":1492452,"internal_node_id":"0.0-5.0-8.0"},{"group":"hexagon_tri","fractal_assignment":["../images/org_blu.png","../images/blu_wht.png","../images/gry_blk.png","../images/cyn_red.png","../images/pnk_blu.png","../images/ylw_slt.png"],"mutagen_generator_assignment":[0,1],"goal":2,"start":0,"action_noise":0,"location_history":"[0,1,5,0,1,5,4,0,5,4,0,1,5,0,1,5,4,0,1,3,2]","action_history":"[1,1,1,1,1,0,0,0,0,0,1,1,1,1,1,0,0,1,0,0]","mutagen_history":"[1,1,1,1,1,0,0,0,0,0,1,1,1,1,1,0,0,1,0,0]","location_rts":"[1299,510,472,453,465,697,682,537,901,626,887,484,487,475,779,603,738,922,932,579]","trial_type":"fractal-mutation","trial_index":63,"time_elapsed":1531966,"internal_node_id":"0.0-5.0-9.0"},{"group":"hexagon_tri","fractal_assignment":["../images/org_blu.png","../images/blu_wht.png","../images/gry_blk.png","../images/cyn_red.png","../images/pnk_blu.png","../images/ylw_slt.png"],"mutagen_generator_assignment":[0,1],"goal":3,"start":2,"action_noise":0,"location_history":"[2,1,3]","action_history":"[0,0]","mutagen_history":"[0,0]","location_rts":"[1405,639]","trial_type":"fractal-mutation","trial_index":64,"time_elapsed":1540170,"internal_node_id":"0.0-5.0-10.0"},{"group":"hexagon_tri","fractal_assignment":["../images/org_blu.png","../images/blu_wht.png","../images/gry_blk.png","../images/cyn_red.png","../images/pnk_blu.png","../images/ylw_slt.png"],"mutagen_generator_assignment":[0,1],"goal":0,"start":3,"action_noise":0,"location_history":"[3,2,3,4,0]","action_history":"[0,1,1,0]","mutagen_history":"[0,1,1,0]","location_rts":"[1612,725,614,702]","trial_type":"fractal-mutation","trial_index":65,"time_elapsed":1552216,"internal_node_id":"0.0-5.0-11.0"},{"group":"hexagon_tri","fractal_assignment":["../images/org_blu.png","../images/blu_wht.png","../images/gry_blk.png","../images/cyn_red.png","../images/pnk_blu.png","../images/ylw_slt.png"],"mutagen_generator_assignment":[0,1],"goal":2,"start":0,"action_noise":0,"location_history":"[0,1,3,2]","action_history":"[1,0,0]","mutagen_history":"[1,0,0]","location_rts":"[1404,751,951]","trial_type":"fractal-mutation","trial_index":66,"time_elapsed":1562600,"internal_node_id":"0.0-5.0-12.0"},{"group":"hexagon_tri","fractal_assignment":["../images/org_blu.png","../images/blu_wht.png","../images/gry_blk.png","../images/cyn_red.png","../images/pnk_blu.png","../images/ylw_slt.png"],"mutagen_generator_assignment":[0,1],"goal":5,"start":2,"action_noise":0,"location_history":"[2,3,2,1,3,4,0,5]","action_history":"[1,0,0,0,1,0,0]","mutagen_history":"[1,0,0,0,1,0,0]","location_rts":"[1657,736,542,652,959,821,488]","trial_type":"fractal-mutation","trial_index":67,"time_elapsed":1580070,"internal_node_id":"0.0-5.0-13.0"},{"group":"hexagon_tri","fractal_assignment":["../images/org_blu.png","../images/blu_wht.png","../images/gry_blk.png","../images/cyn_red.png","../images/pnk_blu.png","../images/ylw_slt.png"],"mutagen_generator_assignment":[0,1],"goal":4,"start":5,"action_noise":0,"location_history":"[5,4]","action_history":"[0]","mutagen_history":"[0]","location_rts":"[1129]","trial_type":"fractal-mutation","trial_index":68,"time_elapsed":1586271,"internal_node_id":"0.0-5.0-14.0"},{"group":"hexagon_tri","fractal_assignment":["../images/org_blu.png","../images/blu_wht.png","../images/gry_blk.png","../images/cyn_red.png","../images/pnk_blu.png","../images/ylw_slt.png"],"mutagen_generator_assignment":[0,1],"goal":3,"start":4,"action_noise":0,"location_history":"[4,2,1,3]","action_history":"[1,0,0]","mutagen_history":"[1,0,0]","location_rts":"[1455,972,771]","trial_type":"fractal-mutation","trial_index":69,"time_elapsed":1596719,"internal_node_id":"0.0-5.0-15.0"},{"group":"hexagon_tri","fractal_assignment":["../images/org_blu.png","../images/blu_wht.png","../images/gry_blk.png","../images/cyn_red.png","../images/pnk_blu.png","../images/ylw_slt.png"],"mutagen_generator_assignment":[0,1],"goal":1,"start":3,"action_noise":0,"location_history":"[3,2,3,4,2,3,2,1]","action_history":"[0,1,1,1,1,0,0]","mutagen_history":"[0,1,1,1,1,0,0]","location_rts":"[1216,857,1081,935,527,701,555]","trial_type":"fractal-mutation","trial_index":70,"time_elapsed":1614248,"internal_node_id":"0.0-5.0-16.0"},{"group":"hexagon_tri","fractal_assignment":["../images/org_blu.png","../images/blu_wht.png","../images/gry_blk.png","../images/cyn_red.png","../images/pnk_blu.png","../images/ylw_slt.png"],"mutagen_generator_assignment":[0,1],"goal":5,"start":1,"action_noise":0,"location_history":"[1,3,2,3,2,1,5]","action_history":"[0,0,1,0,0,1]","mutagen_history":"[0,0,1,0,0,1]","location_rts":"[1286,903,805,744,727,396]","trial_type":"fractal-mutation","trial_index":71,"time_elapsed":1629639,"internal_node_id":"0.0-5.0-17.0"},{"group":"hexagon_tri","fractal_assignment":["../images/org_blu.png","../images/blu_wht.png","../images/gry_blk.png","../images/cyn_red.png","../images/pnk_blu.png","../images/ylw_slt.png"],"mutagen_generator_assignment":[0,1],"goal":4,"start":5,"action_noise":0,"location_history":"[5,4]","action_history":"[0]","mutagen_history":"[0]","location_rts":"[1441]","trial_type":"fractal-mutation","trial_index":72,"time_elapsed":1636454,"internal_node_id":"0.0-5.0-18.0"},{"group":"hexagon_tri","fractal_assignment":["../images/org_blu.png","../images/blu_wht.png","../images/gry_blk.png","../images/cyn_red.png","../images/pnk_blu.png","../images/ylw_slt.png"],"mutagen_generator_assignment":[0,1],"goal":0,"start":4,"action_noise":0,"location_history":"[4,0]","action_history":"[0]","mutagen_history":"[0]","location_rts":"[2448]","trial_type":"fractal-mutation","trial_index":73,"time_elapsed":1644976,"internal_node_id":"0.0-5.0-19.0"},{"group":"hexagon_tri","fractal_assignment":["../images/org_blu.png","../images/blu_wht.png","../images/gry_blk.png","../images/cyn_red.png","../images/pnk_blu.png","../images/ylw_slt.png"],"mutagen_generator_assignment":[0,1],"goal":1,"start":0,"action_noise":0,"location_history":"[0,1]","action_history":"[1]","mutagen_history":"[1]","location_rts":"[1159]","trial_type":"fractal-mutation","trial_index":74,"time_elapsed":1651241,"internal_node_id":"0.0-5.0-20.0"},{"group":"hexagon_tri","fractal_assignment":["../images/org_blu.png","../images/blu_wht.png","../images/gry_blk.png","../images/cyn_red.png","../images/pnk_blu.png","../images/ylw_slt.png"],"mutagen_generator_assignment":[0,1],"goal":3,"start":1,"action_noise":0,"location_history":"[1,3]","action_history":"[0]","mutagen_history":"[0]","location_rts":"[1190]","trial_type":"fractal-mutation","trial_index":75,"time_elapsed":1657496,"internal_node_id":"0.0-5.0-21.0"},{"group":"hexagon_tri","fractal_assignment":["../images/org_blu.png","../images/blu_wht.png","../images/gry_blk.png","../images/cyn_red.png","../images/pnk_blu.png","../images/ylw_slt.png"],"mutagen_generator_assignment":[0,1],"goal":2,"start":3,"action_noise":0,"location_history":"[3,4,2]","action_history":"[1,1]","mutagen_history":"[1,1]","location_rts":"[1296,859]","trial_type":"fractal-mutation","trial_index":76,"time_elapsed":1665883,"internal_node_id":"0.0-5.0-22.0"},{"group":"hexagon_tri","fractal_assignment":["../images/org_blu.png","../images/blu_wht.png","../images/gry_blk.png","../images/cyn_red.png","../images/pnk_blu.png","../images/ylw_slt.png"],"mutagen_generator_assignment":[0,1],"goal":0,"start":2,"action_noise":0,"location_history":"[2,3,2,3,4,0]","action_history":"[1,0,1,1,0]","mutagen_history":"[1,0,1,1,0]","location_rts":"[5851,826,623,1252,648]","trial_type":"fractal-mutation","trial_index":77,"time_elapsed":1684573,"internal_node_id":"0.0-5.0-23.0"},{"group":"hexagon_tri","fractal_assignment":["../images/org_blu.png","../images/blu_wht.png","../images/gry_blk.png","../images/cyn_red.png","../images/pnk_blu.png","../images/ylw_slt.png"],"mutagen_generator_assignment":[0,1],"goal":3,"start":0,"action_noise":0,"location_history":"[0,1,3]","action_history":"[1,0]","mutagen_history":"[1,0]","location_rts":"[2019,808]","trial_type":"fractal-mutation","trial_index":78,"time_elapsed":1693600,"internal_node_id":"0.0-5.0-24.0"},{"group":"hexagon_tri","fractal_assignment":["../images/org_blu.png","../images/blu_wht.png","../images/gry_blk.png","../images/cyn_red.png","../images/pnk_blu.png","../images/ylw_slt.png"],"mutagen_generator_assignment":[0,1],"goal":1,"start":3,"action_noise":0,"location_history":"[3,4,0,1]","action_history":"[1,0,1]","mutagen_history":"[1,0,1]","location_rts":"[1607,718,986]","trial_type":"fractal-mutation","trial_index":79,"time_elapsed":1704226,"internal_node_id":"0.0-5.0-25.0"},{"group":"hexagon_tri","fractal_assignment":["../images/org_blu.png","../images/blu_wht.png","../images/gry_blk.png","../images/cyn_red.png","../images/pnk_blu.png","../images/ylw_slt.png"],"mutagen_generator_assignment":[0,1],"goal":2,"start":1,"action_noise":0,"location_history":"[1,5,0,1,5,0,5,0,5,4,2]","action_history":"[1,1,1,1,1,0,1,0,0,1]","mutagen_history":"[1,1,1,1,1,0,1,0,0,1]","location_rts":"[1133,620,573,724,613,624,292,448,380,780]","trial_type":"fractal-mutation","trial_index":80,"time_elapsed":1725461,"internal_node_id":"0.0-5.0-26.0"},{"group":"hexagon_tri","fractal_assignment":["../images/org_blu.png","../images/blu_wht.png","../images/gry_blk.png","../images/cyn_red.png","../images/pnk_blu.png","../images/ylw_slt.png"],"mutagen_generator_assignment":[0,1],"goal":5,"start":2,"action_noise":0,"location_history":"[2,3,2,1,3,4,2,3,4,0,5]","action_history":"[1,0,0,0,1,1,1,1,0,0]","mutagen_history":"[1,0,0,0,1,1,1,1,0,0]","location_rts":"[1321,737,638,829,717,667,484,633,683,483]","trial_type":"fractal-mutation","trial_index":81,"time_elapsed":1747727,"internal_node_id":"0.0-5.0-27.0"},{"group":"hexagon_tri","fractal_assignment":["../images/org_blu.png","../images/blu_wht.png","../images/gry_blk.png","../images/cyn_red.png","../images/pnk_blu.png","../images/ylw_slt.png"],"mutagen_generator_assignment":[0,1],"goal":4,"start":5,"action_noise":0,"location_history":"[5,4]","action_history":"[0]","mutagen_history":"[0]","location_rts":"[1152]","trial_type":"fractal-mutation","trial_index":82,"time_elapsed":1753954,"internal_node_id":"0.0-5.0-28.0"},{"group":"hexagon_tri","fractal_assignment":["../images/org_blu.png","../images/blu_wht.png","../images/gry_blk.png","../images/cyn_red.png","../images/pnk_blu.png","../images/ylw_slt.png"],"mutagen_generator_assignment":[0,1],"goal":5,"start":4,"action_noise":0,"location_history":"[4,0,1,5]","action_history":"[0,1,1]","mutagen_history":"[0,1,1]","location_rts":"[1437,750,708]","trial_type":"fractal-mutation","trial_index":83,"time_elapsed":1764134,"internal_node_id":"0.0-5.0-29.0"},{"group":"hexagon_tri","fractal_assignment":["../images/org_blu.png","../images/blu_wht.png","../images/gry_blk.png","../images/cyn_red.png","../images/pnk_blu.png","../images/ylw_slt.png"],"mutagen_generator_assignment":[0,1],"goal":3,"start":5,"action_noise":0,"location_history":"[5,0,5,4,2,3]","action_history":"[1,0,0,1,1]","mutagen_history":"[1,0,0,1,1]","location_rts":"[1345,700,660,1004,562]","trial_type":"fractal-mutation","trial_index":84,"time_elapsed":1777863,"internal_node_id":"0.0-5.0-30.0"},{"group":"hexagon_tri","fractal_assignment":["../images/org_blu.png","../images/blu_wht.png","../images/gry_blk.png","../images/cyn_red.png","../images/pnk_blu.png","../images/ylw_slt.png"],"mutagen_generator_assignment":[0,1],"goal":0,"start":3,"action_noise":0,"location_history":"[3,2,3,4,0]","action_history":"[0,1,1,0]","mutagen_history":"[0,1,1,0]","location_rts":"[1240,650,1021,550]","trial_type":"fractal-mutation","trial_index":85,"time_elapsed":1789711,"internal_node_id":"0.0-5.0-31.0"},{"group":"hexagon_tri","fractal_assignment":["../images/org_blu.png","../images/blu_wht.png","../images/gry_blk.png","../images/cyn_red.png","../images/pnk_blu.png","../images/ylw_slt.png"],"mutagen_generator_assignment":[0,1],"goal":4,"start":0,"action_noise":0,"location_history":"[0,5,4]","action_history":"[0,0]","mutagen_history":"[0,0]","location_rts":"[911,526]","trial_type":"fractal-mutation","trial_index":86,"time_elapsed":1797311,"internal_node_id":"0.0-5.0-32.0"},{"group":"hexagon_tri","fractal_assignment":["../images/org_blu.png","../images/blu_wht.png","../images/gry_blk.png","../images/cyn_red.png","../images/pnk_blu.png","../images/ylw_slt.png"],"mutagen_generator_assignment":[0,1],"goal":1,"start":4,"action_noise":0,"location_history":"[4,2,3,2,3,4,2,1]","action_history":"[1,1,0,1,1,1,0]","mutagen_history":"[1,1,0,1,1,1,0]","location_rts":"[1750,691,1246,530,575,880,948]","trial_type":"fractal-mutation","trial_index":87,"time_elapsed":1815667,"internal_node_id":"0.0-5.0-33.0"},{"group":"hexagon_tri","fractal_assignment":["../images/org_blu.png","../images/blu_wht.png","../images/gry_blk.png","../images/cyn_red.png","../images/pnk_blu.png","../images/ylw_slt.png"],"mutagen_generator_assignment":[0,1],"goal":2,"start":1,"action_noise":0,"location_history":"[1,5,4,2]","action_history":"[1,0,1]","mutagen_history":"[1,0,1]","location_rts":"[1949,595,814]","trial_type":"fractal-mutation","trial_index":88,"time_elapsed":1826330,"internal_node_id":"0.0-5.0-34.0"},{"group":"hexagon_tri","fractal_assignment":["../images/org_blu.png","../images/blu_wht.png","../images/gry_blk.png","../images/cyn_red.png","../images/pnk_blu.png","../images/ylw_slt.png"],"mutagen_generator_assignment":[0,1],"goal":0,"start":2,"action_noise":0,"location_history":"[2,3,4,0]","action_history":"[1,1,0]","mutagen_history":"[1,1,0]","location_rts":"[1284,958,552]","trial_type":"fractal-mutation","trial_index":89,"time_elapsed":1836430,"internal_node_id":"0.0-5.0-35.0"},{"group":"hexagon_tri","fractal_assignment":["../images/org_blu.png","../images/blu_wht.png","../images/gry_blk.png","../images/cyn_red.png","../images/pnk_blu.png","../images/ylw_slt.png"],"mutagen_generator_assignment":[0,1],"goal":5,"start":0,"action_noise":0,"location_history":"[0,5]","action_history":"[0]","mutagen_history":"[0]","location_rts":"[12534]","trial_type":"fractal-mutation","trial_index":90,"time_elapsed":1854314,"internal_node_id":"0.0-5.0-36.0"},{"group":"hexagon_tri","fractal_assignment":["../images/org_blu.png","../images/blu_wht.png","../images/gry_blk.png","../images/cyn_red.png","../images/pnk_blu.png","../images/ylw_slt.png"],"mutagen_generator_assignment":[0,1],"goal":2,"start":5,"action_noise":0,"location_history":"[5,0,5,0,1,5,0,5,4,2]","action_history":"[1,0,1,1,1,1,0,0,1]","mutagen_history":"[1,0,1,1,1,1,0,0,1]","location_rts":"[1151,687,402,411,566,502,373,867,932]","trial_type":"fractal-mutation","trial_index":91,"time_elapsed":1874138,"internal_node_id":"0.0-5.0-37.0"},{"group":"hexagon_tri","fractal_assignment":["../images/org_blu.png","../images/blu_wht.png","../images/gry_blk.png","../images/cyn_red.png","../images/pnk_blu.png","../images/ylw_slt.png"],"mutagen_generator_assignment":[0,1],"goal":1,"start":2,"action_noise":0,"location_history":"[2,3,2,3,4,0,1]","action_history":"[1,0,1,1,0,1]","mutagen_history":"[1,0,1,1,0,1]","location_rts":"[1221,308,579,240,1144,662]","trial_type":"fractal-mutation","trial_index":92,"time_elapsed":1888984,"internal_node_id":"0.0-5.0-38.0"},{"group":"hexagon_tri","fractal_assignment":["../images/org_blu.png","../images/blu_wht.png","../images/gry_blk.png","../images/cyn_red.png","../images/pnk_blu.png","../images/ylw_slt.png"],"mutagen_generator_assignment":[0,1],"goal":4,"start":1,"action_noise":0,"location_history":"[1,5,4]","action_history":"[1,0]","mutagen_history":"[1,0]","location_rts":"[1328,547]","trial_type":"fractal-mutation","trial_index":93,"time_elapsed":1897041,"internal_node_id":"0.0-5.0-39.0"},{"group":"hexagon_tri","fractal_assignment":["../images/org_blu.png","../images/blu_wht.png","../images/gry_blk.png","../images/cyn_red.png","../images/pnk_blu.png","../images/ylw_slt.png"],"mutagen_generator_assignment":[0,1],"goal":3,"start":4,"action_noise":0,"location_history":"[4,2,1,3]","action_history":"[1,0,0]","mutagen_history":"[1,0,0]","location_rts":"[1718,747,671]","trial_type":"fractal-mutation","trial_index":94,"time_elapsed":1907473,"internal_node_id":"0.0-5.0-40.0"},{"group":"hexagon_tri","fractal_assignment":["../images/org_blu.png","../images/blu_wht.png","../images/gry_blk.png","../images/cyn_red.png","../images/pnk_blu.png","../images/ylw_slt.png"],"mutagen_generator_assignment":[0,1],"goal":5,"start":3,"action_noise":0,"location_history":"[3,4,0,5]","action_history":"[1,0,0]","mutagen_history":"[1,0,0]","location_rts":"[1556,856,588]","trial_type":"fractal-mutation","trial_index":95,"time_elapsed":1917733,"internal_node_id":"0.0-5.0-41.0"},{"group":"hexagon_tri","fractal_assignment":["../images/org_blu.png","../images/blu_wht.png","../images/gry_blk.png","../images/cyn_red.png","../images/pnk_blu.png","../images/ylw_slt.png"],"mutagen_generator_assignment":[0,1],"goal":3,"start":5,"action_noise":0,"location_history":"[5,0,5,0,1,5,4,0,1,5,4,0,5,0,1,5,0,5,0,5,4,2,3]","action_history":"[1,0,1,1,1,0,0,1,1,0,0,0,1,1,1,1,0,1,0,0,1,1]","mutagen_history":"[1,0,1,1,1,0,0,1,1,0,0,0,1,1,1,1,0,1,0,0,1,1]","location_rts":"[5217,605,699,557,708,486,568,582,641,574,400,683,462,729,490,882,342,454,719,267,334,522]","trial_type":"fractal-mutation","trial_index":96,"time_elapsed":1962758,"internal_node_id":"0.0-5.0-42.0"},{"group":"hexagon_tri","fractal_assignment":["../images/org_blu.png","../images/blu_wht.png","../images/gry_blk.png","../images/cyn_red.png","../images/pnk_blu.png","../images/ylw_slt.png"],"mutagen_generator_assignment":[0,1],"goal":0,"start":3,"action_noise":0,"location_history":"[3,4,0]","action_history":"[1,0]","mutagen_history":"[1,0]","location_rts":"[6553,647]","trial_type":"fractal-mutation","trial_index":97,"time_elapsed":1976198,"internal_node_id":"0.0-5.0-43.0"},{"group":"hexagon_tri","fractal_assignment":["../images/org_blu.png","../images/blu_wht.png","../images/gry_blk.png","../images/cyn_red.png","../images/pnk_blu.png","../images/ylw_slt.png"],"mutagen_generator_assignment":[0,1],"goal":2,"start":0,"action_noise":0,"location_history":"[0,1,5,0,1,3,4,2]","action_history":"[1,1,1,1,0,1,1]","mutagen_history":"[1,1,1,1,0,1,1]","location_rts":"[5190,691,589,510,529,408,658]","trial_type":"fractal-mutation","trial_index":98,"time_elapsed":1996684,"internal_node_id":"0.0-5.0-44.0"},{"group":"hexagon_tri","fractal_assignment":["../images/org_blu.png","../images/blu_wht.png","../images/gry_blk.png","../images/cyn_red.png","../images/pnk_blu.png","../images/ylw_slt.png"],"mutagen_generator_assignment":[0,1],"goal":4,"start":2,"action_noise":0,"location_history":"[2,3,2,3,4]","action_history":"[1,0,1,1]","mutagen_history":"[1,0,1,1]","location_rts":"[1034,653,634,140]","trial_type":"fractal-mutation","trial_index":99,"time_elapsed":2007600,"internal_node_id":"0.0-5.0-45.0"},{"group":"hexagon_tri","fractal_assignment":["../images/org_blu.png","../images/blu_wht.png","../images/gry_blk.png","../images/cyn_red.png","../images/pnk_blu.png","../images/ylw_slt.png"],"mutagen_generator_assignment":[0,1],"goal":1,"start":4,"action_noise":0,"location_history":"[4,0,1]","action_history":"[0,1]","mutagen_history":"[0,1]","location_rts":"[783,241]","trial_type":"fractal-mutation","trial_index":100,"time_elapsed":2014826,"internal_node_id":"0.0-5.0-46.0"},{"group":"hexagon_tri","fractal_assignment":["../images/org_blu.png","../images/blu_wht.png","../images/gry_blk.png","../images/cyn_red.png","../images/pnk_blu.png","../images/ylw_slt.png"],"mutagen_generator_assignment":[0,1],"goal":4,"start":1,"action_noise":0,"location_history":"[1,5,4]","action_history":"[1,0]","mutagen_history":"[1,0]","location_rts":"[1356,476]","trial_type":"fractal-mutation","trial_index":101,"time_elapsed":2022850,"internal_node_id":"0.0-5.0-47.0"},{"group":"hexagon_tri","fractal_assignment":["../images/org_blu.png","../images/blu_wht.png","../images/gry_blk.png","../images/cyn_red.png","../images/pnk_blu.png","../images/ylw_slt.png"],"mutagen_generator_assignment":[0,1],"goal":3,"start":4,"action_noise":0,"location_history":"[4,0,5,0,5,4,0,5,4,2,3]","action_history":"[0,0,1,0,0,0,0,0,1,1]","mutagen_history":"[0,0,1,0,0,0,0,0,1,1]","location_rts":"[1644,747,467,810,155,756,698,487,236,494]","trial_type":"fractal-mutation","trial_index":102,"time_elapsed":2044229,"internal_node_id":"0.0-5.0-48.0"},{"group":"hexagon_tri","fractal_assignment":["../images/org_blu.png","../images/blu_wht.png","../images/gry_blk.png","../images/cyn_red.png","../images/pnk_blu.png","../images/ylw_slt.png"],"mutagen_generator_assignment":[0,1],"goal":5,"start":3,"action_noise":0,"location_history":"[3,2,3,4,0,5]","action_history":"[0,1,1,0,0]","mutagen_history":"[0,1,1,0,0]","location_rts":"[1171,688,912,502,672]","trial_type":"fractal-mutation","trial_index":103,"time_elapsed":2057668,"internal_node_id":"0.0-5.0-49.0"},{"view_history":"[{\"page_index\":0,\"viewing_time\":3622}]","rt":3622,"trial_type":"instructions","trial_index":104,"time_elapsed":2062291,"internal_node_id":"0.0-6.0"},{"rt":6214,"responses":"{\"Q0\":\"no, thanks\"}","trial_type":"survey-text","trial_index":105,"time_elapsed":2069511,"internal_node_id":"0.0-7.0"}]