[{"view_history":"[{\"page_index\":0,\"viewing_time\":5501},{\"page_index\":1,\"viewing_time\":22245},{\"page_index\":2,\"viewing_time\":21885}]","rt":49633,"trial_type":"instructions","trial_index":0,"time_elapsed":49636,"internal_node_id":"0.0-0.0"},{"view_history":"[{\"page_index\":0,\"viewing_time\":4597},{\"page_index\":1,\"viewing_time\":36075}]","rt":40672,"trial_type":"instructions","trial_index":1,"time_elapsed":91314,"internal_node_id":"0.0-1.0"},{"group":"hexagon_bi","room_assignment":["blue","red","purple","grey","yellow","green"],"door_color_assignment":["black","white"],"door_generator_assignment":[1,0],"goal":4,"start":0,"action_noise":0,"location_history":"[0,5,4]","action_history":"[0,1]","door_history":"[1,0]","location_rts":"[6044,1963]","trial_type":"two-door-navigation","trial_index":2,"time_elapsed":105659,"internal_node_id":"0.0-2.0-0.0"},{"group":"hexagon_bi","room_assignment":["blue","red","purple","grey","yellow","green"],"door_color_assignment":["black","white"],"door_generator_assignment":[1,0],"goal":3,"start":4,"action_noise":0,"location_history":"[4,5,0,1,0,1,2,1,2,3]","action_history":"[1,0,1,1,1,0,0,0,1]","door_history":"[0,1,0,0,0,1,1,1,0]","location_rts":"[3358,1001,925,711,746,680,384,719,2704]","trial_type":"two-door-navigation","trial_index":3,"time_elapsed":130765,"internal_node_id":"0.0-2.0-1.0"},{"group":"hexagon_bi","room_assignment":["blue","red","purple","grey","yellow","green"],"door_color_assignment":["black","white"],"door_generator_assignment":[1,0],"goal":5,"start":3,"action_noise":0,"location_history":"[3,2,3,4,3,2,1,0,1,2,1,0,5]","action_history":"[1,1,0,0,1,0,1,1,0,0,1,0]","door_history":"[0,0,1,1,0,1,0,0,1,1,0,1]","location_rts":"[5407,700,879,910,1032,1131,832,532,682,1847,907,700]","trial_type":"two-door-navigation","trial_index":4,"time_elapsed":163122,"internal_node_id":"0.0-2.0-2.0"},{"group":"hexagon_bi","room_assignment":["blue","red","purple","grey","yellow","green"],"door_color_assignment":["black","white"],"door_generator_assignment":[1,0],"goal":2,"start":5,"action_noise":0,"location_history":"[5,4,5,0,1,2]","action_history":"[1,1,0,1,0]","door_history":"[0,0,1,0,1]","location_rts":"[3314,2941,2164,1636,728]","trial_type":"two-door-navigation","trial_index":5,"time_elapsed":183975,"internal_node_id":"0.0-2.0-3.0"},{"group":"hexagon_bi","room_assignment":["blue","red","purple","grey","yellow","green"],"door_color_assignment":["black","white"],"door_generator_assignment":[1,0],"goal":1,"start":2,"action_noise":0,"location_history":"[2,1]","action_history":"[0]","door_history":"[1]","location_rts":"[7399]","trial_type":"two-door-navigation","trial_index":6,"time_elapsed":197408,"internal_node_id":"0.0-2.0-4.0"},{"group":"hexagon_bi","room_assignment":["blue","red","purple","grey","yellow","green"],"door_color_assignment":["black","white"],"door_generator_assignment":[1,0],"goal":4,"start":1,"action_noise":0,"location_history":"[1,2,3,2,1,0,1,0,5,4]","action_history":"[0,1,1,0,1,1,1,0,1]","door_history":"[1,0,0,1,0,0,0,1,0]","location_rts":"[5261,777,590,565,783,482,488,1037,1034]","trial_type":"two-door-navigation","trial_index":7,"time_elapsed":221889,"internal_node_id":"0.0-2.0-5.0"},{"group":"hexagon_bi","room_assignment":["blue","red","purple","grey","yellow","green"],"door_color_assignment":["black","white"],"door_generator_assignment":[1,0],"goal":1,"start":4,"action_noise":0,"location_history":"[4,3,4,5,0,1]","action_history":"[0,0,1,0,1]","door_history":"[1,1,0,1,0]","location_rts":"[3753,1667,1034,1138,797]","trial_type":"two-door-navigation","trial_index":8,"time_elapsed":239424,"internal_node_id":"0.0-2.0-6.0"},{"group":"hexagon_bi","room_assignment":["blue","red","purple","grey","yellow","green"],"door_color_assignment":["black","white"],"door_generator_assignment":[1,0],"goal":5,"start":1,"action_noise":0,"location_history":"[1,0,5]","action_history":"[1,0]","door_history":"[0,1]","location_rts":"[3741,1034]","trial_type":"two-door-navigation","trial_index":9,"time_elapsed":250280,"internal_node_id":"0.0-2.0-7.0"},{"group":"hexagon_bi","room_assignment":["blue","red","purple","grey","yellow","green"],"door_color_assignment":["black","white"],"door_generator_assignment":[1,0],"goal":0,"start":5,"action_noise":0,"location_history":"[5,4,3,4,5,4,5,0]","action_history":"[1,0,0,1,1,1,0]","door_history":"[0,1,1,0,0,0,1]","location_rts":"[4071,848,733,684,689,1556,776]","trial_type":"two-door-navigation","trial_index":10,"time_elapsed":270900,"internal_node_id":"0.0-2.0-8.0"},{"group":"hexagon_bi","room_assignment":["blue","red","purple","grey","yellow","green"],"door_color_assignment":["black","white"],"door_generator_assignment":[1,0],"goal":2,"start":0,"action_noise":0,"location_history":"[0,5,4,5,0,5,4,3,2]","action_history":"[0,1,1,0,0,1,0,1]","door_history":"[1,0,0,1,1,0,1,0]","location_rts":"[3702,1194,1656,870,416,1098,327,434]","trial_type":"two-door-navigation","trial_index":11,"time_elapsed":293083,"internal_node_id":"0.0-2.0-9.0"},{"group":"hexagon_bi","room_assignment":["blue","red","purple","grey","yellow","green"],"door_color_assignment":["black","white"],"door_generator_assignment":[1,0],"goal":3,"start":2,"action_noise":0,"location_history":"[2,3]","action_history":"[1]","door_history":"[0]","location_rts":"[6978]","trial_type":"two-door-navigation","trial_index":12,"time_elapsed":305094,"internal_node_id":"0.0-2.0-10.0"},{"group":"hexagon_bi","room_assignment":["blue","red","purple","grey","yellow","green"],"door_color_assignment":["black","white"],"door_generator_assignment":[1,0],"goal":0,"start":3,"action_noise":0,"location_history":"[3,4,5,4,3,4,5,0]","action_history":"[0,1,1,0,0,1,0]","door_history":"[1,0,0,1,1,0,1]","location_rts":"[29699,1216,1891,883,325,791,1416]","trial_type":"two-door-navigation","trial_index":13,"time_elapsed":353271,"internal_node_id":"0.0-2.0-11.0"},{"group":"hexagon_bi","room_assignment":["blue","red","purple","grey","yellow","green"],"door_color_assignment":["black","white"],"door_generator_assignment":[1,0],"goal":2,"start":0,"action_noise":0,"location_history":"[0,5,0,1,2]","action_history":"[0,0,1,0]","door_history":"[1,1,0,1]","location_rts":"[8808,1512,658,1402]","trial_type":"two-door-navigation","trial_index":14,"time_elapsed":374025,"internal_node_id":"0.0-2.0-12.0"},{"group":"hexagon_bi","room_assignment":["blue","red","purple","grey","yellow","green"],"door_color_assignment":["black","white"],"door_generator_assignment":[1,0],"goal":5,"start":2,"action_noise":0,"location_history":"[2,1,0,1,2,1,2,1,2,3,2,1,2,3,2,1,2,3,4,5]","action_history":"[0,1,1,0,0,0,0,0,1,1,0,0,1,1,0,0,1,0,1]","door_history":"[1,0,0,1,1,1,1,1,0,0,1,1,0,0,1,1,0,1,0]","location_rts":"[5373,860,539,625,340,420,396,475,1052,1078,879,447,1041,472,940,472,886,920,1151]","trial_type":"two-door-navigation","trial_index":15,"time_elapsed":416473,"internal_node_id":"0.0-2.0-13.0"},{"group":"hexagon_bi","room_assignment":["blue","red","purple","grey","yellow","green"],"door_color_assignment":["black","white"],"door_generator_assignment":[1,0],"goal":4,"start":5,"action_noise":0,"location_history":"[5,0,5,4]","action_history":"[0,0,1]","door_history":"[1,1,0]","location_rts":"[7209,2143,792]","trial_type":"two-door-navigation","trial_index":16,"time_elapsed":433786,"internal_node_id":"0.0-2.0-14.0"},{"group":"hexagon_bi","room_assignment":["blue","red","purple","grey","yellow","green"],"door_color_assignment":["black","white"],"door_generator_assignment":[1,0],"goal":3,"start":4,"action_noise":0,"location_history":"[4,5,4,3]","action_history":"[1,1,0]","door_history":"[0,0,1]","location_rts":"[4589,1364,903]","trial_type":"two-door-navigation","trial_index":17,"time_elapsed":447824,"internal_node_id":"0.0-2.0-15.0"},{"group":"hexagon_bi","room_assignment":["blue","red","purple","grey","yellow","green"],"door_color_assignment":["black","white"],"door_generator_assignment":[1,0],"goal":1,"start":3,"action_noise":0,"location_history":"[3,4,5,4,5,0,1]","action_history":"[0,1,1,1,0,1]","door_history":"[1,0,0,0,1,0]","location_rts":"[1720,1115,582,329,936,1086]","trial_type":"two-door-navigation","trial_index":18,"time_elapsed":463801,"internal_node_id":"0.0-2.0-16.0"},{"group":"hexagon_bi","room_assignment":["blue","red","purple","grey","yellow","green"],"door_color_assignment":["black","white"],"door_generator_assignment":[1,0],"goal":5,"start":1,"action_noise":0,"location_history":"[1,0,5]","action_history":"[1,0]","door_history":"[0,1]","location_rts":"[3260,1270]","trial_type":"two-door-navigation","trial_index":19,"time_elapsed":474576,"internal_node_id":"0.0-2.0-17.0"},{"group":"hexagon_bi","room_assignment":["blue","red","purple","grey","yellow","green"],"door_color_assignment":["black","white"],"door_generator_assignment":[1,0],"goal":4,"start":5,"action_noise":0,"location_history":"[5,4]","action_history":"[1]","door_history":"[0]","location_rts":"[8263]","trial_type":"two-door-navigation","trial_index":20,"time_elapsed":487877,"internal_node_id":"0.0-2.0-18.0"},{"group":"hexagon_bi","room_assignment":["blue","red","purple","grey","yellow","green"],"door_color_assignment":["black","white"],"door_generator_assignment":[1,0],"goal":0,"start":4,"action_noise":0,"location_history":"[4,3,2,1,2,3,2,3,4,3,2,1,2,3,4,3,4,5,0]","action_history":"[0,1,0,0,1,1,1,0,0,1,0,0,1,0,0,0,1,0]","door_history":"[1,0,1,1,0,0,0,1,1,0,1,1,0,1,1,1,0,1]","location_rts":"[3726,816,902,1085,706,467,539,503,665,349,494,627,613,528,486,408,358,1111]","trial_type":"two-door-navigation","trial_index":21,"time_elapsed":525286,"internal_node_id":"0.0-2.0-19.0"},{"group":"hexagon_bi","room_assignment":["blue","red","purple","grey","yellow","green"],"door_color_assignment":["black","white"],"door_generator_assignment":[1,0],"goal":1,"start":0,"action_noise":0,"location_history":"[0,5,4,5,4,3,4,5,4,3,4,5,4,3,4,3,2,1]","action_history":"[0,1,1,1,0,0,1,1,0,0,1,1,0,0,0,1,0]","door_history":"[1,0,0,0,1,1,0,0,1,1,0,0,1,1,1,0,1]","location_rts":"[5778,893,437,636,716,1062,445,522,435,437,1076,2118,784,461,443,2432,21566]","trial_type":"two-door-navigation","trial_index":22,"time_elapsed":587883,"internal_node_id":"0.0-2.0-20.0"},{"group":"hexagon_bi","room_assignment":["blue","red","purple","grey","yellow","green"],"door_color_assignment":["black","white"],"door_generator_assignment":[1,0],"goal":3,"start":1,"action_noise":0,"location_history":"[1,0,1,2,3]","action_history":"[1,1,0,1]","door_history":"[0,0,1,0]","location_rts":"[5457,1359,897,1400]","trial_type":"two-door-navigation","trial_index":23,"time_elapsed":605274,"internal_node_id":"0.0-2.0-21.0"},{"group":"hexagon_bi","room_assignment":["blue","red","purple","grey","yellow","green"],"door_color_assignment":["black","white"],"door_generator_assignment":[1,0],"goal":2,"start":3,"action_noise":0,"location_history":"[3,4,3,2]","action_history":"[0,0,1]","door_history":"[1,1,0]","location_rts":"[1811,1455,614]","trial_type":"two-door-navigation","trial_index":24,"time_elapsed":616265,"internal_node_id":"0.0-2.0-22.0"},{"group":"hexagon_bi","room_assignment":["blue","red","purple","grey","yellow","green"],"door_color_assignment":["black","white"],"door_generator_assignment":[1,0],"goal":0,"start":2,"action_noise":0,"location_history":"[2,1,2,3,4,5,4,5,0]","action_history":"[0,0,1,0,1,1,1,0]","door_history":"[1,1,0,1,0,0,0,1]","location_rts":"[2097,1071,399,1225,777,477,1637,348]","trial_type":"two-door-navigation","trial_index":25,"time_elapsed":636627,"internal_node_id":"0.0-2.0-23.0"},{"group":"hexagon_bi","room_assignment":["blue","red","purple","grey","yellow","green"],"door_color_assignment":["black","white"],"door_generator_assignment":[1,0],"goal":3,"start":0,"action_noise":0,"location_history":"[0,1,0,5,4,5,0,5,0,1,0,5,0,1,0,5,0,5,4,5,4,3]","action_history":"[1,1,0,1,1,0,0,0,1,1,0,0,1,1,0,0,0,1,1,1,0]","door_history":"[0,0,1,0,0,1,1,1,0,0,1,1,0,0,1,1,1,0,0,0,1]","location_rts":"[4154,824,349,1090,1421,794,1269,700,291,577,753,660,332,922,1013,899,1380,893,785,829,279]","trial_type":"two-door-navigation","trial_index":26,"time_elapsed":683020,"internal_node_id":"0.0-2.0-24.0"},{"group":"hexagon_bi","room_assignment":["blue","red","purple","grey","yellow","green"],"door_color_assignment":["black","white"],"door_generator_assignment":[1,0],"goal":1,"start":3,"action_noise":0,"location_history":"[3,2,3,4,5,0,5,4,5,0,5,4,5,0,5,4,5,4,3,2,1]","action_history":"[1,1,0,1,0,0,1,1,0,0,1,1,0,0,1,1,1,0,1,0]","door_history":"[0,0,1,0,1,1,0,0,1,1,0,0,1,1,0,0,0,1,0,1]","location_rts":"[2713,619,341,1862,994,775,598,331,455,585,689,698,1823,757,437,421,432,377,2056,1343]","trial_type":"two-door-navigation","trial_index":27,"time_elapsed":726333,"internal_node_id":"0.0-2.0-25.0"},{"group":"hexagon_bi","room_assignment":["blue","red","purple","grey","yellow","green"],"door_color_assignment":["black","white"],"door_generator_assignment":[1,0],"goal":2,"start":1,"action_noise":0,"location_history":"[1,2]","action_history":"[0]","door_history":"[1]","location_rts":"[6075]","trial_type":"two-door-navigation","trial_index":28,"time_elapsed":737444,"internal_node_id":"0.0-2.0-26.0"},{"group":"hexagon_bi","room_assignment":["blue","red","purple","grey","yellow","green"],"door_color_assignment":["black","white"],"door_generator_assignment":[1,0],"goal":5,"start":2,"action_noise":0,"location_history":"[2,3,2,1,0,5]","action_history":"[1,1,0,1,0]","door_history":"[0,0,1,0,1]","location_rts":"[2404,1836,397,1141,1387]","trial_type":"two-door-navigation","trial_index":29,"time_elapsed":753784,"internal_node_id":"0.0-2.0-27.0"},{"group":"hexagon_bi","room_assignment":["blue","red","purple","grey","yellow","green"],"door_color_assignment":["black","white"],"door_generator_assignment":[1,0],"goal":4,"start":5,"action_noise":0,"location_history":"[5,0,5,4]","action_history":"[0,0,1]","door_history":"[1,1,0]","location_rts":"[3794,990,315]","trial_type":"two-door-navigation","trial_index":30,"time_elapsed":765988,"internal_node_id":"0.0-2.0-28.0"},{"group":"hexagon_bi","room_assignment":["blue","red","purple","grey","yellow","green"],"door_color_assignment":["black","white"],"door_generator_assignment":[1,0],"goal":5,"start":4,"action_noise":0,"location_history":"[4,5]","action_history":"[1]","door_history":"[0]","location_rts":"[4805]","trial_type":"two-door-navigation","trial_index":31,"time_elapsed":775838,"internal_node_id":"0.0-2.0-29.0"},{"group":"hexagon_bi","room_assignment":["blue","red","purple","grey","yellow","green"],"door_color_assignment":["black","white"],"door_generator_assignment":[1,0],"goal":3,"start":5,"action_noise":0,"location_history":"[5,0,5,4,3]","action_history":"[0,0,1,0]","door_history":"[1,1,0,1]","location_rts":"[3625,419,254,1207]","trial_type":"two-door-navigation","trial_index":32,"time_elapsed":789504,"internal_node_id":"0.0-2.0-30.0"},{"group":"hexagon_bi","room_assignment":["blue","red","purple","grey","yellow","green"],"door_color_assignment":["black","white"],"door_generator_assignment":[1,0],"goal":0,"start":3,"action_noise":0,"location_history":"[3,2,3,4,5,0]","action_history":"[1,1,0,1,0]","door_history":"[0,0,1,0,1]","location_rts":"[2824,980,339,928,741]","trial_type":"two-door-navigation","trial_index":33,"time_elapsed":804553,"internal_node_id":"0.0-2.0-31.0"},{"group":"hexagon_bi","room_assignment":["blue","red","purple","grey","yellow","green"],"door_color_assignment":["black","white"],"door_generator_assignment":[1,0],"goal":4,"start":0,"action_noise":0,"location_history":"[0,5,0,1,2,3,4]","action_history":"[0,0,1,0,1,0]","door_history":"[1,1,0,1,0,1]","location_rts":"[2331,427,292,437,764,926]","trial_type":"two-door-navigation","trial_index":34,"time_elapsed":820039,"internal_node_id":"0.0-2.0-32.0"},{"group":"hexagon_bi","room_assignment":["blue","red","purple","grey","yellow","green"],"door_color_assignment":["black","white"],"door_generator_assignment":[1,0],"goal":1,"start":4,"action_noise":0,"location_history":"[4,3,4,5,0,1]","action_history":"[0,0,1,0,1]","door_history":"[1,1,0,1,0]","location_rts":"[1896,362,327,1182,740]","trial_type":"two-door-navigation","trial_index":35,"time_elapsed":833729,"internal_node_id":"0.0-2.0-33.0"},{"group":"hexagon_bi","room_assignment":["blue","red","purple","grey","yellow","green"],"door_color_assignment":["black","white"],"door_generator_assignment":[1,0],"goal":2,"start":1,"action_noise":0,"location_history":"[1,2]","action_history":"[0]","door_history":"[1]","location_rts":"[7130]","trial_type":"two-door-navigation","trial_index":36,"time_elapsed":845899,"internal_node_id":"0.0-2.0-34.0"},{"group":"hexagon_bi","room_assignment":["blue","red","purple","grey","yellow","green"],"door_color_assignment":["black","white"],"door_generator_assignment":[1,0],"goal":0,"start":2,"action_noise":0,"location_history":"[2,1,2,3,4,5,0]","action_history":"[0,0,1,0,1,0]","door_history":"[1,1,0,1,0,1]","location_rts":"[3044,487,303,717,407,464]","trial_type":"two-door-navigation","trial_index":37,"time_elapsed":861545,"internal_node_id":"0.0-2.0-35.0"},{"group":"hexagon_bi","room_assignment":["blue","red","purple","grey","yellow","green"],"door_color_assignment":["black","white"],"door_generator_assignment":[1,0],"goal":5,"start":0,"action_noise":0,"location_history":"[0,1,0,5]","action_history":"[1,1,0]","door_history":"[0,0,1]","location_rts":"[1785,742,330]","trial_type":"two-door-navigation","trial_index":38,"time_elapsed":871590,"internal_node_id":"0.0-2.0-36.0"},{"group":"hexagon_bi","room_assignment":["blue","red","purple","grey","yellow","green"],"door_color_assignment":["black","white"],"door_generator_assignment":[1,0],"goal":2,"start":5,"action_noise":0,"location_history":"[5,4,5,0,1,2]","action_history":"[1,1,0,1,0]","door_history":"[0,0,1,0,1]","location_rts":"[2701,910,295,807,493]","trial_type":"two-door-navigation","trial_index":39,"time_elapsed":885969,"internal_node_id":"0.0-2.0-37.0"},{"group":"hexagon_bi","room_assignment":["blue","red","purple","grey","yellow","green"],"door_color_assignment":["black","white"],"door_generator_assignment":[1,0],"goal":1,"start":2,"action_noise":0,"location_history":"[2,1]","action_history":"[0]","door_history":"[1]","location_rts":"[1751]","trial_type":"two-door-navigation","trial_index":40,"time_elapsed":892895,"internal_node_id":"0.0-2.0-38.0"},{"group":"hexagon_bi","room_assignment":["blue","red","purple","grey","yellow","green"],"door_color_assignment":["black","white"],"door_generator_assignment":[1,0],"goal":4,"start":1,"action_noise":0,"location_history":"[1,2,1,0,5,4]","action_history":"[0,0,1,0,1]","door_history":"[1,1,0,1,0]","location_rts":"[3233,1076,246,475,410]","trial_type":"two-door-navigation","trial_index":41,"time_elapsed":907607,"internal_node_id":"0.0-2.0-39.0"},{"group":"hexagon_bi","room_assignment":["blue","red","purple","grey","yellow","green"],"door_color_assignment":["black","white"],"door_generator_assignment":[1,0],"goal":3,"start":4,"action_noise":0,"location_history":"[4,3]","action_history":"[0]","door_history":"[1]","location_rts":"[4979]","trial_type":"two-door-navigation","trial_index":42,"time_elapsed":917667,"internal_node_id":"0.0-2.0-40.0"},{"group":"hexagon_bi","room_assignment":["blue","red","purple","grey","yellow","green"],"door_color_assignment":["black","white"],"door_generator_assignment":[1,0],"goal":5,"start":3,"action_noise":0,"location_history":"[3,2,1,0,5]","action_history":"[1,0,1,0]","door_history":"[0,1,0,1]","location_rts":"[2503,964,682,473]","trial_type":"two-door-navigation","trial_index":43,"time_elapsed":930643,"internal_node_id":"0.0-2.0-41.0"},{"group":"hexagon_bi","room_assignment":["blue","red","purple","grey","yellow","green"],"door_color_assignment":["black","white"],"door_generator_assignment":[1,0],"goal":3,"start":5,"action_noise":0,"location_history":"[5,0,1,2,3]","action_history":"[0,1,0,1]","door_history":"[1,0,1,0]","location_rts":"[2186,825,344,314]","trial_type":"two-door-navigation","trial_index":44,"time_elapsed":942515,"internal_node_id":"0.0-2.0-42.0"},{"group":"hexagon_bi","room_assignment":["blue","red","purple","grey","yellow","green"],"door_color_assignment":["black","white"],"door_generator_assignment":[1,0],"goal":0,"start":3,"action_noise":0,"location_history":"[3,4,5,0]","action_history":"[0,1,0]","door_history":"[1,0,1]","location_rts":"[2380,831,435]","trial_type":"two-door-navigation","trial_index":45,"time_elapsed":953253,"internal_node_id":"0.0-2.0-43.0"},{"group":"hexagon_bi","room_assignment":["blue","red","purple","grey","yellow","green"],"door_color_assignment":["black","white"],"door_generator_assignment":[1,0],"goal":2,"start":0,"action_noise":0,"location_history":"[0,1,2]","action_history":"[1,0]","door_history":"[0,1]","location_rts":"[2169,1107]","trial_type":"two-door-navigation","trial_index":46,"time_elapsed":962664,"internal_node_id":"0.0-2.0-44.0"},{"group":"hexagon_bi","room_assignment":["blue","red","purple","grey","yellow","green"],"door_color_assignment":["black","white"],"door_generator_assignment":[1,0],"goal":4,"start":2,"action_noise":0,"location_history":"[2,1,0,5,4]","action_history":"[0,1,0,1]","door_history":"[1,0,1,0]","location_rts":"[2293,811,690,404]","trial_type":"two-door-navigation","trial_index":47,"time_elapsed":975061,"internal_node_id":"0.0-2.0-45.0"},{"group":"hexagon_bi","room_assignment":["blue","red","purple","grey","yellow","green"],"door_color_assignment":["black","white"],"door_generator_assignment":[1,0],"goal":1,"start":4,"action_noise":0,"location_history":"[4,5,0,1]","action_history":"[1,0,1]","door_history":"[0,1,0]","location_rts":"[2194,435,414]","trial_type":"two-door-navigation","trial_index":48,"time_elapsed":985472,"internal_node_id":"0.0-2.0-46.0"},{"group":"hexagon_bi","room_assignment":["blue","red","purple","grey","yellow","green"],"door_color_assignment":["black","white"],"door_generator_assignment":[1,0],"goal":4,"start":1,"action_noise":0,"location_history":"[1,2,3,4]","action_history":"[0,1,0]","door_history":"[1,0,1]","location_rts":"[1984,729,370]","trial_type":"two-door-navigation","trial_index":49,"time_elapsed":995660,"internal_node_id":"0.0-2.0-47.0"},{"group":"hexagon_bi","room_assignment":["blue","red","purple","grey","yellow","green"],"door_color_assignment":["black","white"],"door_generator_assignment":[1,0],"goal":3,"start":4,"action_noise":0,"location_history":"[4,5,0,1,2,3]","action_history":"[1,0,1,0,1]","door_history":"[0,1,0,1,0]","location_rts":"[2294,783,679,732,643]","trial_type":"two-door-navigation","trial_index":50,"time_elapsed":1010111,"internal_node_id":"0.0-2.0-48.0"},{"group":"hexagon_bi","room_assignment":["blue","red","purple","grey","yellow","green"],"door_color_assignment":["black","white"],"door_generator_assignment":[1,0],"goal":5,"start":3,"action_noise":0,"location_history":"[3,2,1,0,5]","action_history":"[1,0,1,0]","door_history":"[0,1,0,1]","location_rts":"[1670,824,372,429]","trial_type":"two-door-navigation","trial_index":51,"time_elapsed":1021926,"internal_node_id":"0.0-2.0-49.0"},{"view_history":"[{\"page_index\":0,\"viewing_time\":22957}]","rt":22958,"trial_type":"instructions","trial_index":52,"time_elapsed":1045996,"internal_node_id":"0.0-3.0"},{"view_history":"[{\"page_index\":0,\"viewing_time\":2511},{\"page_index\":1,\"viewing_time\":38341}]","rt":40854,"trial_type":"instructions","trial_index":53,"time_elapsed":1087852,"internal_node_id":"0.0-4.0"},{"group":"hexagon_tri","fractal_assignment":["../images/pnk_blu.png","../images/gry_blk.png","../images/org_blu.png","../images/cyn_red.png","../images/blu_wht.png","../images/ylw_slt.png"],"mutagen_generator_assignment":[1,0],"goal":4,"start":0,"action_noise":0,"location_history":"[0,5,0,1,3,2,1,5,0,5,4]","action_history":"[0,1,1,0,0,0,1,1,0,0]","mutagen_history":"[1,0,0,1,1,1,0,0,1,1]","location_rts":"[9293,6374,3051,1785,2693,607,795,1068,621,1396]","trial_type":"fractal-mutation","trial_index":54,"time_elapsed":1130572,"internal_node_id":"0.0-5.0-0.0"},{"group":"hexagon_tri","fractal_assignment":["../images/pnk_blu.png","../images/gry_blk.png","../images/org_blu.png","../images/cyn_red.png","../images/blu_wht.png","../images/ylw_slt.png"],"mutagen_generator_assignment":[1,0],"goal":3,"start":4,"action_noise":0,"location_history":"[4,0,1,3]","action_history":"[0,1,0]","mutagen_history":"[1,0,1]","location_rts":"[2920,1824,1298]","trial_type":"fractal-mutation","trial_index":55,"time_elapsed":1144213,"internal_node_id":"0.0-5.0-1.0"},{"group":"hexagon_tri","fractal_assignment":["../images/pnk_blu.png","../images/gry_blk.png","../images/org_blu.png","../images/cyn_red.png","../images/blu_wht.png","../images/ylw_slt.png"],"mutagen_generator_assignment":[1,0],"goal":5,"start":3,"action_noise":0,"location_history":"[3,2,3,4,0,5]","action_history":"[0,1,1,0,0]","mutagen_history":"[1,0,0,1,1]","location_rts":"[2449,1388,1559,678,897]","trial_type":"fractal-mutation","trial_index":56,"time_elapsed":1160748,"internal_node_id":"0.0-5.0-2.0"},{"group":"hexagon_tri","fractal_assignment":["../images/pnk_blu.png","../images/gry_blk.png","../images/org_blu.png","../images/cyn_red.png","../images/blu_wht.png","../images/ylw_slt.png"],"mutagen_generator_assignment":[1,0],"goal":2,"start":5,"action_noise":0,"location_history":"[5,4,0,1,5,4,0,1,3,4,0,5,0,1,5,0,1,3,2]","action_history":"[0,0,1,1,0,0,1,0,1,0,0,1,1,1,1,1,0,0]","mutagen_history":"[1,1,0,0,1,1,0,1,0,1,1,0,0,0,0,0,1,1]","location_rts":"[3477,1357,856,1214,825,1012,731,863,1769,986,578,1379,1016,1930,896,970,334,476]","trial_type":"fractal-mutation","trial_index":57,"time_elapsed":1205367,"internal_node_id":"0.0-5.0-3.0"},{"group":"hexagon_tri","fractal_assignment":["../images/pnk_blu.png","../images/gry_blk.png","../images/org_blu.png","../images/cyn_red.png","../images/blu_wht.png","../images/ylw_slt.png"],"mutagen_generator_assignment":[1,0],"goal":1,"start":2,"action_noise":0,"location_history":"[2,1]","action_history":"[0]","mutagen_history":"[1]","location_rts":"[5310]","trial_type":"fractal-mutation","trial_index":58,"time_elapsed":1215836,"internal_node_id":"0.0-5.0-4.0"},{"group":"hexagon_tri","fractal_assignment":["../images/pnk_blu.png","../images/gry_blk.png","../images/org_blu.png","../images/cyn_red.png","../images/blu_wht.png","../images/ylw_slt.png"],"mutagen_generator_assignment":[1,0],"goal":4,"start":1,"action_noise":0,"location_history":"[1,3,4]","action_history":"[0,1]","mutagen_history":"[1,0]","location_rts":"[19804,1869]","trial_type":"fractal-mutation","trial_index":59,"time_elapsed":1243972,"internal_node_id":"0.0-5.0-5.0"},{"group":"hexagon_tri","fractal_assignment":["../images/pnk_blu.png","../images/gry_blk.png","../images/org_blu.png","../images/cyn_red.png","../images/blu_wht.png","../images/ylw_slt.png"],"mutagen_generator_assignment":[1,0],"goal":1,"start":4,"action_noise":0,"location_history":"[4,2,1]","action_history":"[1,0]","mutagen_history":"[0,1]","location_rts":"[3454,1290]","trial_type":"fractal-mutation","trial_index":60,"time_elapsed":1254944,"internal_node_id":"0.0-5.0-6.0"},{"group":"hexagon_tri","fractal_assignment":["../images/pnk_blu.png","../images/gry_blk.png","../images/org_blu.png","../images/cyn_red.png","../images/blu_wht.png","../images/ylw_slt.png"],"mutagen_generator_assignment":[1,0],"goal":5,"start":1,"action_noise":0,"location_history":"[1,3,4,0,1,5]","action_history":"[0,1,0,1,1]","mutagen_history":"[1,0,1,0,0]","location_rts":"[3451,954,1248,949,917]","trial_type":"fractal-mutation","trial_index":61,"time_elapsed":1272160,"internal_node_id":"0.0-5.0-7.0"},{"group":"hexagon_tri","fractal_assignment":["../images/pnk_blu.png","../images/gry_blk.png","../images/org_blu.png","../images/cyn_red.png","../images/blu_wht.png","../images/ylw_slt.png"],"mutagen_generator_assignment":[1,0],"goal":0,"start":5,"action_noise":0,"location_history":"[5,4,2,3,4,0]","action_history":"[0,1,1,1,0]","mutagen_history":"[1,0,0,0,1]","location_rts":"[9357,1833,1108,539,2214]","trial_type":"fractal-mutation","trial_index":62,"time_elapsed":1296925,"internal_node_id":"0.0-5.0-8.0"},{"group":"hexagon_tri","fractal_assignment":["../images/pnk_blu.png","../images/gry_blk.png","../images/org_blu.png","../images/cyn_red.png","../images/blu_wht.png","../images/ylw_slt.png"],"mutagen_generator_assignment":[1,0],"goal":2,"start":0,"action_noise":0,"location_history":"[0,1,3,2]","action_history":"[1,0,0]","mutagen_history":"[0,1,1]","location_rts":"[4100,1521,920]","trial_type":"fractal-mutation","trial_index":63,"time_elapsed":1311204,"internal_node_id":"0.0-5.0-9.0"},{"group":"hexagon_tri","fractal_assignment":["../images/pnk_blu.png","../images/gry_blk.png","../images/org_blu.png","../images/cyn_red.png","../images/blu_wht.png","../images/ylw_slt.png"],"mutagen_generator_assignment":[1,0],"goal":3,"start":2,"action_noise":0,"location_history":"[2,3]","action_history":"[1]","mutagen_history":"[0]","location_rts":"[14688]","trial_type":"fractal-mutation","trial_index":64,"time_elapsed":1331000,"internal_node_id":"0.0-5.0-10.0"},{"group":"hexagon_tri","fractal_assignment":["../images/pnk_blu.png","../images/gry_blk.png","../images/org_blu.png","../images/cyn_red.png","../images/blu_wht.png","../images/ylw_slt.png"],"mutagen_generator_assignment":[1,0],"goal":0,"start":3,"action_noise":0,"location_history":"[3,2,3,2,1,5,4,2,1,5,4,0]","action_history":"[0,1,0,0,1,0,1,0,1,0,0]","mutagen_history":"[1,0,1,1,0,1,0,1,0,1,1]","location_rts":"[13728,1515,1019,443,988,1602,1146,32699,32959,1050,626]","trial_type":"fractal-mutation","trial_index":65,"time_elapsed":1435203,"internal_node_id":"0.0-5.0-11.0"},{"group":"hexagon_tri","fractal_assignment":["../images/pnk_blu.png","../images/gry_blk.png","../images/org_blu.png","../images/cyn_red.png","../images/blu_wht.png","../images/ylw_slt.png"],"mutagen_generator_assignment":[1,0],"goal":2,"start":0,"action_noise":0,"location_history":"[0,1,3,2]","action_history":"[1,0,0]","mutagen_history":"[0,1,1]","location_rts":"[5043,1010,900]","trial_type":"fractal-mutation","trial_index":66,"time_elapsed":1449463,"internal_node_id":"0.0-5.0-12.0"},{"group":"hexagon_tri","fractal_assignment":["../images/pnk_blu.png","../images/gry_blk.png","../images/org_blu.png","../images/cyn_red.png","../images/blu_wht.png","../images/ylw_slt.png"],"mutagen_generator_assignment":[1,0],"goal":5,"start":2,"action_noise":0,"location_history":"[2,1,5]","action_history":"[0,1]","mutagen_history":"[1,0]","location_rts":"[7462,2143]","trial_type":"fractal-mutation","trial_index":67,"time_elapsed":1465309,"internal_node_id":"0.0-5.0-13.0"},{"group":"hexagon_tri","fractal_assignment":["../images/pnk_blu.png","../images/gry_blk.png","../images/org_blu.png","../images/cyn_red.png","../images/blu_wht.png","../images/ylw_slt.png"],"mutagen_generator_assignment":[1,0],"goal":4,"start":5,"action_noise":0,"location_history":"[5,4]","action_history":"[0]","mutagen_history":"[1]","location_rts":"[2892]","trial_type":"fractal-mutation","trial_index":68,"time_elapsed":1473308,"internal_node_id":"0.0-5.0-14.0"},{"group":"hexagon_tri","fractal_assignment":["../images/pnk_blu.png","../images/gry_blk.png","../images/org_blu.png","../images/cyn_red.png","../images/blu_wht.png","../images/ylw_slt.png"],"mutagen_generator_assignment":[1,0],"goal":3,"start":4,"action_noise":0,"location_history":"[4,2,1,3]","action_history":"[1,0,0]","mutagen_history":"[0,1,1]","location_rts":"[3462,1099,1223]","trial_type":"fractal-mutation","trial_index":69,"time_elapsed":1486401,"internal_node_id":"0.0-5.0-15.0"},{"group":"hexagon_tri","fractal_assignment":["../images/pnk_blu.png","../images/gry_blk.png","../images/org_blu.png","../images/cyn_red.png","../images/blu_wht.png","../images/ylw_slt.png"],"mutagen_generator_assignment":[1,0],"goal":1,"start":3,"action_noise":0,"location_history":"[3,2,3,2,1]","action_history":"[0,1,0,0]","mutagen_history":"[1,0,1,1]","location_rts":"[17728,1126,1045,438]","trial_type":"fractal-mutation","trial_index":70,"time_elapsed":1515100,"internal_node_id":"0.0-5.0-16.0"},{"group":"hexagon_tri","fractal_assignment":["../images/pnk_blu.png","../images/gry_blk.png","../images/org_blu.png","../images/cyn_red.png","../images/blu_wht.png","../images/ylw_slt.png"],"mutagen_generator_assignment":[1,0],"goal":5,"start":1,"action_noise":0,"location_history":"[1,5]","action_history":"[1]","mutagen_history":"[0]","location_rts":"[1944]","trial_type":"fractal-mutation","trial_index":71,"time_elapsed":1522155,"internal_node_id":"0.0-5.0-17.0"},{"group":"hexagon_tri","fractal_assignment":["../images/pnk_blu.png","../images/gry_blk.png","../images/org_blu.png","../images/cyn_red.png","../images/blu_wht.png","../images/ylw_slt.png"],"mutagen_generator_assignment":[1,0],"goal":4,"start":5,"action_noise":0,"location_history":"[5,4]","action_history":"[0]","mutagen_history":"[1]","location_rts":"[1720]","trial_type":"fractal-mutation","trial_index":72,"time_elapsed":1528998,"internal_node_id":"0.0-5.0-18.0"},{"group":"hexagon_tri","fractal_assignment":["../images/pnk_blu.png","../images/gry_blk.png","../images/org_blu.png","../images/cyn_red.png","../images/blu_wht.png","../images/ylw_slt.png"],"mutagen_generator_assignment":[1,0],"goal":0,"start":4,"action_noise":0,"location_history":"[4,0]","action_history":"[0]","mutagen_history":"[1]","location_rts":"[2329]","trial_type":"fractal-mutation","trial_index":73,"time_elapsed":1536420,"internal_node_id":"0.0-5.0-19.0"},{"group":"hexagon_tri","fractal_assignment":["../images/pnk_blu.png","../images/gry_blk.png","../images/org_blu.png","../images/cyn_red.png","../images/blu_wht.png","../images/ylw_slt.png"],"mutagen_generator_assignment":[1,0],"goal":1,"start":0,"action_noise":0,"location_history":"[0,1]","action_history":"[1]","mutagen_history":"[0]","location_rts":"[1989]","trial_type":"fractal-mutation","trial_index":74,"time_elapsed":1543503,"internal_node_id":"0.0-5.0-20.0"},{"group":"hexagon_tri","fractal_assignment":["../images/pnk_blu.png","../images/gry_blk.png","../images/org_blu.png","../images/cyn_red.png","../images/blu_wht.png","../images/ylw_slt.png"],"mutagen_generator_assignment":[1,0],"goal":3,"start":1,"action_noise":0,"location_history":"[1,3]","action_history":"[0]","mutagen_history":"[1]","location_rts":"[1723]","trial_type":"fractal-mutation","trial_index":75,"time_elapsed":1550336,"internal_node_id":"0.0-5.0-21.0"},{"group":"hexagon_tri","fractal_assignment":["../images/pnk_blu.png","../images/gry_blk.png","../images/org_blu.png","../images/cyn_red.png","../images/blu_wht.png","../images/ylw_slt.png"],"mutagen_generator_assignment":[1,0],"goal":2,"start":3,"action_noise":0,"location_history":"[3,4,0,5,0,5,4,2]","action_history":"[1,0,0,1,0,0,1]","mutagen_history":"[0,1,1,0,1,1,0]","location_rts":"[2747,1006,635,992,1115,507,1002]","trial_type":"fractal-mutation","trial_index":76,"time_elapsed":1569971,"internal_node_id":"0.0-5.0-22.0"},{"group":"hexagon_tri","fractal_assignment":["../images/pnk_blu.png","../images/gry_blk.png","../images/org_blu.png","../images/cyn_red.png","../images/blu_wht.png","../images/ylw_slt.png"],"mutagen_generator_assignment":[1,0],"goal":0,"start":2,"action_noise":0,"location_history":"[2,1,5,0]","action_history":"[0,1,1]","mutagen_history":"[1,0,0]","location_rts":"[3791,841,1022]","trial_type":"fractal-mutation","trial_index":77,"time_elapsed":1582875,"internal_node_id":"0.0-5.0-23.0"},{"group":"hexagon_tri","fractal_assignment":["../images/pnk_blu.png","../images/gry_blk.png","../images/org_blu.png","../images/cyn_red.png","../images/blu_wht.png","../images/ylw_slt.png"],"mutagen_generator_assignment":[1,0],"goal":3,"start":0,"action_noise":0,"location_history":"[0,5,0,1,3]","action_history":"[0,1,1,0]","mutagen_history":"[1,0,0,1]","location_rts":"[3363,806,1233,814]","trial_type":"fractal-mutation","trial_index":78,"time_elapsed":1597483,"internal_node_id":"0.0-5.0-24.0"},{"group":"hexagon_tri","fractal_assignment":["../images/pnk_blu.png","../images/gry_blk.png","../images/org_blu.png","../images/cyn_red.png","../images/blu_wht.png","../images/ylw_slt.png"],"mutagen_generator_assignment":[1,0],"goal":1,"start":3,"action_noise":0,"location_history":"[3,2,3,4,0,5,0,5,4,0,5,4,2,1]","action_history":"[0,1,1,0,0,1,0,0,0,0,0,1,0]","mutagen_history":"[1,0,0,1,1,0,1,1,1,1,1,0,1]","location_rts":"[2612,1119,1197,1308,1684,1440,2509,360,909,1138,1064,677,1226]","trial_type":"fractal-mutation","trial_index":79,"time_elapsed":1633023,"internal_node_id":"0.0-5.0-25.0"},{"group":"hexagon_tri","fractal_assignment":["../images/pnk_blu.png","../images/gry_blk.png","../images/org_blu.png","../images/cyn_red.png","../images/blu_wht.png","../images/ylw_slt.png"],"mutagen_generator_assignment":[1,0],"goal":2,"start":1,"action_noise":0,"location_history":"[1,5,4,0,1,3,4,0,5,0,1,3,4,2]","action_history":"[1,0,0,1,0,1,0,0,1,1,0,1,1]","mutagen_history":"[0,1,1,0,1,0,1,1,0,0,1,0,0]","location_rts":"[5027,1240,481,975,2601,1794,1368,565,734,440,1634,777,541]","trial_type":"fractal-mutation","trial_index":80,"time_elapsed":1669637,"internal_node_id":"0.0-5.0-26.0"},{"group":"hexagon_tri","fractal_assignment":["../images/pnk_blu.png","../images/gry_blk.png","../images/org_blu.png","../images/cyn_red.png","../images/blu_wht.png","../images/ylw_slt.png"],"mutagen_generator_assignment":[1,0],"goal":5,"start":2,"action_noise":0,"location_history":"[2,1,5]","action_history":"[0,1]","mutagen_history":"[1,0]","location_rts":"[1957,850]","trial_type":"fractal-mutation","trial_index":81,"time_elapsed":1678622,"internal_node_id":"0.0-5.0-27.0"},{"group":"hexagon_tri","fractal_assignment":["../images/pnk_blu.png","../images/gry_blk.png","../images/org_blu.png","../images/cyn_red.png","../images/blu_wht.png","../images/ylw_slt.png"],"mutagen_generator_assignment":[1,0],"goal":4,"start":5,"action_noise":0,"location_history":"[5,0,5,4]","action_history":"[1,0,0]","mutagen_history":"[0,1,1]","location_rts":"[2604,706,620]","trial_type":"fractal-mutation","trial_index":82,"time_elapsed":1689929,"internal_node_id":"0.0-5.0-28.0"},{"group":"hexagon_tri","fractal_assignment":["../images/pnk_blu.png","../images/gry_blk.png","../images/org_blu.png","../images/cyn_red.png","../images/blu_wht.png","../images/ylw_slt.png"],"mutagen_generator_assignment":[1,0],"goal":5,"start":4,"action_noise":0,"location_history":"[4,0,1,3,4,2,1,5]","action_history":"[0,1,0,1,1,0,1]","mutagen_history":"[1,0,1,0,0,1,0]","location_rts":"[2320,801,1008,1004,425,1132,1040]","trial_type":"fractal-mutation","trial_index":83,"time_elapsed":1709669,"internal_node_id":"0.0-5.0-29.0"},{"group":"hexagon_tri","fractal_assignment":["../images/pnk_blu.png","../images/gry_blk.png","../images/org_blu.png","../images/cyn_red.png","../images/blu_wht.png","../images/ylw_slt.png"],"mutagen_generator_assignment":[1,0],"goal":3,"start":5,"action_noise":0,"location_history":"[5,0,5,4,2,1,5,0,1,3]","action_history":"[1,0,0,1,0,1,1,1,0]","mutagen_history":"[0,1,1,0,1,0,0,0,1]","location_rts":"[3305,806,494,1230,1116,926,912,656,4466]","trial_type":"fractal-mutation","trial_index":84,"time_elapsed":1737893,"internal_node_id":"0.0-5.0-30.0"},{"group":"hexagon_tri","fractal_assignment":["../images/pnk_blu.png","../images/gry_blk.png","../images/org_blu.png","../images/cyn_red.png","../images/blu_wht.png","../images/ylw_slt.png"],"mutagen_generator_assignment":[1,0],"goal":0,"start":3,"action_noise":0,"location_history":"[3,4,2,1,3,2,3,4,0]","action_history":"[1,1,0,0,0,1,1,0]","mutagen_history":"[0,0,1,1,1,0,0,1]","location_rts":"[2389,836,1544,794,2118,918,965,754]","trial_type":"fractal-mutation","trial_index":85,"time_elapsed":1760998,"internal_node_id":"0.0-5.0-31.0"},{"group":"hexagon_tri","fractal_assignment":["../images/pnk_blu.png","../images/gry_blk.png","../images/org_blu.png","../images/cyn_red.png","../images/blu_wht.png","../images/ylw_slt.png"],"mutagen_generator_assignment":[1,0],"goal":4,"start":0,"action_noise":0,"location_history":"[0,5,0,1,3,2,3,4]","action_history":"[0,1,1,0,0,1,1]","mutagen_history":"[1,0,0,1,1,0,0]","location_rts":"[2618,833,937,849,1733,769,1044]","trial_type":"fractal-mutation","trial_index":86,"time_elapsed":1781636,"internal_node_id":"0.0-5.0-32.0"},{"group":"hexagon_tri","fractal_assignment":["../images/pnk_blu.png","../images/gry_blk.png","../images/org_blu.png","../images/cyn_red.png","../images/blu_wht.png","../images/ylw_slt.png"],"mutagen_generator_assignment":[1,0],"goal":1,"start":4,"action_noise":0,"location_history":"[4,0,1]","action_history":"[0,1]","mutagen_history":"[1,0]","location_rts":"[1989,804]","trial_type":"fractal-mutation","trial_index":87,"time_elapsed":1790955,"internal_node_id":"0.0-5.0-33.0"},{"group":"hexagon_tri","fractal_assignment":["../images/pnk_blu.png","../images/gry_blk.png","../images/org_blu.png","../images/cyn_red.png","../images/blu_wht.png","../images/ylw_slt.png"],"mutagen_generator_assignment":[1,0],"goal":2,"start":1,"action_noise":0,"location_history":"[1,3,4,2]","action_history":"[0,1,1]","mutagen_history":"[1,0,0]","location_rts":"[3147,916,658]","trial_type":"fractal-mutation","trial_index":88,"time_elapsed":1802927,"internal_node_id":"0.0-5.0-34.0"},{"group":"hexagon_tri","fractal_assignment":["../images/pnk_blu.png","../images/gry_blk.png","../images/org_blu.png","../images/cyn_red.png","../images/blu_wht.png","../images/ylw_slt.png"],"mutagen_generator_assignment":[1,0],"goal":0,"start":2,"action_noise":0,"location_history":"[2,1,3,4,2,3,2,3,2,1,3,2,1,5,4,2,1,3,4,2,3,2,3,4,2,3,4,0]","action_history":"[0,0,1,1,1,0,1,0,0,0,0,0,1,0,1,0,0,1,1,1,0,1,1,1,1,1,0]","mutagen_history":"[1,1,0,0,0,1,0,1,1,1,1,1,0,1,0,1,1,0,0,0,1,0,0,0,0,0,1]","location_rts":"[2388,570,629,502,516,994,809,432,374,658,668,1231,455,1482,1446,1033,597,894,377,676,826,935,337,902,602,1069,793]","trial_type":"fractal-mutation","trial_index":89,"time_elapsed":1859492,"internal_node_id":"0.0-5.0-35.0"},{"group":"hexagon_tri","fractal_assignment":["../images/pnk_blu.png","../images/gry_blk.png","../images/org_blu.png","../images/cyn_red.png","../images/blu_wht.png","../images/ylw_slt.png"],"mutagen_generator_assignment":[1,0],"goal":5,"start":0,"action_noise":0,"location_history":"[0,5]","action_history":"[0]","mutagen_history":"[1]","location_rts":"[6586]","trial_type":"fractal-mutation","trial_index":90,"time_elapsed":1871176,"internal_node_id":"0.0-5.0-36.0"},{"group":"hexagon_tri","fractal_assignment":["../images/pnk_blu.png","../images/gry_blk.png","../images/org_blu.png","../images/cyn_red.png","../images/blu_wht.png","../images/ylw_slt.png"],"mutagen_generator_assignment":[1,0],"goal":2,"start":5,"action_noise":0,"location_history":"[5,0,5,4,2]","action_history":"[1,0,0,1]","mutagen_history":"[0,1,1,0]","location_rts":"[2012,1321,478,909]","trial_type":"fractal-mutation","trial_index":91,"time_elapsed":1884440,"internal_node_id":"0.0-5.0-37.0"},{"group":"hexagon_tri","fractal_assignment":["../images/pnk_blu.png","../images/gry_blk.png","../images/org_blu.png","../images/cyn_red.png","../images/blu_wht.png","../images/ylw_slt.png"],"mutagen_generator_assignment":[1,0],"goal":1,"start":2,"action_noise":0,"location_history":"[2,1]","action_history":"[0]","mutagen_history":"[1]","location_rts":"[2440]","trial_type":"fractal-mutation","trial_index":92,"time_elapsed":1892075,"internal_node_id":"0.0-5.0-38.0"},{"group":"hexagon_tri","fractal_assignment":["../images/pnk_blu.png","../images/gry_blk.png","../images/org_blu.png","../images/cyn_red.png","../images/blu_wht.png","../images/ylw_slt.png"],"mutagen_generator_assignment":[1,0],"goal":4,"start":1,"action_noise":0,"location_history":"[1,5,4]","action_history":"[1,0]","mutagen_history":"[0,1]","location_rts":"[2922,1124]","trial_type":"fractal-mutation","trial_index":93,"time_elapsed":1902303,"internal_node_id":"0.0-5.0-39.0"},{"group":"hexagon_tri","fractal_assignment":["../images/pnk_blu.png","../images/gry_blk.png","../images/org_blu.png","../images/cyn_red.png","../images/blu_wht.png","../images/ylw_slt.png"],"mutagen_generator_assignment":[1,0],"goal":3,"start":4,"action_noise":0,"location_history":"[4,2,1,3]","action_history":"[1,0,0]","mutagen_history":"[0,1,1]","location_rts":"[2645,882,481]","trial_type":"fractal-mutation","trial_index":94,"time_elapsed":1913670,"internal_node_id":"0.0-5.0-40.0"},{"group":"hexagon_tri","fractal_assignment":["../images/pnk_blu.png","../images/gry_blk.png","../images/org_blu.png","../images/cyn_red.png","../images/blu_wht.png","../images/ylw_slt.png"],"mutagen_generator_assignment":[1,0],"goal":5,"start":3,"action_noise":0,"location_history":"[3,4,2,1,3,4,2,3,4,0,5]","action_history":"[1,1,0,0,1,1,1,1,0,0]","mutagen_history":"[0,0,1,1,0,0,0,0,1,1]","location_rts":"[2185,1415,926,484,812,403,523,1264,500,755]","trial_type":"fractal-mutation","trial_index":95,"time_elapsed":1938329,"internal_node_id":"0.0-5.0-41.0"},{"group":"hexagon_tri","fractal_assignment":["../images/pnk_blu.png","../images/gry_blk.png","../images/org_blu.png","../images/cyn_red.png","../images/blu_wht.png","../images/ylw_slt.png"],"mutagen_generator_assignment":[1,0],"goal":3,"start":5,"action_noise":0,"location_history":"[5,0,5,0,1,3]","action_history":"[1,0,1,1,0]","mutagen_history":"[0,1,0,0,1]","location_rts":"[2124,1218,1292,337,1285]","trial_type":"fractal-mutation","trial_index":96,"time_elapsed":1954121,"internal_node_id":"0.0-5.0-42.0"},{"group":"hexagon_tri","fractal_assignment":["../images/pnk_blu.png","../images/gry_blk.png","../images/org_blu.png","../images/cyn_red.png","../images/blu_wht.png","../images/ylw_slt.png"],"mutagen_generator_assignment":[1,0],"goal":0,"start":3,"action_noise":0,"location_history":"[3,2,3,2,1,3,4,2,3,2,1,5,4,2,1,3,2,1,3,2,1,5,0]","action_history":"[0,1,0,0,0,1,1,1,0,0,1,0,1,0,0,0,0,0,0,0,1,1]","mutagen_history":"[1,0,1,1,1,0,0,0,1,1,0,1,0,1,1,1,1,1,1,1,0,0]","location_rts":"[4302,1042,907,345,826,861,369,1183,1506,1376,1100,1301,1183,1698,304,338,416,415,1137,1007,1093,1215]","trial_type":"fractal-mutation","trial_index":97,"time_elapsed":2006856,"internal_node_id":"0.0-5.0-43.0"},{"group":"hexagon_tri","fractal_assignment":["../images/pnk_blu.png","../images/gry_blk.png","../images/org_blu.png","../images/cyn_red.png","../images/blu_wht.png","../images/ylw_slt.png"],"mutagen_generator_assignment":[1,0],"goal":2,"start":0,"action_noise":0,"location_history":"[0,1,3,2]","action_history":"[1,0,0]","mutagen_history":"[0,1,1]","location_rts":"[4754,1462,1065]","trial_type":"fractal-mutation","trial_index":98,"time_elapsed":2021432,"internal_node_id":"0.0-5.0-44.0"},{"group":"hexagon_tri","fractal_assignment":["../images/pnk_blu.png","../images/gry_blk.png","../images/org_blu.png","../images/cyn_red.png","../images/blu_wht.png","../images/ylw_slt.png"],"mutagen_generator_assignment":[1,0],"goal":4,"start":2,"action_noise":0,"location_history":"[2,1,5,0,5,4]","action_history":"[0,1,1,0,0]","mutagen_history":"[1,0,0,1,1]","location_rts":"[3102,999,18244,1174,555]","trial_type":"fractal-mutation","trial_index":99,"time_elapsed":2055079,"internal_node_id":"0.0-5.0-45.0"},{"group":"hexagon_tri","fractal_assignment":["../images/pnk_blu.png","../images/gry_blk.png","../images/org_blu.png","../images/cyn_red.png","../images/blu_wht.png","../images/ylw_slt.png"],"mutagen_generator_assignment":[1,0],"goal":1,"start":4,"action_noise":0,"location_history":"[4,0,1]","action_history":"[0,1]","mutagen_history":"[1,0]","location_rts":"[2733,840]","trial_type":"fractal-mutation","trial_index":100,"time_elapsed":2064887,"internal_node_id":"0.0-5.0-46.0"},{"group":"hexagon_tri","fractal_assignment":["../images/pnk_blu.png","../images/gry_blk.png","../images/org_blu.png","../images/cyn_red.png","../images/blu_wht.png","../images/ylw_slt.png"],"mutagen_generator_assignment":[1,0],"goal":4,"start":1,"action_noise":0,"location_history":"[1,3,4]","action_history":"[0,1]","mutagen_history":"[1,0]","location_rts":"[1945,945]","trial_type":"fractal-mutation","trial_index":101,"time_elapsed":2073961,"internal_node_id":"0.0-5.0-47.0"},{"group":"hexagon_tri","fractal_assignment":["../images/pnk_blu.png","../images/gry_blk.png","../images/org_blu.png","../images/cyn_red.png","../images/blu_wht.png","../images/ylw_slt.png"],"mutagen_generator_assignment":[1,0],"goal":3,"start":4,"action_noise":0,"location_history":"[4,2,1,3]","action_history":"[1,0,0]","mutagen_history":"[0,1,1]","location_rts":"[17341,1023,678]","trial_type":"fractal-mutation","trial_index":102,"time_elapsed":2100368,"internal_node_id":"0.0-5.0-48.0"},{"group":"hexagon_tri","fractal_assignment":["../images/pnk_blu.png","../images/gry_blk.png","../images/org_blu.png","../images/cyn_red.png","../images/blu_wht.png","../images/ylw_slt.png"],"mutagen_generator_assignment":[1,0],"goal":5,"start":3,"action_noise":0,"location_history":"[3,2,3,4,0,5]","action_history":"[0,1,1,0,0]","mutagen_history":"[1,0,0,1,1]","location_rts":"[2514,966,603,1175,489]","trial_type":"fractal-mutation","trial_index":103,"time_elapsed":2115861,"internal_node_id":"0.0-5.0-49.0"},{"view_history":"[{\"page_index\":0,\"viewing_time\":9301}]","rt":9302,"trial_type":"instructions","trial_index":104,"time_elapsed":2126166,"internal_node_id":"0.0-6.0"},{"rt":8872,"responses":"{\"Q0\":\"It was fun!\"}","trial_type":"survey-text","trial_index":105,"time_elapsed":2136053,"internal_node_id":"0.0-7.0"}]