[{"view_history":"[{\"page_index\":0,\"viewing_time\":9512},{\"page_index\":1,\"viewing_time\":25360},{\"page_index\":2,\"viewing_time\":25640}]","rt":60512,"trial_type":"instructions","trial_index":0,"time_elapsed":60513,"internal_node_id":"0.0-0.0"},{"view_history":"[{\"page_index\":0,\"viewing_time\":3725},{\"page_index\":1,\"viewing_time\":20743}]","rt":24469,"trial_type":"instructions","trial_index":1,"time_elapsed":85984,"internal_node_id":"0.0-1.0"},{"group":"hexagon_bi","room_assignment":["green","purple","yellow","blue","red","grey"],"door_color_assignment":["white","black"],"door_generator_assignment":[0,1],"goal":4,"start":0,"action_noise":0,"location_history":"[0,5,0,1,0,5,4]","action_history":"[0,0,1,1,0,1]","door_history":"[0,0,1,1,0,1]","location_rts":"[2338,2677,1347,979,1142,719]","trial_type":"two-door-navigation","trial_index":2,"time_elapsed":105394,"internal_node_id":"0.0-2.0-0.0"},{"group":"hexagon_bi","room_assignment":["green","purple","yellow","blue","red","grey"],"door_color_assignment":["white","black"],"door_generator_assignment":[0,1],"goal":3,"start":4,"action_noise":0,"location_history":"[4,3]","action_history":"[0]","door_history":"[0]","location_rts":"[2394]","trial_type":"two-door-navigation","trial_index":3,"time_elapsed":112824,"internal_node_id":"0.0-2.0-1.0"},{"group":"hexagon_bi","room_assignment":["green","purple","yellow","blue","red","grey"],"door_color_assignment":["white","black"],"door_generator_assignment":[0,1],"goal":5,"start":3,"action_noise":0,"location_history":"[3,2,1,2,3,2,1,0,5]","action_history":"[1,0,0,1,1,0,1,0]","door_history":"[1,0,0,1,1,0,1,0]","location_rts":"[2669,686,870,792,416,2785,378,1393]","trial_type":"two-door-navigation","trial_index":4,"time_elapsed":135030,"internal_node_id":"0.0-2.0-2.0"},{"group":"hexagon_bi","room_assignment":["green","purple","yellow","blue","red","grey"],"door_color_assignment":["white","black"],"door_generator_assignment":[0,1],"goal":2,"start":5,"action_noise":0,"location_history":"[5,0,1,0,1,2]","action_history":"[0,1,1,1,0]","door_history":"[0,1,1,1,0]","location_rts":"[1851,2051,765,1747,489]","trial_type":"two-door-navigation","trial_index":5,"time_elapsed":151072,"internal_node_id":"0.0-2.0-3.0"},{"group":"hexagon_bi","room_assignment":["green","purple","yellow","blue","red","grey"],"door_color_assignment":["white","black"],"door_generator_assignment":[0,1],"goal":1,"start":2,"action_noise":0,"location_history":"[2,3,4,3,2,3,2,1]","action_history":"[1,0,0,1,1,1,0]","door_history":"[1,0,0,1,1,1,0]","location_rts":"[2231,1009,2189,647,750,1207,265]","trial_type":"two-door-navigation","trial_index":6,"time_elapsed":170538,"internal_node_id":"0.0-2.0-4.0"},{"group":"hexagon_bi","room_assignment":["green","purple","yellow","blue","red","grey"],"door_color_assignment":["white","black"],"door_generator_assignment":[0,1],"goal":4,"start":1,"action_noise":0,"location_history":"[1,2,3,4]","action_history":"[0,1,0]","door_history":"[0,1,0]","location_rts":"[1041,2060,1002]","trial_type":"two-door-navigation","trial_index":7,"time_elapsed":181725,"internal_node_id":"0.0-2.0-5.0"},{"group":"hexagon_bi","room_assignment":["green","purple","yellow","blue","red","grey"],"door_color_assignment":["white","black"],"door_generator_assignment":[0,1],"goal":1,"start":4,"action_noise":0,"location_history":"[4,3,2,3,4,5,0,1]","action_history":"[0,1,1,0,1,0,1]","door_history":"[0,1,1,0,1,0,1]","location_rts":"[3236,3311,2870,964,2056,2210,2483]","trial_type":"two-door-navigation","trial_index":8,"time_elapsed":210025,"internal_node_id":"0.0-2.0-6.0"},{"group":"hexagon_bi","room_assignment":["green","purple","yellow","blue","red","grey"],"door_color_assignment":["white","black"],"door_generator_assignment":[0,1],"goal":5,"start":1,"action_noise":0,"location_history":"[1,2,1,0,1,2,3,4,5]","action_history":"[0,0,1,1,0,1,0,1]","door_history":"[0,0,1,1,0,1,0,1]","location_rts":"[2498,10983,1301,962,467,1560,1294,2320]","trial_type":"two-door-navigation","trial_index":9,"time_elapsed":243602,"internal_node_id":"0.0-2.0-7.0"},{"group":"hexagon_bi","room_assignment":["green","purple","yellow","blue","red","grey"],"door_color_assignment":["white","black"],"door_generator_assignment":[0,1],"goal":0,"start":5,"action_noise":0,"location_history":"[5,0]","action_history":"[0]","door_history":"[0]","location_rts":"[2642]","trial_type":"two-door-navigation","trial_index":10,"time_elapsed":251277,"internal_node_id":"0.0-2.0-8.0"},{"group":"hexagon_bi","room_assignment":["green","purple","yellow","blue","red","grey"],"door_color_assignment":["white","black"],"door_generator_assignment":[0,1],"goal":2,"start":0,"action_noise":0,"location_history":"[0,5,4,3,2]","action_history":"[0,1,0,1]","door_history":"[0,1,0,1]","location_rts":"[1831,3115,4234,1169]","trial_type":"two-door-navigation","trial_index":11,"time_elapsed":269726,"internal_node_id":"0.0-2.0-9.0"},{"group":"hexagon_bi","room_assignment":["green","purple","yellow","blue","red","grey"],"door_color_assignment":["white","black"],"door_generator_assignment":[0,1],"goal":3,"start":2,"action_noise":0,"location_history":"[2,1,2,3]","action_history":"[0,0,1]","door_history":"[0,0,1]","location_rts":"[3553,1938,1203]","trial_type":"two-door-navigation","trial_index":12,"time_elapsed":283490,"internal_node_id":"0.0-2.0-10.0"},{"group":"hexagon_bi","room_assignment":["green","purple","yellow","blue","red","grey"],"door_color_assignment":["white","black"],"door_generator_assignment":[0,1],"goal":0,"start":3,"action_noise":0,"location_history":"[3,2,1,2,1,0]","action_history":"[1,0,0,0,1]","door_history":"[1,0,0,0,1]","location_rts":"[3604,1295,976,5307,722]","trial_type":"two-door-navigation","trial_index":13,"time_elapsed":304509,"internal_node_id":"0.0-2.0-11.0"},{"group":"hexagon_bi","room_assignment":["green","purple","yellow","blue","red","grey"],"door_color_assignment":["white","black"],"door_generator_assignment":[0,1],"goal":2,"start":0,"action_noise":0,"location_history":"[0,1,2]","action_history":"[1,0]","door_history":"[1,0]","location_rts":"[3626,1856]","trial_type":"two-door-navigation","trial_index":14,"time_elapsed":316040,"internal_node_id":"0.0-2.0-12.0"},{"group":"hexagon_bi","room_assignment":["green","purple","yellow","blue","red","grey"],"door_color_assignment":["white","black"],"door_generator_assignment":[0,1],"goal":5,"start":2,"action_noise":0,"location_history":"[2,1,0,5]","action_history":"[0,1,0]","door_history":"[0,1,0]","location_rts":"[3987,549,2032]","trial_type":"two-door-navigation","trial_index":15,"time_elapsed":329682,"internal_node_id":"0.0-2.0-13.0"},{"group":"hexagon_bi","room_assignment":["green","purple","yellow","blue","red","grey"],"door_color_assignment":["white","black"],"door_generator_assignment":[0,1],"goal":4,"start":5,"action_noise":0,"location_history":"[5,0,1,2,3,4]","action_history":"[0,1,0,1,0]","door_history":"[0,1,0,1,0]","location_rts":"[4896,613,960,1267,849]","trial_type":"two-door-navigation","trial_index":16,"time_elapsed":347393,"internal_node_id":"0.0-2.0-14.0"},{"group":"hexagon_bi","room_assignment":["green","purple","yellow","blue","red","grey"],"door_color_assignment":["white","black"],"door_generator_assignment":[0,1],"goal":3,"start":4,"action_noise":0,"location_history":"[4,3]","action_history":"[0]","door_history":"[0]","location_rts":"[2180]","trial_type":"two-door-navigation","trial_index":17,"time_elapsed":354602,"internal_node_id":"0.0-2.0-15.0"},{"group":"hexagon_bi","room_assignment":["green","purple","yellow","blue","red","grey"],"door_color_assignment":["white","black"],"door_generator_assignment":[0,1],"goal":1,"start":3,"action_noise":0,"location_history":"[3,2,1]","action_history":"[1,0]","door_history":"[1,0]","location_rts":"[2131,1879]","trial_type":"two-door-navigation","trial_index":18,"time_elapsed":364665,"internal_node_id":"0.0-2.0-16.0"},{"group":"hexagon_bi","room_assignment":["green","purple","yellow","blue","red","grey"],"door_color_assignment":["white","black"],"door_generator_assignment":[0,1],"goal":5,"start":1,"action_noise":0,"location_history":"[1,0,5]","action_history":"[1,0]","door_history":"[1,0]","location_rts":"[2270,1897]","trial_type":"two-door-navigation","trial_index":19,"time_elapsed":374885,"internal_node_id":"0.0-2.0-17.0"},{"group":"hexagon_bi","room_assignment":["green","purple","yellow","blue","red","grey"],"door_color_assignment":["white","black"],"door_generator_assignment":[0,1],"goal":4,"start":5,"action_noise":0,"location_history":"[5,4]","action_history":"[1]","door_history":"[1]","location_rts":"[5843]","trial_type":"two-door-navigation","trial_index":20,"time_elapsed":385756,"internal_node_id":"0.0-2.0-18.0"},{"group":"hexagon_bi","room_assignment":["green","purple","yellow","blue","red","grey"],"door_color_assignment":["white","black"],"door_generator_assignment":[0,1],"goal":0,"start":4,"action_noise":0,"location_history":"[4,3,2,1,2,3,2,3,4,3,2,1,0]","action_history":"[0,1,0,0,1,1,1,0,0,1,0,1]","door_history":"[0,1,0,0,1,1,1,0,0,1,0,1]","location_rts":"[1985,2095,2914,1273,446,1603,1088,14219,797,227,2427,709]","trial_type":"two-door-navigation","trial_index":21,"time_elapsed":431863,"internal_node_id":"0.0-2.0-19.0"},{"group":"hexagon_bi","room_assignment":["green","purple","yellow","blue","red","grey"],"door_color_assignment":["white","black"],"door_generator_assignment":[0,1],"goal":1,"start":0,"action_noise":0,"location_history":"[0,5,4,5,0,1]","action_history":"[0,1,1,0,1]","door_history":"[0,1,1,0,1]","location_rts":"[17795,1716,636,1043,971]","trial_type":"two-door-navigation","trial_index":22,"time_elapsed":463144,"internal_node_id":"0.0-2.0-20.0"},{"group":"hexagon_bi","room_assignment":["green","purple","yellow","blue","red","grey"],"door_color_assignment":["white","black"],"door_generator_assignment":[0,1],"goal":3,"start":1,"action_noise":0,"location_history":"[1,0,5,0,5,4,3]","action_history":"[1,0,0,0,1,0]","door_history":"[1,0,0,0,1,0]","location_rts":"[2531,2125,2633,1712,226,1070]","trial_type":"two-door-navigation","trial_index":23,"time_elapsed":483589,"internal_node_id":"0.0-2.0-21.0"},{"group":"hexagon_bi","room_assignment":["green","purple","yellow","blue","red","grey"],"door_color_assignment":["white","black"],"door_generator_assignment":[0,1],"goal":2,"start":3,"action_noise":0,"location_history":"[3,2]","action_history":"[1]","door_history":"[1]","location_rts":"[3827]","trial_type":"two-door-navigation","trial_index":24,"time_elapsed":492447,"internal_node_id":"0.0-2.0-22.0"},{"group":"hexagon_bi","room_assignment":["green","purple","yellow","blue","red","grey"],"door_color_assignment":["white","black"],"door_generator_assignment":[0,1],"goal":0,"start":2,"action_noise":0,"location_history":"[2,1,0]","action_history":"[0,1]","door_history":"[0,1]","location_rts":"[3480,1562]","trial_type":"two-door-navigation","trial_index":25,"time_elapsed":503546,"internal_node_id":"0.0-2.0-23.0"},{"group":"hexagon_bi","room_assignment":["green","purple","yellow","blue","red","grey"],"door_color_assignment":["white","black"],"door_generator_assignment":[0,1],"goal":3,"start":0,"action_noise":0,"location_history":"[0,5,4,3]","action_history":"[0,1,0]","door_history":"[0,1,0]","location_rts":"[5143,5170,1128]","trial_type":"two-door-navigation","trial_index":26,"time_elapsed":522057,"internal_node_id":"0.0-2.0-24.0"},{"group":"hexagon_bi","room_assignment":["green","purple","yellow","blue","red","grey"],"door_color_assignment":["white","black"],"door_generator_assignment":[0,1],"goal":1,"start":3,"action_noise":0,"location_history":"[3,2,1]","action_history":"[1,0]","door_history":"[1,0]","location_rts":"[5127,2027]","trial_type":"two-door-navigation","trial_index":27,"time_elapsed":535265,"internal_node_id":"0.0-2.0-25.0"},{"group":"hexagon_bi","room_assignment":["green","purple","yellow","blue","red","grey"],"door_color_assignment":["white","black"],"door_generator_assignment":[0,1],"goal":2,"start":1,"action_noise":0,"location_history":"[1,2]","action_history":"[0]","door_history":"[0]","location_rts":"[1423]","trial_type":"two-door-navigation","trial_index":28,"time_elapsed":541718,"internal_node_id":"0.0-2.0-26.0"},{"group":"hexagon_bi","room_assignment":["green","purple","yellow","blue","red","grey"],"door_color_assignment":["white","black"],"door_generator_assignment":[0,1],"goal":5,"start":2,"action_noise":0,"location_history":"[2,3,2,1,0,5]","action_history":"[1,1,0,1,0]","door_history":"[1,1,0,1,0]","location_rts":"[3966,2574,353,1727,1151]","trial_type":"two-door-navigation","trial_index":29,"time_elapsed":560612,"internal_node_id":"0.0-2.0-27.0"},{"group":"hexagon_bi","room_assignment":["green","purple","yellow","blue","red","grey"],"door_color_assignment":["white","black"],"door_generator_assignment":[0,1],"goal":4,"start":5,"action_noise":0,"location_history":"[5,0,1,2,3,4]","action_history":"[0,1,0,1,0]","door_history":"[0,1,0,1,0]","location_rts":"[1892,627,1040,1141,561]","trial_type":"two-door-navigation","trial_index":30,"time_elapsed":574998,"internal_node_id":"0.0-2.0-28.0"},{"group":"hexagon_bi","room_assignment":["green","purple","yellow","blue","red","grey"],"door_color_assignment":["white","black"],"door_generator_assignment":[0,1],"goal":5,"start":4,"action_noise":0,"location_history":"[4,3,2,1,0,5]","action_history":"[0,1,0,1,0]","door_history":"[0,1,0,1,0]","location_rts":"[4426,469,1076,781,817]","trial_type":"two-door-navigation","trial_index":31,"time_elapsed":591693,"internal_node_id":"0.0-2.0-29.0"},{"group":"hexagon_bi","room_assignment":["green","purple","yellow","blue","red","grey"],"door_color_assignment":["white","black"],"door_generator_assignment":[0,1],"goal":3,"start":5,"action_noise":0,"location_history":"[5,0,1,2,3]","action_history":"[0,1,0,1]","door_history":"[0,1,0,1]","location_rts":"[3371,800,582,1027]","trial_type":"two-door-navigation","trial_index":32,"time_elapsed":605570,"internal_node_id":"0.0-2.0-30.0"},{"group":"hexagon_bi","room_assignment":["green","purple","yellow","blue","red","grey"],"door_color_assignment":["white","black"],"door_generator_assignment":[0,1],"goal":0,"start":3,"action_noise":0,"location_history":"[3,2,1,2,3,4,5,4,5,0]","action_history":"[1,0,0,1,0,1,1,1,0]","door_history":"[1,0,0,1,0,1,1,1,0]","location_rts":"[2232,1389,1117,265,1247,1179,1815,473,24]","trial_type":"two-door-navigation","trial_index":33,"time_elapsed":628518,"internal_node_id":"0.0-2.0-31.0"},{"group":"hexagon_bi","room_assignment":["green","purple","yellow","blue","red","grey"],"door_color_assignment":["white","black"],"door_generator_assignment":[0,1],"goal":4,"start":0,"action_noise":0,"location_history":"[0,5,0,1,2,3,4]","action_history":"[0,0,1,0,1,0]","door_history":"[0,0,1,0,1,0]","location_rts":"[1290,3128,528,656,722,24314]","trial_type":"two-door-navigation","trial_index":34,"time_elapsed":669304,"internal_node_id":"0.0-2.0-32.0"},{"group":"hexagon_bi","room_assignment":["green","purple","yellow","blue","red","grey"],"door_color_assignment":["white","black"],"door_generator_assignment":[0,1],"goal":1,"start":4,"action_noise":0,"location_history":"[4,5,4,5,4,3,2,1]","action_history":"[1,1,1,1,0,1,0]","door_history":"[1,1,1,1,0,1,0]","location_rts":"[27969,897,251,16226,775,398,528]","trial_type":"two-door-navigation","trial_index":35,"time_elapsed":727519,"internal_node_id":"0.0-2.0-33.0"},{"group":"hexagon_bi","room_assignment":["green","purple","yellow","blue","red","grey"],"door_color_assignment":["white","black"],"door_generator_assignment":[0,1],"goal":2,"start":1,"action_noise":0,"location_history":"[1,2]","action_history":"[0]","door_history":"[0]","location_rts":"[6233]","trial_type":"two-door-navigation","trial_index":36,"time_elapsed":738783,"internal_node_id":"0.0-2.0-34.0"},{"group":"hexagon_bi","room_assignment":["green","purple","yellow","blue","red","grey"],"door_color_assignment":["white","black"],"door_generator_assignment":[0,1],"goal":0,"start":2,"action_noise":0,"location_history":"[2,3,2,1,0]","action_history":"[1,1,0,1]","door_history":"[1,1,0,1]","location_rts":"[1800,1139,158,379]","trial_type":"two-door-navigation","trial_index":37,"time_elapsed":750353,"internal_node_id":"0.0-2.0-35.0"},{"group":"hexagon_bi","room_assignment":["green","purple","yellow","blue","red","grey"],"door_color_assignment":["white","black"],"door_generator_assignment":[0,1],"goal":5,"start":0,"action_noise":0,"location_history":"[0,5]","action_history":"[0]","door_history":"[0]","location_rts":"[2058]","trial_type":"two-door-navigation","trial_index":38,"time_elapsed":757444,"internal_node_id":"0.0-2.0-36.0"},{"group":"hexagon_bi","room_assignment":["green","purple","yellow","blue","red","grey"],"door_color_assignment":["white","black"],"door_generator_assignment":[0,1],"goal":2,"start":5,"action_noise":0,"location_history":"[5,0,1,2]","action_history":"[0,1,0]","door_history":"[0,1,0]","location_rts":"[1780,1352,1370]","trial_type":"two-door-navigation","trial_index":39,"time_elapsed":769029,"internal_node_id":"0.0-2.0-37.0"},{"group":"hexagon_bi","room_assignment":["green","purple","yellow","blue","red","grey"],"door_color_assignment":["white","black"],"door_generator_assignment":[0,1],"goal":1,"start":2,"action_noise":0,"location_history":"[2,3,4,5,0,1]","action_history":"[1,0,1,0,1]","door_history":"[1,0,1,0,1]","location_rts":"[3149,1449,930,1291,1526]","trial_type":"two-door-navigation","trial_index":40,"time_elapsed":786511,"internal_node_id":"0.0-2.0-38.0"},{"group":"hexagon_bi","room_assignment":["green","purple","yellow","blue","red","grey"],"door_color_assignment":["white","black"],"door_generator_assignment":[0,1],"goal":4,"start":1,"action_noise":0,"location_history":"[1,2,3,4]","action_history":"[0,1,0]","door_history":"[0,1,0]","location_rts":"[1425,3069,658]","trial_type":"two-door-navigation","trial_index":41,"time_elapsed":798745,"internal_node_id":"0.0-2.0-39.0"},{"group":"hexagon_bi","room_assignment":["green","purple","yellow","blue","red","grey"],"door_color_assignment":["white","black"],"door_generator_assignment":[0,1],"goal":3,"start":4,"action_noise":0,"location_history":"[4,3]","action_history":"[0]","door_history":"[0]","location_rts":"[1745]","trial_type":"two-door-navigation","trial_index":42,"time_elapsed":805522,"internal_node_id":"0.0-2.0-40.0"},{"group":"hexagon_bi","room_assignment":["green","purple","yellow","blue","red","grey"],"door_color_assignment":["white","black"],"door_generator_assignment":[0,1],"goal":5,"start":3,"action_noise":0,"location_history":"[3,2,1,0,5]","action_history":"[1,0,1,0]","door_history":"[1,0,1,0]","location_rts":"[2632,560,663,807]","trial_type":"two-door-navigation","trial_index":43,"time_elapsed":818285,"internal_node_id":"0.0-2.0-41.0"},{"group":"hexagon_bi","room_assignment":["green","purple","yellow","blue","red","grey"],"door_color_assignment":["white","black"],"door_generator_assignment":[0,1],"goal":3,"start":5,"action_noise":0,"location_history":"[5,0,1,2,3]","action_history":"[0,1,0,1]","door_history":"[0,1,0,1]","location_rts":"[2446,414,791,398]","trial_type":"two-door-navigation","trial_index":44,"time_elapsed":830433,"internal_node_id":"0.0-2.0-42.0"},{"group":"hexagon_bi","room_assignment":["green","purple","yellow","blue","red","grey"],"door_color_assignment":["white","black"],"door_generator_assignment":[0,1],"goal":0,"start":3,"action_noise":0,"location_history":"[3,4,5,0]","action_history":"[0,1,0]","door_history":"[0,1,0]","location_rts":"[5569,304,2666]","trial_type":"two-door-navigation","trial_index":45,"time_elapsed":846047,"internal_node_id":"0.0-2.0-43.0"},{"group":"hexagon_bi","room_assignment":["green","purple","yellow","blue","red","grey"],"door_color_assignment":["white","black"],"door_generator_assignment":[0,1],"goal":2,"start":0,"action_noise":0,"location_history":"[0,1,2]","action_history":"[1,0]","door_history":"[1,0]","location_rts":"[2392,1723]","trial_type":"two-door-navigation","trial_index":46,"time_elapsed":856219,"internal_node_id":"0.0-2.0-44.0"},{"group":"hexagon_bi","room_assignment":["green","purple","yellow","blue","red","grey"],"door_color_assignment":["white","black"],"door_generator_assignment":[0,1],"goal":4,"start":2,"action_noise":0,"location_history":"[2,1,0,5,4]","action_history":"[0,1,0,1]","door_history":"[0,1,0,1]","location_rts":"[3041,350,2184,933]","trial_type":"two-door-navigation","trial_index":47,"time_elapsed":870846,"internal_node_id":"0.0-2.0-45.0"},{"group":"hexagon_bi","room_assignment":["green","purple","yellow","blue","red","grey"],"door_color_assignment":["white","black"],"door_generator_assignment":[0,1],"goal":1,"start":4,"action_noise":0,"location_history":"[4,5,0,1]","action_history":"[1,0,1]","door_history":"[1,0,1]","location_rts":"[1427,4749,1133]","trial_type":"two-door-navigation","trial_index":48,"time_elapsed":885225,"internal_node_id":"0.0-2.0-46.0"},{"group":"hexagon_bi","room_assignment":["green","purple","yellow","blue","red","grey"],"door_color_assignment":["white","black"],"door_generator_assignment":[0,1],"goal":4,"start":1,"action_noise":0,"location_history":"[1,0,5,4]","action_history":"[1,0,1]","door_history":"[1,0,1]","location_rts":"[1896,1056,309]","trial_type":"two-door-navigation","trial_index":49,"time_elapsed":895557,"internal_node_id":"0.0-2.0-47.0"},{"group":"hexagon_bi","room_assignment":["green","purple","yellow","blue","red","grey"],"door_color_assignment":["white","black"],"door_generator_assignment":[0,1],"goal":3,"start":4,"action_noise":0,"location_history":"[4,3]","action_history":"[0]","door_history":"[0]","location_rts":"[1284]","trial_type":"two-door-navigation","trial_index":50,"time_elapsed":901878,"internal_node_id":"0.0-2.0-48.0"},{"group":"hexagon_bi","room_assignment":["green","purple","yellow","blue","red","grey"],"door_color_assignment":["white","black"],"door_generator_assignment":[0,1],"goal":5,"start":3,"action_noise":0,"location_history":"[3,2,1,0,5]","action_history":"[1,0,1,0]","door_history":"[1,0,1,0]","location_rts":"[3484,2235,955,599]","trial_type":"two-door-navigation","trial_index":51,"time_elapsed":917249,"internal_node_id":"0.0-2.0-49.0"},{"view_history":"[{\"page_index\":0,\"viewing_time\":2014}]","rt":2014,"trial_type":"instructions","trial_index":52,"time_elapsed":920264,"internal_node_id":"0.0-3.0"},{"view_history":"[{\"page_index\":0,\"viewing_time\":3968},{\"page_index\":1,\"viewing_time\":15472}]","rt":19441,"trial_type":"instructions","trial_index":53,"time_elapsed":940707,"internal_node_id":"0.0-4.0"},{"group":"hexagon_tri","fractal_assignment":["../images/gry_blk.png","../images/pnk_blu.png","../images/ylw_slt.png","../images/blu_wht.png","../images/cyn_red.png","../images/org_blu.png"],"mutagen_generator_assignment":[0,1],"goal":4,"start":0,"action_noise":0,"location_history":"[0,5,4]","action_history":"[0,0]","mutagen_history":"[0,0]","location_rts":"[3779,1517]","trial_type":"fractal-mutation","trial_index":54,"time_elapsed":952081,"internal_node_id":"0.0-5.0-0.0"},{"group":"hexagon_tri","fractal_assignment":["../images/gry_blk.png","../images/pnk_blu.png","../images/ylw_slt.png","../images/blu_wht.png","../images/cyn_red.png","../images/org_blu.png"],"mutagen_generator_assignment":[0,1],"goal":3,"start":4,"action_noise":0,"location_history":"[4,2,3]","action_history":"[1,1]","mutagen_history":"[1,1]","location_rts":"[2672,971]","trial_type":"fractal-mutation","trial_index":55,"time_elapsed":961817,"internal_node_id":"0.0-5.0-1.0"},{"group":"hexagon_tri","fractal_assignment":["../images/gry_blk.png","../images/pnk_blu.png","../images/ylw_slt.png","../images/blu_wht.png","../images/cyn_red.png","../images/org_blu.png"],"mutagen_generator_assignment":[0,1],"goal":5,"start":3,"action_noise":0,"location_history":"[3,2,1,5]","action_history":"[0,0,1]","mutagen_history":"[0,0,1]","location_rts":"[2616,1363,1181]","trial_type":"fractal-mutation","trial_index":56,"time_elapsed":974088,"internal_node_id":"0.0-5.0-2.0"},{"group":"hexagon_tri","fractal_assignment":["../images/gry_blk.png","../images/pnk_blu.png","../images/ylw_slt.png","../images/blu_wht.png","../images/cyn_red.png","../images/org_blu.png"],"mutagen_generator_assignment":[0,1],"goal":2,"start":5,"action_noise":0,"location_history":"[5,4,0,1,5,0,5,4,0,5,4,2]","action_history":"[0,0,1,1,1,0,0,0,0,0,1]","mutagen_history":"[0,0,1,1,1,0,0,0,0,0,1]","location_rts":"[907,1557,1177,950,1608,809,283,463,713,1397,706]","trial_type":"fractal-mutation","trial_index":57,"time_elapsed":1000054,"internal_node_id":"0.0-5.0-3.0"},{"group":"hexagon_tri","fractal_assignment":["../images/gry_blk.png","../images/pnk_blu.png","../images/ylw_slt.png","../images/blu_wht.png","../images/cyn_red.png","../images/org_blu.png"],"mutagen_generator_assignment":[0,1],"goal":1,"start":2,"action_noise":0,"location_history":"[2,1]","action_history":"[0]","mutagen_history":"[0]","location_rts":"[1593]","trial_type":"fractal-mutation","trial_index":58,"time_elapsed":1006682,"internal_node_id":"0.0-5.0-4.0"},{"group":"hexagon_tri","fractal_assignment":["../images/gry_blk.png","../images/pnk_blu.png","../images/ylw_slt.png","../images/blu_wht.png","../images/cyn_red.png","../images/org_blu.png"],"mutagen_generator_assignment":[0,1],"goal":4,"start":1,"action_noise":0,"location_history":"[1,3,2,1,3,4]","action_history":"[0,0,0,0,1]","mutagen_history":"[0,0,0,0,1]","location_rts":"[1804,479,472,685,455]","trial_type":"fractal-mutation","trial_index":59,"time_elapsed":1019754,"internal_node_id":"0.0-5.0-5.0"},{"group":"hexagon_tri","fractal_assignment":["../images/gry_blk.png","../images/pnk_blu.png","../images/ylw_slt.png","../images/blu_wht.png","../images/cyn_red.png","../images/org_blu.png"],"mutagen_generator_assignment":[0,1],"goal":1,"start":4,"action_noise":0,"location_history":"[4,0,5,0,5,4,2,3,2,1]","action_history":"[0,0,1,0,0,1,1,0,0]","mutagen_history":"[0,0,1,0,0,1,1,0,0]","location_rts":"[1390,478,564,1147,765,663,525,694,411]","trial_type":"fractal-mutation","trial_index":60,"time_elapsed":1039723,"internal_node_id":"0.0-5.0-6.0"},{"group":"hexagon_tri","fractal_assignment":["../images/gry_blk.png","../images/pnk_blu.png","../images/ylw_slt.png","../images/blu_wht.png","../images/cyn_red.png","../images/org_blu.png"],"mutagen_generator_assignment":[0,1],"goal":5,"start":1,"action_noise":0,"location_history":"[1,5]","action_history":"[1]","mutagen_history":"[1]","location_rts":"[1642]","trial_type":"fractal-mutation","trial_index":61,"time_elapsed":1046409,"internal_node_id":"0.0-5.0-7.0"},{"group":"hexagon_tri","fractal_assignment":["../images/gry_blk.png","../images/pnk_blu.png","../images/ylw_slt.png","../images/blu_wht.png","../images/cyn_red.png","../images/org_blu.png"],"mutagen_generator_assignment":[0,1],"goal":0,"start":5,"action_noise":0,"location_history":"[5,0]","action_history":"[1]","mutagen_history":"[1]","location_rts":"[4318]","trial_type":"fractal-mutation","trial_index":62,"time_elapsed":1055774,"internal_node_id":"0.0-5.0-8.0"},{"group":"hexagon_tri","fractal_assignment":["../images/gry_blk.png","../images/pnk_blu.png","../images/ylw_slt.png","../images/blu_wht.png","../images/cyn_red.png","../images/org_blu.png"],"mutagen_generator_assignment":[0,1],"goal":2,"start":0,"action_noise":0,"location_history":"[0,5,0,1,3,2]","action_history":"[0,1,1,0,0]","mutagen_history":"[0,1,1,0,0]","location_rts":"[16304,1097,846,918,2188]","trial_type":"fractal-mutation","trial_index":63,"time_elapsed":1086313,"internal_node_id":"0.0-5.0-9.0"},{"group":"hexagon_tri","fractal_assignment":["../images/gry_blk.png","../images/pnk_blu.png","../images/ylw_slt.png","../images/blu_wht.png","../images/cyn_red.png","../images/org_blu.png"],"mutagen_generator_assignment":[0,1],"goal":3,"start":2,"action_noise":0,"location_history":"[2,3]","action_history":"[1]","mutagen_history":"[1]","location_rts":"[1594]","trial_type":"fractal-mutation","trial_index":64,"time_elapsed":1092952,"internal_node_id":"0.0-5.0-10.0"},{"group":"hexagon_tri","fractal_assignment":["../images/gry_blk.png","../images/pnk_blu.png","../images/ylw_slt.png","../images/blu_wht.png","../images/cyn_red.png","../images/org_blu.png"],"mutagen_generator_assignment":[0,1],"goal":0,"start":3,"action_noise":0,"location_history":"[3,2,1,5,0]","action_history":"[0,0,1,1]","mutagen_history":"[0,0,1,1]","location_rts":"[6513,1609,880,569]","trial_type":"fractal-mutation","trial_index":65,"time_elapsed":1110676,"internal_node_id":"0.0-5.0-11.0"},{"group":"hexagon_tri","fractal_assignment":["../images/gry_blk.png","../images/pnk_blu.png","../images/ylw_slt.png","../images/blu_wht.png","../images/cyn_red.png","../images/org_blu.png"],"mutagen_generator_assignment":[0,1],"goal":2,"start":0,"action_noise":0,"location_history":"[0,1,3,2]","action_history":"[1,0,0]","mutagen_history":"[1,0,0]","location_rts":"[1418,1633,1218]","trial_type":"fractal-mutation","trial_index":66,"time_elapsed":1122056,"internal_node_id":"0.0-5.0-12.0"},{"group":"hexagon_tri","fractal_assignment":["../images/gry_blk.png","../images/pnk_blu.png","../images/ylw_slt.png","../images/blu_wht.png","../images/cyn_red.png","../images/org_blu.png"],"mutagen_generator_assignment":[0,1],"goal":5,"start":2,"action_noise":0,"location_history":"[2,1,3,4,0,1,5]","action_history":"[0,0,1,0,1,1]","mutagen_history":"[0,0,1,0,1,1]","location_rts":"[1350,853,569,723,869,466]","trial_type":"fractal-mutation","trial_index":67,"time_elapsed":1137161,"internal_node_id":"0.0-5.0-13.0"},{"group":"hexagon_tri","fractal_assignment":["../images/gry_blk.png","../images/pnk_blu.png","../images/ylw_slt.png","../images/blu_wht.png","../images/cyn_red.png","../images/org_blu.png"],"mutagen_generator_assignment":[0,1],"goal":4,"start":5,"action_noise":0,"location_history":"[5,4]","action_history":"[0]","mutagen_history":"[0]","location_rts":"[2926]","trial_type":"fractal-mutation","trial_index":68,"time_elapsed":1146146,"internal_node_id":"0.0-5.0-14.0"},{"group":"hexagon_tri","fractal_assignment":["../images/gry_blk.png","../images/pnk_blu.png","../images/ylw_slt.png","../images/blu_wht.png","../images/cyn_red.png","../images/org_blu.png"],"mutagen_generator_assignment":[0,1],"goal":3,"start":4,"action_noise":0,"location_history":"[4,0,1,5,0,5,4,0,1,3]","action_history":"[0,1,1,1,0,0,0,1,0]","mutagen_history":"[0,1,1,1,0,0,0,1,0]","location_rts":"[671,566,1915,1171,806,451,706,832,337]","trial_type":"fractal-mutation","trial_index":69,"time_elapsed":1166926,"internal_node_id":"0.0-5.0-15.0"},{"group":"hexagon_tri","fractal_assignment":["../images/gry_blk.png","../images/pnk_blu.png","../images/ylw_slt.png","../images/blu_wht.png","../images/cyn_red.png","../images/org_blu.png"],"mutagen_generator_assignment":[0,1],"goal":1,"start":3,"action_noise":0,"location_history":"[3,2,3,4,0,5,4,2,3,2,1]","action_history":"[0,1,1,0,0,0,1,1,0,0]","mutagen_history":"[0,1,1,0,0,0,1,1,0,0]","location_rts":"[1322,750,1339,1032,556,475,672,890,551,812]","trial_type":"fractal-mutation","trial_index":70,"time_elapsed":1189679,"internal_node_id":"0.0-5.0-16.0"},{"group":"hexagon_tri","fractal_assignment":["../images/gry_blk.png","../images/pnk_blu.png","../images/ylw_slt.png","../images/blu_wht.png","../images/cyn_red.png","../images/org_blu.png"],"mutagen_generator_assignment":[0,1],"goal":5,"start":1,"action_noise":0,"location_history":"[1,3,2,1,5]","action_history":"[0,0,0,1]","mutagen_history":"[0,0,0,1]","location_rts":"[1388,1070,1218,390]","trial_type":"fractal-mutation","trial_index":71,"time_elapsed":1201894,"internal_node_id":"0.0-5.0-17.0"},{"group":"hexagon_tri","fractal_assignment":["../images/gry_blk.png","../images/pnk_blu.png","../images/ylw_slt.png","../images/blu_wht.png","../images/cyn_red.png","../images/org_blu.png"],"mutagen_generator_assignment":[0,1],"goal":4,"start":5,"action_noise":0,"location_history":"[5,4]","action_history":"[0]","mutagen_history":"[0]","location_rts":"[1350]","trial_type":"fractal-mutation","trial_index":72,"time_elapsed":1208280,"internal_node_id":"0.0-5.0-18.0"},{"group":"hexagon_tri","fractal_assignment":["../images/gry_blk.png","../images/pnk_blu.png","../images/ylw_slt.png","../images/blu_wht.png","../images/cyn_red.png","../images/org_blu.png"],"mutagen_generator_assignment":[0,1],"goal":0,"start":4,"action_noise":0,"location_history":"[4,0]","action_history":"[0]","mutagen_history":"[0]","location_rts":"[3201]","trial_type":"fractal-mutation","trial_index":73,"time_elapsed":1216530,"internal_node_id":"0.0-5.0-19.0"},{"group":"hexagon_tri","fractal_assignment":["../images/gry_blk.png","../images/pnk_blu.png","../images/ylw_slt.png","../images/blu_wht.png","../images/cyn_red.png","../images/org_blu.png"],"mutagen_generator_assignment":[0,1],"goal":1,"start":0,"action_noise":0,"location_history":"[0,1]","action_history":"[1]","mutagen_history":"[1]","location_rts":"[1208]","trial_type":"fractal-mutation","trial_index":74,"time_elapsed":1222780,"internal_node_id":"0.0-5.0-20.0"},{"group":"hexagon_tri","fractal_assignment":["../images/gry_blk.png","../images/pnk_blu.png","../images/ylw_slt.png","../images/blu_wht.png","../images/cyn_red.png","../images/org_blu.png"],"mutagen_generator_assignment":[0,1],"goal":3,"start":1,"action_noise":0,"location_history":"[1,5,0,5,4,2,1,3]","action_history":"[1,1,0,0,1,0,0]","mutagen_history":"[1,1,0,0,1,0,0]","location_rts":"[1373,1794,629,765,1019,1533,760]","trial_type":"fractal-mutation","trial_index":75,"time_elapsed":1241915,"internal_node_id":"0.0-5.0-21.0"},{"group":"hexagon_tri","fractal_assignment":["../images/gry_blk.png","../images/pnk_blu.png","../images/ylw_slt.png","../images/blu_wht.png","../images/cyn_red.png","../images/org_blu.png"],"mutagen_generator_assignment":[0,1],"goal":2,"start":3,"action_noise":0,"location_history":"[3,2]","action_history":"[0]","mutagen_history":"[0]","location_rts":"[1639]","trial_type":"fractal-mutation","trial_index":76,"time_elapsed":1248603,"internal_node_id":"0.0-5.0-22.0"},{"group":"hexagon_tri","fractal_assignment":["../images/gry_blk.png","../images/pnk_blu.png","../images/ylw_slt.png","../images/blu_wht.png","../images/cyn_red.png","../images/org_blu.png"],"mutagen_generator_assignment":[0,1],"goal":0,"start":2,"action_noise":0,"location_history":"[2,3,2,1,3,4,2,1,5,4,0]","action_history":"[1,0,0,0,1,1,0,1,0,0]","mutagen_history":"[1,0,0,0,1,1,0,1,0,0]","location_rts":"[1677,1021,711,663,669,374,279,1072,613,623]","trial_type":"fractal-mutation","trial_index":77,"time_elapsed":1270676,"internal_node_id":"0.0-5.0-23.0"},{"group":"hexagon_tri","fractal_assignment":["../images/gry_blk.png","../images/pnk_blu.png","../images/ylw_slt.png","../images/blu_wht.png","../images/cyn_red.png","../images/org_blu.png"],"mutagen_generator_assignment":[0,1],"goal":3,"start":0,"action_noise":0,"location_history":"[0,5,4,2,1,3]","action_history":"[0,0,1,0,0]","mutagen_history":"[0,0,1,0,0]","location_rts":"[4987,777,443,529,666]","trial_type":"fractal-mutation","trial_index":78,"time_elapsed":1287247,"internal_node_id":"0.0-5.0-24.0"},{"group":"hexagon_tri","fractal_assignment":["../images/gry_blk.png","../images/pnk_blu.png","../images/ylw_slt.png","../images/blu_wht.png","../images/cyn_red.png","../images/org_blu.png"],"mutagen_generator_assignment":[0,1],"goal":1,"start":3,"action_noise":0,"location_history":"[3,4,2,1]","action_history":"[1,1,0]","mutagen_history":"[1,1,0]","location_rts":"[1757,1139,472]","trial_type":"fractal-mutation","trial_index":79,"time_elapsed":1297739,"internal_node_id":"0.0-5.0-25.0"},{"group":"hexagon_tri","fractal_assignment":["../images/gry_blk.png","../images/pnk_blu.png","../images/ylw_slt.png","../images/blu_wht.png","../images/cyn_red.png","../images/org_blu.png"],"mutagen_generator_assignment":[0,1],"goal":2,"start":1,"action_noise":0,"location_history":"[1,3,2]","action_history":"[0,0]","mutagen_history":"[0,0]","location_rts":"[2276,934]","trial_type":"fractal-mutation","trial_index":80,"time_elapsed":1307026,"internal_node_id":"0.0-5.0-26.0"},{"group":"hexagon_tri","fractal_assignment":["../images/gry_blk.png","../images/pnk_blu.png","../images/ylw_slt.png","../images/blu_wht.png","../images/cyn_red.png","../images/org_blu.png"],"mutagen_generator_assignment":[0,1],"goal":5,"start":2,"action_noise":0,"location_history":"[2,3,4,0,5]","action_history":"[1,1,0,0]","mutagen_history":"[1,1,0,0]","location_rts":"[1277,1267,627,627]","trial_type":"fractal-mutation","trial_index":81,"time_elapsed":1318956,"internal_node_id":"0.0-5.0-27.0"},{"group":"hexagon_tri","fractal_assignment":["../images/gry_blk.png","../images/pnk_blu.png","../images/ylw_slt.png","../images/blu_wht.png","../images/cyn_red.png","../images/org_blu.png"],"mutagen_generator_assignment":[0,1],"goal":4,"start":5,"action_noise":0,"location_history":"[5,4]","action_history":"[0]","mutagen_history":"[0]","location_rts":"[2382]","trial_type":"fractal-mutation","trial_index":82,"time_elapsed":1326383,"internal_node_id":"0.0-5.0-28.0"},{"group":"hexagon_tri","fractal_assignment":["../images/gry_blk.png","../images/pnk_blu.png","../images/ylw_slt.png","../images/blu_wht.png","../images/cyn_red.png","../images/org_blu.png"],"mutagen_generator_assignment":[0,1],"goal":5,"start":4,"action_noise":0,"location_history":"[4,0,5]","action_history":"[0,0]","mutagen_history":"[0,0]","location_rts":"[7249,488]","trial_type":"fractal-mutation","trial_index":83,"time_elapsed":1340195,"internal_node_id":"0.0-5.0-29.0"},{"group":"hexagon_tri","fractal_assignment":["../images/gry_blk.png","../images/pnk_blu.png","../images/ylw_slt.png","../images/blu_wht.png","../images/cyn_red.png","../images/org_blu.png"],"mutagen_generator_assignment":[0,1],"goal":3,"start":5,"action_noise":0,"location_history":"[5,0,1,3]","action_history":"[1,1,0]","mutagen_history":"[1,1,0]","location_rts":"[1194,1114,633]","trial_type":"fractal-mutation","trial_index":84,"time_elapsed":1350269,"internal_node_id":"0.0-5.0-30.0"},{"group":"hexagon_tri","fractal_assignment":["../images/gry_blk.png","../images/pnk_blu.png","../images/ylw_slt.png","../images/blu_wht.png","../images/cyn_red.png","../images/org_blu.png"],"mutagen_generator_assignment":[0,1],"goal":0,"start":3,"action_noise":0,"location_history":"[3,4,0]","action_history":"[1,0]","mutagen_history":"[1,0]","location_rts":"[1515,572]","trial_type":"fractal-mutation","trial_index":85,"time_elapsed":1358433,"internal_node_id":"0.0-5.0-31.0"},{"group":"hexagon_tri","fractal_assignment":["../images/gry_blk.png","../images/pnk_blu.png","../images/ylw_slt.png","../images/blu_wht.png","../images/cyn_red.png","../images/org_blu.png"],"mutagen_generator_assignment":[0,1],"goal":4,"start":0,"action_noise":0,"location_history":"[0,5,4]","action_history":"[0,0]","mutagen_history":"[0,0]","location_rts":"[941,771]","trial_type":"fractal-mutation","trial_index":86,"time_elapsed":1366219,"internal_node_id":"0.0-5.0-32.0"},{"group":"hexagon_tri","fractal_assignment":["../images/gry_blk.png","../images/pnk_blu.png","../images/ylw_slt.png","../images/blu_wht.png","../images/cyn_red.png","../images/org_blu.png"],"mutagen_generator_assignment":[0,1],"goal":1,"start":4,"action_noise":0,"location_history":"[4,2,1]","action_history":"[1,0]","mutagen_history":"[1,0]","location_rts":"[1057,2539]","trial_type":"fractal-mutation","trial_index":87,"time_elapsed":1375885,"internal_node_id":"0.0-5.0-33.0"},{"group":"hexagon_tri","fractal_assignment":["../images/gry_blk.png","../images/pnk_blu.png","../images/ylw_slt.png","../images/blu_wht.png","../images/cyn_red.png","../images/org_blu.png"],"mutagen_generator_assignment":[0,1],"goal":2,"start":1,"action_noise":0,"location_history":"[1,3,2]","action_history":"[0,0]","mutagen_history":"[0,0]","location_rts":"[1413,589]","trial_type":"fractal-mutation","trial_index":88,"time_elapsed":1383955,"internal_node_id":"0.0-5.0-34.0"},{"group":"hexagon_tri","fractal_assignment":["../images/gry_blk.png","../images/pnk_blu.png","../images/ylw_slt.png","../images/blu_wht.png","../images/cyn_red.png","../images/org_blu.png"],"mutagen_generator_assignment":[0,1],"goal":0,"start":2,"action_noise":0,"location_history":"[2,3,4,0]","action_history":"[1,1,0]","mutagen_history":"[1,1,0]","location_rts":"[1258,630,534]","trial_type":"fractal-mutation","trial_index":89,"time_elapsed":1393494,"internal_node_id":"0.0-5.0-35.0"},{"group":"hexagon_tri","fractal_assignment":["../images/gry_blk.png","../images/pnk_blu.png","../images/ylw_slt.png","../images/blu_wht.png","../images/cyn_red.png","../images/org_blu.png"],"mutagen_generator_assignment":[0,1],"goal":5,"start":0,"action_noise":0,"location_history":"[0,5]","action_history":"[0]","mutagen_history":"[0]","location_rts":"[1378]","trial_type":"fractal-mutation","trial_index":90,"time_elapsed":1399910,"internal_node_id":"0.0-5.0-36.0"},{"group":"hexagon_tri","fractal_assignment":["../images/gry_blk.png","../images/pnk_blu.png","../images/ylw_slt.png","../images/blu_wht.png","../images/cyn_red.png","../images/org_blu.png"],"mutagen_generator_assignment":[0,1],"goal":2,"start":5,"action_noise":0,"location_history":"[5,0,1,3,2]","action_history":"[1,1,0,0]","mutagen_history":"[1,1,0,0]","location_rts":"[1092,619,757,521]","trial_type":"fractal-mutation","trial_index":91,"time_elapsed":1411059,"internal_node_id":"0.0-5.0-37.0"},{"group":"hexagon_tri","fractal_assignment":["../images/gry_blk.png","../images/pnk_blu.png","../images/ylw_slt.png","../images/blu_wht.png","../images/cyn_red.png","../images/org_blu.png"],"mutagen_generator_assignment":[0,1],"goal":1,"start":2,"action_noise":0,"location_history":"[2,1]","action_history":"[0]","mutagen_history":"[0]","location_rts":"[1419]","trial_type":"fractal-mutation","trial_index":92,"time_elapsed":1417514,"internal_node_id":"0.0-5.0-38.0"},{"group":"hexagon_tri","fractal_assignment":["../images/gry_blk.png","../images/pnk_blu.png","../images/ylw_slt.png","../images/blu_wht.png","../images/cyn_red.png","../images/org_blu.png"],"mutagen_generator_assignment":[0,1],"goal":4,"start":1,"action_noise":0,"location_history":"[1,5,4]","action_history":"[1,0]","mutagen_history":"[1,0]","location_rts":"[1166,893]","trial_type":"fractal-mutation","trial_index":93,"time_elapsed":1425659,"internal_node_id":"0.0-5.0-39.0"},{"group":"hexagon_tri","fractal_assignment":["../images/gry_blk.png","../images/pnk_blu.png","../images/ylw_slt.png","../images/blu_wht.png","../images/cyn_red.png","../images/org_blu.png"],"mutagen_generator_assignment":[0,1],"goal":3,"start":4,"action_noise":0,"location_history":"[4,2,1,3]","action_history":"[1,0,0]","mutagen_history":"[1,0,0]","location_rts":"[1071,636,965]","trial_type":"fractal-mutation","trial_index":94,"time_elapsed":1435441,"internal_node_id":"0.0-5.0-40.0"},{"group":"hexagon_tri","fractal_assignment":["../images/gry_blk.png","../images/pnk_blu.png","../images/ylw_slt.png","../images/blu_wht.png","../images/cyn_red.png","../images/org_blu.png"],"mutagen_generator_assignment":[0,1],"goal":5,"start":3,"action_noise":0,"location_history":"[3,4,0,5]","action_history":"[1,0,0]","mutagen_history":"[1,0,0]","location_rts":"[9738,745,453]","trial_type":"fractal-mutation","trial_index":95,"time_elapsed":1453478,"internal_node_id":"0.0-5.0-41.0"},{"group":"hexagon_tri","fractal_assignment":["../images/gry_blk.png","../images/pnk_blu.png","../images/ylw_slt.png","../images/blu_wht.png","../images/cyn_red.png","../images/org_blu.png"],"mutagen_generator_assignment":[0,1],"goal":3,"start":5,"action_noise":0,"location_history":"[5,0,1,3]","action_history":"[1,1,0]","mutagen_history":"[1,1,0]","location_rts":"[955,1104,694]","trial_type":"fractal-mutation","trial_index":96,"time_elapsed":1463337,"internal_node_id":"0.0-5.0-42.0"},{"group":"hexagon_tri","fractal_assignment":["../images/gry_blk.png","../images/pnk_blu.png","../images/ylw_slt.png","../images/blu_wht.png","../images/cyn_red.png","../images/org_blu.png"],"mutagen_generator_assignment":[0,1],"goal":0,"start":3,"action_noise":0,"location_history":"[3,4,0]","action_history":"[1,0]","mutagen_history":"[1,0]","location_rts":"[1383,458]","trial_type":"fractal-mutation","trial_index":97,"time_elapsed":1471254,"internal_node_id":"0.0-5.0-43.0"},{"group":"hexagon_tri","fractal_assignment":["../images/gry_blk.png","../images/pnk_blu.png","../images/ylw_slt.png","../images/blu_wht.png","../images/cyn_red.png","../images/org_blu.png"],"mutagen_generator_assignment":[0,1],"goal":2,"start":0,"action_noise":0,"location_history":"[0,1,3,2]","action_history":"[1,0,0]","mutagen_history":"[1,0,0]","location_rts":"[1345,951,466]","trial_type":"fractal-mutation","trial_index":98,"time_elapsed":1481120,"internal_node_id":"0.0-5.0-44.0"},{"group":"hexagon_tri","fractal_assignment":["../images/gry_blk.png","../images/pnk_blu.png","../images/ylw_slt.png","../images/blu_wht.png","../images/cyn_red.png","../images/org_blu.png"],"mutagen_generator_assignment":[0,1],"goal":4,"start":2,"action_noise":0,"location_history":"[2,3,4]","action_history":"[1,1]","mutagen_history":"[1,1]","location_rts":"[1330,874]","trial_type":"fractal-mutation","trial_index":99,"time_elapsed":1489406,"internal_node_id":"0.0-5.0-45.0"},{"group":"hexagon_tri","fractal_assignment":["../images/gry_blk.png","../images/pnk_blu.png","../images/ylw_slt.png","../images/blu_wht.png","../images/cyn_red.png","../images/org_blu.png"],"mutagen_generator_assignment":[0,1],"goal":1,"start":4,"action_noise":0,"location_history":"[4,2,1]","action_history":"[1,0]","mutagen_history":"[1,0]","location_rts":"[1726,586]","trial_type":"fractal-mutation","trial_index":100,"time_elapsed":1497808,"internal_node_id":"0.0-5.0-46.0"},{"group":"hexagon_tri","fractal_assignment":["../images/gry_blk.png","../images/pnk_blu.png","../images/ylw_slt.png","../images/blu_wht.png","../images/cyn_red.png","../images/org_blu.png"],"mutagen_generator_assignment":[0,1],"goal":4,"start":1,"action_noise":0,"location_history":"[1,5,4]","action_history":"[1,0]","mutagen_history":"[1,0]","location_rts":"[2391,979]","trial_type":"fractal-mutation","trial_index":101,"time_elapsed":1507254,"internal_node_id":"0.0-5.0-47.0"},{"group":"hexagon_tri","fractal_assignment":["../images/gry_blk.png","../images/pnk_blu.png","../images/ylw_slt.png","../images/blu_wht.png","../images/cyn_red.png","../images/org_blu.png"],"mutagen_generator_assignment":[0,1],"goal":3,"start":4,"action_noise":0,"location_history":"[4,2,1,3]","action_history":"[1,0,0]","mutagen_history":"[1,0,0]","location_rts":"[2328,691,466]","trial_type":"fractal-mutation","trial_index":102,"time_elapsed":1517845,"internal_node_id":"0.0-5.0-48.0"},{"group":"hexagon_tri","fractal_assignment":["../images/gry_blk.png","../images/pnk_blu.png","../images/ylw_slt.png","../images/blu_wht.png","../images/cyn_red.png","../images/org_blu.png"],"mutagen_generator_assignment":[0,1],"goal":5,"start":3,"action_noise":0,"location_history":"[3,4,0,5]","action_history":"[1,0,0]","mutagen_history":"[1,0,0]","location_rts":"[2197,565,519]","trial_type":"fractal-mutation","trial_index":103,"time_elapsed":1528253,"internal_node_id":"0.0-5.0-49.0"},{"view_history":"[{\"page_index\":0,\"viewing_time\":9557}]","rt":9557,"trial_type":"instructions","trial_index":104,"time_elapsed":1538813,"internal_node_id":"0.0-6.0"},{"rt":4300,"responses":"{\"Q0\":\"none\"}","trial_type":"survey-text","trial_index":105,"time_elapsed":1544123,"internal_node_id":"0.0-7.0"}]