[{"view_history":"[{\"page_index\":0,\"viewing_time\":17574},{\"page_index\":1,\"viewing_time\":10876},{\"page_index\":2,\"viewing_time\":14206}]","rt":42658,"trial_type":"instructions","trial_index":0,"time_elapsed":42662,"internal_node_id":"0.0-0.0"},{"view_history":"[{\"page_index\":0,\"viewing_time\":2120},{\"page_index\":1,\"viewing_time\":130098}]","rt":132222,"trial_type":"instructions","trial_index":1,"time_elapsed":175888,"internal_node_id":"0.0-1.0"},{"group":"hexagon_tri","room_assignment":["green","purple","blue","grey","yellow","red"],"door_color_assignment":["white","black"],"door_generator_assignment":[0,1],"goal":4,"start":0,"action_noise":0,"location_history":"[0,1,5,0,5,4]","action_history":"[1,1,1,0,0]","door_history":"[1,1,1,0,0]","location_rts":"[7290,4212,2582,1876,3386]","trial_type":"two-door-navigation","trial_index":2,"time_elapsed":204686,"internal_node_id":"0.0-2.0-0.0"},{"group":"hexagon_tri","room_assignment":["green","purple","blue","grey","yellow","red"],"door_color_assignment":["white","black"],"door_generator_assignment":[0,1],"goal":3,"start":4,"action_noise":0,"location_history":"[4,0,1,5,4,0,5,4,0,5,0,1,5,4,2,3]","action_history":"[0,1,1,0,0,0,0,0,0,1,1,1,0,1,1]","door_history":"[0,1,1,0,0,0,0,0,0,1,1,1,0,1,1]","location_rts":"[1724,890,508,910,436,412,356,336,1750,302,388,640,976,1004,518]","trial_type":"two-door-navigation","trial_index":3,"time_elapsed":235630,"internal_node_id":"0.0-2.0-1.0"},{"group":"hexagon_tri","room_assignment":["green","purple","blue","grey","yellow","red"],"door_color_assignment":["white","black"],"door_generator_assignment":[0,1],"goal":5,"start":3,"action_noise":0,"location_history":"[3,4,2,3,2,1,3,2,1,5]","action_history":"[1,1,1,0,0,0,0,0,1]","door_history":"[1,1,1,0,0,0,0,0,1]","location_rts":"[69506,10664,7118,5190,2832,2486,1324,420,1016]","trial_type":"two-door-navigation","trial_index":4,"time_elapsed":349698,"internal_node_id":"0.0-2.0-2.0"},{"group":"hexagon_tri","room_assignment":["green","purple","blue","grey","yellow","red"],"door_color_assignment":["white","black"],"door_generator_assignment":[0,1],"goal":2,"start":5,"action_noise":0,"location_history":"[5,4,0,1,5,0,1,3,2]","action_history":"[0,0,1,1,1,1,0,0]","door_history":"[0,0,1,1,1,1,0,0]","location_rts":"[4306,1802,1694,592,644,636,1018,1772]","trial_type":"two-door-navigation","trial_index":5,"time_elapsed":374512,"internal_node_id":"0.0-2.0-3.0"},{"group":"hexagon_tri","room_assignment":["green","purple","blue","grey","yellow","red"],"door_color_assignment":["white","black"],"door_generator_assignment":[0,1],"goal":1,"start":2,"action_noise":0,"location_history":"[2,3,4,2,1]","action_history":"[1,1,1,0]","door_history":"[1,1,1,0]","location_rts":"[4106,1580,1738,1488]","trial_type":"two-door-navigation","trial_index":6,"time_elapsed":391770,"internal_node_id":"0.0-2.0-4.0"},{"group":"hexagon_tri","room_assignment":["green","purple","blue","grey","yellow","red"],"door_color_assignment":["white","black"],"door_generator_assignment":[0,1],"goal":4,"start":1,"action_noise":0,"location_history":"[1,3,2,1,5,4]","action_history":"[0,0,0,1,0]","door_history":"[0,0,0,1,0]","location_rts":"[2324,478,770,856,1796]","trial_type":"two-door-navigation","trial_index":7,"time_elapsed":407236,"internal_node_id":"0.0-2.0-5.0"},{"group":"hexagon_tri","room_assignment":["green","purple","blue","grey","yellow","red"],"door_color_assignment":["white","black"],"door_generator_assignment":[0,1],"goal":1,"start":4,"action_noise":0,"location_history":"[4,2,3,4,0,1]","action_history":"[1,1,1,0,1]","door_history":"[1,1,1,0,1]","location_rts":"[1702,504,1586,1308,1252]","trial_type":"two-door-navigation","trial_index":8,"time_elapsed":422806,"internal_node_id":"0.0-2.0-6.0"},{"group":"hexagon_tri","room_assignment":["green","purple","blue","grey","yellow","red"],"door_color_assignment":["white","black"],"door_generator_assignment":[0,1],"goal":5,"start":1,"action_noise":0,"location_history":"[1,3,4,2,3,4,0,1,3,2,1,5]","action_history":"[0,1,1,1,1,0,1,0,0,0,1]","door_history":"[0,1,1,1,1,0,1,0,0,0,1]","location_rts":"[3540,2882,1018,544,802,392,1280,918,700,456,1110]","trial_type":"two-door-navigation","trial_index":9,"time_elapsed":452488,"internal_node_id":"0.0-2.0-7.0"},{"group":"hexagon_tri","room_assignment":["green","purple","blue","grey","yellow","red"],"door_color_assignment":["white","black"],"door_generator_assignment":[0,1],"goal":0,"start":5,"action_noise":0,"location_history":"[5,4,2,3,4,0]","action_history":"[0,1,1,1,0]","door_history":"[0,1,1,1,0]","location_rts":"[31412,3106,1632,700,1506]","trial_type":"two-door-navigation","trial_index":10,"time_elapsed":500102,"internal_node_id":"0.0-2.0-8.0"},{"group":"hexagon_tri","room_assignment":["green","purple","blue","grey","yellow","red"],"door_color_assignment":["white","black"],"door_generator_assignment":[0,1],"goal":2,"start":0,"action_noise":0,"location_history":"[0,1,3,4,2]","action_history":"[1,0,1,1]","door_history":"[1,0,1,1]","location_rts":"[2116,1692,1410,1814]","trial_type":"two-door-navigation","trial_index":11,"time_elapsed":515294,"internal_node_id":"0.0-2.0-9.0"},{"group":"hexagon_tri","room_assignment":["green","purple","blue","grey","yellow","red"],"door_color_assignment":["white","black"],"door_generator_assignment":[0,1],"goal":3,"start":2,"action_noise":0,"location_history":"[2,3]","action_history":"[1]","door_history":"[1]","location_rts":"[4180]","trial_type":"two-door-navigation","trial_index":12,"time_elapsed":524562,"internal_node_id":"0.0-2.0-10.0"},{"group":"hexagon_tri","room_assignment":["green","purple","blue","grey","yellow","red"],"door_color_assignment":["white","black"],"door_generator_assignment":[0,1],"goal":0,"start":3,"action_noise":0,"location_history":"[3,2,3,4,2,3,4,0]","action_history":"[0,1,1,1,1,1,0]","door_history":"[0,1,1,1,1,1,0]","location_rts":"[8360,2020,1998,5032,1338,626,286]","trial_type":"two-door-navigation","trial_index":13,"time_elapsed":555544,"internal_node_id":"0.0-2.0-11.0"},{"group":"hexagon_tri","room_assignment":["green","purple","blue","grey","yellow","red"],"door_color_assignment":["white","black"],"door_generator_assignment":[0,1],"goal":2,"start":0,"action_noise":0,"location_history":"[0,1,5,0,1,3,4,2]","action_history":"[1,1,1,1,0,1,1]","door_history":"[1,1,1,1,0,1,1]","location_rts":"[33788,1110,746,466,302,1134,1234]","trial_type":"two-door-navigation","trial_index":14,"time_elapsed":605720,"internal_node_id":"0.0-2.0-12.0"},{"group":"hexagon_tri","room_assignment":["green","purple","blue","grey","yellow","red"],"door_color_assignment":["white","black"],"door_generator_assignment":[0,1],"goal":5,"start":2,"action_noise":0,"location_history":"[2,3,4,2,3,2,1,3,2,3,4,0,5]","action_history":"[1,1,1,1,0,0,0,0,1,1,0,0]","door_history":"[1,1,1,1,0,0,0,0,1,1,0,0]","location_rts":"[1836,6638,860,496,490,644,422,442,778,350,1618,1260]","trial_type":"two-door-navigation","trial_index":15,"time_elapsed":638092,"internal_node_id":"0.0-2.0-13.0"},{"group":"hexagon_tri","room_assignment":["green","purple","blue","grey","yellow","red"],"door_color_assignment":["white","black"],"door_generator_assignment":[0,1],"goal":4,"start":5,"action_noise":0,"location_history":"[5,4]","action_history":"[0]","door_history":"[0]","location_rts":"[4384]","trial_type":"two-door-navigation","trial_index":16,"time_elapsed":647526,"internal_node_id":"0.0-2.0-14.0"},{"group":"hexagon_tri","room_assignment":["green","purple","blue","grey","yellow","red"],"door_color_assignment":["white","black"],"door_generator_assignment":[0,1],"goal":3,"start":4,"action_noise":0,"location_history":"[4,0,5,0,1,5,0,5,0,1,3]","action_history":"[0,0,1,1,1,1,0,1,1,0]","door_history":"[0,0,1,1,1,1,0,1,1,0]","location_rts":"[6370,1400,790,882,986,540,330,1364,908,1330]","trial_type":"two-door-navigation","trial_index":17,"time_elapsed":676912,"internal_node_id":"0.0-2.0-15.0"},{"group":"hexagon_tri","room_assignment":["green","purple","blue","grey","yellow","red"],"door_color_assignment":["white","black"],"door_generator_assignment":[0,1],"goal":1,"start":3,"action_noise":0,"location_history":"[3,2,1]","action_history":"[0,0]","door_history":"[0,0]","location_rts":"[4958,506]","trial_type":"two-door-navigation","trial_index":18,"time_elapsed":688460,"internal_node_id":"0.0-2.0-16.0"},{"group":"hexagon_tri","room_assignment":["green","purple","blue","grey","yellow","red"],"door_color_assignment":["white","black"],"door_generator_assignment":[0,1],"goal":5,"start":1,"action_noise":0,"location_history":"[1,3,4,2,3,4,2,3,2,3,4,0,5]","action_history":"[0,1,1,1,1,1,1,0,1,1,0,0]","door_history":"[0,1,1,1,1,1,1,0,1,1,0,0]","location_rts":"[7612,954,504,1018,378,338,1028,304,944,374,604,1796]","trial_type":"two-door-navigation","trial_index":19,"time_elapsed":721038,"internal_node_id":"0.0-2.0-17.0"},{"group":"hexagon_tri","room_assignment":["green","purple","blue","grey","yellow","red"],"door_color_assignment":["white","black"],"door_generator_assignment":[0,1],"goal":4,"start":5,"action_noise":0,"location_history":"[5,4]","action_history":"[0]","door_history":"[0]","location_rts":"[1948]","trial_type":"two-door-navigation","trial_index":20,"time_elapsed":728042,"internal_node_id":"0.0-2.0-18.0"},{"group":"hexagon_tri","room_assignment":["green","purple","blue","grey","yellow","red"],"door_color_assignment":["white","black"],"door_generator_assignment":[0,1],"goal":0,"start":4,"action_noise":0,"location_history":"[4,2,3,4,0]","action_history":"[1,1,1,0]","door_history":"[1,1,1,0]","location_rts":"[4644,1320,622,448]","trial_type":"two-door-navigation","trial_index":21,"time_elapsed":743252,"internal_node_id":"0.0-2.0-19.0"},{"group":"hexagon_tri","room_assignment":["green","purple","blue","grey","yellow","red"],"door_color_assignment":["white","black"],"door_generator_assignment":[0,1],"goal":1,"start":0,"action_noise":0,"location_history":"[0,1]","action_history":"[1]","door_history":"[1]","location_rts":"[12010]","trial_type":"two-door-navigation","trial_index":22,"time_elapsed":760320,"internal_node_id":"0.0-2.0-20.0"},{"group":"hexagon_tri","room_assignment":["green","purple","blue","grey","yellow","red"],"door_color_assignment":["white","black"],"door_generator_assignment":[0,1],"goal":3,"start":1,"action_noise":0,"location_history":"[1,3]","action_history":"[0]","door_history":"[0]","location_rts":"[3040]","trial_type":"two-door-navigation","trial_index":23,"time_elapsed":768416,"internal_node_id":"0.0-2.0-21.0"},{"group":"hexagon_tri","room_assignment":["green","purple","blue","grey","yellow","red"],"door_color_assignment":["white","black"],"door_generator_assignment":[0,1],"goal":2,"start":3,"action_noise":0,"location_history":"[3,4,2]","action_history":"[1,1]","door_history":"[1,1]","location_rts":"[1814,1022]","trial_type":"two-door-navigation","trial_index":24,"time_elapsed":777338,"internal_node_id":"0.0-2.0-22.0"},{"group":"hexagon_tri","room_assignment":["green","purple","blue","grey","yellow","red"],"door_color_assignment":["white","black"],"door_generator_assignment":[0,1],"goal":0,"start":2,"action_noise":0,"location_history":"[2,3,4,0]","action_history":"[1,1,0]","door_history":"[1,1,0]","location_rts":"[38646,1056,1540]","trial_type":"two-door-navigation","trial_index":25,"time_elapsed":825726,"internal_node_id":"0.0-2.0-23.0"},{"group":"hexagon_tri","room_assignment":["green","purple","blue","grey","yellow","red"],"door_color_assignment":["white","black"],"door_generator_assignment":[0,1],"goal":3,"start":0,"action_noise":0,"location_history":"[0,1,5,0,5,0,1,5,4,0,5,4,0,1,5,0,5,4,0,1,5,4,2,1,3]","action_history":"[1,1,1,0,1,1,1,0,0,0,0,0,1,1,1,0,0,0,1,1,0,1,0,0]","door_history":"[1,1,1,0,1,1,1,0,0,0,0,0,1,1,1,0,0,0,1,1,0,1,0,0]","location_rts":"[4374,1038,670,336,1002,488,724,978,1066,820,1338,506,878,388,492,1232,532,3770,1072,416,1086,818,924,1480]","trial_type":"two-door-navigation","trial_index":26,"time_elapsed":881544,"internal_node_id":"0.0-2.0-24.0"},{"group":"hexagon_tri","room_assignment":["green","purple","blue","grey","yellow","red"],"door_color_assignment":["white","black"],"door_generator_assignment":[0,1],"goal":1,"start":3,"action_noise":0,"location_history":"[3,4,2,3,2,3,2,1]","action_history":"[1,1,1,0,1,0,0]","door_history":"[1,1,1,0,1,0,0]","location_rts":"[3260,1516,384,304,852,1098,690]","trial_type":"two-door-navigation","trial_index":27,"time_elapsed":901092,"internal_node_id":"0.0-2.0-25.0"},{"group":"hexagon_tri","room_assignment":["green","purple","blue","grey","yellow","red"],"door_color_assignment":["white","black"],"door_generator_assignment":[0,1],"goal":2,"start":1,"action_noise":0,"location_history":"[1,5,0,1,3,4,0,1,5,0,1,3,2]","action_history":"[1,1,1,0,1,0,1,1,1,1,0,0]","door_history":"[1,1,1,0,1,0,1,1,1,1,0,0]","location_rts":"[35432,782,416,76,912,1816,2030,594,400,506,748,832]","trial_type":"two-door-navigation","trial_index":28,"time_elapsed":962192,"internal_node_id":"0.0-2.0-26.0"},{"group":"hexagon_tri","room_assignment":["green","purple","blue","grey","yellow","red"],"door_color_assignment":["white","black"],"door_generator_assignment":[0,1],"goal":5,"start":2,"action_noise":0,"location_history":"[2,3,4,0,5]","action_history":"[1,1,0,0]","door_history":"[1,1,0,0]","location_rts":"[3144,1164,1982,390]","trial_type":"two-door-navigation","trial_index":29,"time_elapsed":977088,"internal_node_id":"0.0-2.0-27.0"},{"group":"hexagon_tri","room_assignment":["green","purple","blue","grey","yellow","red"],"door_color_assignment":["white","black"],"door_generator_assignment":[0,1],"goal":4,"start":5,"action_noise":0,"location_history":"[5,4]","action_history":"[0]","door_history":"[0]","location_rts":"[1592]","trial_type":"two-door-navigation","trial_index":30,"time_elapsed":983796,"internal_node_id":"0.0-2.0-28.0"},{"group":"hexagon_tri","room_assignment":["green","purple","blue","grey","yellow","red"],"door_color_assignment":["white","black"],"door_generator_assignment":[0,1],"goal":5,"start":4,"action_noise":0,"location_history":"[4,0,5]","action_history":"[0,0]","door_history":"[0,0]","location_rts":"[938,324]","trial_type":"two-door-navigation","trial_index":31,"time_elapsed":991148,"internal_node_id":"0.0-2.0-29.0"},{"group":"hexagon_tri","room_assignment":["green","purple","blue","grey","yellow","red"],"door_color_assignment":["white","black"],"door_generator_assignment":[0,1],"goal":3,"start":5,"action_noise":0,"location_history":"[5,0,1,5,0,5,4,2,3]","action_history":"[1,1,1,1,0,0,1,1]","door_history":"[1,1,1,1,0,0,1,1]","location_rts":"[4690,1644,1334,1062,280,696,1440,2656]","trial_type":"two-door-navigation","trial_index":32,"time_elapsed":1017294,"internal_node_id":"0.0-2.0-30.0"},{"group":"hexagon_tri","room_assignment":["green","purple","blue","grey","yellow","red"],"door_color_assignment":["white","black"],"door_generator_assignment":[0,1],"goal":0,"start":3,"action_noise":0,"location_history":"[3,4,0]","action_history":"[1,0]","door_history":"[1,0]","location_rts":"[2426,890]","trial_type":"two-door-navigation","trial_index":33,"time_elapsed":1026708,"internal_node_id":"0.0-2.0-31.0"},{"group":"hexagon_tri","room_assignment":["green","purple","blue","grey","yellow","red"],"door_color_assignment":["white","black"],"door_generator_assignment":[0,1],"goal":4,"start":0,"action_noise":0,"location_history":"[0,5,4]","action_history":"[0,0]","door_history":"[0,0]","location_rts":"[1380,422]","trial_type":"two-door-navigation","trial_index":34,"time_elapsed":1034678,"internal_node_id":"0.0-2.0-32.0"},{"group":"hexagon_tri","room_assignment":["green","purple","blue","grey","yellow","red"],"door_color_assignment":["white","black"],"door_generator_assignment":[0,1],"goal":1,"start":4,"action_noise":0,"location_history":"[4,2,3,4,0,5,0,1]","action_history":"[1,1,1,0,0,1,1]","door_history":"[1,1,1,0,0,1,1]","location_rts":"[2222,840,584,812,452,798,1432]","trial_type":"two-door-navigation","trial_index":35,"time_elapsed":1053180,"internal_node_id":"0.0-2.0-33.0"},{"group":"hexagon_tri","room_assignment":["green","purple","blue","grey","yellow","red"],"door_color_assignment":["white","black"],"door_generator_assignment":[0,1],"goal":2,"start":1,"action_noise":0,"location_history":"[1,3,2]","action_history":"[0,0]","door_history":"[0,0]","location_rts":"[3010,560]","trial_type":"two-door-navigation","trial_index":36,"time_elapsed":1062878,"internal_node_id":"0.0-2.0-34.0"},{"group":"hexagon_tri","room_assignment":["green","purple","blue","grey","yellow","red"],"door_color_assignment":["white","black"],"door_generator_assignment":[0,1],"goal":0,"start":2,"action_noise":0,"location_history":"[2,3,4,0]","action_history":"[1,1,0]","door_history":"[1,1,0]","location_rts":"[2768,866,1216]","trial_type":"two-door-navigation","trial_index":37,"time_elapsed":1074850,"internal_node_id":"0.0-2.0-35.0"},{"group":"hexagon_tri","room_assignment":["green","purple","blue","grey","yellow","red"],"door_color_assignment":["white","black"],"door_generator_assignment":[0,1],"goal":5,"start":0,"action_noise":0,"location_history":"[0,5]","action_history":"[0]","door_history":"[0]","location_rts":"[3236]","trial_type":"two-door-navigation","trial_index":38,"time_elapsed":1083142,"internal_node_id":"0.0-2.0-36.0"},{"group":"hexagon_tri","room_assignment":["green","purple","blue","grey","yellow","red"],"door_color_assignment":["white","black"],"door_generator_assignment":[0,1],"goal":2,"start":5,"action_noise":0,"location_history":"[5,0,1,3,2]","action_history":"[1,1,0,0]","door_history":"[1,1,0,0]","location_rts":"[7240,554,1364,1222]","trial_type":"two-door-navigation","trial_index":39,"time_elapsed":1101690,"internal_node_id":"0.0-2.0-37.0"},{"group":"hexagon_tri","room_assignment":["green","purple","blue","grey","yellow","red"],"door_color_assignment":["white","black"],"door_generator_assignment":[0,1],"goal":1,"start":2,"action_noise":0,"location_history":"[2,1]","action_history":"[0]","door_history":"[0]","location_rts":"[1896]","trial_type":"two-door-navigation","trial_index":40,"time_elapsed":1108642,"internal_node_id":"0.0-2.0-38.0"},{"group":"hexagon_tri","room_assignment":["green","purple","blue","grey","yellow","red"],"door_color_assignment":["white","black"],"door_generator_assignment":[0,1],"goal":4,"start":1,"action_noise":0,"location_history":"[1,5,4]","action_history":"[1,0]","door_history":"[1,0]","location_rts":"[1838,874]","trial_type":"two-door-navigation","trial_index":41,"time_elapsed":1117440,"internal_node_id":"0.0-2.0-39.0"},{"group":"hexagon_tri","room_assignment":["green","purple","blue","grey","yellow","red"],"door_color_assignment":["white","black"],"door_generator_assignment":[0,1],"goal":3,"start":4,"action_noise":0,"location_history":"[4,0,1,3]","action_history":"[0,1,0]","door_history":"[0,1,0]","location_rts":"[1492,1824,1440]","trial_type":"two-door-navigation","trial_index":42,"time_elapsed":1129398,"internal_node_id":"0.0-2.0-40.0"},{"group":"hexagon_tri","room_assignment":["green","purple","blue","grey","yellow","red"],"door_color_assignment":["white","black"],"door_generator_assignment":[0,1],"goal":5,"start":3,"action_noise":0,"location_history":"[3,2,1,5]","action_history":"[0,0,1]","door_history":"[0,0,1]","location_rts":"[2090,726,1122]","trial_type":"two-door-navigation","trial_index":43,"time_elapsed":1140444,"internal_node_id":"0.0-2.0-41.0"},{"group":"hexagon_tri","room_assignment":["green","purple","blue","grey","yellow","red"],"door_color_assignment":["white","black"],"door_generator_assignment":[0,1],"goal":3,"start":5,"action_noise":0,"location_history":"[5,0,5,4,2,1,3]","action_history":"[1,0,0,1,0,0]","door_history":"[1,0,0,1,0,0]","location_rts":"[4578,1376,824,890,1370,628]","trial_type":"two-door-navigation","trial_index":44,"time_elapsed":1160478,"internal_node_id":"0.0-2.0-42.0"},{"group":"hexagon_tri","room_assignment":["green","purple","blue","grey","yellow","red"],"door_color_assignment":["white","black"],"door_generator_assignment":[0,1],"goal":0,"start":3,"action_noise":0,"location_history":"[3,2,1,5,4,0]","action_history":"[0,0,1,0,0]","door_history":"[0,0,1,0,0]","location_rts":"[1784,944,1356,922,478]","trial_type":"two-door-navigation","trial_index":45,"time_elapsed":1175212,"internal_node_id":"0.0-2.0-43.0"},{"group":"hexagon_tri","room_assignment":["green","purple","blue","grey","yellow","red"],"door_color_assignment":["white","black"],"door_generator_assignment":[0,1],"goal":2,"start":0,"action_noise":0,"location_history":"[0,5,4,0,1,5,0,1,3,2]","action_history":"[0,0,0,1,1,1,1,0,0]","door_history":"[0,0,0,1,1,1,1,0,0]","location_rts":"[1496,810,444,358,1104,566,462,130,740]","trial_type":"two-door-navigation","trial_index":46,"time_elapsed":1194670,"internal_node_id":"0.0-2.0-44.0"},{"group":"hexagon_tri","room_assignment":["green","purple","blue","grey","yellow","red"],"door_color_assignment":["white","black"],"door_generator_assignment":[0,1],"goal":4,"start":2,"action_noise":0,"location_history":"[2,1,5,4]","action_history":"[0,1,0]","door_history":"[0,1,0]","location_rts":"[1386,1862,996]","trial_type":"two-door-navigation","trial_index":47,"time_elapsed":1206050,"internal_node_id":"0.0-2.0-45.0"},{"group":"hexagon_tri","room_assignment":["green","purple","blue","grey","yellow","red"],"door_color_assignment":["white","black"],"door_generator_assignment":[0,1],"goal":1,"start":4,"action_noise":0,"location_history":"[4,0,5,0,1]","action_history":"[0,0,1,1]","door_history":"[0,0,1,1]","location_rts":"[2220,1650,308,592]","trial_type":"two-door-navigation","trial_index":48,"time_elapsed":1219064,"internal_node_id":"0.0-2.0-46.0"},{"group":"hexagon_tri","room_assignment":["green","purple","blue","grey","yellow","red"],"door_color_assignment":["white","black"],"door_generator_assignment":[0,1],"goal":4,"start":1,"action_noise":0,"location_history":"[1,5,4]","action_history":"[1,0]","door_history":"[1,0]","location_rts":"[1148,708]","trial_type":"two-door-navigation","trial_index":49,"time_elapsed":1227026,"internal_node_id":"0.0-2.0-47.0"},{"group":"hexagon_tri","room_assignment":["green","purple","blue","grey","yellow","red"],"door_color_assignment":["white","black"],"door_generator_assignment":[0,1],"goal":3,"start":4,"action_noise":0,"location_history":"[4,0,1,3]","action_history":"[0,1,0]","door_history":"[0,1,0]","location_rts":"[848,548,828]","trial_type":"two-door-navigation","trial_index":50,"time_elapsed":1236374,"internal_node_id":"0.0-2.0-48.0"},{"group":"hexagon_tri","room_assignment":["green","purple","blue","grey","yellow","red"],"door_color_assignment":["white","black"],"door_generator_assignment":[0,1],"goal":5,"start":3,"action_noise":0,"location_history":"[3,2,1,5]","action_history":"[0,0,1]","door_history":"[0,0,1]","location_rts":"[204,950,1146]","trial_type":"two-door-navigation","trial_index":51,"time_elapsed":1245832,"internal_node_id":"0.0-2.0-49.0"},{"view_history":"[{\"page_index\":0,\"viewing_time\":1748}]","rt":1748,"trial_type":"instructions","trial_index":52,"time_elapsed":1248582,"internal_node_id":"0.0-3.0"},{"view_history":"[{\"page_index\":0,\"viewing_time\":4280},{\"page_index\":1,\"viewing_time\":20384}]","rt":24664,"trial_type":"instructions","trial_index":53,"time_elapsed":1274250,"internal_node_id":"0.0-4.0"},{"group":"hexagon_tri","fractal_assignment":["../images/blu_wht.png","../images/cyn_red.png","../images/ylw_slt.png","../images/pnk_blu.png","../images/gry_blk.png","../images/org_blu.png"],"mutagen_generator_assignment":[0,1],"goal":4,"start":0,"action_noise":0,"location_history":"[0,5,0,1,5,4]","action_history":"[0,1,1,1,0]","mutagen_history":"[0,1,1,1,0]","location_rts":"[2848,3484,920,836,1162]","trial_type":"fractal-mutation","trial_index":54,"time_elapsed":1293452,"internal_node_id":"0.0-5.0-0.0"},{"group":"hexagon_tri","fractal_assignment":["../images/blu_wht.png","../images/cyn_red.png","../images/ylw_slt.png","../images/pnk_blu.png","../images/gry_blk.png","../images/org_blu.png"],"mutagen_generator_assignment":[0,1],"goal":3,"start":4,"action_noise":0,"location_history":"[4,0,5,4,2,3]","action_history":"[0,0,0,1,1]","mutagen_history":"[0,0,0,1,1]","location_rts":"[1910,214,744,892,70]","trial_type":"fractal-mutation","trial_index":55,"time_elapsed":1307054,"internal_node_id":"0.0-5.0-1.0"},{"group":"hexagon_tri","fractal_assignment":["../images/blu_wht.png","../images/cyn_red.png","../images/ylw_slt.png","../images/pnk_blu.png","../images/gry_blk.png","../images/org_blu.png"],"mutagen_generator_assignment":[0,1],"goal":5,"start":3,"action_noise":0,"location_history":"[3,4,2,1,3,2,1,5]","action_history":"[1,1,0,0,0,0,1]","mutagen_history":"[1,1,0,0,0,0,1]","location_rts":"[998,102,664,848,728,650,1096]","trial_type":"fractal-mutation","trial_index":56,"time_elapsed":1324220,"internal_node_id":"0.0-5.0-2.0"},{"group":"hexagon_tri","fractal_assignment":["../images/blu_wht.png","../images/cyn_red.png","../images/ylw_slt.png","../images/pnk_blu.png","../images/gry_blk.png","../images/org_blu.png"],"mutagen_generator_assignment":[0,1],"goal":2,"start":5,"action_noise":0,"location_history":"[5,0,1,5,4,0,1,5,4,2]","action_history":"[1,1,1,0,0,1,1,0,1]","mutagen_history":"[1,1,1,0,0,1,1,0,1]","location_rts":"[2494,828,594,926,826,1190,742,946,464]","trial_type":"fractal-mutation","trial_index":57,"time_elapsed":1347806,"internal_node_id":"0.0-5.0-3.0"},{"group":"hexagon_tri","fractal_assignment":["../images/blu_wht.png","../images/cyn_red.png","../images/ylw_slt.png","../images/pnk_blu.png","../images/gry_blk.png","../images/org_blu.png"],"mutagen_generator_assignment":[0,1],"goal":1,"start":2,"action_noise":0,"location_history":"[2,3,4,0,1]","action_history":"[1,1,0,1]","mutagen_history":"[1,1,0,1]","location_rts":"[1510,602,1018,602]","trial_type":"fractal-mutation","trial_index":58,"time_elapsed":1360272,"internal_node_id":"0.0-5.0-4.0"},{"group":"hexagon_tri","fractal_assignment":["../images/blu_wht.png","../images/cyn_red.png","../images/ylw_slt.png","../images/pnk_blu.png","../images/gry_blk.png","../images/org_blu.png"],"mutagen_generator_assignment":[0,1],"goal":4,"start":1,"action_noise":0,"location_history":"[1,3,2,1,5,4]","action_history":"[0,0,0,1,0]","mutagen_history":"[0,0,0,1,0]","location_rts":"[1040,616,632,306,446]","trial_type":"fractal-mutation","trial_index":59,"time_elapsed":1373060,"internal_node_id":"0.0-5.0-5.0"},{"group":"hexagon_tri","fractal_assignment":["../images/blu_wht.png","../images/cyn_red.png","../images/ylw_slt.png","../images/pnk_blu.png","../images/gry_blk.png","../images/org_blu.png"],"mutagen_generator_assignment":[0,1],"goal":1,"start":4,"action_noise":0,"location_history":"[4,2,3,2,3,2,1]","action_history":"[1,1,0,1,0,0]","mutagen_history":"[1,1,0,1,0,0]","location_rts":"[2150,744,560,410,1364,402]","trial_type":"fractal-mutation","trial_index":60,"time_elapsed":1389628,"internal_node_id":"0.0-5.0-6.0"},{"group":"hexagon_tri","fractal_assignment":["../images/blu_wht.png","../images/cyn_red.png","../images/ylw_slt.png","../images/pnk_blu.png","../images/gry_blk.png","../images/org_blu.png"],"mutagen_generator_assignment":[0,1],"goal":5,"start":1,"action_noise":0,"location_history":"[1,3,2,3,4,0,5]","action_history":"[0,0,1,1,0,0]","mutagen_history":"[0,0,1,1,0,0]","location_rts":"[1620,1200,268,614,242,626]","trial_type":"fractal-mutation","trial_index":61,"time_elapsed":1405084,"internal_node_id":"0.0-5.0-7.0"},{"group":"hexagon_tri","fractal_assignment":["../images/blu_wht.png","../images/cyn_red.png","../images/ylw_slt.png","../images/pnk_blu.png","../images/gry_blk.png","../images/org_blu.png"],"mutagen_generator_assignment":[0,1],"goal":0,"start":5,"action_noise":0,"location_history":"[5,4,0]","action_history":"[0,0]","mutagen_history":"[0,0]","location_rts":"[1124,1158]","trial_type":"fractal-mutation","trial_index":62,"time_elapsed":1413658,"internal_node_id":"0.0-5.0-8.0"},{"group":"hexagon_tri","fractal_assignment":["../images/blu_wht.png","../images/cyn_red.png","../images/ylw_slt.png","../images/pnk_blu.png","../images/gry_blk.png","../images/org_blu.png"],"mutagen_generator_assignment":[0,1],"goal":2,"start":0,"action_noise":0,"location_history":"[0,1,5,0,5,4,2]","action_history":"[1,1,1,0,0,1]","mutagen_history":"[1,1,1,0,0,1]","location_rts":"[390,824,584,98,450,926]","trial_type":"fractal-mutation","trial_index":63,"time_elapsed":1427904,"internal_node_id":"0.0-5.0-9.0"},{"group":"hexagon_tri","fractal_assignment":["../images/blu_wht.png","../images/cyn_red.png","../images/ylw_slt.png","../images/pnk_blu.png","../images/gry_blk.png","../images/org_blu.png"],"mutagen_generator_assignment":[0,1],"goal":3,"start":2,"action_noise":0,"location_history":"[2,3]","action_history":"[1]","mutagen_history":"[1]","location_rts":"[400]","trial_type":"fractal-mutation","trial_index":64,"time_elapsed":1433524,"internal_node_id":"0.0-5.0-10.0"},{"group":"hexagon_tri","fractal_assignment":["../images/blu_wht.png","../images/cyn_red.png","../images/ylw_slt.png","../images/pnk_blu.png","../images/gry_blk.png","../images/org_blu.png"],"mutagen_generator_assignment":[0,1],"goal":0,"start":3,"action_noise":0,"location_history":"[3,2,3,4,2,1,5,0]","action_history":"[0,1,1,1,0,1,1]","mutagen_history":"[0,1,1,1,0,1,1]","location_rts":"[362,644,564,430,190,776,542]","trial_type":"fractal-mutation","trial_index":65,"time_elapsed":1449150,"internal_node_id":"0.0-5.0-11.0"},{"group":"hexagon_tri","fractal_assignment":["../images/blu_wht.png","../images/cyn_red.png","../images/ylw_slt.png","../images/pnk_blu.png","../images/gry_blk.png","../images/org_blu.png"],"mutagen_generator_assignment":[0,1],"goal":2,"start":0,"action_noise":0,"location_history":"[0,1,5,0,5,0,1,3,4,2]","action_history":"[1,1,1,0,1,1,0,1,1]","mutagen_history":"[1,1,1,0,1,1,0,1,1]","location_rts":"[210,576,648,166,726,758,392,646,440]","trial_type":"fractal-mutation","trial_index":66,"time_elapsed":1468208,"internal_node_id":"0.0-5.0-12.0"},{"group":"hexagon_tri","fractal_assignment":["../images/blu_wht.png","../images/cyn_red.png","../images/ylw_slt.png","../images/pnk_blu.png","../images/gry_blk.png","../images/org_blu.png"],"mutagen_generator_assignment":[0,1],"goal":5,"start":2,"action_noise":0,"location_history":"[2,3,4,2,1,3,2,3,2,1,5]","action_history":"[1,1,1,0,0,0,1,0,0,1]","mutagen_history":"[1,1,1,0,0,0,1,0,0,1]","location_rts":"[376,576,472,110,786,426,706,292,444,302]","trial_type":"fractal-mutation","trial_index":67,"time_elapsed":1488090,"internal_node_id":"0.0-5.0-13.0"},{"group":"hexagon_tri","fractal_assignment":["../images/blu_wht.png","../images/cyn_red.png","../images/ylw_slt.png","../images/pnk_blu.png","../images/gry_blk.png","../images/org_blu.png"],"mutagen_generator_assignment":[0,1],"goal":4,"start":5,"action_noise":0,"location_history":"[5,0,1,3,2,1,5,4]","action_history":"[1,1,0,0,0,1,0]","mutagen_history":"[1,1,0,0,0,1,0]","location_rts":"[568,652,372,342,542,300,284]","trial_type":"fractal-mutation","trial_index":68,"time_elapsed":1503392,"internal_node_id":"0.0-5.0-14.0"},{"group":"hexagon_tri","fractal_assignment":["../images/blu_wht.png","../images/cyn_red.png","../images/ylw_slt.png","../images/pnk_blu.png","../images/gry_blk.png","../images/org_blu.png"],"mutagen_generator_assignment":[0,1],"goal":3,"start":4,"action_noise":0,"location_history":"[4,0,1,5,4,2,3]","action_history":"[0,1,1,0,1,1]","mutagen_history":"[0,1,1,0,1,1]","location_rts":"[336,538,548,230,492,280]","trial_type":"fractal-mutation","trial_index":69,"time_elapsed":1516750,"internal_node_id":"0.0-5.0-15.0"},{"group":"hexagon_tri","fractal_assignment":["../images/blu_wht.png","../images/cyn_red.png","../images/ylw_slt.png","../images/pnk_blu.png","../images/gry_blk.png","../images/org_blu.png"],"mutagen_generator_assignment":[0,1],"goal":1,"start":3,"action_noise":0,"location_history":"[3,4,2,3,4,2,1]","action_history":"[1,1,1,1,1,0]","mutagen_history":"[1,1,1,1,1,0]","location_rts":"[340,646,416,374,240,510]","trial_type":"fractal-mutation","trial_index":70,"time_elapsed":1530240,"internal_node_id":"0.0-5.0-16.0"},{"group":"hexagon_tri","fractal_assignment":["../images/blu_wht.png","../images/cyn_red.png","../images/ylw_slt.png","../images/pnk_blu.png","../images/gry_blk.png","../images/org_blu.png"],"mutagen_generator_assignment":[0,1],"goal":5,"start":1,"action_noise":0,"location_history":"[1,5]","action_history":"[1]","mutagen_history":"[1]","location_rts":"[1892]","trial_type":"fractal-mutation","trial_index":71,"time_elapsed":1537310,"internal_node_id":"0.0-5.0-17.0"},{"group":"hexagon_tri","fractal_assignment":["../images/blu_wht.png","../images/cyn_red.png","../images/ylw_slt.png","../images/pnk_blu.png","../images/gry_blk.png","../images/org_blu.png"],"mutagen_generator_assignment":[0,1],"goal":4,"start":5,"action_noise":0,"location_history":"[5,4]","action_history":"[0]","mutagen_history":"[0]","location_rts":"[1074]","trial_type":"fractal-mutation","trial_index":72,"time_elapsed":1543524,"internal_node_id":"0.0-5.0-18.0"},{"group":"hexagon_tri","fractal_assignment":["../images/blu_wht.png","../images/cyn_red.png","../images/ylw_slt.png","../images/pnk_blu.png","../images/gry_blk.png","../images/org_blu.png"],"mutagen_generator_assignment":[0,1],"goal":0,"start":4,"action_noise":0,"location_history":"[4,2,1,5,0]","action_history":"[1,0,1,1]","mutagen_history":"[1,0,1,1]","location_rts":"[1252,702,986,1174]","trial_type":"fractal-mutation","trial_index":73,"time_elapsed":1556368,"internal_node_id":"0.0-5.0-19.0"},{"group":"hexagon_tri","fractal_assignment":["../images/blu_wht.png","../images/cyn_red.png","../images/ylw_slt.png","../images/pnk_blu.png","../images/gry_blk.png","../images/org_blu.png"],"mutagen_generator_assignment":[0,1],"goal":1,"start":0,"action_noise":0,"location_history":"[0,5,4,0,1]","action_history":"[0,0,0,1]","mutagen_history":"[0,0,0,1]","location_rts":"[1336,572,186,306]","trial_type":"fractal-mutation","trial_index":74,"time_elapsed":1567406,"internal_node_id":"0.0-5.0-20.0"},{"group":"hexagon_tri","fractal_assignment":["../images/blu_wht.png","../images/cyn_red.png","../images/ylw_slt.png","../images/pnk_blu.png","../images/gry_blk.png","../images/org_blu.png"],"mutagen_generator_assignment":[0,1],"goal":3,"start":1,"action_noise":0,"location_history":"[1,3]","action_history":"[0]","mutagen_history":"[0]","location_rts":"[1338]","trial_type":"fractal-mutation","trial_index":75,"time_elapsed":1573886,"internal_node_id":"0.0-5.0-21.0"},{"group":"hexagon_tri","fractal_assignment":["../images/blu_wht.png","../images/cyn_red.png","../images/ylw_slt.png","../images/pnk_blu.png","../images/gry_blk.png","../images/org_blu.png"],"mutagen_generator_assignment":[0,1],"goal":2,"start":3,"action_noise":0,"location_history":"[3,2]","action_history":"[0]","mutagen_history":"[0]","location_rts":"[1418]","trial_type":"fractal-mutation","trial_index":76,"time_elapsed":1580444,"internal_node_id":"0.0-5.0-22.0"},{"group":"hexagon_tri","fractal_assignment":["../images/blu_wht.png","../images/cyn_red.png","../images/ylw_slt.png","../images/pnk_blu.png","../images/gry_blk.png","../images/org_blu.png"],"mutagen_generator_assignment":[0,1],"goal":0,"start":2,"action_noise":0,"location_history":"[2,3,4,2,1,5,0]","action_history":"[1,1,1,0,1,1]","mutagen_history":"[1,1,1,0,1,1]","location_rts":"[1092,534,814,270,482,412]","trial_type":"fractal-mutation","trial_index":77,"time_elapsed":1594994,"internal_node_id":"0.0-5.0-23.0"},{"group":"hexagon_tri","fractal_assignment":["../images/blu_wht.png","../images/cyn_red.png","../images/ylw_slt.png","../images/pnk_blu.png","../images/gry_blk.png","../images/org_blu.png"],"mutagen_generator_assignment":[0,1],"goal":3,"start":0,"action_noise":0,"location_history":"[0,5,0,1,5,4,2,3]","action_history":"[0,1,1,1,0,1,1]","mutagen_history":"[0,1,1,1,0,1,1]","location_rts":"[1048,1460,488,396,178,422,428]","trial_type":"fractal-mutation","trial_index":78,"time_elapsed":1611548,"internal_node_id":"0.0-5.0-24.0"},{"group":"hexagon_tri","fractal_assignment":["../images/blu_wht.png","../images/cyn_red.png","../images/ylw_slt.png","../images/pnk_blu.png","../images/gry_blk.png","../images/org_blu.png"],"mutagen_generator_assignment":[0,1],"goal":1,"start":3,"action_noise":0,"location_history":"[3,4,2,1]","action_history":"[1,1,0]","mutagen_history":"[1,1,0]","location_rts":"[1792,628,1030]","trial_type":"fractal-mutation","trial_index":79,"time_elapsed":1622560,"internal_node_id":"0.0-5.0-25.0"},{"group":"hexagon_tri","fractal_assignment":["../images/blu_wht.png","../images/cyn_red.png","../images/ylw_slt.png","../images/pnk_blu.png","../images/gry_blk.png","../images/org_blu.png"],"mutagen_generator_assignment":[0,1],"goal":2,"start":1,"action_noise":0,"location_history":"[1,5,0,5,4,0,1,3,2]","action_history":"[1,1,0,0,0,1,0,0]","mutagen_history":"[1,1,0,0,0,1,0,0]","location_rts":"[3068,748,574,428,380,928,794,470]","trial_type":"fractal-mutation","trial_index":80,"time_elapsed":1643172,"internal_node_id":"0.0-5.0-26.0"},{"group":"hexagon_tri","fractal_assignment":["../images/blu_wht.png","../images/cyn_red.png","../images/ylw_slt.png","../images/pnk_blu.png","../images/gry_blk.png","../images/org_blu.png"],"mutagen_generator_assignment":[0,1],"goal":5,"start":2,"action_noise":0,"location_history":"[2,3,2,1,3,4,0,5]","action_history":"[1,0,0,0,1,0,0]","mutagen_history":"[1,0,0,0,1,0,0]","location_rts":"[120,870,450,460,232,324,360]","trial_type":"fractal-mutation","trial_index":81,"time_elapsed":1657998,"internal_node_id":"0.0-5.0-27.0"},{"group":"hexagon_tri","fractal_assignment":["../images/blu_wht.png","../images/cyn_red.png","../images/ylw_slt.png","../images/pnk_blu.png","../images/gry_blk.png","../images/org_blu.png"],"mutagen_generator_assignment":[0,1],"goal":4,"start":5,"action_noise":0,"location_history":"[5,4]","action_history":"[0]","mutagen_history":"[0]","location_rts":"[472]","trial_type":"fractal-mutation","trial_index":82,"time_elapsed":1663636,"internal_node_id":"0.0-5.0-28.0"},{"group":"hexagon_tri","fractal_assignment":["../images/blu_wht.png","../images/cyn_red.png","../images/ylw_slt.png","../images/pnk_blu.png","../images/gry_blk.png","../images/org_blu.png"],"mutagen_generator_assignment":[0,1],"goal":5,"start":4,"action_noise":0,"location_history":"[4,0,5]","action_history":"[0,0]","mutagen_history":"[0,0]","location_rts":"[800,632]","trial_type":"fractal-mutation","trial_index":83,"time_elapsed":1671386,"internal_node_id":"0.0-5.0-29.0"},{"group":"hexagon_tri","fractal_assignment":["../images/blu_wht.png","../images/cyn_red.png","../images/ylw_slt.png","../images/pnk_blu.png","../images/gry_blk.png","../images/org_blu.png"],"mutagen_generator_assignment":[0,1],"goal":3,"start":5,"action_noise":0,"location_history":"[5,4,0,1,3]","action_history":"[0,0,1,0]","mutagen_history":"[0,0,1,0]","location_rts":"[1806,748,604,610]","trial_type":"fractal-mutation","trial_index":84,"time_elapsed":1683802,"internal_node_id":"0.0-5.0-30.0"},{"group":"hexagon_tri","fractal_assignment":["../images/blu_wht.png","../images/cyn_red.png","../images/ylw_slt.png","../images/pnk_blu.png","../images/gry_blk.png","../images/org_blu.png"],"mutagen_generator_assignment":[0,1],"goal":0,"start":3,"action_noise":0,"location_history":"[3,2,3,4,2,1,5,0]","action_history":"[0,1,1,1,0,1,1]","mutagen_history":"[0,1,1,1,0,1,1]","location_rts":"[540,622,466,450,798,610,520]","trial_type":"fractal-mutation","trial_index":85,"time_elapsed":1699974,"internal_node_id":"0.0-5.0-31.0"},{"group":"hexagon_tri","fractal_assignment":["../images/blu_wht.png","../images/cyn_red.png","../images/ylw_slt.png","../images/pnk_blu.png","../images/gry_blk.png","../images/org_blu.png"],"mutagen_generator_assignment":[0,1],"goal":4,"start":0,"action_noise":0,"location_history":"[0,5,4]","action_history":"[0,0]","mutagen_history":"[0,0]","location_rts":"[2010,738]","trial_type":"fractal-mutation","trial_index":86,"time_elapsed":1709002,"internal_node_id":"0.0-5.0-32.0"},{"group":"hexagon_tri","fractal_assignment":["../images/blu_wht.png","../images/cyn_red.png","../images/ylw_slt.png","../images/pnk_blu.png","../images/gry_blk.png","../images/org_blu.png"],"mutagen_generator_assignment":[0,1],"goal":1,"start":4,"action_noise":0,"location_history":"[4,0,5,4,0,1]","action_history":"[0,0,0,0,1]","mutagen_history":"[0,0,0,0,1]","location_rts":"[1040,314,290,440,230]","trial_type":"fractal-mutation","trial_index":87,"time_elapsed":1721032,"internal_node_id":"0.0-5.0-33.0"},{"group":"hexagon_tri","fractal_assignment":["../images/blu_wht.png","../images/cyn_red.png","../images/ylw_slt.png","../images/pnk_blu.png","../images/gry_blk.png","../images/org_blu.png"],"mutagen_generator_assignment":[0,1],"goal":2,"start":1,"action_noise":0,"location_history":"[1,5,0,5,4,2]","action_history":"[1,1,0,0,1]","mutagen_history":"[1,1,0,0,1]","location_rts":"[1080,702,838,610,380]","trial_type":"fractal-mutation","trial_index":88,"time_elapsed":1734466,"internal_node_id":"0.0-5.0-34.0"},{"group":"hexagon_tri","fractal_assignment":["../images/blu_wht.png","../images/cyn_red.png","../images/ylw_slt.png","../images/pnk_blu.png","../images/gry_blk.png","../images/org_blu.png"],"mutagen_generator_assignment":[0,1],"goal":0,"start":2,"action_noise":0,"location_history":"[2,3,4,0]","action_history":"[1,1,0]","mutagen_history":"[1,1,0]","location_rts":"[1532,724,400]","trial_type":"fractal-mutation","trial_index":89,"time_elapsed":1744620,"internal_node_id":"0.0-5.0-35.0"},{"group":"hexagon_tri","fractal_assignment":["../images/blu_wht.png","../images/cyn_red.png","../images/ylw_slt.png","../images/pnk_blu.png","../images/gry_blk.png","../images/org_blu.png"],"mutagen_generator_assignment":[0,1],"goal":5,"start":0,"action_noise":0,"location_history":"[0,5]","action_history":"[0]","mutagen_history":"[0]","location_rts":"[1294]","trial_type":"fractal-mutation","trial_index":90,"time_elapsed":1751050,"internal_node_id":"0.0-5.0-36.0"},{"group":"hexagon_tri","fractal_assignment":["../images/blu_wht.png","../images/cyn_red.png","../images/ylw_slt.png","../images/pnk_blu.png","../images/gry_blk.png","../images/org_blu.png"],"mutagen_generator_assignment":[0,1],"goal":2,"start":5,"action_noise":0,"location_history":"[5,4,2]","action_history":"[0,1]","mutagen_history":"[0,1]","location_rts":"[2022,232]","trial_type":"fractal-mutation","trial_index":91,"time_elapsed":1759644,"internal_node_id":"0.0-5.0-37.0"},{"group":"hexagon_tri","fractal_assignment":["../images/blu_wht.png","../images/cyn_red.png","../images/ylw_slt.png","../images/pnk_blu.png","../images/gry_blk.png","../images/org_blu.png"],"mutagen_generator_assignment":[0,1],"goal":1,"start":2,"action_noise":0,"location_history":"[2,1]","action_history":"[0]","mutagen_history":"[0]","location_rts":"[1916]","trial_type":"fractal-mutation","trial_index":92,"time_elapsed":1766682,"internal_node_id":"0.0-5.0-38.0"},{"group":"hexagon_tri","fractal_assignment":["../images/blu_wht.png","../images/cyn_red.png","../images/ylw_slt.png","../images/pnk_blu.png","../images/gry_blk.png","../images/org_blu.png"],"mutagen_generator_assignment":[0,1],"goal":4,"start":1,"action_noise":0,"location_history":"[1,3,2,3,2,1,3,4]","action_history":"[0,0,1,0,0,0,1]","mutagen_history":"[0,0,1,0,0,0,1]","location_rts":"[1116,734,484,534,864,602,686]","trial_type":"fractal-mutation","trial_index":93,"time_elapsed":1783944,"internal_node_id":"0.0-5.0-39.0"},{"group":"hexagon_tri","fractal_assignment":["../images/blu_wht.png","../images/cyn_red.png","../images/ylw_slt.png","../images/pnk_blu.png","../images/gry_blk.png","../images/org_blu.png"],"mutagen_generator_assignment":[0,1],"goal":3,"start":4,"action_noise":0,"location_history":"[4,0,5,0,1,5,4,2,3]","action_history":"[0,0,1,1,1,0,1,1]","mutagen_history":"[0,0,1,1,1,0,1,1]","location_rts":"[842,544,298,536,468,472,886,312]","trial_type":"fractal-mutation","trial_index":94,"time_elapsed":1801594,"internal_node_id":"0.0-5.0-40.0"},{"group":"hexagon_tri","fractal_assignment":["../images/blu_wht.png","../images/cyn_red.png","../images/ylw_slt.png","../images/pnk_blu.png","../images/gry_blk.png","../images/org_blu.png"],"mutagen_generator_assignment":[0,1],"goal":5,"start":3,"action_noise":0,"location_history":"[3,2,3,2,1,5]","action_history":"[0,1,0,0,1]","mutagen_history":"[0,1,0,0,1]","location_rts":"[1168,748,394,408,612]","trial_type":"fractal-mutation","trial_index":95,"time_elapsed":1814686,"internal_node_id":"0.0-5.0-41.0"},{"group":"hexagon_tri","fractal_assignment":["../images/blu_wht.png","../images/cyn_red.png","../images/ylw_slt.png","../images/pnk_blu.png","../images/gry_blk.png","../images/org_blu.png"],"mutagen_generator_assignment":[0,1],"goal":3,"start":5,"action_noise":0,"location_history":"[5,0,5,4,2,3]","action_history":"[1,0,0,1,1]","mutagen_history":"[1,0,0,1,1]","location_rts":"[1352,670,402,744,272]","trial_type":"fractal-mutation","trial_index":96,"time_elapsed":1827924,"internal_node_id":"0.0-5.0-42.0"},{"group":"hexagon_tri","fractal_assignment":["../images/blu_wht.png","../images/cyn_red.png","../images/ylw_slt.png","../images/pnk_blu.png","../images/gry_blk.png","../images/org_blu.png"],"mutagen_generator_assignment":[0,1],"goal":0,"start":3,"action_noise":0,"location_history":"[3,2,1,5,0]","action_history":"[0,0,1,1]","mutagen_history":"[0,0,1,1]","location_rts":"[1120,692,610,444]","trial_type":"fractal-mutation","trial_index":97,"time_elapsed":1839408,"internal_node_id":"0.0-5.0-43.0"},{"group":"hexagon_tri","fractal_assignment":["../images/blu_wht.png","../images/cyn_red.png","../images/ylw_slt.png","../images/pnk_blu.png","../images/gry_blk.png","../images/org_blu.png"],"mutagen_generator_assignment":[0,1],"goal":2,"start":0,"action_noise":0,"location_history":"[0,1,5,0,1,5,4,2]","action_history":"[1,1,1,1,1,0,1]","mutagen_history":"[1,1,1,1,1,0,1]","location_rts":"[1568,1054,1064,1496,224,508,336]","trial_type":"fractal-mutation","trial_index":98,"time_elapsed":1857968,"internal_node_id":"0.0-5.0-44.0"},{"group":"hexagon_tri","fractal_assignment":["../images/blu_wht.png","../images/cyn_red.png","../images/ylw_slt.png","../images/pnk_blu.png","../images/gry_blk.png","../images/org_blu.png"],"mutagen_generator_assignment":[0,1],"goal":4,"start":2,"action_noise":0,"location_history":"[2,3,2,1,5,4]","action_history":"[1,0,0,1,0]","mutagen_history":"[1,0,0,1,0]","location_rts":"[1508,672,1084,732,670]","trial_type":"fractal-mutation","trial_index":99,"time_elapsed":1872414,"internal_node_id":"0.0-5.0-45.0"},{"group":"hexagon_tri","fractal_assignment":["../images/blu_wht.png","../images/cyn_red.png","../images/ylw_slt.png","../images/pnk_blu.png","../images/gry_blk.png","../images/org_blu.png"],"mutagen_generator_assignment":[0,1],"goal":1,"start":4,"action_noise":0,"location_history":"[4,2,1]","action_history":"[1,0]","mutagen_history":"[1,0]","location_rts":"[1174,514]","trial_type":"fractal-mutation","trial_index":100,"time_elapsed":1880428,"internal_node_id":"0.0-5.0-46.0"},{"group":"hexagon_tri","fractal_assignment":["../images/blu_wht.png","../images/cyn_red.png","../images/ylw_slt.png","../images/pnk_blu.png","../images/gry_blk.png","../images/org_blu.png"],"mutagen_generator_assignment":[0,1],"goal":4,"start":1,"action_noise":0,"location_history":"[1,3,4]","action_history":"[0,1]","mutagen_history":"[0,1]","location_rts":"[940,680]","trial_type":"fractal-mutation","trial_index":101,"time_elapsed":1888378,"internal_node_id":"0.0-5.0-47.0"},{"group":"hexagon_tri","fractal_assignment":["../images/blu_wht.png","../images/cyn_red.png","../images/ylw_slt.png","../images/pnk_blu.png","../images/gry_blk.png","../images/org_blu.png"],"mutagen_generator_assignment":[0,1],"goal":3,"start":4,"action_noise":0,"location_history":"[4,2,1,3]","action_history":"[1,0,0]","mutagen_history":"[1,0,0]","location_rts":"[1120,882,406]","trial_type":"fractal-mutation","trial_index":102,"time_elapsed":1898208,"internal_node_id":"0.0-5.0-48.0"},{"group":"hexagon_tri","fractal_assignment":["../images/blu_wht.png","../images/cyn_red.png","../images/ylw_slt.png","../images/pnk_blu.png","../images/gry_blk.png","../images/org_blu.png"],"mutagen_generator_assignment":[0,1],"goal":5,"start":3,"action_noise":0,"location_history":"[3,2,3,4,0,5]","action_history":"[0,1,1,0,0]","mutagen_history":"[0,1,1,0,0]","location_rts":"[1512,544,700,770,346]","trial_type":"fractal-mutation","trial_index":103,"time_elapsed":1911934,"internal_node_id":"0.0-5.0-49.0"},{"view_history":"[{\"page_index\":0,\"viewing_time\":8392}]","rt":8394,"trial_type":"instructions","trial_index":104,"time_elapsed":1921332,"internal_node_id":"0.0-6.0"},{"rt":6042,"responses":"{\"Q0\":\"fun\"}","trial_type":"survey-text","trial_index":105,"time_elapsed":1928384,"internal_node_id":"0.0-7.0"}]