[{"view_history":"[{\"page_index\":0,\"viewing_time\":4558},{\"page_index\":1,\"viewing_time\":5398},{\"page_index\":2,\"viewing_time\":7121}]","rt":17078,"trial_type":"instructions","trial_index":0,"time_elapsed":17078,"internal_node_id":"0.0-0.0"},{"view_history":"[{\"page_index\":0,\"viewing_time\":1267},{\"page_index\":1,\"viewing_time\":17833}]","rt":19101,"trial_type":"instructions","trial_index":1,"time_elapsed":37182,"internal_node_id":"0.0-1.0"},{"group":"hexagon_bi","room_assignment":["red","purple","blue","grey","yellow","green"],"door_color_assignment":["white","black"],"door_generator_assignment":[0,1],"goal":4,"start":0,"action_noise":0,"location_history":"[0,5,0,5,4]","action_history":"[0,0,0,1]","door_history":"[0,0,0,1]","location_rts":"[5297,1992,753,1040]","trial_type":"two-door-navigation","trial_index":2,"time_elapsed":54392,"internal_node_id":"0.0-2.0-0.0"},{"group":"hexagon_bi","room_assignment":["red","purple","blue","grey","yellow","green"],"door_color_assignment":["white","black"],"door_generator_assignment":[0,1],"goal":3,"start":4,"action_noise":0,"location_history":"[4,3]","action_history":"[0]","door_history":"[0]","location_rts":"[2069]","trial_type":"two-door-navigation","trial_index":3,"time_elapsed":61498,"internal_node_id":"0.0-2.0-1.0"},{"group":"hexagon_bi","room_assignment":["red","purple","blue","grey","yellow","green"],"door_color_assignment":["white","black"],"door_generator_assignment":[0,1],"goal":5,"start":3,"action_noise":0,"location_history":"[3,4,5]","action_history":"[0,1]","door_history":"[0,1]","location_rts":"[1584,1604]","trial_type":"two-door-navigation","trial_index":4,"time_elapsed":70743,"internal_node_id":"0.0-2.0-2.0"},{"group":"hexagon_bi","room_assignment":["red","purple","blue","grey","yellow","green"],"door_color_assignment":["white","black"],"door_generator_assignment":[0,1],"goal":2,"start":5,"action_noise":0,"location_history":"[5,4,3,2]","action_history":"[1,0,1]","door_history":"[1,0,1]","location_rts":"[1803,837,4515]","trial_type":"two-door-navigation","trial_index":5,"time_elapsed":84978,"internal_node_id":"0.0-2.0-3.0"},{"group":"hexagon_bi","room_assignment":["red","purple","blue","grey","yellow","green"],"door_color_assignment":["white","black"],"door_generator_assignment":[0,1],"goal":1,"start":2,"action_noise":0,"location_history":"[2,3,2,1]","action_history":"[1,1,0]","door_history":"[1,1,0]","location_rts":"[1349,808,509]","trial_type":"two-door-navigation","trial_index":6,"time_elapsed":94727,"internal_node_id":"0.0-2.0-4.0"},{"group":"hexagon_bi","room_assignment":["red","purple","blue","grey","yellow","green"],"door_color_assignment":["white","black"],"door_generator_assignment":[0,1],"goal":4,"start":1,"action_noise":0,"location_history":"[1,2,3,2,1,2,1,0,1,0,1,2,3,2,1,2,3,2,1,2,3,2,1,2,3,4]","action_history":"[0,1,1,0,0,0,1,1,1,1,0,1,1,0,0,1,1,0,0,1,1,0,0,1,0]","door_history":"[0,1,1,0,0,0,1,1,1,1,0,1,1,0,0,1,1,0,0,1,1,0,0,1,0]","location_rts":"[991,812,827,427,1017,495,812,394,312,386,439,662,913,1521,600,549,387,518,343,1225,365,909,742,856,404]","trial_type":"two-door-navigation","trial_index":7,"time_elapsed":141280,"internal_node_id":"0.0-2.0-5.0"},{"group":"hexagon_bi","room_assignment":["red","purple","blue","grey","yellow","green"],"door_color_assignment":["white","black"],"door_generator_assignment":[0,1],"goal":1,"start":4,"action_noise":0,"location_history":"[4,5,4,3,4,3,2,3,2,1]","action_history":"[1,1,0,0,0,1,1,1,0]","door_history":"[1,1,0,0,0,1,1,1,0]","location_rts":"[1332,869,2895,483,575,629,600,818,1162]","trial_type":"two-door-navigation","trial_index":8,"time_elapsed":163871,"internal_node_id":"0.0-2.0-6.0"},{"group":"hexagon_bi","room_assignment":["red","purple","blue","grey","yellow","green"],"door_color_assignment":["white","black"],"door_generator_assignment":[0,1],"goal":5,"start":1,"action_noise":0,"location_history":"[1,2,3,2,1,0,5]","action_history":"[0,1,1,0,1,0]","door_history":"[0,1,1,0,1,0]","location_rts":"[2567,1181,552,387,873,1005]","trial_type":"two-door-navigation","trial_index":9,"time_elapsed":180588,"internal_node_id":"0.0-2.0-7.0"},{"group":"hexagon_bi","room_assignment":["red","purple","blue","grey","yellow","green"],"door_color_assignment":["white","black"],"door_generator_assignment":[0,1],"goal":0,"start":5,"action_noise":0,"location_history":"[5,0]","action_history":"[0]","door_history":"[0]","location_rts":"[3054]","trial_type":"two-door-navigation","trial_index":10,"time_elapsed":188668,"internal_node_id":"0.0-2.0-8.0"},{"group":"hexagon_bi","room_assignment":["red","purple","blue","grey","yellow","green"],"door_color_assignment":["white","black"],"door_generator_assignment":[0,1],"goal":2,"start":0,"action_noise":0,"location_history":"[0,5,4,3,4,5,4,3,2]","action_history":"[0,1,0,0,1,1,0,1]","door_history":"[0,1,0,0,1,1,0,1]","location_rts":"[2262,518,1219,602,661,586,903,324]","trial_type":"two-door-navigation","trial_index":11,"time_elapsed":207940,"internal_node_id":"0.0-2.0-9.0"},{"group":"hexagon_bi","room_assignment":["red","purple","blue","grey","yellow","green"],"door_color_assignment":["white","black"],"door_generator_assignment":[0,1],"goal":3,"start":2,"action_noise":0,"location_history":"[2,3]","action_history":"[1]","door_history":"[1]","location_rts":"[1986]","trial_type":"two-door-navigation","trial_index":12,"time_elapsed":214956,"internal_node_id":"0.0-2.0-10.0"},{"group":"hexagon_bi","room_assignment":["red","purple","blue","grey","yellow","green"],"door_color_assignment":["white","black"],"door_generator_assignment":[0,1],"goal":0,"start":3,"action_noise":0,"location_history":"[3,2,1,2,3,4,5,0]","action_history":"[1,0,0,1,0,1,0]","door_history":"[1,0,0,1,0,1,0]","location_rts":"[2583,545,619,1165,1083,671,662]","trial_type":"two-door-navigation","trial_index":13,"time_elapsed":233460,"internal_node_id":"0.0-2.0-11.0"},{"group":"hexagon_bi","room_assignment":["red","purple","blue","grey","yellow","green"],"door_color_assignment":["white","black"],"door_generator_assignment":[0,1],"goal":2,"start":0,"action_noise":0,"location_history":"[0,5,4,5,0,1,2]","action_history":"[0,1,1,0,1,0]","door_history":"[0,1,1,0,1,0]","location_rts":"[2224,1172,408,247,456,412]","trial_type":"two-door-navigation","trial_index":14,"time_elapsed":248519,"internal_node_id":"0.0-2.0-12.0"},{"group":"hexagon_bi","room_assignment":["red","purple","blue","grey","yellow","green"],"door_color_assignment":["white","black"],"door_generator_assignment":[0,1],"goal":5,"start":2,"action_noise":0,"location_history":"[2,3,4,3,4,5]","action_history":"[1,0,0,0,1]","door_history":"[1,0,0,0,1]","location_rts":"[4699,793,1344,674,480]","trial_type":"two-door-navigation","trial_index":15,"time_elapsed":265626,"internal_node_id":"0.0-2.0-13.0"},{"group":"hexagon_bi","room_assignment":["red","purple","blue","grey","yellow","green"],"door_color_assignment":["white","black"],"door_generator_assignment":[0,1],"goal":4,"start":5,"action_noise":0,"location_history":"[5,4]","action_history":"[1]","door_history":"[1]","location_rts":"[1465]","trial_type":"two-door-navigation","trial_index":16,"time_elapsed":272118,"internal_node_id":"0.0-2.0-14.0"},{"group":"hexagon_bi","room_assignment":["red","purple","blue","grey","yellow","green"],"door_color_assignment":["white","black"],"door_generator_assignment":[0,1],"goal":3,"start":4,"action_noise":0,"location_history":"[4,3]","action_history":"[0]","door_history":"[0]","location_rts":"[3393]","trial_type":"two-door-navigation","trial_index":17,"time_elapsed":280542,"internal_node_id":"0.0-2.0-15.0"},{"group":"hexagon_bi","room_assignment":["red","purple","blue","grey","yellow","green"],"door_color_assignment":["white","black"],"door_generator_assignment":[0,1],"goal":1,"start":3,"action_noise":0,"location_history":"[3,4,5,4,3,2,3,4,5,0,1]","action_history":"[0,1,1,0,1,1,0,1,0,1]","door_history":"[0,1,1,0,1,1,0,1,0,1]","location_rts":"[1260,686,404,1290,1221,713,503,526,684,601]","trial_type":"two-door-navigation","trial_index":18,"time_elapsed":302685,"internal_node_id":"0.0-2.0-16.0"},{"group":"hexagon_bi","room_assignment":["red","purple","blue","grey","yellow","green"],"door_color_assignment":["white","black"],"door_generator_assignment":[0,1],"goal":5,"start":1,"action_noise":0,"location_history":"[1,0,5]","action_history":"[1,0]","door_history":"[1,0]","location_rts":"[2073,619]","trial_type":"two-door-navigation","trial_index":19,"time_elapsed":311429,"internal_node_id":"0.0-2.0-17.0"},{"group":"hexagon_bi","room_assignment":["red","purple","blue","grey","yellow","green"],"door_color_assignment":["white","black"],"door_generator_assignment":[0,1],"goal":4,"start":5,"action_noise":0,"location_history":"[5,4]","action_history":"[1]","door_history":"[1]","location_rts":"[1447]","trial_type":"two-door-navigation","trial_index":20,"time_elapsed":317904,"internal_node_id":"0.0-2.0-18.0"},{"group":"hexagon_bi","room_assignment":["red","purple","blue","grey","yellow","green"],"door_color_assignment":["white","black"],"door_generator_assignment":[0,1],"goal":0,"start":4,"action_noise":0,"location_history":"[4,3,4,5,0]","action_history":"[0,0,1,0]","door_history":"[0,0,1,0]","location_rts":"[3854,787,334,885]","trial_type":"two-door-navigation","trial_index":21,"time_elapsed":331867,"internal_node_id":"0.0-2.0-19.0"},{"group":"hexagon_bi","room_assignment":["red","purple","blue","grey","yellow","green"],"door_color_assignment":["white","black"],"door_generator_assignment":[0,1],"goal":1,"start":0,"action_noise":0,"location_history":"[0,5,4,3,2,1]","action_history":"[0,1,0,1,0]","door_history":"[0,1,0,1,0]","location_rts":"[8483,615,520,484,434]","trial_type":"two-door-navigation","trial_index":22,"time_elapsed":351529,"internal_node_id":"0.0-2.0-20.0"},{"group":"hexagon_bi","room_assignment":["red","purple","blue","grey","yellow","green"],"door_color_assignment":["white","black"],"door_generator_assignment":[0,1],"goal":3,"start":1,"action_noise":0,"location_history":"[1,2,3]","action_history":"[0,1]","door_history":"[0,1]","location_rts":"[2077,594]","trial_type":"two-door-navigation","trial_index":23,"time_elapsed":360249,"internal_node_id":"0.0-2.0-21.0"},{"group":"hexagon_bi","room_assignment":["red","purple","blue","grey","yellow","green"],"door_color_assignment":["white","black"],"door_generator_assignment":[0,1],"goal":2,"start":3,"action_noise":0,"location_history":"[3,2]","action_history":"[1]","door_history":"[1]","location_rts":"[2303]","trial_type":"two-door-navigation","trial_index":24,"time_elapsed":367583,"internal_node_id":"0.0-2.0-22.0"},{"group":"hexagon_bi","room_assignment":["red","purple","blue","grey","yellow","green"],"door_color_assignment":["white","black"],"door_generator_assignment":[0,1],"goal":0,"start":2,"action_noise":0,"location_history":"[2,1,0]","action_history":"[0,1]","door_history":"[0,1]","location_rts":"[2803,591]","trial_type":"two-door-navigation","trial_index":25,"time_elapsed":377029,"internal_node_id":"0.0-2.0-23.0"},{"group":"hexagon_bi","room_assignment":["red","purple","blue","grey","yellow","green"],"door_color_assignment":["white","black"],"door_generator_assignment":[0,1],"goal":3,"start":0,"action_noise":0,"location_history":"[0,5,4,5,0,1,2,1,2,3]","action_history":"[0,1,1,0,1,0,0,0,1]","door_history":"[0,1,1,0,1,0,0,0,1]","location_rts":"[2523,506,620,910,536,1212,1262,1194,380]","trial_type":"two-door-navigation","trial_index":26,"time_elapsed":399403,"internal_node_id":"0.0-2.0-24.0"},{"group":"hexagon_bi","room_assignment":["red","purple","blue","grey","yellow","green"],"door_color_assignment":["white","black"],"door_generator_assignment":[0,1],"goal":1,"start":3,"action_noise":0,"location_history":"[3,4,3,2,3,4,5,0,1]","action_history":"[0,0,1,1,0,1,0,1]","door_history":"[0,0,1,1,0,1,0,1]","location_rts":"[3748,1376,1084,614,402,469,431,404]","trial_type":"two-door-navigation","trial_index":27,"time_elapsed":420144,"internal_node_id":"0.0-2.0-25.0"},{"group":"hexagon_bi","room_assignment":["red","purple","blue","grey","yellow","green"],"door_color_assignment":["white","black"],"door_generator_assignment":[0,1],"goal":2,"start":1,"action_noise":0,"location_history":"[1,2]","action_history":"[0]","door_history":"[0]","location_rts":"[2391]","trial_type":"two-door-navigation","trial_index":28,"time_elapsed":427568,"internal_node_id":"0.0-2.0-26.0"},{"group":"hexagon_bi","room_assignment":["red","purple","blue","grey","yellow","green"],"door_color_assignment":["white","black"],"door_generator_assignment":[0,1],"goal":5,"start":2,"action_noise":0,"location_history":"[2,1,0,1,2,3,4,5]","action_history":"[0,1,1,0,1,0,1]","door_history":"[0,1,1,0,1,0,1]","location_rts":"[1751,472,644,272,510,527,508]","trial_type":"two-door-navigation","trial_index":29,"time_elapsed":443426,"internal_node_id":"0.0-2.0-27.0"},{"group":"hexagon_bi","room_assignment":["red","purple","blue","grey","yellow","green"],"door_color_assignment":["white","black"],"door_generator_assignment":[0,1],"goal":4,"start":5,"action_noise":0,"location_history":"[5,0,1,2,3,4]","action_history":"[0,1,0,1,0]","door_history":"[0,1,0,1,0]","location_rts":"[1474,1063,545,468,465]","trial_type":"two-door-navigation","trial_index":30,"time_elapsed":456571,"internal_node_id":"0.0-2.0-28.0"},{"group":"hexagon_bi","room_assignment":["red","purple","blue","grey","yellow","green"],"door_color_assignment":["white","black"],"door_generator_assignment":[0,1],"goal":5,"start":4,"action_noise":0,"location_history":"[4,5]","action_history":"[1]","door_history":"[1]","location_rts":"[3067]","trial_type":"two-door-navigation","trial_index":31,"time_elapsed":464669,"internal_node_id":"0.0-2.0-29.0"},{"group":"hexagon_bi","room_assignment":["red","purple","blue","grey","yellow","green"],"door_color_assignment":["white","black"],"door_generator_assignment":[0,1],"goal":3,"start":5,"action_noise":0,"location_history":"[5,4,3]","action_history":"[1,0]","door_history":"[1,0]","location_rts":"[1594,741]","trial_type":"two-door-navigation","trial_index":32,"time_elapsed":473058,"internal_node_id":"0.0-2.0-30.0"},{"group":"hexagon_bi","room_assignment":["red","purple","blue","grey","yellow","green"],"door_color_assignment":["white","black"],"door_generator_assignment":[0,1],"goal":0,"start":3,"action_noise":0,"location_history":"[3,2,1,0]","action_history":"[1,0,1]","door_history":"[1,0,1]","location_rts":"[4446,862,566]","trial_type":"two-door-navigation","trial_index":33,"time_elapsed":486017,"internal_node_id":"0.0-2.0-31.0"},{"group":"hexagon_bi","room_assignment":["red","purple","blue","grey","yellow","green"],"door_color_assignment":["white","black"],"door_generator_assignment":[0,1],"goal":4,"start":0,"action_noise":0,"location_history":"[0,1,2,1,0,5,4]","action_history":"[1,0,0,1,0,1]","door_history":"[1,0,0,1,0,1]","location_rts":"[3692,460,635,426,513,572]","trial_type":"two-door-navigation","trial_index":34,"time_elapsed":502486,"internal_node_id":"0.0-2.0-32.0"},{"group":"hexagon_bi","room_assignment":["red","purple","blue","grey","yellow","green"],"door_color_assignment":["white","black"],"door_generator_assignment":[0,1],"goal":1,"start":4,"action_noise":0,"location_history":"[4,3,2,1]","action_history":"[0,1,0]","door_history":"[0,1,0]","location_rts":"[1608,707,640]","trial_type":"two-door-navigation","trial_index":35,"time_elapsed":512518,"internal_node_id":"0.0-2.0-33.0"},{"group":"hexagon_bi","room_assignment":["red","purple","blue","grey","yellow","green"],"door_color_assignment":["white","black"],"door_generator_assignment":[0,1],"goal":2,"start":1,"action_noise":0,"location_history":"[1,2]","action_history":"[0]","door_history":"[0]","location_rts":"[1830]","trial_type":"two-door-navigation","trial_index":36,"time_elapsed":519382,"internal_node_id":"0.0-2.0-34.0"},{"group":"hexagon_bi","room_assignment":["red","purple","blue","grey","yellow","green"],"door_color_assignment":["white","black"],"door_generator_assignment":[0,1],"goal":0,"start":2,"action_noise":0,"location_history":"[2,1,0]","action_history":"[0,1]","door_history":"[0,1]","location_rts":"[2297,543]","trial_type":"two-door-navigation","trial_index":37,"time_elapsed":528274,"internal_node_id":"0.0-2.0-35.0"},{"group":"hexagon_bi","room_assignment":["red","purple","blue","grey","yellow","green"],"door_color_assignment":["white","black"],"door_generator_assignment":[0,1],"goal":5,"start":0,"action_noise":0,"location_history":"[0,1,2,3,4,5]","action_history":"[1,0,1,0,1]","door_history":"[1,0,1,0,1]","location_rts":"[1154,545,528,535,583]","trial_type":"two-door-navigation","trial_index":38,"time_elapsed":540739,"internal_node_id":"0.0-2.0-36.0"},{"group":"hexagon_bi","room_assignment":["red","purple","blue","grey","yellow","green"],"door_color_assignment":["white","black"],"door_generator_assignment":[0,1],"goal":2,"start":5,"action_noise":0,"location_history":"[5,0,1,0,5,4,3,4,3,2]","action_history":"[0,1,1,0,1,0,0,0,1]","door_history":"[0,1,1,0,1,0,0,0,1]","location_rts":"[2246,529,762,311,549,626,2463,1073,302]","trial_type":"two-door-navigation","trial_index":39,"time_elapsed":562828,"internal_node_id":"0.0-2.0-37.0"},{"group":"hexagon_bi","room_assignment":["red","purple","blue","grey","yellow","green"],"door_color_assignment":["white","black"],"door_generator_assignment":[0,1],"goal":1,"start":2,"action_noise":0,"location_history":"[2,1]","action_history":"[0]","door_history":"[0]","location_rts":"[3479]","trial_type":"two-door-navigation","trial_index":40,"time_elapsed":571332,"internal_node_id":"0.0-2.0-38.0"},{"group":"hexagon_bi","room_assignment":["red","purple","blue","grey","yellow","green"],"door_color_assignment":["white","black"],"door_generator_assignment":[0,1],"goal":4,"start":1,"action_noise":0,"location_history":"[1,2,3,4]","action_history":"[0,1,0]","door_history":"[0,1,0]","location_rts":"[1294,748,1181]","trial_type":"two-door-navigation","trial_index":41,"time_elapsed":581629,"internal_node_id":"0.0-2.0-39.0"},{"group":"hexagon_bi","room_assignment":["red","purple","blue","grey","yellow","green"],"door_color_assignment":["white","black"],"door_generator_assignment":[0,1],"goal":3,"start":4,"action_noise":0,"location_history":"[4,5,0,5,4,3]","action_history":"[1,0,0,1,0]","door_history":"[1,0,0,1,0]","location_rts":"[1733,1091,719,351,535]","trial_type":"two-door-navigation","trial_index":42,"time_elapsed":595179,"internal_node_id":"0.0-2.0-40.0"},{"group":"hexagon_bi","room_assignment":["red","purple","blue","grey","yellow","green"],"door_color_assignment":["white","black"],"door_generator_assignment":[0,1],"goal":5,"start":3,"action_noise":0,"location_history":"[3,4,5]","action_history":"[0,1]","door_history":"[0,1]","location_rts":"[2326,463]","trial_type":"two-door-navigation","trial_index":43,"time_elapsed":604024,"internal_node_id":"0.0-2.0-41.0"},{"group":"hexagon_bi","room_assignment":["red","purple","blue","grey","yellow","green"],"door_color_assignment":["white","black"],"door_generator_assignment":[0,1],"goal":3,"start":5,"action_noise":0,"location_history":"[5,0,1,2,3]","action_history":"[0,1,0,1]","door_history":"[0,1,0,1]","location_rts":"[1735,707,666,655]","trial_type":"two-door-navigation","trial_index":44,"time_elapsed":615887,"internal_node_id":"0.0-2.0-42.0"},{"group":"hexagon_bi","room_assignment":["red","purple","blue","grey","yellow","green"],"door_color_assignment":["white","black"],"door_generator_assignment":[0,1],"goal":0,"start":3,"action_noise":0,"location_history":"[3,4,5,0]","action_history":"[0,1,0]","door_history":"[0,1,0]","location_rts":"[1602,579,654]","trial_type":"two-door-navigation","trial_index":45,"time_elapsed":625811,"internal_node_id":"0.0-2.0-43.0"},{"group":"hexagon_bi","room_assignment":["red","purple","blue","grey","yellow","green"],"door_color_assignment":["white","black"],"door_generator_assignment":[0,1],"goal":2,"start":0,"action_noise":0,"location_history":"[0,5,4,3,2]","action_history":"[0,1,0,1]","door_history":"[0,1,0,1]","location_rts":"[1673,611,671,514]","trial_type":"two-door-navigation","trial_index":46,"time_elapsed":637390,"internal_node_id":"0.0-2.0-44.0"},{"group":"hexagon_bi","room_assignment":["red","purple","blue","grey","yellow","green"],"door_color_assignment":["white","black"],"door_generator_assignment":[0,1],"goal":4,"start":2,"action_noise":0,"location_history":"[2,3,4]","action_history":"[1,0]","door_history":"[1,0]","location_rts":"[1911,681]","trial_type":"two-door-navigation","trial_index":47,"time_elapsed":646034,"internal_node_id":"0.0-2.0-45.0"},{"group":"hexagon_bi","room_assignment":["red","purple","blue","grey","yellow","green"],"door_color_assignment":["white","black"],"door_generator_assignment":[0,1],"goal":1,"start":4,"action_noise":0,"location_history":"[4,3,2,1]","action_history":"[0,1,0]","door_history":"[0,1,0]","location_rts":"[1709,529,566]","trial_type":"two-door-navigation","trial_index":48,"time_elapsed":655921,"internal_node_id":"0.0-2.0-46.0"},{"group":"hexagon_bi","room_assignment":["red","purple","blue","grey","yellow","green"],"door_color_assignment":["white","black"],"door_generator_assignment":[0,1],"goal":4,"start":1,"action_noise":0,"location_history":"[1,0,5,4]","action_history":"[1,0,1]","door_history":"[1,0,1]","location_rts":"[2979,575,497]","trial_type":"two-door-navigation","trial_index":49,"time_elapsed":667043,"internal_node_id":"0.0-2.0-47.0"},{"group":"hexagon_bi","room_assignment":["red","purple","blue","grey","yellow","green"],"door_color_assignment":["white","black"],"door_generator_assignment":[0,1],"goal":3,"start":4,"action_noise":0,"location_history":"[4,5,0,1,2,3]","action_history":"[1,0,1,0,1]","door_history":"[1,0,1,0,1]","location_rts":"[2487,671,473,572,540]","trial_type":"two-door-navigation","trial_index":50,"time_elapsed":680907,"internal_node_id":"0.0-2.0-48.0"},{"group":"hexagon_bi","room_assignment":["red","purple","blue","grey","yellow","green"],"door_color_assignment":["white","black"],"door_generator_assignment":[0,1],"goal":5,"start":3,"action_noise":0,"location_history":"[3,2,1,0,5]","action_history":"[1,0,1,0]","door_history":"[1,0,1,0]","location_rts":"[2097,717,496,475]","trial_type":"two-door-navigation","trial_index":51,"time_elapsed":692785,"internal_node_id":"0.0-2.0-49.0"},{"view_history":"[{\"page_index\":0,\"viewing_time\":1868}]","rt":1869,"trial_type":"instructions","trial_index":52,"time_elapsed":695656,"internal_node_id":"0.0-3.0"},{"view_history":"[{\"page_index\":0,\"viewing_time\":1525},{\"page_index\":1,\"viewing_time\":21734}]","rt":23260,"trial_type":"instructions","trial_index":53,"time_elapsed":719916,"internal_node_id":"0.0-4.0"},{"group":"hexagon_tri","fractal_assignment":["../images/gry_blk.png","../images/ylw_slt.png","../images/pnk_blu.png","../images/org_blu.png","../images/cyn_red.png","../images/blu_wht.png"],"mutagen_generator_assignment":[1,0],"goal":4,"start":0,"action_noise":0,"location_history":"[0,1,3,2,1,5,0,1,5,0,1,3,2,1,3,2,1,3,4]","action_history":"[1,0,0,0,1,1,1,1,1,1,0,0,0,0,0,0,0,1]","mutagen_history":"[0,1,1,1,0,0,0,0,0,0,1,1,1,1,1,1,1,0]","location_rts":"[3979,3107,1001,758,664,1094,632,173,74,511,445,886,148,1531,88,27,990,913]","trial_type":"fractal-mutation","trial_index":54,"time_elapsed":759810,"internal_node_id":"0.0-5.0-0.0"},{"group":"hexagon_tri","fractal_assignment":["../images/gry_blk.png","../images/ylw_slt.png","../images/pnk_blu.png","../images/org_blu.png","../images/cyn_red.png","../images/blu_wht.png"],"mutagen_generator_assignment":[1,0],"goal":3,"start":4,"action_noise":0,"location_history":"[4,2,1,3]","action_history":"[1,0,0]","mutagen_history":"[0,1,1]","location_rts":"[2127,1637,532]","trial_type":"fractal-mutation","trial_index":55,"time_elapsed":771263,"internal_node_id":"0.0-5.0-1.0"},{"group":"hexagon_tri","fractal_assignment":["../images/gry_blk.png","../images/ylw_slt.png","../images/pnk_blu.png","../images/org_blu.png","../images/cyn_red.png","../images/blu_wht.png"],"mutagen_generator_assignment":[1,0],"goal":5,"start":3,"action_noise":0,"location_history":"[3,4,2,3,4,2,1,3,2,1,5]","action_history":"[1,1,1,1,1,0,0,0,0,1]","mutagen_history":"[0,0,0,0,0,1,1,1,1,0]","location_rts":"[1629,96,610,429,628,738,57,480,1065,649]","trial_type":"fractal-mutation","trial_index":56,"time_elapsed":792112,"internal_node_id":"0.0-5.0-2.0"},{"group":"hexagon_tri","fractal_assignment":["../images/gry_blk.png","../images/ylw_slt.png","../images/pnk_blu.png","../images/org_blu.png","../images/cyn_red.png","../images/blu_wht.png"],"mutagen_generator_assignment":[1,0],"goal":2,"start":5,"action_noise":0,"location_history":"[5,0,5,0,5,0,1,5,0,5,4,0,5,0,5,0,5,4,2]","action_history":"[1,0,1,0,1,1,1,1,0,0,0,0,1,0,1,0,0,1]","mutagen_history":"[0,1,0,1,0,0,0,0,1,1,1,1,0,1,0,1,1,0]","location_rts":"[1604,570,606,399,658,1052,611,517,389,312,603,662,755,443,617,307,52,1236]","trial_type":"fractal-mutation","trial_index":57,"time_elapsed":826317,"internal_node_id":"0.0-5.0-3.0"},{"group":"hexagon_tri","fractal_assignment":["../images/gry_blk.png","../images/ylw_slt.png","../images/pnk_blu.png","../images/org_blu.png","../images/cyn_red.png","../images/blu_wht.png"],"mutagen_generator_assignment":[1,0],"goal":1,"start":2,"action_noise":0,"location_history":"[2,3,2,1]","action_history":"[1,0,0]","mutagen_history":"[0,1,1]","location_rts":"[1196,758,683]","trial_type":"fractal-mutation","trial_index":58,"time_elapsed":836098,"internal_node_id":"0.0-5.0-4.0"},{"group":"hexagon_tri","fractal_assignment":["../images/gry_blk.png","../images/ylw_slt.png","../images/pnk_blu.png","../images/org_blu.png","../images/cyn_red.png","../images/blu_wht.png"],"mutagen_generator_assignment":[1,0],"goal":4,"start":1,"action_noise":0,"location_history":"[1,3,4]","action_history":"[0,1]","mutagen_history":"[1,0]","location_rts":"[1412,633]","trial_type":"fractal-mutation","trial_index":59,"time_elapsed":844239,"internal_node_id":"0.0-5.0-5.0"},{"group":"hexagon_tri","fractal_assignment":["../images/gry_blk.png","../images/ylw_slt.png","../images/pnk_blu.png","../images/org_blu.png","../images/cyn_red.png","../images/blu_wht.png"],"mutagen_generator_assignment":[1,0],"goal":1,"start":4,"action_noise":0,"location_history":"[4,2,1]","action_history":"[1,0]","mutagen_history":"[0,1]","location_rts":"[1132,503]","trial_type":"fractal-mutation","trial_index":60,"time_elapsed":851971,"internal_node_id":"0.0-5.0-6.0"},{"group":"hexagon_tri","fractal_assignment":["../images/gry_blk.png","../images/ylw_slt.png","../images/pnk_blu.png","../images/org_blu.png","../images/cyn_red.png","../images/blu_wht.png"],"mutagen_generator_assignment":[1,0],"goal":5,"start":1,"action_noise":0,"location_history":"[1,3,4,0,5]","action_history":"[0,1,0,0]","mutagen_history":"[1,0,1,1]","location_rts":"[2732,434,419,403]","trial_type":"fractal-mutation","trial_index":61,"time_elapsed":864160,"internal_node_id":"0.0-5.0-7.0"},{"group":"hexagon_tri","fractal_assignment":["../images/gry_blk.png","../images/ylw_slt.png","../images/pnk_blu.png","../images/org_blu.png","../images/cyn_red.png","../images/blu_wht.png"],"mutagen_generator_assignment":[1,0],"goal":0,"start":5,"action_noise":0,"location_history":"[5,4,2,3,2,3,4,2,1,3,4,2,1,3,2,1,3,4,0]","action_history":"[0,1,1,0,1,1,1,0,0,1,1,0,0,0,0,0,1,0]","mutagen_history":"[1,0,0,1,0,0,0,1,1,0,0,1,1,1,1,1,0,1]","location_rts":"[1590,379,401,453,392,370,525,337,321,135,576,827,348,18,20,78,371,291]","trial_type":"fractal-mutation","trial_index":62,"time_elapsed":894400,"internal_node_id":"0.0-5.0-8.0"},{"group":"hexagon_tri","fractal_assignment":["../images/gry_blk.png","../images/ylw_slt.png","../images/pnk_blu.png","../images/org_blu.png","../images/cyn_red.png","../images/blu_wht.png"],"mutagen_generator_assignment":[1,0],"goal":2,"start":0,"action_noise":0,"location_history":"[0,1,3,2]","action_history":"[1,0,0]","mutagen_history":"[0,1,1]","location_rts":"[1323,885,392]","trial_type":"fractal-mutation","trial_index":63,"time_elapsed":904155,"internal_node_id":"0.0-5.0-9.0"},{"group":"hexagon_tri","fractal_assignment":["../images/gry_blk.png","../images/ylw_slt.png","../images/pnk_blu.png","../images/org_blu.png","../images/cyn_red.png","../images/blu_wht.png"],"mutagen_generator_assignment":[1,0],"goal":3,"start":2,"action_noise":0,"location_history":"[2,3]","action_history":"[1]","mutagen_history":"[0]","location_rts":"[23446]","trial_type":"fractal-mutation","trial_index":64,"time_elapsed":932640,"internal_node_id":"0.0-5.0-10.0"},{"group":"hexagon_tri","fractal_assignment":["../images/gry_blk.png","../images/ylw_slt.png","../images/pnk_blu.png","../images/org_blu.png","../images/cyn_red.png","../images/blu_wht.png"],"mutagen_generator_assignment":[1,0],"goal":0,"start":3,"action_noise":0,"location_history":"[3,2,3,2,1,5,4,0]","action_history":"[0,1,0,0,1,0,0]","mutagen_history":"[1,0,1,1,0,1,1]","location_rts":"[1217,502,265,105,394,173,587]","trial_type":"fractal-mutation","trial_index":65,"time_elapsed":947211,"internal_node_id":"0.0-5.0-11.0"},{"group":"hexagon_tri","fractal_assignment":["../images/gry_blk.png","../images/ylw_slt.png","../images/pnk_blu.png","../images/org_blu.png","../images/cyn_red.png","../images/blu_wht.png"],"mutagen_generator_assignment":[1,0],"goal":2,"start":0,"action_noise":0,"location_history":"[0,1,3,2]","action_history":"[1,0,0]","mutagen_history":"[0,1,1]","location_rts":"[1241,377,395]","trial_type":"fractal-mutation","trial_index":66,"time_elapsed":956372,"internal_node_id":"0.0-5.0-12.0"},{"group":"hexagon_tri","fractal_assignment":["../images/gry_blk.png","../images/ylw_slt.png","../images/pnk_blu.png","../images/org_blu.png","../images/cyn_red.png","../images/blu_wht.png"],"mutagen_generator_assignment":[1,0],"goal":5,"start":2,"action_noise":0,"location_history":"[2,3,2,1,3,4,2,1,5]","action_history":"[1,0,0,0,1,1,0,1]","mutagen_history":"[0,1,1,1,0,0,1,0]","location_rts":"[1223,274,376,386,488,307,440,395]","trial_type":"fractal-mutation","trial_index":67,"time_elapsed":972603,"internal_node_id":"0.0-5.0-13.0"},{"group":"hexagon_tri","fractal_assignment":["../images/gry_blk.png","../images/ylw_slt.png","../images/pnk_blu.png","../images/org_blu.png","../images/cyn_red.png","../images/blu_wht.png"],"mutagen_generator_assignment":[1,0],"goal":4,"start":5,"action_noise":0,"location_history":"[5,0,1,3,4]","action_history":"[1,1,0,1]","mutagen_history":"[0,0,1,0]","location_rts":"[1018,421,304,371]","trial_type":"fractal-mutation","trial_index":68,"time_elapsed":982878,"internal_node_id":"0.0-5.0-14.0"},{"group":"hexagon_tri","fractal_assignment":["../images/gry_blk.png","../images/ylw_slt.png","../images/pnk_blu.png","../images/org_blu.png","../images/cyn_red.png","../images/blu_wht.png"],"mutagen_generator_assignment":[1,0],"goal":3,"start":4,"action_noise":0,"location_history":"[4,0,1,5,4,2,1,5,0,1,5,4,0,1,3]","action_history":"[0,1,1,0,1,0,1,1,1,1,0,0,1,0]","mutagen_history":"[1,0,0,1,0,1,0,0,0,0,1,1,0,1]","location_rts":"[1422,416,417,396,390,574,365,282,344,377,298,587,472,477]","trial_type":"fractal-mutation","trial_index":69,"time_elapsed":1008285,"internal_node_id":"0.0-5.0-15.0"},{"group":"hexagon_tri","fractal_assignment":["../images/gry_blk.png","../images/ylw_slt.png","../images/pnk_blu.png","../images/org_blu.png","../images/cyn_red.png","../images/blu_wht.png"],"mutagen_generator_assignment":[1,0],"goal":1,"start":3,"action_noise":0,"location_history":"[3,4,0,5,0,5,0,1]","action_history":"[1,0,0,1,0,1,1]","mutagen_history":"[0,1,1,0,1,0,0]","location_rts":"[4796,773,366,388,321,365,397]","trial_type":"fractal-mutation","trial_index":70,"time_elapsed":1026997,"internal_node_id":"0.0-5.0-16.0"},{"group":"hexagon_tri","fractal_assignment":["../images/gry_blk.png","../images/ylw_slt.png","../images/pnk_blu.png","../images/org_blu.png","../images/cyn_red.png","../images/blu_wht.png"],"mutagen_generator_assignment":[1,0],"goal":5,"start":1,"action_noise":0,"location_history":"[1,5]","action_history":"[1]","mutagen_history":"[0]","location_rts":"[1238]","trial_type":"fractal-mutation","trial_index":71,"time_elapsed":1033277,"internal_node_id":"0.0-5.0-17.0"},{"group":"hexagon_tri","fractal_assignment":["../images/gry_blk.png","../images/ylw_slt.png","../images/pnk_blu.png","../images/org_blu.png","../images/cyn_red.png","../images/blu_wht.png"],"mutagen_generator_assignment":[1,0],"goal":4,"start":5,"action_noise":0,"location_history":"[5,0,5,0,5,4]","action_history":"[1,0,1,0,0]","mutagen_history":"[0,1,0,1,1]","location_rts":"[4427,486,292,383,483]","trial_type":"fractal-mutation","trial_index":72,"time_elapsed":1048560,"internal_node_id":"0.0-5.0-18.0"},{"group":"hexagon_tri","fractal_assignment":["../images/gry_blk.png","../images/ylw_slt.png","../images/pnk_blu.png","../images/org_blu.png","../images/cyn_red.png","../images/blu_wht.png"],"mutagen_generator_assignment":[1,0],"goal":0,"start":4,"action_noise":0,"location_history":"[4,2,1,5,4,0]","action_history":"[1,0,1,0,0]","mutagen_history":"[0,1,0,1,1]","location_rts":"[1104,430,1307,354,388]","trial_type":"fractal-mutation","trial_index":73,"time_elapsed":1061357,"internal_node_id":"0.0-5.0-19.0"},{"group":"hexagon_tri","fractal_assignment":["../images/gry_blk.png","../images/ylw_slt.png","../images/pnk_blu.png","../images/org_blu.png","../images/cyn_red.png","../images/blu_wht.png"],"mutagen_generator_assignment":[1,0],"goal":1,"start":0,"action_noise":0,"location_history":"[0,1]","action_history":"[1]","mutagen_history":"[0]","location_rts":"[1772]","trial_type":"fractal-mutation","trial_index":74,"time_elapsed":1068177,"internal_node_id":"0.0-5.0-20.0"},{"group":"hexagon_tri","fractal_assignment":["../images/gry_blk.png","../images/ylw_slt.png","../images/pnk_blu.png","../images/org_blu.png","../images/cyn_red.png","../images/blu_wht.png"],"mutagen_generator_assignment":[1,0],"goal":3,"start":1,"action_noise":0,"location_history":"[1,5,4,0,1,3]","action_history":"[1,0,0,1,0]","mutagen_history":"[0,1,1,0,1]","location_rts":"[1168,528,670,398,639]","trial_type":"fractal-mutation","trial_index":75,"time_elapsed":1080816,"internal_node_id":"0.0-5.0-21.0"},{"group":"hexagon_tri","fractal_assignment":["../images/gry_blk.png","../images/ylw_slt.png","../images/pnk_blu.png","../images/org_blu.png","../images/cyn_red.png","../images/blu_wht.png"],"mutagen_generator_assignment":[1,0],"goal":2,"start":3,"action_noise":0,"location_history":"[3,2]","action_history":"[0]","mutagen_history":"[1]","location_rts":"[7794]","trial_type":"fractal-mutation","trial_index":76,"time_elapsed":1093659,"internal_node_id":"0.0-5.0-22.0"},{"group":"hexagon_tri","fractal_assignment":["../images/gry_blk.png","../images/ylw_slt.png","../images/pnk_blu.png","../images/org_blu.png","../images/cyn_red.png","../images/blu_wht.png"],"mutagen_generator_assignment":[1,0],"goal":0,"start":2,"action_noise":0,"location_history":"[2,1,5,4,0]","action_history":"[0,1,0,0]","mutagen_history":"[1,0,1,1]","location_rts":"[1296,479,623,453]","trial_type":"fractal-mutation","trial_index":77,"time_elapsed":1104715,"internal_node_id":"0.0-5.0-23.0"},{"group":"hexagon_tri","fractal_assignment":["../images/gry_blk.png","../images/ylw_slt.png","../images/pnk_blu.png","../images/org_blu.png","../images/cyn_red.png","../images/blu_wht.png"],"mutagen_generator_assignment":[1,0],"goal":3,"start":0,"action_noise":0,"location_history":"[0,5,0,5,0,1,5,4,0,1,3]","action_history":"[0,1,0,1,1,1,0,0,1,0]","mutagen_history":"[1,0,1,0,0,0,1,1,0,1]","location_rts":"[990,529,576,420,311,386,416,421,626,808]","trial_type":"fractal-mutation","trial_index":78,"time_elapsed":1124620,"internal_node_id":"0.0-5.0-24.0"},{"group":"hexagon_tri","fractal_assignment":["../images/gry_blk.png","../images/ylw_slt.png","../images/pnk_blu.png","../images/org_blu.png","../images/cyn_red.png","../images/blu_wht.png"],"mutagen_generator_assignment":[1,0],"goal":1,"start":3,"action_noise":0,"location_history":"[3,4,0,5,4,2,1]","action_history":"[1,0,0,0,1,0]","mutagen_history":"[0,1,1,1,0,1]","location_rts":"[1188,493,519,1238,277,670]","trial_type":"fractal-mutation","trial_index":79,"time_elapsed":1139267,"internal_node_id":"0.0-5.0-25.0"},{"group":"hexagon_tri","fractal_assignment":["../images/gry_blk.png","../images/ylw_slt.png","../images/pnk_blu.png","../images/org_blu.png","../images/cyn_red.png","../images/blu_wht.png"],"mutagen_generator_assignment":[1,0],"goal":2,"start":1,"action_noise":0,"location_history":"[1,5,4,0,1,5,4,0,1,3,4,0,1,3,2]","action_history":"[1,0,0,1,1,0,0,1,0,1,0,1,0,0]","mutagen_history":"[0,1,1,0,0,1,1,0,1,0,1,0,1,1]","location_rts":"[1034,852,1068,473,589,638,555,614,659,567,580,590,132,306]","trial_type":"fractal-mutation","trial_index":80,"time_elapsed":1166540,"internal_node_id":"0.0-5.0-26.0"},{"group":"hexagon_tri","fractal_assignment":["../images/gry_blk.png","../images/ylw_slt.png","../images/pnk_blu.png","../images/org_blu.png","../images/cyn_red.png","../images/blu_wht.png"],"mutagen_generator_assignment":[1,0],"goal":5,"start":2,"action_noise":0,"location_history":"[2,3,2,1,5]","action_history":"[1,0,0,1]","mutagen_history":"[0,1,1,0]","location_rts":"[957,470,327,429]","trial_type":"fractal-mutation","trial_index":81,"time_elapsed":1176894,"internal_node_id":"0.0-5.0-27.0"},{"group":"hexagon_tri","fractal_assignment":["../images/gry_blk.png","../images/ylw_slt.png","../images/pnk_blu.png","../images/org_blu.png","../images/cyn_red.png","../images/blu_wht.png"],"mutagen_generator_assignment":[1,0],"goal":4,"start":5,"action_noise":0,"location_history":"[5,0,1,3,2,3,2,1,5,0,5,4]","action_history":"[1,1,0,0,1,0,0,1,1,0,0]","mutagen_history":"[0,0,1,1,0,1,1,0,0,1,1]","location_rts":"[839,697,392,351,617,774,327,427,418,352,341]","trial_type":"fractal-mutation","trial_index":82,"time_elapsed":1197939,"internal_node_id":"0.0-5.0-28.0"},{"group":"hexagon_tri","fractal_assignment":["../images/gry_blk.png","../images/ylw_slt.png","../images/pnk_blu.png","../images/org_blu.png","../images/cyn_red.png","../images/blu_wht.png"],"mutagen_generator_assignment":[1,0],"goal":5,"start":4,"action_noise":0,"location_history":"[4,0,1,5]","action_history":"[0,1,1]","mutagen_history":"[1,0,0]","location_rts":"[999,380,277]","trial_type":"fractal-mutation","trial_index":83,"time_elapsed":1206718,"internal_node_id":"0.0-5.0-29.0"},{"group":"hexagon_tri","fractal_assignment":["../images/gry_blk.png","../images/ylw_slt.png","../images/pnk_blu.png","../images/org_blu.png","../images/cyn_red.png","../images/blu_wht.png"],"mutagen_generator_assignment":[1,0],"goal":3,"start":5,"action_noise":0,"location_history":"[5,4,2,1,5,4,2,1,5,4,0,5,0,5,4,0,1,3]","action_history":"[0,1,0,1,0,1,0,1,0,0,0,1,0,0,0,1,0]","mutagen_history":"[1,0,1,0,1,0,1,0,1,1,1,0,1,1,1,0,1]","location_rts":"[884,446,626,671,638,712,1251,954,138,890,361,323,972,598,808,194,310]","trial_type":"fractal-mutation","trial_index":84,"time_elapsed":1239267,"internal_node_id":"0.0-5.0-30.0"},{"group":"hexagon_tri","fractal_assignment":["../images/gry_blk.png","../images/ylw_slt.png","../images/pnk_blu.png","../images/org_blu.png","../images/cyn_red.png","../images/blu_wht.png"],"mutagen_generator_assignment":[1,0],"goal":0,"start":3,"action_noise":0,"location_history":"[3,4,0]","action_history":"[1,0]","mutagen_history":"[0,1]","location_rts":"[860,461]","trial_type":"fractal-mutation","trial_index":85,"time_elapsed":1246675,"internal_node_id":"0.0-5.0-31.0"},{"group":"hexagon_tri","fractal_assignment":["../images/gry_blk.png","../images/ylw_slt.png","../images/pnk_blu.png","../images/org_blu.png","../images/cyn_red.png","../images/blu_wht.png"],"mutagen_generator_assignment":[1,0],"goal":4,"start":0,"action_noise":0,"location_history":"[0,5,0,1,3,2,3,4]","action_history":"[0,1,1,0,0,1,1]","mutagen_history":"[1,0,0,1,1,0,0]","location_rts":"[1399,488,581,417,611,420,849]","trial_type":"fractal-mutation","trial_index":86,"time_elapsed":1262742,"internal_node_id":"0.0-5.0-32.0"},{"group":"hexagon_tri","fractal_assignment":["../images/gry_blk.png","../images/ylw_slt.png","../images/pnk_blu.png","../images/org_blu.png","../images/cyn_red.png","../images/blu_wht.png"],"mutagen_generator_assignment":[1,0],"goal":1,"start":4,"action_noise":0,"location_history":"[4,2,1]","action_history":"[1,0]","mutagen_history":"[0,1]","location_rts":"[2373,515]","trial_type":"fractal-mutation","trial_index":87,"time_elapsed":1271723,"internal_node_id":"0.0-5.0-33.0"},{"group":"hexagon_tri","fractal_assignment":["../images/gry_blk.png","../images/ylw_slt.png","../images/pnk_blu.png","../images/org_blu.png","../images/cyn_red.png","../images/blu_wht.png"],"mutagen_generator_assignment":[1,0],"goal":2,"start":1,"action_noise":0,"location_history":"[1,3,4,0,5,0,1,3,4,2]","action_history":"[0,1,0,0,1,1,0,1,1]","mutagen_history":"[1,0,1,1,0,0,1,0,0]","location_rts":"[1318,380,472,499,471,372,438,395,405]","trial_type":"fractal-mutation","trial_index":88,"time_elapsed":1289856,"internal_node_id":"0.0-5.0-34.0"},{"group":"hexagon_tri","fractal_assignment":["../images/gry_blk.png","../images/ylw_slt.png","../images/pnk_blu.png","../images/org_blu.png","../images/cyn_red.png","../images/blu_wht.png"],"mutagen_generator_assignment":[1,0],"goal":0,"start":2,"action_noise":0,"location_history":"[2,1,5,4,2,1,5,4,0]","action_history":"[0,1,0,1,0,1,0,0]","mutagen_history":"[1,0,1,0,1,0,1,1]","location_rts":"[941,288,493,435,444,362,384,846]","trial_type":"fractal-mutation","trial_index":89,"time_elapsed":1306396,"internal_node_id":"0.0-5.0-35.0"},{"group":"hexagon_tri","fractal_assignment":["../images/gry_blk.png","../images/ylw_slt.png","../images/pnk_blu.png","../images/org_blu.png","../images/cyn_red.png","../images/blu_wht.png"],"mutagen_generator_assignment":[1,0],"goal":5,"start":0,"action_noise":0,"location_history":"[0,1,3,4,0,5]","action_history":"[1,0,1,0,0]","mutagen_history":"[0,1,0,1,1]","location_rts":"[1292,564,454,584,407]","trial_type":"fractal-mutation","trial_index":90,"time_elapsed":1318916,"internal_node_id":"0.0-5.0-36.0"},{"group":"hexagon_tri","fractal_assignment":["../images/gry_blk.png","../images/ylw_slt.png","../images/pnk_blu.png","../images/org_blu.png","../images/cyn_red.png","../images/blu_wht.png"],"mutagen_generator_assignment":[1,0],"goal":2,"start":5,"action_noise":0,"location_history":"[5,0,5,0,5,4,0,1,5,4,0,1,5,4,2]","action_history":"[1,0,1,0,0,0,1,1,0,0,1,1,0,1]","mutagen_history":"[0,1,0,1,1,1,0,0,1,1,0,0,1,0]","location_rts":"[980,347,626,399,1156,433,434,336,341,365,334,367,294,470]","trial_type":"fractal-mutation","trial_index":91,"time_elapsed":1344428,"internal_node_id":"0.0-5.0-37.0"},{"group":"hexagon_tri","fractal_assignment":["../images/gry_blk.png","../images/ylw_slt.png","../images/pnk_blu.png","../images/org_blu.png","../images/cyn_red.png","../images/blu_wht.png"],"mutagen_generator_assignment":[1,0],"goal":1,"start":2,"action_noise":0,"location_history":"[2,3,2,1]","action_history":"[1,0,0]","mutagen_history":"[0,1,1]","location_rts":"[1531,690,608]","trial_type":"fractal-mutation","trial_index":92,"time_elapsed":1354404,"internal_node_id":"0.0-5.0-38.0"},{"group":"hexagon_tri","fractal_assignment":["../images/gry_blk.png","../images/ylw_slt.png","../images/pnk_blu.png","../images/org_blu.png","../images/cyn_red.png","../images/blu_wht.png"],"mutagen_generator_assignment":[1,0],"goal":4,"start":1,"action_noise":0,"location_history":"[1,5,4]","action_history":"[1,0]","mutagen_history":"[0,1]","location_rts":"[784,505]","trial_type":"fractal-mutation","trial_index":93,"time_elapsed":1361779,"internal_node_id":"0.0-5.0-39.0"},{"group":"hexagon_tri","fractal_assignment":["../images/gry_blk.png","../images/ylw_slt.png","../images/pnk_blu.png","../images/org_blu.png","../images/cyn_red.png","../images/blu_wht.png"],"mutagen_generator_assignment":[1,0],"goal":3,"start":4,"action_noise":0,"location_history":"[4,0,1,5,4,2,1,3]","action_history":"[0,1,1,0,1,0,0]","mutagen_history":"[1,0,0,1,0,1,1]","location_rts":"[1101,426,419,312,274,514,545]","trial_type":"fractal-mutation","trial_index":94,"time_elapsed":1376691,"internal_node_id":"0.0-5.0-40.0"},{"group":"hexagon_tri","fractal_assignment":["../images/gry_blk.png","../images/ylw_slt.png","../images/pnk_blu.png","../images/org_blu.png","../images/cyn_red.png","../images/blu_wht.png"],"mutagen_generator_assignment":[1,0],"goal":5,"start":3,"action_noise":0,"location_history":"[3,2,3,2,1,5]","action_history":"[0,1,0,0,1]","mutagen_history":"[1,0,1,1,0]","location_rts":"[1015,332,450,581,10]","trial_type":"fractal-mutation","trial_index":95,"time_elapsed":1388302,"internal_node_id":"0.0-5.0-41.0"},{"group":"hexagon_tri","fractal_assignment":["../images/gry_blk.png","../images/ylw_slt.png","../images/pnk_blu.png","../images/org_blu.png","../images/cyn_red.png","../images/blu_wht.png"],"mutagen_generator_assignment":[1,0],"goal":3,"start":5,"action_noise":0,"location_history":"[5,4,2,1,3]","action_history":"[0,1,0,0]","mutagen_history":"[1,0,1,1]","location_rts":"[798,562,1792,118]","trial_type":"fractal-mutation","trial_index":96,"time_elapsed":1399754,"internal_node_id":"0.0-5.0-42.0"},{"group":"hexagon_tri","fractal_assignment":["../images/gry_blk.png","../images/ylw_slt.png","../images/pnk_blu.png","../images/org_blu.png","../images/cyn_red.png","../images/blu_wht.png"],"mutagen_generator_assignment":[1,0],"goal":0,"start":3,"action_noise":0,"location_history":"[3,2,3,2,3,2,1,5,4,2,3,4,0]","action_history":"[0,1,0,1,0,0,1,0,1,1,1,0]","mutagen_history":"[1,0,1,0,1,1,0,1,0,0,0,1]","location_rts":"[626,532,412,498,555,1073,339,755,507,73,268,398]","trial_type":"fractal-mutation","trial_index":97,"time_elapsed":1422296,"internal_node_id":"0.0-5.0-43.0"},{"group":"hexagon_tri","fractal_assignment":["../images/gry_blk.png","../images/ylw_slt.png","../images/pnk_blu.png","../images/org_blu.png","../images/cyn_red.png","../images/blu_wht.png"],"mutagen_generator_assignment":[1,0],"goal":2,"start":0,"action_noise":0,"location_history":"[0,5,0,1,3,4,2]","action_history":"[0,1,1,0,1,1]","mutagen_history":"[1,0,0,1,0,0]","location_rts":"[1159,424,289,282,458,396]","trial_type":"fractal-mutation","trial_index":98,"time_elapsed":1435560,"internal_node_id":"0.0-5.0-44.0"},{"group":"hexagon_tri","fractal_assignment":["../images/gry_blk.png","../images/ylw_slt.png","../images/pnk_blu.png","../images/org_blu.png","../images/cyn_red.png","../images/blu_wht.png"],"mutagen_generator_assignment":[1,0],"goal":4,"start":2,"action_noise":0,"location_history":"[2,3,2,3,4]","action_history":"[1,0,1,1]","mutagen_history":"[0,1,0,0]","location_rts":"[1530,1369,517,739]","trial_type":"fractal-mutation","trial_index":99,"time_elapsed":1447875,"internal_node_id":"0.0-5.0-45.0"},{"group":"hexagon_tri","fractal_assignment":["../images/gry_blk.png","../images/ylw_slt.png","../images/pnk_blu.png","../images/org_blu.png","../images/cyn_red.png","../images/blu_wht.png"],"mutagen_generator_assignment":[1,0],"goal":1,"start":4,"action_noise":0,"location_history":"[4,2,1]","action_history":"[1,0]","mutagen_history":"[0,1]","location_rts":"[1224,323]","trial_type":"fractal-mutation","trial_index":100,"time_elapsed":1455508,"internal_node_id":"0.0-5.0-46.0"},{"group":"hexagon_tri","fractal_assignment":["../images/gry_blk.png","../images/ylw_slt.png","../images/pnk_blu.png","../images/org_blu.png","../images/cyn_red.png","../images/blu_wht.png"],"mutagen_generator_assignment":[1,0],"goal":4,"start":1,"action_noise":0,"location_history":"[1,5,4]","action_history":"[1,0]","mutagen_history":"[0,1]","location_rts":"[1534,318]","trial_type":"fractal-mutation","trial_index":101,"time_elapsed":1463450,"internal_node_id":"0.0-5.0-47.0"},{"group":"hexagon_tri","fractal_assignment":["../images/gry_blk.png","../images/ylw_slt.png","../images/pnk_blu.png","../images/org_blu.png","../images/cyn_red.png","../images/blu_wht.png"],"mutagen_generator_assignment":[1,0],"goal":3,"start":4,"action_noise":0,"location_history":"[4,0,1,5,0,5,0,5,4,2,1,5,0,1,5,4,2,1,3]","action_history":"[0,1,1,1,0,1,0,0,1,0,1,1,1,1,0,1,0,0]","mutagen_history":"[1,0,0,0,1,0,1,1,0,1,0,0,0,0,1,0,1,1]","location_rts":"[2417,283,353,305,345,297,257,176,654,403,312,291,209,409,282,332,551,121]","trial_type":"fractal-mutation","trial_index":102,"time_elapsed":1494253,"internal_node_id":"0.0-5.0-48.0"},{"group":"hexagon_tri","fractal_assignment":["../images/gry_blk.png","../images/ylw_slt.png","../images/pnk_blu.png","../images/org_blu.png","../images/cyn_red.png","../images/blu_wht.png"],"mutagen_generator_assignment":[1,0],"goal":5,"start":3,"action_noise":0,"location_history":"[3,4,0,1,5]","action_history":"[1,0,1,1]","mutagen_history":"[0,1,0,0]","location_rts":"[1007,745,435,477]","trial_type":"fractal-mutation","trial_index":103,"time_elapsed":1505081,"internal_node_id":"0.0-5.0-49.0"},{"view_history":"[{\"page_index\":0,\"viewing_time\":15644}]","rt":15645,"trial_type":"instructions","trial_index":104,"time_elapsed":1521727,"internal_node_id":"0.0-6.0"},{"rt":5972,"responses":"{\"Q0\":\"\"}","trial_type":"survey-text","trial_index":105,"time_elapsed":1528703,"internal_node_id":"0.0-7.0"}]