[{"view_history":"[{\"page_index\":0,\"viewing_time\":4980},{\"page_index\":1,\"viewing_time\":6444},{\"page_index\":2,\"viewing_time\":19640}]","rt":31064,"trial_type":"instructions","trial_index":0,"time_elapsed":31068,"internal_node_id":"0.0-0.0"},{"view_history":"[{\"page_index\":0,\"viewing_time\":1755},{\"page_index\":1,\"viewing_time\":22425}]","rt":24182,"trial_type":"instructions","trial_index":1,"time_elapsed":56253,"internal_node_id":"0.0-1.0"},{"group":"hexagon_tri","room_assignment":["purple","yellow","red","blue","grey","green"],"door_color_assignment":["black","white"],"door_generator_assignment":[1,0],"goal":4,"start":0,"action_noise":0,"location_history":"[0,5,0,1,3,2,3,2,1,5,0,1,5,0,5,0,5,4]","action_history":"[0,1,1,0,0,1,0,0,1,1,1,1,1,0,1,0,0]","door_history":"[1,0,0,1,1,0,1,1,0,0,0,0,0,1,0,1,1]","location_rts":"[12244,4566,2690,3471,3255,1482,1841,694,1925,962,629,635,509,1048,542,402,447]","trial_type":"two-door-navigation","trial_index":2,"time_elapsed":115114,"internal_node_id":"0.0-2.0-0.0"},{"group":"hexagon_tri","room_assignment":["purple","yellow","red","blue","grey","green"],"door_color_assignment":["black","white"],"door_generator_assignment":[1,0],"goal":3,"start":4,"action_noise":0,"location_history":"[4,2,3]","action_history":"[1,1]","door_history":"[0,0]","location_rts":"[7113,1510]","trial_type":"two-door-navigation","trial_index":3,"time_elapsed":129789,"internal_node_id":"0.0-2.0-1.0"},{"group":"hexagon_tri","room_assignment":["purple","yellow","red","blue","grey","green"],"door_color_assignment":["black","white"],"door_generator_assignment":[1,0],"goal":5,"start":3,"action_noise":0,"location_history":"[3,2,1,3,4,0,5]","action_history":"[0,0,0,1,0,0]","door_history":"[1,1,1,0,1,1]","location_rts":"[3071,1024,971,859,690,533]","trial_type":"two-door-navigation","trial_index":4,"time_elapsed":147123,"internal_node_id":"0.0-2.0-2.0"},{"group":"hexagon_tri","room_assignment":["purple","yellow","red","blue","grey","green"],"door_color_assignment":["black","white"],"door_generator_assignment":[1,0],"goal":2,"start":5,"action_noise":0,"location_history":"[5,4,0,1,5,0,1,5,0,5,4,0,5,4,0,1,3,4,0,1,3,4,2]","action_history":"[0,0,1,1,1,1,1,1,0,0,0,0,0,0,1,0,1,0,1,0,1,1]","door_history":"[1,1,0,0,0,0,0,0,1,1,1,1,1,1,0,1,0,1,0,1,0,0]","location_rts":"[2814,489,1755,1367,473,425,388,390,392,334,376,409,962,394,485,326,387,369,516,359,1697,1119]","trial_type":"two-door-navigation","trial_index":5,"time_elapsed":189931,"internal_node_id":"0.0-2.0-3.0"},{"group":"hexagon_tri","room_assignment":["purple","yellow","red","blue","grey","green"],"door_color_assignment":["black","white"],"door_generator_assignment":[1,0],"goal":1,"start":2,"action_noise":0,"location_history":"[2,1]","action_history":"[0]","door_history":"[1]","location_rts":"[5524]","trial_type":"two-door-navigation","trial_index":6,"time_elapsed":200486,"internal_node_id":"0.0-2.0-4.0"},{"group":"hexagon_tri","room_assignment":["purple","yellow","red","blue","grey","green"],"door_color_assignment":["black","white"],"door_generator_assignment":[1,0],"goal":4,"start":1,"action_noise":0,"location_history":"[1,5,4]","action_history":"[1,0]","door_history":"[0,1]","location_rts":"[2299,1071]","trial_type":"two-door-navigation","trial_index":7,"time_elapsed":209927,"internal_node_id":"0.0-2.0-5.0"},{"group":"hexagon_tri","room_assignment":["purple","yellow","red","blue","grey","green"],"door_color_assignment":["black","white"],"door_generator_assignment":[1,0],"goal":1,"start":4,"action_noise":0,"location_history":"[4,2,1]","action_history":"[1,0]","door_history":"[0,1]","location_rts":"[3106,504]","trial_type":"two-door-navigation","trial_index":8,"time_elapsed":219593,"internal_node_id":"0.0-2.0-6.0"},{"group":"hexagon_tri","room_assignment":["purple","yellow","red","blue","grey","green"],"door_color_assignment":["black","white"],"door_generator_assignment":[1,0],"goal":5,"start":1,"action_noise":0,"location_history":"[1,5]","action_history":"[1]","door_history":"[0]","location_rts":"[3225]","trial_type":"two-door-navigation","trial_index":9,"time_elapsed":227858,"internal_node_id":"0.0-2.0-7.0"},{"group":"hexagon_tri","room_assignment":["purple","yellow","red","blue","grey","green"],"door_color_assignment":["black","white"],"door_generator_assignment":[1,0],"goal":0,"start":5,"action_noise":0,"location_history":"[5,0]","action_history":"[1]","door_history":"[0]","location_rts":"[3313]","trial_type":"two-door-navigation","trial_index":10,"time_elapsed":236203,"internal_node_id":"0.0-2.0-8.0"},{"group":"hexagon_tri","room_assignment":["purple","yellow","red","blue","grey","green"],"door_color_assignment":["black","white"],"door_generator_assignment":[1,0],"goal":2,"start":0,"action_noise":0,"location_history":"[0,5,0,1,3,2]","action_history":"[0,1,1,0,0]","door_history":"[1,0,0,1,1]","location_rts":"[3494,391,1300,544,657]","trial_type":"two-door-navigation","trial_index":11,"time_elapsed":251752,"internal_node_id":"0.0-2.0-9.0"},{"group":"hexagon_tri","room_assignment":["purple","yellow","red","blue","grey","green"],"door_color_assignment":["black","white"],"door_generator_assignment":[1,0],"goal":3,"start":2,"action_noise":0,"location_history":"[2,3]","action_history":"[1]","door_history":"[0]","location_rts":"[3195]","trial_type":"two-door-navigation","trial_index":12,"time_elapsed":259980,"internal_node_id":"0.0-2.0-10.0"},{"group":"hexagon_tri","room_assignment":["purple","yellow","red","blue","grey","green"],"door_color_assignment":["black","white"],"door_generator_assignment":[1,0],"goal":0,"start":3,"action_noise":0,"location_history":"[3,4,2,3,4,0]","action_history":"[1,1,1,1,0]","door_history":"[0,0,0,0,1]","location_rts":"[3283,519,1201,472,404]","trial_type":"two-door-navigation","trial_index":13,"time_elapsed":275051,"internal_node_id":"0.0-2.0-11.0"},{"group":"hexagon_tri","room_assignment":["purple","yellow","red","blue","grey","green"],"door_color_assignment":["black","white"],"door_generator_assignment":[1,0],"goal":2,"start":0,"action_noise":0,"location_history":"[0,5,0,5,0,5,4,0,1,5,4,0,1,5,0,1,3,4,0,5,0,5,0,5,4,0,1,3,4,2]","action_history":"[0,1,0,1,0,0,0,1,1,0,0,1,1,1,1,0,1,0,0,1,0,1,0,0,0,1,0,1,1]","door_history":"[1,0,1,0,1,1,1,0,0,1,1,0,0,0,0,1,0,1,1,0,1,0,1,1,1,0,1,0,0]","location_rts":"[3274,410,466,977,376,313,383,425,395,579,427,276,401,400,409,424,454,313,413,338,437,305,1019,406,438,832,1298,601,367]","trial_type":"two-door-navigation","trial_index":14,"time_elapsed":326036,"internal_node_id":"0.0-2.0-12.0"},{"group":"hexagon_tri","room_assignment":["purple","yellow","red","blue","grey","green"],"door_color_assignment":["black","white"],"door_generator_assignment":[1,0],"goal":5,"start":2,"action_noise":0,"location_history":"[2,1,5]","action_history":"[0,1]","door_history":"[1,0]","location_rts":"[1830,522]","trial_type":"two-door-navigation","trial_index":15,"time_elapsed":334454,"internal_node_id":"0.0-2.0-13.0"},{"group":"hexagon_tri","room_assignment":["purple","yellow","red","blue","grey","green"],"door_color_assignment":["black","white"],"door_generator_assignment":[1,0],"goal":4,"start":5,"action_noise":0,"location_history":"[5,4]","action_history":"[0]","door_history":"[1]","location_rts":"[2751]","trial_type":"two-door-navigation","trial_index":16,"time_elapsed":342238,"internal_node_id":"0.0-2.0-14.0"},{"group":"hexagon_tri","room_assignment":["purple","yellow","red","blue","grey","green"],"door_color_assignment":["black","white"],"door_generator_assignment":[1,0],"goal":3,"start":4,"action_noise":0,"location_history":"[4,2,1,5,0,5,0,5,4,0,5,4,2,3]","action_history":"[1,0,1,1,0,1,0,0,0,0,0,1,1]","door_history":"[0,1,0,0,1,0,1,1,1,1,1,0,0]","location_rts":"[2622,1585,1074,666,553,481,481,321,534,453,400,1099,424]","trial_type":"two-door-navigation","trial_index":17,"time_elapsed":370298,"internal_node_id":"0.0-2.0-15.0"},{"group":"hexagon_tri","room_assignment":["purple","yellow","red","blue","grey","green"],"door_color_assignment":["black","white"],"door_generator_assignment":[1,0],"goal":1,"start":3,"action_noise":0,"location_history":"[3,4,0,5,4,2,1]","action_history":"[1,0,0,0,1,0]","door_history":"[0,1,1,1,0,1]","location_rts":"[2491,370,960,432,976,517]","trial_type":"two-door-navigation","trial_index":18,"time_elapsed":386226,"internal_node_id":"0.0-2.0-16.0"},{"group":"hexagon_tri","room_assignment":["purple","yellow","red","blue","grey","green"],"door_color_assignment":["black","white"],"door_generator_assignment":[1,0],"goal":5,"start":1,"action_noise":0,"location_history":"[1,5]","action_history":"[1]","door_history":"[0]","location_rts":"[1952]","trial_type":"two-door-navigation","trial_index":19,"time_elapsed":393209,"internal_node_id":"0.0-2.0-17.0"},{"group":"hexagon_tri","room_assignment":["purple","yellow","red","blue","grey","green"],"door_color_assignment":["black","white"],"door_generator_assignment":[1,0],"goal":4,"start":5,"action_noise":0,"location_history":"[5,0,5,0,5,4]","action_history":"[1,0,1,0,0]","door_history":"[0,1,0,1,1]","location_rts":"[3221,377,917,633,313]","trial_type":"two-door-navigation","trial_index":20,"time_elapsed":407797,"internal_node_id":"0.0-2.0-18.0"},{"group":"hexagon_tri","room_assignment":["purple","yellow","red","blue","grey","green"],"door_color_assignment":["black","white"],"door_generator_assignment":[1,0],"goal":0,"start":4,"action_noise":0,"location_history":"[4,0]","action_history":"[0]","door_history":"[1]","location_rts":"[2634]","trial_type":"two-door-navigation","trial_index":21,"time_elapsed":415459,"internal_node_id":"0.0-2.0-19.0"},{"group":"hexagon_tri","room_assignment":["purple","yellow","red","blue","grey","green"],"door_color_assignment":["black","white"],"door_generator_assignment":[1,0],"goal":1,"start":0,"action_noise":0,"location_history":"[0,1]","action_history":"[1]","door_history":"[0]","location_rts":"[4528]","trial_type":"two-door-navigation","trial_index":22,"time_elapsed":425018,"internal_node_id":"0.0-2.0-20.0"},{"group":"hexagon_tri","room_assignment":["purple","yellow","red","blue","grey","green"],"door_color_assignment":["black","white"],"door_generator_assignment":[1,0],"goal":3,"start":1,"action_noise":0,"location_history":"[1,5,4,2,1,3]","action_history":"[1,0,1,0,0]","door_history":"[0,1,0,1,1]","location_rts":"[11262,408,931,616,403]","trial_type":"two-door-navigation","trial_index":23,"time_elapsed":447787,"internal_node_id":"0.0-2.0-21.0"},{"group":"hexagon_tri","room_assignment":["purple","yellow","red","blue","grey","green"],"door_color_assignment":["black","white"],"door_generator_assignment":[1,0],"goal":2,"start":3,"action_noise":0,"location_history":"[3,4,0,1,5,0,5,4,2]","action_history":"[1,0,1,1,1,0,0,1]","door_history":"[0,1,0,0,0,1,1,0]","location_rts":"[1410,2079,661,457,478,847,1134,638]","trial_type":"two-door-navigation","trial_index":24,"time_elapsed":467719,"internal_node_id":"0.0-2.0-22.0"},{"group":"hexagon_tri","room_assignment":["purple","yellow","red","blue","grey","green"],"door_color_assignment":["black","white"],"door_generator_assignment":[1,0],"goal":0,"start":2,"action_noise":0,"location_history":"[2,3,4,2,1,3,4,2,3,4,2,1,3,2,1,5,4,2,1,5,0]","action_history":"[1,1,1,0,0,1,1,1,1,1,0,0,0,0,1,0,1,0,1,1]","door_history":"[0,0,0,1,1,0,0,0,0,0,1,1,1,1,0,1,0,1,0,0]","location_rts":"[1551,1337,839,1495,470,373,923,517,470,373,1425,399,421,506,411,311,283,361,338,272]","trial_type":"two-door-navigation","trial_index":25,"time_elapsed":505327,"internal_node_id":"0.0-2.0-23.0"},{"group":"hexagon_tri","room_assignment":["purple","yellow","red","blue","grey","green"],"door_color_assignment":["black","white"],"door_generator_assignment":[1,0],"goal":3,"start":0,"action_noise":0,"location_history":"[0,5,0,1,5,4,2,3]","action_history":"[0,1,1,1,0,1,1]","door_history":"[1,0,0,0,1,0,0]","location_rts":"[2784,359,426,415,444,169,295]","trial_type":"two-door-navigation","trial_index":26,"time_elapsed":521405,"internal_node_id":"0.0-2.0-24.0"},{"group":"hexagon_tri","room_assignment":["purple","yellow","red","blue","grey","green"],"door_color_assignment":["black","white"],"door_generator_assignment":[1,0],"goal":1,"start":3,"action_noise":0,"location_history":"[3,4,0,5,4,0,1]","action_history":"[1,0,0,0,0,1]","door_history":"[0,1,1,1,1,0]","location_rts":"[2405,330,1346,446,1101,695]","trial_type":"two-door-navigation","trial_index":27,"time_elapsed":537943,"internal_node_id":"0.0-2.0-25.0"},{"group":"hexagon_tri","room_assignment":["purple","yellow","red","blue","grey","green"],"door_color_assignment":["black","white"],"door_generator_assignment":[1,0],"goal":2,"start":1,"action_noise":0,"location_history":"[1,3,4,2]","action_history":"[0,1,1]","door_history":"[1,0,0]","location_rts":"[5009,820,458]","trial_type":"two-door-navigation","trial_index":28,"time_elapsed":551333,"internal_node_id":"0.0-2.0-26.0"},{"group":"hexagon_tri","room_assignment":["purple","yellow","red","blue","grey","green"],"door_color_assignment":["black","white"],"door_generator_assignment":[1,0],"goal":5,"start":2,"action_noise":0,"location_history":"[2,1,5]","action_history":"[0,1]","door_history":"[1,0]","location_rts":"[1428,381]","trial_type":"two-door-navigation","trial_index":29,"time_elapsed":559192,"internal_node_id":"0.0-2.0-27.0"},{"group":"hexagon_tri","room_assignment":["purple","yellow","red","blue","grey","green"],"door_color_assignment":["black","white"],"door_generator_assignment":[1,0],"goal":4,"start":5,"action_noise":0,"location_history":"[5,4]","action_history":"[0]","door_history":"[1]","location_rts":"[2541]","trial_type":"two-door-navigation","trial_index":30,"time_elapsed":566765,"internal_node_id":"0.0-2.0-28.0"},{"group":"hexagon_tri","room_assignment":["purple","yellow","red","blue","grey","green"],"door_color_assignment":["black","white"],"door_generator_assignment":[1,0],"goal":5,"start":4,"action_noise":0,"location_history":"[4,2,1,3,4,2,1,3,2,1,5]","action_history":"[1,0,0,1,1,0,0,0,0,1]","door_history":"[0,1,1,0,0,1,1,1,1,0]","location_rts":"[6019,441,1147,501,455,618,294,385,343,818]","trial_type":"two-door-navigation","trial_index":31,"time_elapsed":592044,"internal_node_id":"0.0-2.0-29.0"},{"group":"hexagon_tri","room_assignment":["purple","yellow","red","blue","grey","green"],"door_color_assignment":["black","white"],"door_generator_assignment":[1,0],"goal":3,"start":5,"action_noise":0,"location_history":"[5,4,0,5,4,2,3]","action_history":"[0,0,0,0,1,1]","door_history":"[1,1,1,1,0,0]","location_rts":"[6191,520,608,552,865,571]","trial_type":"two-door-navigation","trial_index":32,"time_elapsed":611544,"internal_node_id":"0.0-2.0-30.0"},{"group":"hexagon_tri","room_assignment":["purple","yellow","red","blue","grey","green"],"door_color_assignment":["black","white"],"door_generator_assignment":[1,0],"goal":0,"start":3,"action_noise":0,"location_history":"[3,4,0]","action_history":"[1,0]","door_history":"[0,1]","location_rts":"[2164,377]","trial_type":"two-door-navigation","trial_index":33,"time_elapsed":620158,"internal_node_id":"0.0-2.0-31.0"},{"group":"hexagon_tri","room_assignment":["purple","yellow","red","blue","grey","green"],"door_color_assignment":["black","white"],"door_generator_assignment":[1,0],"goal":4,"start":0,"action_noise":0,"location_history":"[0,5,0,1,5,4]","action_history":"[0,1,1,1,0]","door_history":"[1,0,0,0,1]","location_rts":"[5574,482,1364,528,379]","trial_type":"two-door-navigation","trial_index":34,"time_elapsed":637654,"internal_node_id":"0.0-2.0-32.0"},{"group":"hexagon_tri","room_assignment":["purple","yellow","red","blue","grey","green"],"door_color_assignment":["black","white"],"door_generator_assignment":[1,0],"goal":1,"start":4,"action_noise":0,"location_history":"[4,2,1]","action_history":"[1,0]","door_history":"[0,1]","location_rts":"[12700,447]","trial_type":"two-door-navigation","trial_index":35,"time_elapsed":656849,"internal_node_id":"0.0-2.0-33.0"},{"group":"hexagon_tri","room_assignment":["purple","yellow","red","blue","grey","green"],"door_color_assignment":["black","white"],"door_generator_assignment":[1,0],"goal":2,"start":1,"action_noise":0,"location_history":"[1,5,4,2]","action_history":"[1,0,1]","door_history":"[0,1,0]","location_rts":"[2929,2826,1258]","trial_type":"two-door-navigation","trial_index":36,"time_elapsed":670945,"internal_node_id":"0.0-2.0-34.0"},{"group":"hexagon_tri","room_assignment":["purple","yellow","red","blue","grey","green"],"door_color_assignment":["black","white"],"door_generator_assignment":[1,0],"goal":0,"start":2,"action_noise":0,"location_history":"[2,3,4,2,1,3,2,1,3,4,2,3,4,2,1,3,4,2,1,5,4,2,1,5,0]","action_history":"[1,1,1,0,0,0,0,0,1,1,1,1,1,0,0,1,1,0,1,0,1,0,1,1]","door_history":"[0,0,0,1,1,1,1,1,0,0,0,0,0,1,1,0,0,1,0,1,0,1,0,0]","location_rts":"[2539,508,567,914,419,501,427,555,466,519,3155,757,488,535,630,1079,776,1253,1170,1008,1156,1420,2096,811]","trial_type":"two-door-navigation","trial_index":37,"time_elapsed":723280,"internal_node_id":"0.0-2.0-35.0"},{"group":"hexagon_tri","room_assignment":["purple","yellow","red","blue","grey","green"],"door_color_assignment":["black","white"],"door_generator_assignment":[1,0],"goal":5,"start":0,"action_noise":0,"location_history":"[0,1,3,4,2,3,4,0,5]","action_history":"[1,0,1,1,1,1,0,0]","door_history":"[0,1,0,0,0,0,1,1]","location_rts":"[8099,1254,882,1103,520,506,429,394]","trial_type":"two-door-navigation","trial_index":38,"time_elapsed":748695,"internal_node_id":"0.0-2.0-36.0"},{"group":"hexagon_tri","room_assignment":["purple","yellow","red","blue","grey","green"],"door_color_assignment":["black","white"],"door_generator_assignment":[1,0],"goal":2,"start":5,"action_noise":0,"location_history":"[5,4,2]","action_history":"[0,1]","door_history":"[1,0]","location_rts":"[844,1569]","trial_type":"two-door-navigation","trial_index":39,"time_elapsed":757158,"internal_node_id":"0.0-2.0-37.0"},{"group":"hexagon_tri","room_assignment":["purple","yellow","red","blue","grey","green"],"door_color_assignment":["black","white"],"door_generator_assignment":[1,0],"goal":1,"start":2,"action_noise":0,"location_history":"[2,1]","action_history":"[0]","door_history":"[1]","location_rts":"[1342]","trial_type":"two-door-navigation","trial_index":40,"time_elapsed":763526,"internal_node_id":"0.0-2.0-38.0"},{"group":"hexagon_tri","room_assignment":["purple","yellow","red","blue","grey","green"],"door_color_assignment":["black","white"],"door_generator_assignment":[1,0],"goal":4,"start":1,"action_noise":0,"location_history":"[1,3,4]","action_history":"[0,1]","door_history":"[1,0]","location_rts":"[3886,1354]","trial_type":"two-door-navigation","trial_index":41,"time_elapsed":774825,"internal_node_id":"0.0-2.0-39.0"},{"group":"hexagon_tri","room_assignment":["purple","yellow","red","blue","grey","green"],"door_color_assignment":["black","white"],"door_generator_assignment":[1,0],"goal":3,"start":4,"action_noise":0,"location_history":"[4,2,1,3]","action_history":"[1,0,0]","door_history":"[0,1,1]","location_rts":"[4251,568,2105]","trial_type":"two-door-navigation","trial_index":42,"time_elapsed":788811,"internal_node_id":"0.0-2.0-40.0"},{"group":"hexagon_tri","room_assignment":["purple","yellow","red","blue","grey","green"],"door_color_assignment":["black","white"],"door_generator_assignment":[1,0],"goal":5,"start":3,"action_noise":0,"location_history":"[3,4,0,1,3,2,1,5]","action_history":"[1,0,1,0,0,0,1]","door_history":"[0,1,0,1,1,1,0]","location_rts":"[1673,893,875,378,407,358,1183]","trial_type":"two-door-navigation","trial_index":43,"time_elapsed":805752,"internal_node_id":"0.0-2.0-41.0"},{"group":"hexagon_tri","room_assignment":["purple","yellow","red","blue","grey","green"],"door_color_assignment":["black","white"],"door_generator_assignment":[1,0],"goal":3,"start":5,"action_noise":0,"location_history":"[5,4,2,1,3]","action_history":"[0,1,0,0]","door_history":"[1,0,1,1]","location_rts":"[655,380,829,379]","trial_type":"two-door-navigation","trial_index":44,"time_elapsed":816195,"internal_node_id":"0.0-2.0-42.0"},{"group":"hexagon_tri","room_assignment":["purple","yellow","red","blue","grey","green"],"door_color_assignment":["black","white"],"door_generator_assignment":[1,0],"goal":0,"start":3,"action_noise":0,"location_history":"[3,4,0]","action_history":"[1,0]","door_history":"[0,1]","location_rts":"[7986,410]","trial_type":"two-door-navigation","trial_index":45,"time_elapsed":830687,"internal_node_id":"0.0-2.0-43.0"},{"group":"hexagon_tri","room_assignment":["purple","yellow","red","blue","grey","green"],"door_color_assignment":["black","white"],"door_generator_assignment":[1,0],"goal":2,"start":0,"action_noise":0,"location_history":"[0,1,3,4,2]","action_history":"[1,0,1,1]","door_history":"[0,1,0,0]","location_rts":"[2197,471,941,1338]","trial_type":"two-door-navigation","trial_index":46,"time_elapsed":843733,"internal_node_id":"0.0-2.0-44.0"},{"group":"hexagon_tri","room_assignment":["purple","yellow","red","blue","grey","green"],"door_color_assignment":["black","white"],"door_generator_assignment":[1,0],"goal":4,"start":2,"action_noise":0,"location_history":"[2,3,2,3,2,1,3,4]","action_history":"[1,0,1,0,0,0,1]","door_history":"[0,1,0,1,1,1,0]","location_rts":"[1818,382,380,891,283,372,431]","trial_type":"two-door-navigation","trial_index":47,"time_elapsed":859482,"internal_node_id":"0.0-2.0-45.0"},{"group":"hexagon_tri","room_assignment":["purple","yellow","red","blue","grey","green"],"door_color_assignment":["black","white"],"door_generator_assignment":[1,0],"goal":1,"start":4,"action_noise":0,"location_history":"[4,2,1]","action_history":"[1,0]","door_history":"[0,1]","location_rts":"[8877,599]","trial_type":"two-door-navigation","trial_index":48,"time_elapsed":875008,"internal_node_id":"0.0-2.0-46.0"},{"group":"hexagon_tri","room_assignment":["purple","yellow","red","blue","grey","green"],"door_color_assignment":["black","white"],"door_generator_assignment":[1,0],"goal":4,"start":1,"action_noise":0,"location_history":"[1,5,4]","action_history":"[1,0]","door_history":"[0,1]","location_rts":"[5990,1135]","trial_type":"two-door-navigation","trial_index":49,"time_elapsed":888188,"internal_node_id":"0.0-2.0-47.0"},{"group":"hexagon_tri","room_assignment":["purple","yellow","red","blue","grey","green"],"door_color_assignment":["black","white"],"door_generator_assignment":[1,0],"goal":3,"start":4,"action_noise":0,"location_history":"[4,0,5,0,5,0,1,5,0,5,0,5,4,0,5,4,2,3]","action_history":"[0,0,1,0,1,1,1,1,0,1,0,0,0,0,0,1,1]","door_history":"[1,1,0,1,0,0,0,0,1,0,1,1,1,1,1,0,0]","location_rts":"[4706,730,406,861,349,294,415,333,351,381,383,248,295,333,787,417,490]","trial_type":"two-door-navigation","trial_index":50,"time_elapsed":921500,"internal_node_id":"0.0-2.0-48.0"},{"group":"hexagon_tri","room_assignment":["purple","yellow","red","blue","grey","green"],"door_color_assignment":["black","white"],"door_generator_assignment":[1,0],"goal":5,"start":3,"action_noise":0,"location_history":"[3,4,0,5]","action_history":"[1,0,0]","door_history":"[0,1,1]","location_rts":"[2392,310,356]","trial_type":"two-door-navigation","trial_index":51,"time_elapsed":931631,"internal_node_id":"0.0-2.0-49.0"},{"view_history":"[{\"page_index\":0,\"viewing_time\":4064}]","rt":4064,"trial_type":"instructions","trial_index":52,"time_elapsed":936698,"internal_node_id":"0.0-3.0"},{"view_history":"[{\"page_index\":0,\"viewing_time\":2863},{\"page_index\":1,\"viewing_time\":34736}]","rt":37599,"trial_type":"instructions","trial_index":53,"time_elapsed":975297,"internal_node_id":"0.0-4.0"},{"group":"hexagon_bi","fractal_assignment":["../images/pnk_blu.png","../images/gry_blk.png","../images/org_blu.png","../images/blu_wht.png","../images/cyn_red.png","../images/ylw_slt.png"],"mutagen_generator_assignment":[1,0],"goal":4,"start":0,"action_noise":0,"location_history":"[0,1,2,3,2,1,2,1,2,3,4]","action_history":"[1,0,1,1,0,0,0,0,1,0]","mutagen_history":"[0,1,0,0,1,1,1,1,0,1]","location_rts":"[13329,3336,3483,3920,1668,2117,825,724,563,207]","trial_type":"fractal-mutation","trial_index":54,"time_elapsed":1020372,"internal_node_id":"0.0-5.0-0.0"},{"group":"hexagon_bi","fractal_assignment":["../images/pnk_blu.png","../images/gry_blk.png","../images/org_blu.png","../images/blu_wht.png","../images/cyn_red.png","../images/ylw_slt.png"],"mutagen_generator_assignment":[1,0],"goal":3,"start":4,"action_noise":0,"location_history":"[4,5,4,3]","action_history":"[1,1,0]","mutagen_history":"[0,0,1]","location_rts":"[3708,1873,1547]","trial_type":"fractal-mutation","trial_index":55,"time_elapsed":1034768,"internal_node_id":"0.0-5.0-1.0"},{"group":"hexagon_bi","fractal_assignment":["../images/pnk_blu.png","../images/gry_blk.png","../images/org_blu.png","../images/blu_wht.png","../images/cyn_red.png","../images/ylw_slt.png"],"mutagen_generator_assignment":[1,0],"goal":5,"start":3,"action_noise":0,"location_history":"[3,2,1,2,1,2,3,2,3,2,1,2,3,2,1,2,1,0,1,0,5]","action_history":"[1,0,0,0,0,1,1,1,1,0,0,1,1,0,0,0,1,1,1,0]","mutagen_history":"[0,1,1,1,1,0,0,0,0,1,1,0,0,1,1,1,0,0,0,1]","location_rts":"[3094,1145,1048,605,1013,806,638,524,569,389,485,1125,794,1766,1083,708,1639,1243,700,1016]","trial_type":"fractal-mutation","trial_index":56,"time_elapsed":1080872,"internal_node_id":"0.0-5.0-2.0"},{"group":"hexagon_bi","fractal_assignment":["../images/pnk_blu.png","../images/gry_blk.png","../images/org_blu.png","../images/blu_wht.png","../images/cyn_red.png","../images/ylw_slt.png"],"mutagen_generator_assignment":[1,0],"goal":2,"start":5,"action_noise":0,"location_history":"[5,4,5,4,5,0,5,0,5,4,3,4,3,4,3,4,3,2]","action_history":"[1,1,1,1,0,0,0,0,1,0,0,0,0,0,0,0,1]","mutagen_history":"[0,0,0,0,1,1,1,1,0,1,1,1,1,1,1,1,0]","location_rts":"[3119,144,1687,1103,461,995,491,560,42,105,594,691,446,432,744,726,1608]","trial_type":"fractal-mutation","trial_index":57,"time_elapsed":1116967,"internal_node_id":"0.0-5.0-3.0"},{"group":"hexagon_bi","fractal_assignment":["../images/pnk_blu.png","../images/gry_blk.png","../images/org_blu.png","../images/blu_wht.png","../images/cyn_red.png","../images/ylw_slt.png"],"mutagen_generator_assignment":[1,0],"goal":1,"start":2,"action_noise":0,"location_history":"[2,1]","action_history":"[0]","mutagen_history":"[1]","location_rts":"[2760]","trial_type":"fractal-mutation","trial_index":58,"time_elapsed":1124822,"internal_node_id":"0.0-5.0-4.0"},{"group":"hexagon_bi","fractal_assignment":["../images/pnk_blu.png","../images/gry_blk.png","../images/org_blu.png","../images/blu_wht.png","../images/cyn_red.png","../images/ylw_slt.png"],"mutagen_generator_assignment":[1,0],"goal":4,"start":1,"action_noise":0,"location_history":"[1,0,5,4]","action_history":"[1,0,1]","mutagen_history":"[0,1,0]","location_rts":"[1685,1315,449]","trial_type":"fractal-mutation","trial_index":59,"time_elapsed":1135525,"internal_node_id":"0.0-5.0-5.0"},{"group":"hexagon_bi","fractal_assignment":["../images/pnk_blu.png","../images/gry_blk.png","../images/org_blu.png","../images/blu_wht.png","../images/cyn_red.png","../images/ylw_slt.png"],"mutagen_generator_assignment":[1,0],"goal":1,"start":4,"action_noise":0,"location_history":"[4,3,4,5,4,5,4,5,0,1]","action_history":"[0,0,1,1,1,1,1,0,1]","mutagen_history":"[1,1,0,0,0,0,0,1,0]","location_rts":"[2366,1054,758,532,506,483,694,1346,798]","trial_type":"fractal-mutation","trial_index":60,"time_elapsed":1157626,"internal_node_id":"0.0-5.0-6.0"},{"group":"hexagon_bi","fractal_assignment":["../images/pnk_blu.png","../images/gry_blk.png","../images/org_blu.png","../images/blu_wht.png","../images/cyn_red.png","../images/ylw_slt.png"],"mutagen_generator_assignment":[1,0],"goal":5,"start":1,"action_noise":0,"location_history":"[1,0,1,0,5]","action_history":"[1,1,1,0]","mutagen_history":"[0,0,0,1]","location_rts":"[2066,913,1460,457]","trial_type":"fractal-mutation","trial_index":61,"time_elapsed":1170788,"internal_node_id":"0.0-5.0-7.0"},{"group":"hexagon_bi","fractal_assignment":["../images/pnk_blu.png","../images/gry_blk.png","../images/org_blu.png","../images/blu_wht.png","../images/cyn_red.png","../images/ylw_slt.png"],"mutagen_generator_assignment":[1,0],"goal":0,"start":5,"action_noise":0,"location_history":"[5,4,3,4,3,2,3,4,3,2,1,2,1,2,1,0]","action_history":"[1,0,0,0,1,1,0,0,1,0,0,0,0,0,1]","mutagen_history":"[0,1,1,1,0,0,1,1,0,1,1,1,1,1,0]","location_rts":"[690,740,576,536,490,485,348,502,685,935,428,96,488,382,405]","trial_type":"fractal-mutation","trial_index":62,"time_elapsed":1198750,"internal_node_id":"0.0-5.0-8.0"},{"group":"hexagon_bi","fractal_assignment":["../images/pnk_blu.png","../images/gry_blk.png","../images/org_blu.png","../images/blu_wht.png","../images/cyn_red.png","../images/ylw_slt.png"],"mutagen_generator_assignment":[1,0],"goal":2,"start":0,"action_noise":0,"location_history":"[0,1,0,5,4,3,4,5,0,1,2]","action_history":"[1,1,0,1,0,0,1,0,1,0]","mutagen_history":"[0,0,1,0,1,1,0,1,0,1]","location_rts":"[1668,2302,1736,13578,845,559,459,422,1441,459]","trial_type":"fractal-mutation","trial_index":63,"time_elapsed":1237950,"internal_node_id":"0.0-5.0-9.0"},{"group":"hexagon_bi","fractal_assignment":["../images/pnk_blu.png","../images/gry_blk.png","../images/org_blu.png","../images/blu_wht.png","../images/cyn_red.png","../images/ylw_slt.png"],"mutagen_generator_assignment":[1,0],"goal":3,"start":2,"action_noise":0,"location_history":"[2,3]","action_history":"[1]","mutagen_history":"[0]","location_rts":"[2388]","trial_type":"fractal-mutation","trial_index":64,"time_elapsed":1245398,"internal_node_id":"0.0-5.0-10.0"},{"group":"hexagon_bi","fractal_assignment":["../images/pnk_blu.png","../images/gry_blk.png","../images/org_blu.png","../images/blu_wht.png","../images/cyn_red.png","../images/ylw_slt.png"],"mutagen_generator_assignment":[1,0],"goal":0,"start":3,"action_noise":0,"location_history":"[3,4,5,0]","action_history":"[0,1,0]","mutagen_history":"[1,0,1]","location_rts":"[2573,1010,517]","trial_type":"fractal-mutation","trial_index":65,"time_elapsed":1256740,"internal_node_id":"0.0-5.0-11.0"},{"group":"hexagon_bi","fractal_assignment":["../images/pnk_blu.png","../images/gry_blk.png","../images/org_blu.png","../images/blu_wht.png","../images/cyn_red.png","../images/ylw_slt.png"],"mutagen_generator_assignment":[1,0],"goal":2,"start":0,"action_noise":0,"location_history":"[0,1,0,5,0,5,4,3,2]","action_history":"[1,1,0,0,0,1,0,1]","mutagen_history":"[0,0,1,1,1,0,1,0]","location_rts":"[2026,644,609,520,553,443,653,523]","trial_type":"fractal-mutation","trial_index":66,"time_elapsed":1275369,"internal_node_id":"0.0-5.0-12.0"},{"group":"hexagon_bi","fractal_assignment":["../images/pnk_blu.png","../images/gry_blk.png","../images/org_blu.png","../images/blu_wht.png","../images/cyn_red.png","../images/ylw_slt.png"],"mutagen_generator_assignment":[1,0],"goal":5,"start":2,"action_noise":0,"location_history":"[2,3,4,3,4,3,4,5]","action_history":"[1,0,0,0,0,0,1]","mutagen_history":"[0,1,1,1,1,1,0]","location_rts":"[752,540,398,540,439,591,883]","trial_type":"fractal-mutation","trial_index":67,"time_elapsed":1291040,"internal_node_id":"0.0-5.0-13.0"},{"group":"hexagon_bi","fractal_assignment":["../images/pnk_blu.png","../images/gry_blk.png","../images/org_blu.png","../images/blu_wht.png","../images/cyn_red.png","../images/ylw_slt.png"],"mutagen_generator_assignment":[1,0],"goal":4,"start":5,"action_noise":0,"location_history":"[5,4]","action_history":"[1]","mutagen_history":"[0]","location_rts":"[703]","trial_type":"fractal-mutation","trial_index":68,"time_elapsed":1296794,"internal_node_id":"0.0-5.0-14.0"},{"group":"hexagon_bi","fractal_assignment":["../images/pnk_blu.png","../images/gry_blk.png","../images/org_blu.png","../images/blu_wht.png","../images/cyn_red.png","../images/ylw_slt.png"],"mutagen_generator_assignment":[1,0],"goal":3,"start":4,"action_noise":0,"location_history":"[4,5,0,5,4,5,0,5,4,5,0,5,0,5,0,1,0,5,0,5,4,5,4,5,0,5,0,1,2,1,2,3]","action_history":"[1,0,0,1,1,0,0,1,1,0,0,0,0,0,1,1,0,0,0,1,1,1,1,0,0,0,1,0,0,0,1]","mutagen_history":"[0,1,1,0,0,1,1,0,0,1,1,1,1,1,0,0,1,1,1,0,0,0,0,1,1,1,0,1,1,1,0]","location_rts":"[763,669,761,592,442,2188,464,938,492,86,1350,520,755,570,403,1475,888,741,949,418,581,639,819,417,567,669,615,2761,468,967,34]","trial_type":"fractal-mutation","trial_index":69,"time_elapsed":1358397,"internal_node_id":"0.0-5.0-15.0"},{"group":"hexagon_bi","fractal_assignment":["../images/pnk_blu.png","../images/gry_blk.png","../images/org_blu.png","../images/blu_wht.png","../images/cyn_red.png","../images/ylw_slt.png"],"mutagen_generator_assignment":[1,0],"goal":1,"start":3,"action_noise":0,"location_history":"[3,4,3,4,5,4,3,4,3,2,3,2,3,2,1]","action_history":"[0,0,0,1,1,0,0,0,1,1,1,1,1,0]","mutagen_history":"[1,1,1,0,0,1,1,1,0,0,0,0,0,1]","location_rts":"[2861,1841,683,775,578,1192,558,423,1026,527,611,231,450,503]","trial_type":"fractal-mutation","trial_index":70,"time_elapsed":1389674,"internal_node_id":"0.0-5.0-16.0"},{"group":"hexagon_bi","fractal_assignment":["../images/pnk_blu.png","../images/gry_blk.png","../images/org_blu.png","../images/blu_wht.png","../images/cyn_red.png","../images/ylw_slt.png"],"mutagen_generator_assignment":[1,0],"goal":5,"start":1,"action_noise":0,"location_history":"[1,2,1,0,1,2,1,0,5]","action_history":"[0,0,1,1,0,0,1,0]","mutagen_history":"[1,1,0,0,1,1,0,1]","location_rts":"[2885,1386,855,1291,1028,528,299,1142]","trial_type":"fractal-mutation","trial_index":71,"time_elapsed":1411654,"internal_node_id":"0.0-5.0-17.0"},{"group":"hexagon_bi","fractal_assignment":["../images/pnk_blu.png","../images/gry_blk.png","../images/org_blu.png","../images/blu_wht.png","../images/cyn_red.png","../images/ylw_slt.png"],"mutagen_generator_assignment":[1,0],"goal":4,"start":5,"action_noise":0,"location_history":"[5,0,5,0,1,0,5,4]","action_history":"[0,0,0,1,1,0,1]","mutagen_history":"[1,1,1,0,0,1,0]","location_rts":"[851,1259,570,150,633,1298,349]","trial_type":"fractal-mutation","trial_index":72,"time_elapsed":1428235,"internal_node_id":"0.0-5.0-18.0"},{"group":"hexagon_bi","fractal_assignment":["../images/pnk_blu.png","../images/gry_blk.png","../images/org_blu.png","../images/blu_wht.png","../images/cyn_red.png","../images/ylw_slt.png"],"mutagen_generator_assignment":[1,0],"goal":0,"start":4,"action_noise":0,"location_history":"[4,3,4,3,2,1,0]","action_history":"[0,0,0,1,0,1]","mutagen_history":"[1,1,1,0,1,0]","location_rts":"[2157,4363,1410,711,2414,1212]","trial_type":"fractal-mutation","trial_index":73,"time_elapsed":1450920,"internal_node_id":"0.0-5.0-19.0"},{"group":"hexagon_bi","fractal_assignment":["../images/pnk_blu.png","../images/gry_blk.png","../images/org_blu.png","../images/blu_wht.png","../images/cyn_red.png","../images/ylw_slt.png"],"mutagen_generator_assignment":[1,0],"goal":1,"start":0,"action_noise":0,"location_history":"[0,1]","action_history":"[1]","mutagen_history":"[0]","location_rts":"[364]","trial_type":"fractal-mutation","trial_index":74,"time_elapsed":1456333,"internal_node_id":"0.0-5.0-20.0"},{"group":"hexagon_bi","fractal_assignment":["../images/pnk_blu.png","../images/gry_blk.png","../images/org_blu.png","../images/blu_wht.png","../images/cyn_red.png","../images/ylw_slt.png"],"mutagen_generator_assignment":[1,0],"goal":3,"start":1,"action_noise":0,"location_history":"[1,2,3]","action_history":"[0,1]","mutagen_history":"[1,0]","location_rts":"[797,908]","trial_type":"fractal-mutation","trial_index":75,"time_elapsed":1464171,"internal_node_id":"0.0-5.0-21.0"},{"group":"hexagon_bi","fractal_assignment":["../images/pnk_blu.png","../images/gry_blk.png","../images/org_blu.png","../images/blu_wht.png","../images/cyn_red.png","../images/ylw_slt.png"],"mutagen_generator_assignment":[1,0],"goal":2,"start":3,"action_noise":0,"location_history":"[3,4,3,2]","action_history":"[0,0,1]","mutagen_history":"[1,1,0]","location_rts":"[699,1547,785]","trial_type":"fractal-mutation","trial_index":76,"time_elapsed":1474491,"internal_node_id":"0.0-5.0-22.0"},{"group":"hexagon_bi","fractal_assignment":["../images/pnk_blu.png","../images/gry_blk.png","../images/org_blu.png","../images/blu_wht.png","../images/cyn_red.png","../images/ylw_slt.png"],"mutagen_generator_assignment":[1,0],"goal":0,"start":2,"action_noise":0,"location_history":"[2,1,2,1,0]","action_history":"[0,0,0,1]","mutagen_history":"[1,1,1,0]","location_rts":"[760,457,606,169]","trial_type":"fractal-mutation","trial_index":77,"time_elapsed":1484805,"internal_node_id":"0.0-5.0-23.0"},{"group":"hexagon_bi","fractal_assignment":["../images/pnk_blu.png","../images/gry_blk.png","../images/org_blu.png","../images/blu_wht.png","../images/cyn_red.png","../images/ylw_slt.png"],"mutagen_generator_assignment":[1,0],"goal":3,"start":0,"action_noise":0,"location_history":"[0,5,0,5,4,5,4,3]","action_history":"[0,0,0,1,1,1,0]","mutagen_history":"[1,1,1,0,0,0,1]","location_rts":"[711,446,639,508,390,570,730]","trial_type":"fractal-mutation","trial_index":78,"time_elapsed":1500325,"internal_node_id":"0.0-5.0-24.0"},{"group":"hexagon_bi","fractal_assignment":["../images/pnk_blu.png","../images/gry_blk.png","../images/org_blu.png","../images/blu_wht.png","../images/cyn_red.png","../images/ylw_slt.png"],"mutagen_generator_assignment":[1,0],"goal":1,"start":3,"action_noise":0,"location_history":"[3,2,1]","action_history":"[1,0]","mutagen_history":"[0,1]","location_rts":"[2838,1552]","trial_type":"fractal-mutation","trial_index":79,"time_elapsed":1510960,"internal_node_id":"0.0-5.0-25.0"},{"group":"hexagon_bi","fractal_assignment":["../images/pnk_blu.png","../images/gry_blk.png","../images/org_blu.png","../images/blu_wht.png","../images/cyn_red.png","../images/ylw_slt.png"],"mutagen_generator_assignment":[1,0],"goal":2,"start":1,"action_noise":0,"location_history":"[1,0,5,0,5,4,3,4,3,2]","action_history":"[1,0,0,0,1,0,0,0,1]","mutagen_history":"[0,1,1,1,0,1,1,1,0]","location_rts":"[490,647,820,978,517,1344,1506,715,500]","trial_type":"fractal-mutation","trial_index":80,"time_elapsed":1532114,"internal_node_id":"0.0-5.0-26.0"},{"group":"hexagon_bi","fractal_assignment":["../images/pnk_blu.png","../images/gry_blk.png","../images/org_blu.png","../images/blu_wht.png","../images/cyn_red.png","../images/ylw_slt.png"],"mutagen_generator_assignment":[1,0],"goal":5,"start":2,"action_noise":0,"location_history":"[2,1,0,1,0,5]","action_history":"[0,1,1,1,0]","mutagen_history":"[1,0,0,0,1]","location_rts":"[3645,656,41,729,16]","trial_type":"fractal-mutation","trial_index":81,"time_elapsed":1546634,"internal_node_id":"0.0-5.0-27.0"},{"group":"hexagon_bi","fractal_assignment":["../images/pnk_blu.png","../images/gry_blk.png","../images/org_blu.png","../images/blu_wht.png","../images/cyn_red.png","../images/ylw_slt.png"],"mutagen_generator_assignment":[1,0],"goal":4,"start":5,"action_noise":0,"location_history":"[5,0,1,0,5,0,5,0,5,4]","action_history":"[0,1,1,0,0,0,0,0,1]","mutagen_history":"[1,0,0,1,1,1,1,1,0]","location_rts":"[425,1161,115,415,636,653,565,525,1107]","trial_type":"fractal-mutation","trial_index":82,"time_elapsed":1566008,"internal_node_id":"0.0-5.0-28.0"},{"group":"hexagon_bi","fractal_assignment":["../images/pnk_blu.png","../images/gry_blk.png","../images/org_blu.png","../images/blu_wht.png","../images/cyn_red.png","../images/ylw_slt.png"],"mutagen_generator_assignment":[1,0],"goal":5,"start":4,"action_noise":0,"location_history":"[4,3,2,1,2,1,0,1,0,1,2,1,0,1,0,5]","action_history":"[0,1,0,0,0,1,1,1,1,0,0,1,1,1,0]","mutagen_history":"[1,0,1,1,1,0,0,0,0,1,1,0,0,0,1]","location_rts":"[565,2644,1504,668,575,626,518,635,559,286,353,401,148,1037,752]","trial_type":"fractal-mutation","trial_index":83,"time_elapsed":1597380,"internal_node_id":"0.0-5.0-29.0"},{"group":"hexagon_bi","fractal_assignment":["../images/pnk_blu.png","../images/gry_blk.png","../images/org_blu.png","../images/blu_wht.png","../images/cyn_red.png","../images/ylw_slt.png"],"mutagen_generator_assignment":[1,0],"goal":3,"start":5,"action_noise":0,"location_history":"[5,0,5,4,5,4,3]","action_history":"[0,0,1,1,1,0]","mutagen_history":"[1,1,0,0,0,1]","location_rts":"[6566,447,373,628,632,248]","trial_type":"fractal-mutation","trial_index":84,"time_elapsed":1616730,"internal_node_id":"0.0-5.0-30.0"},{"group":"hexagon_bi","fractal_assignment":["../images/pnk_blu.png","../images/gry_blk.png","../images/org_blu.png","../images/blu_wht.png","../images/cyn_red.png","../images/ylw_slt.png"],"mutagen_generator_assignment":[1,0],"goal":0,"start":3,"action_noise":0,"location_history":"[3,4,5,0]","action_history":"[0,1,0]","mutagen_history":"[1,0,1]","location_rts":"[720,585,1082]","trial_type":"fractal-mutation","trial_index":85,"time_elapsed":1626385,"internal_node_id":"0.0-5.0-31.0"},{"group":"hexagon_bi","fractal_assignment":["../images/pnk_blu.png","../images/gry_blk.png","../images/org_blu.png","../images/blu_wht.png","../images/cyn_red.png","../images/ylw_slt.png"],"mutagen_generator_assignment":[1,0],"goal":4,"start":0,"action_noise":0,"location_history":"[0,5,0,1,0,5,4]","action_history":"[0,0,1,1,0,1]","mutagen_history":"[1,1,0,0,1,0]","location_rts":"[665,439,433,689,1427,439]","trial_type":"fractal-mutation","trial_index":86,"time_elapsed":1640926,"internal_node_id":"0.0-5.0-32.0"},{"group":"hexagon_bi","fractal_assignment":["../images/pnk_blu.png","../images/gry_blk.png","../images/org_blu.png","../images/blu_wht.png","../images/cyn_red.png","../images/ylw_slt.png"],"mutagen_generator_assignment":[1,0],"goal":1,"start":4,"action_noise":0,"location_history":"[4,3,2,1]","action_history":"[0,1,0]","mutagen_history":"[1,0,1]","location_rts":"[519,1830,506]","trial_type":"fractal-mutation","trial_index":87,"time_elapsed":1650984,"internal_node_id":"0.0-5.0-33.0"},{"group":"hexagon_bi","fractal_assignment":["../images/pnk_blu.png","../images/gry_blk.png","../images/org_blu.png","../images/blu_wht.png","../images/cyn_red.png","../images/ylw_slt.png"],"mutagen_generator_assignment":[1,0],"goal":2,"start":1,"action_noise":0,"location_history":"[1,0,5,4,3,4,5,4,5,0,5,0,1,0,5,0,1,0,5,0,1,2]","action_history":"[1,0,1,0,0,1,1,1,0,0,0,1,1,0,0,1,1,0,0,1,0]","mutagen_history":"[0,1,0,1,1,0,0,0,1,1,1,0,0,1,1,0,0,1,1,0,1]","location_rts":"[842,563,1999,1425,921,573,745,775,319,1353,748,131,1015,656,1095,817,360,878,690,1148,1103]","trial_type":"fractal-mutation","trial_index":88,"time_elapsed":1695718,"internal_node_id":"0.0-5.0-34.0"},{"group":"hexagon_bi","fractal_assignment":["../images/pnk_blu.png","../images/gry_blk.png","../images/org_blu.png","../images/blu_wht.png","../images/cyn_red.png","../images/ylw_slt.png"],"mutagen_generator_assignment":[1,0],"goal":0,"start":2,"action_noise":0,"location_history":"[2,3,4,5,0]","action_history":"[1,0,1,0]","mutagen_history":"[0,1,0,1]","location_rts":"[2943,708,699,526]","trial_type":"fractal-mutation","trial_index":89,"time_elapsed":1708935,"internal_node_id":"0.0-5.0-35.0"},{"group":"hexagon_bi","fractal_assignment":["../images/pnk_blu.png","../images/gry_blk.png","../images/org_blu.png","../images/blu_wht.png","../images/cyn_red.png","../images/ylw_slt.png"],"mutagen_generator_assignment":[1,0],"goal":5,"start":0,"action_noise":0,"location_history":"[0,5]","action_history":"[0]","mutagen_history":"[1]","location_rts":"[518]","trial_type":"fractal-mutation","trial_index":90,"time_elapsed":1714584,"internal_node_id":"0.0-5.0-36.0"},{"group":"hexagon_bi","fractal_assignment":["../images/pnk_blu.png","../images/gry_blk.png","../images/org_blu.png","../images/blu_wht.png","../images/cyn_red.png","../images/ylw_slt.png"],"mutagen_generator_assignment":[1,0],"goal":2,"start":5,"action_noise":0,"location_history":"[5,0,1,0,1,0,5,0,1,2]","action_history":"[0,1,1,1,1,0,0,1,0]","mutagen_history":"[1,0,0,0,0,1,1,0,1]","location_rts":"[1595,557,623,1729,573,373,733,1292,565]","trial_type":"fractal-mutation","trial_index":91,"time_elapsed":1736195,"internal_node_id":"0.0-5.0-37.0"},{"group":"hexagon_bi","fractal_assignment":["../images/pnk_blu.png","../images/gry_blk.png","../images/org_blu.png","../images/blu_wht.png","../images/cyn_red.png","../images/ylw_slt.png"],"mutagen_generator_assignment":[1,0],"goal":1,"start":2,"action_noise":0,"location_history":"[2,3,2,1]","action_history":"[1,1,0]","mutagen_history":"[0,0,1]","location_rts":"[248,26,159]","trial_type":"fractal-mutation","trial_index":92,"time_elapsed":1743803,"internal_node_id":"0.0-5.0-38.0"},{"group":"hexagon_bi","fractal_assignment":["../images/pnk_blu.png","../images/gry_blk.png","../images/org_blu.png","../images/blu_wht.png","../images/cyn_red.png","../images/ylw_slt.png"],"mutagen_generator_assignment":[1,0],"goal":4,"start":1,"action_noise":0,"location_history":"[1,2,3,2,3,4]","action_history":"[0,1,1,1,0]","mutagen_history":"[1,0,0,0,1]","location_rts":"[56,1539,1181,1090,37]","trial_type":"fractal-mutation","trial_index":93,"time_elapsed":1757152,"internal_node_id":"0.0-5.0-39.0"},{"group":"hexagon_bi","fractal_assignment":["../images/pnk_blu.png","../images/gry_blk.png","../images/org_blu.png","../images/blu_wht.png","../images/cyn_red.png","../images/ylw_slt.png"],"mutagen_generator_assignment":[1,0],"goal":3,"start":4,"action_noise":0,"location_history":"[4,3]","action_history":"[0]","mutagen_history":"[1]","location_rts":"[16020]","trial_type":"fractal-mutation","trial_index":94,"time_elapsed":1778239,"internal_node_id":"0.0-5.0-40.0"},{"group":"hexagon_bi","fractal_assignment":["../images/pnk_blu.png","../images/gry_blk.png","../images/org_blu.png","../images/blu_wht.png","../images/cyn_red.png","../images/ylw_slt.png"],"mutagen_generator_assignment":[1,0],"goal":5,"start":3,"action_noise":0,"location_history":"[3,4,5]","action_history":"[0,1]","mutagen_history":"[1,0]","location_rts":"[523,1790]","trial_type":"fractal-mutation","trial_index":95,"time_elapsed":1786708,"internal_node_id":"0.0-5.0-41.0"},{"group":"hexagon_bi","fractal_assignment":["../images/pnk_blu.png","../images/gry_blk.png","../images/org_blu.png","../images/blu_wht.png","../images/cyn_red.png","../images/ylw_slt.png"],"mutagen_generator_assignment":[1,0],"goal":3,"start":5,"action_noise":0,"location_history":"[5,4,3]","action_history":"[1,0]","mutagen_history":"[0,1]","location_rts":"[2542,1137]","trial_type":"fractal-mutation","trial_index":96,"time_elapsed":1796526,"internal_node_id":"0.0-5.0-42.0"},{"group":"hexagon_bi","fractal_assignment":["../images/pnk_blu.png","../images/gry_blk.png","../images/org_blu.png","../images/blu_wht.png","../images/cyn_red.png","../images/ylw_slt.png"],"mutagen_generator_assignment":[1,0],"goal":0,"start":3,"action_noise":0,"location_history":"[3,4,3,2,3,2,1,2,3,2,1,2,3,2,1,2,1,0]","action_history":"[0,0,1,1,1,0,0,1,1,0,0,1,1,0,0,0,1]","mutagen_history":"[1,1,0,0,0,1,1,0,0,1,1,0,0,1,1,1,0]","location_rts":"[3137,591,723,357,697,372,651,728,502,358,525,1292,1300,1668,985,853,2450]","trial_type":"fractal-mutation","trial_index":97,"time_elapsed":1835955,"internal_node_id":"0.0-5.0-43.0"},{"group":"hexagon_bi","fractal_assignment":["../images/pnk_blu.png","../images/gry_blk.png","../images/org_blu.png","../images/blu_wht.png","../images/cyn_red.png","../images/ylw_slt.png"],"mutagen_generator_assignment":[1,0],"goal":2,"start":0,"action_noise":0,"location_history":"[0,5,4,5,0,5,4,5,0,5,4,5,4,5,0,1,2]","action_history":"[0,1,1,0,0,1,1,0,0,1,1,1,1,0,1,0]","mutagen_history":"[1,0,0,1,1,0,0,1,1,0,0,0,0,1,0,1]","location_rts":"[658,741,1142,809,1699,513,840,724,1227,885,571,756,562,630,664,628]","trial_type":"fractal-mutation","trial_index":98,"time_elapsed":1870333,"internal_node_id":"0.0-5.0-44.0"},{"group":"hexagon_bi","fractal_assignment":["../images/pnk_blu.png","../images/gry_blk.png","../images/org_blu.png","../images/blu_wht.png","../images/cyn_red.png","../images/ylw_slt.png"],"mutagen_generator_assignment":[1,0],"goal":4,"start":2,"action_noise":0,"location_history":"[2,1,0,5,4]","action_history":"[0,1,0,1]","mutagen_history":"[1,0,1,0]","location_rts":"[522,245,661,434]","trial_type":"fractal-mutation","trial_index":99,"time_elapsed":1880548,"internal_node_id":"0.0-5.0-45.0"},{"group":"hexagon_bi","fractal_assignment":["../images/pnk_blu.png","../images/gry_blk.png","../images/org_blu.png","../images/blu_wht.png","../images/cyn_red.png","../images/ylw_slt.png"],"mutagen_generator_assignment":[1,0],"goal":1,"start":4,"action_noise":0,"location_history":"[4,3,4,3,4,5,4,5,0,1]","action_history":"[0,0,0,0,1,1,1,0,1]","mutagen_history":"[1,1,1,1,0,0,0,1,0]","location_rts":"[532,147,360,812,269,489,612,1702,994]","trial_type":"fractal-mutation","trial_index":100,"time_elapsed":1900051,"internal_node_id":"0.0-5.0-46.0"},{"group":"hexagon_bi","fractal_assignment":["../images/pnk_blu.png","../images/gry_blk.png","../images/org_blu.png","../images/blu_wht.png","../images/cyn_red.png","../images/ylw_slt.png"],"mutagen_generator_assignment":[1,0],"goal":4,"start":1,"action_noise":0,"location_history":"[1,2,1,0,1,0,5,0,1,0,1,2,1,2,1,2,3,4]","action_history":"[0,0,1,1,1,0,0,1,1,1,0,0,0,0,0,1,0]","mutagen_history":"[1,1,0,0,0,1,1,0,0,0,1,1,1,1,1,0,1]","location_rts":"[465,69,499,621,1066,501,469,411,500,772,351,451,614,152,555,405,611]","trial_type":"fractal-mutation","trial_index":101,"time_elapsed":1930895,"internal_node_id":"0.0-5.0-47.0"},{"group":"hexagon_bi","fractal_assignment":["../images/pnk_blu.png","../images/gry_blk.png","../images/org_blu.png","../images/blu_wht.png","../images/cyn_red.png","../images/ylw_slt.png"],"mutagen_generator_assignment":[1,0],"goal":3,"start":4,"action_noise":0,"location_history":"[4,5,0,5,0,1,0,5,4,5,0,1,0,5,0,1,2,3]","action_history":"[1,0,0,0,1,1,0,1,1,0,1,1,0,0,1,0,1]","mutagen_history":"[0,1,1,1,0,0,1,0,0,1,0,0,1,1,0,1,0]","location_rts":"[2390,624,494,8641,60,607,4585,1314,150,6014,1768,644,308,695,526,853,693]","trial_type":"fractal-mutation","trial_index":102,"time_elapsed":1983582,"internal_node_id":"0.0-5.0-48.0"},{"group":"hexagon_bi","fractal_assignment":["../images/pnk_blu.png","../images/gry_blk.png","../images/org_blu.png","../images/blu_wht.png","../images/cyn_red.png","../images/ylw_slt.png"],"mutagen_generator_assignment":[1,0],"goal":5,"start":3,"action_noise":0,"location_history":"[3,4,5]","action_history":"[0,1]","mutagen_history":"[1,0]","location_rts":"[477,1103]","trial_type":"fractal-mutation","trial_index":103,"time_elapsed":1991311,"internal_node_id":"0.0-5.0-49.0"},{"view_history":"[{\"page_index\":0,\"viewing_time\":12683}]","rt":12684,"trial_type":"instructions","trial_index":104,"time_elapsed":2004996,"internal_node_id":"0.0-6.0"},{"rt":6976,"responses":"{\"Q0\":\"no\"}","trial_type":"survey-text","trial_index":105,"time_elapsed":2012988,"internal_node_id":"0.0-7.0"}]