[{"view_history":"[{\"page_index\":0,\"viewing_time\":72625},{\"page_index\":1,\"viewing_time\":16808},{\"page_index\":2,\"viewing_time\":73971}]","rt":163405,"trial_type":"instructions","trial_index":0,"time_elapsed":163407,"internal_node_id":"0.0-0.0"},{"view_history":"[{\"page_index\":0,\"viewing_time\":24256},{\"page_index\":1,\"viewing_time\":54531}]","rt":78788,"trial_type":"instructions","trial_index":1,"time_elapsed":243197,"internal_node_id":"0.0-1.0"},{"group":"hexagon_tri","room_assignment":["green","yellow","red","purple","grey","blue"],"door_color_assignment":["white","black"],"door_generator_assignment":[0,1],"goal":4,"start":0,"action_noise":0,"location_history":"[0,5,4]","action_history":"[0,0]","door_history":"[0,0]","location_rts":"[43862,23075]","trial_type":"two-door-navigation","trial_index":2,"time_elapsed":316208,"internal_node_id":"0.0-2.0-0.0"},{"group":"hexagon_tri","room_assignment":["green","yellow","red","purple","grey","blue"],"door_color_assignment":["white","black"],"door_generator_assignment":[0,1],"goal":3,"start":4,"action_noise":0,"location_history":"[4,2,3]","action_history":"[1,1]","door_history":"[1,1]","location_rts":"[13870,13518]","trial_type":"two-door-navigation","trial_index":3,"time_elapsed":349647,"internal_node_id":"0.0-2.0-1.0"},{"group":"hexagon_tri","room_assignment":["green","yellow","red","purple","grey","blue"],"door_color_assignment":["white","black"],"door_generator_assignment":[0,1],"goal":5,"start":3,"action_noise":0,"location_history":"[3,2,1,5]","action_history":"[0,0,1]","door_history":"[0,0,1]","location_rts":"[49584,14010,6872]","trial_type":"two-door-navigation","trial_index":4,"time_elapsed":427179,"internal_node_id":"0.0-2.0-2.0"},{"group":"hexagon_tri","room_assignment":["green","yellow","red","purple","grey","blue"],"door_color_assignment":["white","black"],"door_generator_assignment":[0,1],"goal":2,"start":5,"action_noise":0,"location_history":"[5,0,1,3,2]","action_history":"[1,1,0,0]","door_history":"[1,1,0,0]","location_rts":"[11240,23700,12038,9788]","trial_type":"two-door-navigation","trial_index":5,"time_elapsed":492038,"internal_node_id":"0.0-2.0-3.0"},{"group":"hexagon_tri","room_assignment":["green","yellow","red","purple","grey","blue"],"door_color_assignment":["white","black"],"door_generator_assignment":[0,1],"goal":1,"start":2,"action_noise":0,"location_history":"[2,1]","action_history":"[0]","door_history":"[0]","location_rts":"[35540]","trial_type":"two-door-navigation","trial_index":6,"time_elapsed":532605,"internal_node_id":"0.0-2.0-4.0"},{"group":"hexagon_tri","room_assignment":["green","yellow","red","purple","grey","blue"],"door_color_assignment":["white","black"],"door_generator_assignment":[0,1],"goal":4,"start":1,"action_noise":0,"location_history":"[1,3,2,1,5,0,5,4]","action_history":"[0,0,0,1,1,0,0]","door_history":"[0,0,0,1,1,0,0]","location_rts":"[17580,3046,1394,8524,2034,2240,1766]","trial_type":"two-door-navigation","trial_index":7,"time_elapsed":580350,"internal_node_id":"0.0-2.0-5.0"},{"group":"hexagon_tri","room_assignment":["green","yellow","red","purple","grey","blue"],"door_color_assignment":["white","black"],"door_generator_assignment":[0,1],"goal":1,"start":4,"action_noise":0,"location_history":"[4,2,1]","action_history":"[1,0]","door_history":"[1,0]","location_rts":"[8774,1570]","trial_type":"two-door-navigation","trial_index":8,"time_elapsed":596742,"internal_node_id":"0.0-2.0-6.0"},{"group":"hexagon_tri","room_assignment":["green","yellow","red","purple","grey","blue"],"door_color_assignment":["white","black"],"door_generator_assignment":[0,1],"goal":5,"start":1,"action_noise":0,"location_history":"[1,3,4,0,5]","action_history":"[0,1,0,0]","door_history":"[0,1,0,0]","location_rts":"[6071,1323,1581,1393]","trial_type":"two-door-navigation","trial_index":9,"time_elapsed":615198,"internal_node_id":"0.0-2.0-7.0"},{"group":"hexagon_tri","room_assignment":["green","yellow","red","purple","grey","blue"],"door_color_assignment":["white","black"],"door_generator_assignment":[0,1],"goal":0,"start":5,"action_noise":0,"location_history":"[5,0]","action_history":"[1]","door_history":"[1]","location_rts":"[6043]","trial_type":"two-door-navigation","trial_index":10,"time_elapsed":626266,"internal_node_id":"0.0-2.0-8.0"},{"group":"hexagon_tri","room_assignment":["green","yellow","red","purple","grey","blue"],"door_color_assignment":["white","black"],"door_generator_assignment":[0,1],"goal":2,"start":0,"action_noise":0,"location_history":"[0,5,0,5,4,0,1,5,4,0,5,4,0,1,5,4,2]","action_history":"[0,1,0,0,0,1,1,0,0,0,0,0,1,1,0,1]","door_history":"[0,1,0,0,0,1,1,0,0,0,0,0,1,1,0,1]","location_rts":"[9394,3072,1501,1400,1225,1359,5249,2317,1190,1050,941,991,3001,1173,872,1887]","trial_type":"two-door-navigation","trial_index":11,"time_elapsed":683228,"internal_node_id":"0.0-2.0-9.0"},{"group":"hexagon_tri","room_assignment":["green","yellow","red","purple","grey","blue"],"door_color_assignment":["white","black"],"door_generator_assignment":[0,1],"goal":3,"start":2,"action_noise":0,"location_history":"[2,1,5,4,0,5,0,1,5,4,0,5,4,0,1,3]","action_history":"[0,1,0,0,0,1,1,1,0,0,0,0,0,1,0]","door_history":"[0,1,0,0,0,1,1,1,0,0,0,0,0,1,0]","location_rts":"[8173,1571,1236,1861,1113,2091,1737,1636,1128,782,847,5926,1872,1504,1306]","trial_type":"two-door-navigation","trial_index":12,"time_elapsed":735332,"internal_node_id":"0.0-2.0-10.0"},{"group":"hexagon_tri","room_assignment":["green","yellow","red","purple","grey","blue"],"door_color_assignment":["white","black"],"door_generator_assignment":[0,1],"goal":0,"start":3,"action_noise":0,"location_history":"[3,4,2,1,5,0]","action_history":"[1,1,0,1,1]","door_history":"[1,1,0,1,1]","location_rts":"[18232,4494,5075,2085,2342]","trial_type":"two-door-navigation","trial_index":13,"time_elapsed":776674,"internal_node_id":"0.0-2.0-11.0"},{"group":"hexagon_tri","room_assignment":["green","yellow","red","purple","grey","blue"],"door_color_assignment":["white","black"],"door_generator_assignment":[0,1],"goal":2,"start":0,"action_noise":0,"location_history":"[0,1,5,4,2]","action_history":"[1,1,0,1]","door_history":"[1,1,0,1]","location_rts":"[7779,1236,2458,4005]","trial_type":"two-door-navigation","trial_index":14,"time_elapsed":800242,"internal_node_id":"0.0-2.0-12.0"},{"group":"hexagon_tri","room_assignment":["green","yellow","red","purple","grey","blue"],"door_color_assignment":["white","black"],"door_generator_assignment":[0,1],"goal":5,"start":2,"action_noise":0,"location_history":"[2,1,5]","action_history":"[0,1]","door_history":"[0,1]","location_rts":"[13273,9128]","trial_type":"two-door-navigation","trial_index":15,"time_elapsed":828686,"internal_node_id":"0.0-2.0-13.0"},{"group":"hexagon_tri","room_assignment":["green","yellow","red","purple","grey","blue"],"door_color_assignment":["white","black"],"door_generator_assignment":[0,1],"goal":4,"start":5,"action_noise":0,"location_history":"[5,4]","action_history":"[0]","door_history":"[0]","location_rts":"[4429]","trial_type":"two-door-navigation","trial_index":16,"time_elapsed":838139,"internal_node_id":"0.0-2.0-14.0"},{"group":"hexagon_tri","room_assignment":["green","yellow","red","purple","grey","blue"],"door_color_assignment":["white","black"],"door_generator_assignment":[0,1],"goal":3,"start":4,"action_noise":0,"location_history":"[4,0,1,3]","action_history":"[0,1,0]","door_history":"[0,1,0]","location_rts":"[10274,2495,2962]","trial_type":"two-door-navigation","trial_index":17,"time_elapsed":860937,"internal_node_id":"0.0-2.0-15.0"},{"group":"hexagon_tri","room_assignment":["green","yellow","red","purple","grey","blue"],"door_color_assignment":["white","black"],"door_generator_assignment":[0,1],"goal":1,"start":3,"action_noise":0,"location_history":"[3,4,0,5,4,0,5,0,1]","action_history":"[1,0,0,0,0,0,1,1]","door_history":"[1,0,0,0,0,0,1,1]","location_rts":"[4672,2799,15469,2142,1094,1691,1431,995]","trial_type":"two-door-navigation","trial_index":18,"time_elapsed":903401,"internal_node_id":"0.0-2.0-16.0"},{"group":"hexagon_tri","room_assignment":["green","yellow","red","purple","grey","blue"],"door_color_assignment":["white","black"],"door_generator_assignment":[0,1],"goal":5,"start":1,"action_noise":0,"location_history":"[1,5]","action_history":"[1]","door_history":"[1]","location_rts":"[8410]","trial_type":"two-door-navigation","trial_index":19,"time_elapsed":916837,"internal_node_id":"0.0-2.0-17.0"},{"group":"hexagon_tri","room_assignment":["green","yellow","red","purple","grey","blue"],"door_color_assignment":["white","black"],"door_generator_assignment":[0,1],"goal":4,"start":5,"action_noise":0,"location_history":"[5,0,1,3,4]","action_history":"[1,1,0,1]","door_history":"[1,1,0,1]","location_rts":"[47566,11981,10921,7084]","trial_type":"two-door-navigation","trial_index":20,"time_elapsed":1002479,"internal_node_id":"0.0-2.0-18.0"},{"group":"hexagon_tri","room_assignment":["green","yellow","red","purple","grey","blue"],"door_color_assignment":["white","black"],"door_generator_assignment":[0,1],"goal":0,"start":4,"action_noise":0,"location_history":"[4,0]","action_history":"[0]","door_history":"[0]","location_rts":"[34572]","trial_type":"two-door-navigation","trial_index":21,"time_elapsed":1042077,"internal_node_id":"0.0-2.0-19.0"},{"group":"hexagon_tri","room_assignment":["green","yellow","red","purple","grey","blue"],"door_color_assignment":["white","black"],"door_generator_assignment":[0,1],"goal":1,"start":0,"action_noise":0,"location_history":"[0,1]","action_history":"[1]","door_history":"[1]","location_rts":"[13128]","trial_type":"two-door-navigation","trial_index":22,"time_elapsed":1060230,"internal_node_id":"0.0-2.0-20.0"},{"group":"hexagon_tri","room_assignment":["green","yellow","red","purple","grey","blue"],"door_color_assignment":["white","black"],"door_generator_assignment":[0,1],"goal":3,"start":1,"action_noise":0,"location_history":"[1,5,4,2,3]","action_history":"[1,0,1,1]","door_history":"[1,0,1,1]","location_rts":"[4304,6878,6493,2331]","trial_type":"two-door-navigation","trial_index":23,"time_elapsed":1088324,"internal_node_id":"0.0-2.0-21.0"},{"group":"hexagon_tri","room_assignment":["green","yellow","red","purple","grey","blue"],"door_color_assignment":["white","black"],"door_generator_assignment":[0,1],"goal":2,"start":3,"action_noise":0,"location_history":"[3,4,2]","action_history":"[1,1]","door_history":"[1,1]","location_rts":"[13974,7370]","trial_type":"two-door-navigation","trial_index":24,"time_elapsed":1115714,"internal_node_id":"0.0-2.0-22.0"},{"group":"hexagon_tri","room_assignment":["green","yellow","red","purple","grey","blue"],"door_color_assignment":["white","black"],"door_generator_assignment":[0,1],"goal":0,"start":2,"action_noise":0,"location_history":"[2,3,2,1,3,2,3,4,2,3,4,2,3,2,3,2,1,3,4,0]","action_history":"[1,0,0,0,0,1,1,1,1,1,1,1,0,1,0,0,0,1,0]","door_history":"[1,0,0,0,0,1,1,1,1,1,1,1,0,1,0,0,0,1,0]","location_rts":"[24392,4280,4665,7160,3783,1055,1029,1751,1495,910,1279,2956,972,1655,925,2643,1614,888,1682]","trial_type":"two-door-navigation","trial_index":25,"time_elapsed":1204244,"internal_node_id":"0.0-2.0-23.0"},{"group":"hexagon_tri","room_assignment":["green","yellow","red","purple","grey","blue"],"door_color_assignment":["white","black"],"door_generator_assignment":[0,1],"goal":3,"start":0,"action_noise":0,"location_history":"[0,1,3]","action_history":"[1,0]","door_history":"[1,0]","location_rts":"[7595,1291]","trial_type":"two-door-navigation","trial_index":26,"time_elapsed":1219182,"internal_node_id":"0.0-2.0-24.0"},{"group":"hexagon_tri","room_assignment":["green","yellow","red","purple","grey","blue"],"door_color_assignment":["white","black"],"door_generator_assignment":[0,1],"goal":1,"start":3,"action_noise":0,"location_history":"[3,4,2,1]","action_history":"[1,1,0]","door_history":"[1,1,0]","location_rts":"[9687,10138,917]","trial_type":"two-door-navigation","trial_index":27,"time_elapsed":1246989,"internal_node_id":"0.0-2.0-25.0"},{"group":"hexagon_tri","room_assignment":["green","yellow","red","purple","grey","blue"],"door_color_assignment":["white","black"],"door_generator_assignment":[0,1],"goal":2,"start":1,"action_noise":0,"location_history":"[1,5,4,2]","action_history":"[1,0,1]","door_history":"[1,0,1]","location_rts":"[21115,5957,1378]","trial_type":"two-door-navigation","trial_index":28,"time_elapsed":1282505,"internal_node_id":"0.0-2.0-26.0"},{"group":"hexagon_tri","room_assignment":["green","yellow","red","purple","grey","blue"],"door_color_assignment":["white","black"],"door_generator_assignment":[0,1],"goal":5,"start":2,"action_noise":0,"location_history":"[2,3,2,1,5]","action_history":"[1,0,0,1]","door_history":"[1,0,0,1]","location_rts":"[11605,4155,4280,1309]","trial_type":"two-door-navigation","trial_index":29,"time_elapsed":1311940,"internal_node_id":"0.0-2.0-27.0"},{"group":"hexagon_tri","room_assignment":["green","yellow","red","purple","grey","blue"],"door_color_assignment":["white","black"],"door_generator_assignment":[0,1],"goal":4,"start":5,"action_noise":0,"location_history":"[5,4]","action_history":"[0]","door_history":"[0]","location_rts":"[8807]","trial_type":"two-door-navigation","trial_index":30,"time_elapsed":1325773,"internal_node_id":"0.0-2.0-28.0"},{"group":"hexagon_tri","room_assignment":["green","yellow","red","purple","grey","blue"],"door_color_assignment":["white","black"],"door_generator_assignment":[0,1],"goal":5,"start":4,"action_noise":0,"location_history":"[4,2,3,2,1,5]","action_history":"[1,1,0,0,1]","door_history":"[1,1,0,0,1]","location_rts":"[6962,2134,2792,2714,2419]","trial_type":"two-door-navigation","trial_index":31,"time_elapsed":1351902,"internal_node_id":"0.0-2.0-29.0"},{"group":"hexagon_tri","room_assignment":["green","yellow","red","purple","grey","blue"],"door_color_assignment":["white","black"],"door_generator_assignment":[0,1],"goal":3,"start":5,"action_noise":0,"location_history":"[5,4,0,1,5,0,1,5,4,0,5,4,0,5,4,2,3]","action_history":"[0,0,1,1,1,1,1,0,0,0,0,0,0,0,1,1]","door_history":"[0,0,1,1,1,1,1,0,0,0,0,0,0,0,1,1]","location_rts":"[24851,4587,3089,2385,1271,931,1040,1554,950,1757,988,2096,1339,2086,3265,1662]","trial_type":"two-door-navigation","trial_index":32,"time_elapsed":1426099,"internal_node_id":"0.0-2.0-30.0"},{"group":"hexagon_tri","room_assignment":["green","yellow","red","purple","grey","blue"],"door_color_assignment":["white","black"],"door_generator_assignment":[0,1],"goal":0,"start":3,"action_noise":0,"location_history":"[3,4,2,3,2,1,3,2,3,4,0]","action_history":"[1,1,1,0,0,0,0,1,1,0]","door_history":"[1,1,1,0,0,0,0,1,1,0]","location_rts":"[12642,7471,6746,1785,2514,3659,9847,1152,1307,1027]","trial_type":"two-door-navigation","trial_index":33,"time_elapsed":1488458,"internal_node_id":"0.0-2.0-31.0"},{"group":"hexagon_tri","room_assignment":["green","yellow","red","purple","grey","blue"],"door_color_assignment":["white","black"],"door_generator_assignment":[0,1],"goal":4,"start":0,"action_noise":0,"location_history":"[0,1,5,4]","action_history":"[1,1,0]","door_history":"[1,1,0]","location_rts":"[7723,4055,1153]","trial_type":"two-door-navigation","trial_index":34,"time_elapsed":1508462,"internal_node_id":"0.0-2.0-32.0"},{"group":"hexagon_tri","room_assignment":["green","yellow","red","purple","grey","blue"],"door_color_assignment":["white","black"],"door_generator_assignment":[0,1],"goal":1,"start":4,"action_noise":0,"location_history":"[4,2,1]","action_history":"[1,0]","door_history":"[1,0]","location_rts":"[7530,2583]","trial_type":"two-door-navigation","trial_index":35,"time_elapsed":1524621,"internal_node_id":"0.0-2.0-33.0"},{"group":"hexagon_tri","room_assignment":["green","yellow","red","purple","grey","blue"],"door_color_assignment":["white","black"],"door_generator_assignment":[0,1],"goal":2,"start":1,"action_noise":0,"location_history":"[1,5,4,0,1,5,4,0,5,0,1,5,0,5,4,2]","action_history":"[1,0,0,1,1,0,0,0,1,1,1,1,0,0,1]","door_history":"[1,0,0,1,1,0,0,0,1,1,1,1,0,0,1]","location_rts":"[9974,2069,5205,4131,2203,1220,1270,1222,809,938,1056,1169,1260,1223,1150]","trial_type":"two-door-navigation","trial_index":36,"time_elapsed":1578855,"internal_node_id":"0.0-2.0-34.0"},{"group":"hexagon_tri","room_assignment":["green","yellow","red","purple","grey","blue"],"door_color_assignment":["white","black"],"door_generator_assignment":[0,1],"goal":0,"start":2,"action_noise":0,"location_history":"[2,3,4,0]","action_history":"[1,1,0]","door_history":"[1,1,0]","location_rts":"[18567,4651,1691]","trial_type":"two-door-navigation","trial_index":37,"time_elapsed":1610830,"internal_node_id":"0.0-2.0-35.0"},{"group":"hexagon_tri","room_assignment":["green","yellow","red","purple","grey","blue"],"door_color_assignment":["white","black"],"door_generator_assignment":[0,1],"goal":5,"start":0,"action_noise":0,"location_history":"[0,5]","action_history":"[0]","door_history":"[0]","location_rts":"[12289]","trial_type":"two-door-navigation","trial_index":38,"time_elapsed":1628145,"internal_node_id":"0.0-2.0-36.0"},{"group":"hexagon_tri","room_assignment":["green","yellow","red","purple","grey","blue"],"door_color_assignment":["white","black"],"door_generator_assignment":[0,1],"goal":2,"start":5,"action_noise":0,"location_history":"[5,0,5,4,2]","action_history":"[1,0,0,1]","door_history":"[1,0,0,1]","location_rts":"[22514,1271,1040,1508]","trial_type":"two-door-navigation","trial_index":39,"time_elapsed":1662569,"internal_node_id":"0.0-2.0-37.0"},{"group":"hexagon_tri","room_assignment":["green","yellow","red","purple","grey","blue"],"door_color_assignment":["white","black"],"door_generator_assignment":[0,1],"goal":1,"start":2,"action_noise":0,"location_history":"[2,3,2,1]","action_history":"[1,0,0]","door_history":"[1,0,0]","location_rts":"[8995,17737,12426]","trial_type":"two-door-navigation","trial_index":40,"time_elapsed":1708796,"internal_node_id":"0.0-2.0-38.0"},{"group":"hexagon_tri","room_assignment":["green","yellow","red","purple","grey","blue"],"door_color_assignment":["white","black"],"door_generator_assignment":[0,1],"goal":4,"start":1,"action_noise":0,"location_history":"[1,5,4]","action_history":"[1,0]","door_history":"[1,0]","location_rts":"[15116,7281]","trial_type":"two-door-navigation","trial_index":41,"time_elapsed":1737243,"internal_node_id":"0.0-2.0-39.0"},{"group":"hexagon_tri","room_assignment":["green","yellow","red","purple","grey","blue"],"door_color_assignment":["white","black"],"door_generator_assignment":[0,1],"goal":3,"start":4,"action_noise":0,"location_history":"[4,2,3]","action_history":"[1,1]","door_history":"[1,1]","location_rts":"[8862,13599]","trial_type":"two-door-navigation","trial_index":42,"time_elapsed":1765751,"internal_node_id":"0.0-2.0-40.0"},{"group":"hexagon_tri","room_assignment":["green","yellow","red","purple","grey","blue"],"door_color_assignment":["white","black"],"door_generator_assignment":[0,1],"goal":5,"start":3,"action_noise":0,"location_history":"[3,4,0,1,5]","action_history":"[1,0,1,1]","door_history":"[1,0,1,1]","location_rts":"[16069,5085,8824,4106]","trial_type":"two-door-navigation","trial_index":43,"time_elapsed":1807921,"internal_node_id":"0.0-2.0-41.0"},{"group":"hexagon_tri","room_assignment":["green","yellow","red","purple","grey","blue"],"door_color_assignment":["white","black"],"door_generator_assignment":[0,1],"goal":3,"start":5,"action_noise":0,"location_history":"[5,4,0,1,3]","action_history":"[0,0,1,0]","door_history":"[0,0,1,0]","location_rts":"[13041,20234,7864,5996]","trial_type":"two-door-navigation","trial_index":44,"time_elapsed":1863147,"internal_node_id":"0.0-2.0-42.0"},{"group":"hexagon_tri","room_assignment":["green","yellow","red","purple","grey","blue"],"door_color_assignment":["white","black"],"door_generator_assignment":[0,1],"goal":0,"start":3,"action_noise":0,"location_history":"[3,2,3,2,1,3,4,0]","action_history":"[0,1,0,0,0,1,0]","door_history":"[0,1,0,0,0,1,0]","location_rts":"[20457,18217,6582,5985,3152,10865,11931]","trial_type":"two-door-navigation","trial_index":45,"time_elapsed":1951495,"internal_node_id":"0.0-2.0-43.0"},{"group":"hexagon_tri","room_assignment":["green","yellow","red","purple","grey","blue"],"door_color_assignment":["white","black"],"door_generator_assignment":[0,1],"goal":2,"start":0,"action_noise":0,"location_history":"[0,1,5,4,2]","action_history":"[1,1,0,1]","door_history":"[1,1,0,1]","location_rts":"[9675,6609,7109,5065]","trial_type":"two-door-navigation","trial_index":46,"time_elapsed":1988040,"internal_node_id":"0.0-2.0-44.0"},{"group":"hexagon_tri","room_assignment":["green","yellow","red","purple","grey","blue"],"door_color_assignment":["white","black"],"door_generator_assignment":[0,1],"goal":4,"start":2,"action_noise":0,"location_history":"[2,3,2,3,4]","action_history":"[1,0,1,1]","door_history":"[1,0,1,1]","location_rts":"[8434,3182,4168,2394]","trial_type":"two-door-navigation","trial_index":47,"time_elapsed":2014305,"internal_node_id":"0.0-2.0-45.0"},{"group":"hexagon_tri","room_assignment":["green","yellow","red","purple","grey","blue"],"door_color_assignment":["white","black"],"door_generator_assignment":[0,1],"goal":1,"start":4,"action_noise":0,"location_history":"[4,2,1]","action_history":"[1,0]","door_history":"[1,0]","location_rts":"[14364,2514]","trial_type":"two-door-navigation","trial_index":48,"time_elapsed":2037230,"internal_node_id":"0.0-2.0-46.0"},{"group":"hexagon_tri","room_assignment":["green","yellow","red","purple","grey","blue"],"door_color_assignment":["white","black"],"door_generator_assignment":[0,1],"goal":4,"start":1,"action_noise":0,"location_history":"[1,5,0,5,4]","action_history":"[1,1,0,0]","door_history":"[1,1,0,0]","location_rts":"[13796,6604,1277,1168]","trial_type":"two-door-navigation","trial_index":49,"time_elapsed":2068160,"internal_node_id":"0.0-2.0-47.0"},{"group":"hexagon_tri","room_assignment":["green","yellow","red","purple","grey","blue"],"door_color_assignment":["white","black"],"door_generator_assignment":[0,1],"goal":3,"start":4,"action_noise":0,"location_history":"[4,2,3]","action_history":"[1,1]","door_history":"[1,1]","location_rts":"[8842,2890]","trial_type":"two-door-navigation","trial_index":50,"time_elapsed":2085940,"internal_node_id":"0.0-2.0-48.0"},{"group":"hexagon_tri","room_assignment":["green","yellow","red","purple","grey","blue"],"door_color_assignment":["white","black"],"door_generator_assignment":[0,1],"goal":5,"start":3,"action_noise":0,"location_history":"[3,4,2,3,4,0,5]","action_history":"[1,1,1,1,0,0]","door_history":"[1,1,1,1,0,0]","location_rts":"[16004,4639,4721,2243,1224,1037]","trial_type":"two-door-navigation","trial_index":51,"time_elapsed":2125938,"internal_node_id":"0.0-2.0-49.0"},{"view_history":"[{\"page_index\":0,\"viewing_time\":5204}]","rt":5204,"trial_type":"instructions","trial_index":52,"time_elapsed":2132142,"internal_node_id":"0.0-3.0"},{"view_history":"[{\"page_index\":0,\"viewing_time\":4489},{\"page_index\":1,\"viewing_time\":92511}]","rt":97001,"trial_type":"instructions","trial_index":53,"time_elapsed":2230145,"internal_node_id":"0.0-4.0"},{"group":"hexagon_bi","fractal_assignment":["../images/org_blu.png","../images/ylw_slt.png","../images/blu_wht.png","../images/gry_blk.png","../images/cyn_red.png","../images/pnk_blu.png"],"mutagen_generator_assignment":[0,1],"goal":4,"start":0,"action_noise":0,"location_history":"[0,5,4]","action_history":"[0,1]","mutagen_history":"[0,1]","location_rts":"[12804,7168]","trial_type":"fractal-mutation","trial_index":54,"time_elapsed":2256227,"internal_node_id":"0.0-5.0-0.0"},{"group":"hexagon_bi","fractal_assignment":["../images/org_blu.png","../images/ylw_slt.png","../images/blu_wht.png","../images/gry_blk.png","../images/cyn_red.png","../images/pnk_blu.png"],"mutagen_generator_assignment":[0,1],"goal":3,"start":4,"action_noise":0,"location_history":"[4,5,0,5,4,3]","action_history":"[1,0,0,1,0]","mutagen_history":"[1,0,0,1,0]","location_rts":"[6757,1820,2598,1956,6911]","trial_type":"fractal-mutation","trial_index":55,"time_elapsed":2285490,"internal_node_id":"0.0-5.0-1.0"},{"group":"hexagon_bi","fractal_assignment":["../images/org_blu.png","../images/ylw_slt.png","../images/blu_wht.png","../images/gry_blk.png","../images/cyn_red.png","../images/pnk_blu.png"],"mutagen_generator_assignment":[0,1],"goal":5,"start":3,"action_noise":0,"location_history":"[3,2,1,2,1,0,1,0,1,2,3,4,5]","action_history":"[1,0,0,0,1,1,1,1,0,1,0,1]","mutagen_history":"[1,0,0,0,1,1,1,1,0,1,0,1]","location_rts":"[3350,1366,1473,1193,2143,1848,1989,1598,1185,1460,1406,1536]","trial_type":"fractal-mutation","trial_index":56,"time_elapsed":2322503,"internal_node_id":"0.0-5.0-2.0"},{"group":"hexagon_bi","fractal_assignment":["../images/org_blu.png","../images/ylw_slt.png","../images/blu_wht.png","../images/gry_blk.png","../images/cyn_red.png","../images/pnk_blu.png"],"mutagen_generator_assignment":[0,1],"goal":2,"start":5,"action_noise":0,"location_history":"[5,0,1,2]","action_history":"[0,1,0]","mutagen_history":"[0,1,0]","location_rts":"[3577,1359,2258]","trial_type":"fractal-mutation","trial_index":57,"time_elapsed":2336818,"internal_node_id":"0.0-5.0-3.0"},{"group":"hexagon_bi","fractal_assignment":["../images/org_blu.png","../images/ylw_slt.png","../images/blu_wht.png","../images/gry_blk.png","../images/cyn_red.png","../images/pnk_blu.png"],"mutagen_generator_assignment":[0,1],"goal":1,"start":2,"action_noise":0,"location_history":"[2,3,2,3,2,1]","action_history":"[1,1,1,1,0]","mutagen_history":"[1,1,1,1,0]","location_rts":"[4199,2201,1144,1208,1149]","trial_type":"fractal-mutation","trial_index":58,"time_elapsed":2355913,"internal_node_id":"0.0-5.0-4.0"},{"group":"hexagon_bi","fractal_assignment":["../images/org_blu.png","../images/ylw_slt.png","../images/blu_wht.png","../images/gry_blk.png","../images/cyn_red.png","../images/pnk_blu.png"],"mutagen_generator_assignment":[0,1],"goal":4,"start":1,"action_noise":0,"location_history":"[1,2,3,4]","action_history":"[0,1,0]","mutagen_history":"[0,1,0]","location_rts":"[3274,1574,1487]","trial_type":"fractal-mutation","trial_index":59,"time_elapsed":2369358,"internal_node_id":"0.0-5.0-5.0"},{"group":"hexagon_bi","fractal_assignment":["../images/org_blu.png","../images/ylw_slt.png","../images/blu_wht.png","../images/gry_blk.png","../images/cyn_red.png","../images/pnk_blu.png"],"mutagen_generator_assignment":[0,1],"goal":1,"start":4,"action_noise":0,"location_history":"[4,5,0,1]","action_history":"[1,0,1]","mutagen_history":"[1,0,1]","location_rts":"[3466,1115,1335]","trial_type":"fractal-mutation","trial_index":60,"time_elapsed":2382403,"internal_node_id":"0.0-5.0-6.0"},{"group":"hexagon_bi","fractal_assignment":["../images/org_blu.png","../images/ylw_slt.png","../images/blu_wht.png","../images/gry_blk.png","../images/cyn_red.png","../images/pnk_blu.png"],"mutagen_generator_assignment":[0,1],"goal":5,"start":1,"action_noise":0,"location_history":"[1,0,5]","action_history":"[1,0]","mutagen_history":"[1,0]","location_rts":"[4839,1152]","trial_type":"fractal-mutation","trial_index":61,"time_elapsed":2394476,"internal_node_id":"0.0-5.0-7.0"},{"group":"hexagon_bi","fractal_assignment":["../images/org_blu.png","../images/ylw_slt.png","../images/blu_wht.png","../images/gry_blk.png","../images/cyn_red.png","../images/pnk_blu.png"],"mutagen_generator_assignment":[0,1],"goal":0,"start":5,"action_noise":0,"location_history":"[5,4,3,2,1,0]","action_history":"[1,0,1,0,1]","mutagen_history":"[1,0,1,0,1]","location_rts":"[4291,1065,1178,1078,1518]","trial_type":"fractal-mutation","trial_index":62,"time_elapsed":2412800,"internal_node_id":"0.0-5.0-8.0"},{"group":"hexagon_bi","fractal_assignment":["../images/org_blu.png","../images/ylw_slt.png","../images/blu_wht.png","../images/gry_blk.png","../images/cyn_red.png","../images/pnk_blu.png"],"mutagen_generator_assignment":[0,1],"goal":2,"start":0,"action_noise":0,"location_history":"[0,1,2]","action_history":"[1,0]","mutagen_history":"[1,0]","location_rts":"[2287,1293]","trial_type":"fractal-mutation","trial_index":63,"time_elapsed":2422460,"internal_node_id":"0.0-5.0-9.0"},{"group":"hexagon_bi","fractal_assignment":["../images/org_blu.png","../images/ylw_slt.png","../images/blu_wht.png","../images/gry_blk.png","../images/cyn_red.png","../images/pnk_blu.png"],"mutagen_generator_assignment":[0,1],"goal":3,"start":2,"action_noise":0,"location_history":"[2,1,0,5,4,3]","action_history":"[0,1,0,1,0]","mutagen_history":"[0,1,0,1,0]","location_rts":"[5093,1284,1581,1164,1531]","trial_type":"fractal-mutation","trial_index":64,"time_elapsed":2442299,"internal_node_id":"0.0-5.0-10.0"},{"group":"hexagon_bi","fractal_assignment":["../images/org_blu.png","../images/ylw_slt.png","../images/blu_wht.png","../images/gry_blk.png","../images/cyn_red.png","../images/pnk_blu.png"],"mutagen_generator_assignment":[0,1],"goal":0,"start":3,"action_noise":0,"location_history":"[3,2,3,4,3,2,3,2,1,0]","action_history":"[1,1,0,0,1,1,1,0,1]","mutagen_history":"[1,1,0,0,1,1,1,0,1]","location_rts":"[2477,2269,1228,2303,2412,1439,1210,1474,2184]","trial_type":"fractal-mutation","trial_index":65,"time_elapsed":2472650,"internal_node_id":"0.0-5.0-11.0"},{"group":"hexagon_bi","fractal_assignment":["../images/org_blu.png","../images/ylw_slt.png","../images/blu_wht.png","../images/gry_blk.png","../images/cyn_red.png","../images/pnk_blu.png"],"mutagen_generator_assignment":[0,1],"goal":2,"start":0,"action_noise":0,"location_history":"[0,5,4,3,4,3,2]","action_history":"[0,1,0,0,0,1]","mutagen_history":"[0,1,0,0,0,1]","location_rts":"[2085,1856,1268,2285,1748,1410]","trial_type":"fractal-mutation","trial_index":66,"time_elapsed":2493502,"internal_node_id":"0.0-5.0-12.0"},{"group":"hexagon_bi","fractal_assignment":["../images/org_blu.png","../images/ylw_slt.png","../images/blu_wht.png","../images/gry_blk.png","../images/cyn_red.png","../images/pnk_blu.png"],"mutagen_generator_assignment":[0,1],"goal":5,"start":2,"action_noise":0,"location_history":"[2,1,0,1,2,3,4,3,4,5]","action_history":"[0,1,1,0,1,0,0,0,1]","mutagen_history":"[0,1,1,0,1,0,0,0,1]","location_rts":"[6125,1288,1253,1566,1893,1174,619,1277,1222]","trial_type":"fractal-mutation","trial_index":67,"time_elapsed":2523241,"internal_node_id":"0.0-5.0-13.0"},{"group":"hexagon_bi","fractal_assignment":["../images/org_blu.png","../images/ylw_slt.png","../images/blu_wht.png","../images/gry_blk.png","../images/cyn_red.png","../images/pnk_blu.png"],"mutagen_generator_assignment":[0,1],"goal":4,"start":5,"action_noise":0,"location_history":"[5,4]","action_history":"[1]","mutagen_history":"[1]","location_rts":"[4584]","trial_type":"fractal-mutation","trial_index":68,"time_elapsed":2532869,"internal_node_id":"0.0-5.0-14.0"},{"group":"hexagon_bi","fractal_assignment":["../images/org_blu.png","../images/ylw_slt.png","../images/blu_wht.png","../images/gry_blk.png","../images/cyn_red.png","../images/pnk_blu.png"],"mutagen_generator_assignment":[0,1],"goal":3,"start":4,"action_noise":0,"location_history":"[4,5,0,5,4,5,0,5,0,1,0,1,0,5,0,5,0,1,0,5,4,3]","action_history":"[1,0,0,1,1,0,0,0,1,1,1,1,0,0,0,0,1,1,0,1,0]","mutagen_history":"[1,0,0,1,1,0,0,0,1,1,1,1,0,0,0,0,1,1,0,1,0]","location_rts":"[6067,1149,3488,1608,1478,1124,1281,1275,1684,1256,1298,1123,1327,1232,712,416,1745,822,1044,1809,2452]","trial_type":"fractal-mutation","trial_index":69,"time_elapsed":2593065,"internal_node_id":"0.0-5.0-15.0"},{"group":"hexagon_bi","fractal_assignment":["../images/org_blu.png","../images/ylw_slt.png","../images/blu_wht.png","../images/gry_blk.png","../images/cyn_red.png","../images/pnk_blu.png"],"mutagen_generator_assignment":[0,1],"goal":1,"start":3,"action_noise":0,"location_history":"[3,2,1]","action_history":"[1,0]","mutagen_history":"[1,0]","location_rts":"[4647,1242]","trial_type":"fractal-mutation","trial_index":70,"time_elapsed":2605035,"internal_node_id":"0.0-5.0-16.0"},{"group":"hexagon_bi","fractal_assignment":["../images/org_blu.png","../images/ylw_slt.png","../images/blu_wht.png","../images/gry_blk.png","../images/cyn_red.png","../images/pnk_blu.png"],"mutagen_generator_assignment":[0,1],"goal":5,"start":1,"action_noise":0,"location_history":"[1,2,1,0,1,2,3,4,5]","action_history":"[0,0,1,1,0,1,0,1]","mutagen_history":"[0,0,1,1,0,1,0,1]","location_rts":"[3784,1431,1119,2139,1524,979,1239,1050]","trial_type":"fractal-mutation","trial_index":71,"time_elapsed":2630599,"internal_node_id":"0.0-5.0-17.0"},{"group":"hexagon_bi","fractal_assignment":["../images/org_blu.png","../images/ylw_slt.png","../images/blu_wht.png","../images/gry_blk.png","../images/cyn_red.png","../images/pnk_blu.png"],"mutagen_generator_assignment":[0,1],"goal":4,"start":5,"action_noise":0,"location_history":"[5,0,1,2,3,4]","action_history":"[0,1,0,1,0]","mutagen_history":"[0,1,0,1,0]","location_rts":"[1809,1049,2084,1840,1064]","trial_type":"fractal-mutation","trial_index":72,"time_elapsed":2647627,"internal_node_id":"0.0-5.0-18.0"},{"group":"hexagon_bi","fractal_assignment":["../images/org_blu.png","../images/ylw_slt.png","../images/blu_wht.png","../images/gry_blk.png","../images/cyn_red.png","../images/pnk_blu.png"],"mutagen_generator_assignment":[0,1],"goal":0,"start":4,"action_noise":0,"location_history":"[4,5,0]","action_history":"[1,0]","mutagen_history":"[1,0]","location_rts":"[1980,2484]","trial_type":"fractal-mutation","trial_index":73,"time_elapsed":2658161,"internal_node_id":"0.0-5.0-19.0"},{"group":"hexagon_bi","fractal_assignment":["../images/org_blu.png","../images/ylw_slt.png","../images/blu_wht.png","../images/gry_blk.png","../images/cyn_red.png","../images/pnk_blu.png"],"mutagen_generator_assignment":[0,1],"goal":1,"start":0,"action_noise":0,"location_history":"[0,1]","action_history":"[1]","mutagen_history":"[1]","location_rts":"[6193]","trial_type":"fractal-mutation","trial_index":74,"time_elapsed":2669395,"internal_node_id":"0.0-5.0-20.0"},{"group":"hexagon_bi","fractal_assignment":["../images/org_blu.png","../images/ylw_slt.png","../images/blu_wht.png","../images/gry_blk.png","../images/cyn_red.png","../images/pnk_blu.png"],"mutagen_generator_assignment":[0,1],"goal":3,"start":1,"action_noise":0,"location_history":"[1,2,3]","action_history":"[0,1]","mutagen_history":"[0,1]","location_rts":"[2925,5127]","trial_type":"fractal-mutation","trial_index":75,"time_elapsed":2683532,"internal_node_id":"0.0-5.0-21.0"},{"group":"hexagon_bi","fractal_assignment":["../images/org_blu.png","../images/ylw_slt.png","../images/blu_wht.png","../images/gry_blk.png","../images/cyn_red.png","../images/pnk_blu.png"],"mutagen_generator_assignment":[0,1],"goal":2,"start":3,"action_noise":0,"location_history":"[3,4,5,4,3,4,5,0,1,2]","action_history":"[0,1,1,0,0,1,0,1,0]","mutagen_history":"[0,1,1,0,0,1,0,1,0]","location_rts":"[3698,1337,723,1208,1496,2213,1644,1276,1151]","trial_type":"fractal-mutation","trial_index":76,"time_elapsed":2711622,"internal_node_id":"0.0-5.0-22.0"},{"group":"hexagon_bi","fractal_assignment":["../images/org_blu.png","../images/ylw_slt.png","../images/blu_wht.png","../images/gry_blk.png","../images/cyn_red.png","../images/pnk_blu.png"],"mutagen_generator_assignment":[0,1],"goal":0,"start":2,"action_noise":0,"location_history":"[2,1,0]","action_history":"[0,1]","mutagen_history":"[0,1]","location_rts":"[4570,2055]","trial_type":"fractal-mutation","trial_index":77,"time_elapsed":2724321,"internal_node_id":"0.0-5.0-23.0"},{"group":"hexagon_bi","fractal_assignment":["../images/org_blu.png","../images/ylw_slt.png","../images/blu_wht.png","../images/gry_blk.png","../images/cyn_red.png","../images/pnk_blu.png"],"mutagen_generator_assignment":[0,1],"goal":3,"start":0,"action_noise":0,"location_history":"[0,1,0,1,2,1,0,5,4,3]","action_history":"[1,1,1,0,0,1,0,1,0]","mutagen_history":"[1,1,1,0,0,1,0,1,0]","location_rts":"[6080,1849,1899,1116,1942,1407,1168,1512,1442]","trial_type":"fractal-mutation","trial_index":78,"time_elapsed":2756071,"internal_node_id":"0.0-5.0-24.0"},{"group":"hexagon_bi","fractal_assignment":["../images/org_blu.png","../images/ylw_slt.png","../images/blu_wht.png","../images/gry_blk.png","../images/cyn_red.png","../images/pnk_blu.png"],"mutagen_generator_assignment":[0,1],"goal":1,"start":3,"action_noise":0,"location_history":"[3,2,1]","action_history":"[1,0]","mutagen_history":"[1,0]","location_rts":"[1753,1185]","trial_type":"fractal-mutation","trial_index":79,"time_elapsed":2765089,"internal_node_id":"0.0-5.0-25.0"},{"group":"hexagon_bi","fractal_assignment":["../images/org_blu.png","../images/ylw_slt.png","../images/blu_wht.png","../images/gry_blk.png","../images/cyn_red.png","../images/pnk_blu.png"],"mutagen_generator_assignment":[0,1],"goal":2,"start":1,"action_noise":0,"location_history":"[1,0,1,2]","action_history":"[1,1,0]","mutagen_history":"[1,1,0]","location_rts":"[2567,1864,1343]","trial_type":"fractal-mutation","trial_index":80,"time_elapsed":2777988,"internal_node_id":"0.0-5.0-26.0"},{"group":"hexagon_bi","fractal_assignment":["../images/org_blu.png","../images/ylw_slt.png","../images/blu_wht.png","../images/gry_blk.png","../images/cyn_red.png","../images/pnk_blu.png"],"mutagen_generator_assignment":[0,1],"goal":5,"start":2,"action_noise":0,"location_history":"[2,3,4,5]","action_history":"[1,0,1]","mutagen_history":"[1,0,1]","location_rts":"[3901,2308,1083]","trial_type":"fractal-mutation","trial_index":81,"time_elapsed":2792407,"internal_node_id":"0.0-5.0-27.0"},{"group":"hexagon_bi","fractal_assignment":["../images/org_blu.png","../images/ylw_slt.png","../images/blu_wht.png","../images/gry_blk.png","../images/cyn_red.png","../images/pnk_blu.png"],"mutagen_generator_assignment":[0,1],"goal":4,"start":5,"action_noise":0,"location_history":"[5,4]","action_history":"[1]","mutagen_history":"[1]","location_rts":"[4787]","trial_type":"fractal-mutation","trial_index":82,"time_elapsed":2802235,"internal_node_id":"0.0-5.0-28.0"},{"group":"hexagon_bi","fractal_assignment":["../images/org_blu.png","../images/ylw_slt.png","../images/blu_wht.png","../images/gry_blk.png","../images/cyn_red.png","../images/pnk_blu.png"],"mutagen_generator_assignment":[0,1],"goal":5,"start":4,"action_noise":0,"location_history":"[4,3,2,3,4,3,2,3,2,1,2,1,0,5]","action_history":"[0,1,1,0,0,1,1,1,0,0,0,1,0]","mutagen_history":"[0,1,1,0,0,1,1,1,0,0,0,1,0]","location_rts":"[3109,2417,1513,797,1163,1864,1366,870,696,856,738,1579,1937]","trial_type":"fractal-mutation","trial_index":83,"time_elapsed":2838610,"internal_node_id":"0.0-5.0-29.0"},{"group":"hexagon_bi","fractal_assignment":["../images/org_blu.png","../images/ylw_slt.png","../images/blu_wht.png","../images/gry_blk.png","../images/cyn_red.png","../images/pnk_blu.png"],"mutagen_generator_assignment":[0,1],"goal":3,"start":5,"action_noise":0,"location_history":"[5,0,1,2,3]","action_history":"[0,1,0,1]","mutagen_history":"[0,1,0,1]","location_rts":"[4045,1171,701,763]","trial_type":"fractal-mutation","trial_index":84,"time_elapsed":2853456,"internal_node_id":"0.0-5.0-30.0"},{"group":"hexagon_bi","fractal_assignment":["../images/org_blu.png","../images/ylw_slt.png","../images/blu_wht.png","../images/gry_blk.png","../images/cyn_red.png","../images/pnk_blu.png"],"mutagen_generator_assignment":[0,1],"goal":0,"start":3,"action_noise":0,"location_history":"[3,2,1,2,3,2,1,2,1,0]","action_history":"[1,0,0,1,1,0,0,0,1]","mutagen_history":"[1,0,0,1,1,0,0,0,1]","location_rts":"[1664,788,1600,446,846,734,624,682,555]","trial_type":"fractal-mutation","trial_index":85,"time_elapsed":2874745,"internal_node_id":"0.0-5.0-31.0"},{"group":"hexagon_bi","fractal_assignment":["../images/org_blu.png","../images/ylw_slt.png","../images/blu_wht.png","../images/gry_blk.png","../images/cyn_red.png","../images/pnk_blu.png"],"mutagen_generator_assignment":[0,1],"goal":4,"start":0,"action_noise":0,"location_history":"[0,1,2,3,4]","action_history":"[1,0,1,0]","mutagen_history":"[1,0,1,0]","location_rts":"[3551,910,1024,1177]","trial_type":"fractal-mutation","trial_index":86,"time_elapsed":2889571,"internal_node_id":"0.0-5.0-32.0"},{"group":"hexagon_bi","fractal_assignment":["../images/org_blu.png","../images/ylw_slt.png","../images/blu_wht.png","../images/gry_blk.png","../images/cyn_red.png","../images/pnk_blu.png"],"mutagen_generator_assignment":[0,1],"goal":1,"start":4,"action_noise":0,"location_history":"[4,5,0,5,4,3,2,3,4,3,4,5,0,1]","action_history":"[1,0,0,1,0,1,1,0,0,0,1,0,1]","mutagen_history":"[1,0,0,1,0,1,1,0,0,0,1,0,1]","location_rts":"[2310,708,775,561,676,526,593,578,759,1060,1709,1106,1041]","trial_type":"fractal-mutation","trial_index":87,"time_elapsed":2919435,"internal_node_id":"0.0-5.0-33.0"},{"group":"hexagon_bi","fractal_assignment":["../images/org_blu.png","../images/ylw_slt.png","../images/blu_wht.png","../images/gry_blk.png","../images/cyn_red.png","../images/pnk_blu.png"],"mutagen_generator_assignment":[0,1],"goal":2,"start":1,"action_noise":0,"location_history":"[1,2]","action_history":"[0]","mutagen_history":"[0]","location_rts":"[1580]","trial_type":"fractal-mutation","trial_index":88,"time_elapsed":2926056,"internal_node_id":"0.0-5.0-34.0"},{"group":"hexagon_bi","fractal_assignment":["../images/org_blu.png","../images/ylw_slt.png","../images/blu_wht.png","../images/gry_blk.png","../images/cyn_red.png","../images/pnk_blu.png"],"mutagen_generator_assignment":[0,1],"goal":0,"start":2,"action_noise":0,"location_history":"[2,3,4,5,0]","action_history":"[1,0,1,0]","mutagen_history":"[1,0,1,0]","location_rts":"[2160,764,974,670]","trial_type":"fractal-mutation","trial_index":89,"time_elapsed":2938781,"internal_node_id":"0.0-5.0-35.0"},{"group":"hexagon_bi","fractal_assignment":["../images/org_blu.png","../images/ylw_slt.png","../images/blu_wht.png","../images/gry_blk.png","../images/cyn_red.png","../images/pnk_blu.png"],"mutagen_generator_assignment":[0,1],"goal":5,"start":0,"action_noise":0,"location_history":"[0,1,2,3,4,3,2,3,4,3,4,5]","action_history":"[1,0,1,0,0,1,1,0,0,0,1]","mutagen_history":"[1,0,1,0,0,1,1,0,0,0,1]","location_rts":"[1796,759,1126,523,487,699,1266,548,802,570,1436]","trial_type":"fractal-mutation","trial_index":90,"time_elapsed":2964126,"internal_node_id":"0.0-5.0-36.0"},{"group":"hexagon_bi","fractal_assignment":["../images/org_blu.png","../images/ylw_slt.png","../images/blu_wht.png","../images/gry_blk.png","../images/cyn_red.png","../images/pnk_blu.png"],"mutagen_generator_assignment":[0,1],"goal":2,"start":5,"action_noise":0,"location_history":"[5,4,3,4,5,4,3,4,3,2]","action_history":"[1,0,0,1,1,0,0,0,1]","mutagen_history":"[1,0,0,1,1,0,0,0,1]","location_rts":"[1666,639,927,1059,1626,1245,1014,589,786]","trial_type":"fractal-mutation","trial_index":91,"time_elapsed":2987001,"internal_node_id":"0.0-5.0-37.0"},{"group":"hexagon_bi","fractal_assignment":["../images/org_blu.png","../images/ylw_slt.png","../images/blu_wht.png","../images/gry_blk.png","../images/cyn_red.png","../images/pnk_blu.png"],"mutagen_generator_assignment":[0,1],"goal":1,"start":2,"action_noise":0,"location_history":"[2,3,4,3,2,3,4,3,2,3,2,3,4,3,2,1]","action_history":"[1,0,0,1,1,0,0,1,1,1,1,0,0,1,0]","mutagen_history":"[1,0,0,1,1,0,0,1,1,1,1,0,0,1,0]","location_rts":"[1417,890,969,1928,837,979,799,575,655,851,508,711,737,887,638]","trial_type":"fractal-mutation","trial_index":92,"time_elapsed":3019918,"internal_node_id":"0.0-5.0-38.0"},{"group":"hexagon_bi","fractal_assignment":["../images/org_blu.png","../images/ylw_slt.png","../images/blu_wht.png","../images/gry_blk.png","../images/cyn_red.png","../images/pnk_blu.png"],"mutagen_generator_assignment":[0,1],"goal":4,"start":1,"action_noise":0,"location_history":"[1,0,5,4]","action_history":"[1,0,1]","mutagen_history":"[1,0,1]","location_rts":"[1506,998,840]","trial_type":"fractal-mutation","trial_index":93,"time_elapsed":3030381,"internal_node_id":"0.0-5.0-39.0"},{"group":"hexagon_bi","fractal_assignment":["../images/org_blu.png","../images/ylw_slt.png","../images/blu_wht.png","../images/gry_blk.png","../images/cyn_red.png","../images/pnk_blu.png"],"mutagen_generator_assignment":[0,1],"goal":3,"start":4,"action_noise":0,"location_history":"[4,5,0,5,4,5,0,1,2,1,0,1,2,1,2,1,0,1,0,1,0,5,4,3]","action_history":"[1,0,0,1,1,0,1,0,0,1,1,0,0,0,0,1,1,1,1,1,0,1,0]","mutagen_history":"[1,0,0,1,1,0,1,0,0,1,1,0,0,0,0,1,1,1,1,1,0,1,0]","location_rts":"[2763,698,841,495,586,453,449,557,1043,509,749,569,583,424,737,783,733,681,497,689,459,1382,525]","trial_type":"fractal-mutation","trial_index":94,"time_elapsed":3075434,"internal_node_id":"0.0-5.0-40.0"},{"group":"hexagon_bi","fractal_assignment":["../images/org_blu.png","../images/ylw_slt.png","../images/blu_wht.png","../images/gry_blk.png","../images/cyn_red.png","../images/pnk_blu.png"],"mutagen_generator_assignment":[0,1],"goal":5,"start":3,"action_noise":0,"location_history":"[3,4,5]","action_history":"[0,1]","mutagen_history":"[0,1]","location_rts":"[2345,663]","trial_type":"fractal-mutation","trial_index":95,"time_elapsed":3084513,"internal_node_id":"0.0-5.0-41.0"},{"group":"hexagon_bi","fractal_assignment":["../images/org_blu.png","../images/ylw_slt.png","../images/blu_wht.png","../images/gry_blk.png","../images/cyn_red.png","../images/pnk_blu.png"],"mutagen_generator_assignment":[0,1],"goal":3,"start":5,"action_noise":0,"location_history":"[5,4,3]","action_history":"[1,0]","mutagen_history":"[1,0]","location_rts":"[1327,528]","trial_type":"fractal-mutation","trial_index":96,"time_elapsed":3092453,"internal_node_id":"0.0-5.0-42.0"},{"group":"hexagon_bi","fractal_assignment":["../images/org_blu.png","../images/ylw_slt.png","../images/blu_wht.png","../images/gry_blk.png","../images/cyn_red.png","../images/pnk_blu.png"],"mutagen_generator_assignment":[0,1],"goal":0,"start":3,"action_noise":0,"location_history":"[3,4,5,4,5,0]","action_history":"[0,1,1,1,0]","mutagen_history":"[0,1,1,1,0]","location_rts":"[2692,844,824,867,529]","trial_type":"fractal-mutation","trial_index":97,"time_elapsed":3107420,"internal_node_id":"0.0-5.0-43.0"},{"group":"hexagon_bi","fractal_assignment":["../images/org_blu.png","../images/ylw_slt.png","../images/blu_wht.png","../images/gry_blk.png","../images/cyn_red.png","../images/pnk_blu.png"],"mutagen_generator_assignment":[0,1],"goal":2,"start":0,"action_noise":0,"location_history":"[0,5,4,5,0,5,4,3,2]","action_history":"[0,1,1,0,0,1,0,1]","mutagen_history":"[0,1,1,0,0,1,0,1]","location_rts":"[2007,539,689,492,824,596,563,764]","trial_type":"fractal-mutation","trial_index":98,"time_elapsed":3126193,"internal_node_id":"0.0-5.0-44.0"},{"group":"hexagon_bi","fractal_assignment":["../images/org_blu.png","../images/ylw_slt.png","../images/blu_wht.png","../images/gry_blk.png","../images/cyn_red.png","../images/pnk_blu.png"],"mutagen_generator_assignment":[0,1],"goal":4,"start":2,"action_noise":0,"location_history":"[2,3,4]","action_history":"[1,0]","mutagen_history":"[1,0]","location_rts":"[2128,623]","trial_type":"fractal-mutation","trial_index":99,"time_elapsed":3135030,"internal_node_id":"0.0-5.0-45.0"},{"group":"hexagon_bi","fractal_assignment":["../images/org_blu.png","../images/ylw_slt.png","../images/blu_wht.png","../images/gry_blk.png","../images/cyn_red.png","../images/pnk_blu.png"],"mutagen_generator_assignment":[0,1],"goal":1,"start":4,"action_noise":0,"location_history":"[4,5,0,1]","action_history":"[1,0,1]","mutagen_history":"[1,0,1]","location_rts":"[3322,592,1163]","trial_type":"fractal-mutation","trial_index":100,"time_elapsed":3147232,"internal_node_id":"0.0-5.0-46.0"},{"group":"hexagon_bi","fractal_assignment":["../images/org_blu.png","../images/ylw_slt.png","../images/blu_wht.png","../images/gry_blk.png","../images/cyn_red.png","../images/pnk_blu.png"],"mutagen_generator_assignment":[0,1],"goal":4,"start":1,"action_noise":0,"location_history":"[1,2,3,4]","action_history":"[0,1,0]","mutagen_history":"[0,1,0]","location_rts":"[1624,614,1718]","trial_type":"fractal-mutation","trial_index":101,"time_elapsed":3158316,"internal_node_id":"0.0-5.0-47.0"},{"group":"hexagon_bi","fractal_assignment":["../images/org_blu.png","../images/ylw_slt.png","../images/blu_wht.png","../images/gry_blk.png","../images/cyn_red.png","../images/pnk_blu.png"],"mutagen_generator_assignment":[0,1],"goal":3,"start":4,"action_noise":0,"location_history":"[4,5,0,1,2,1,0,1,2,1,0,5,4,3]","action_history":"[1,0,1,0,0,1,1,0,0,1,0,1,0]","mutagen_history":"[1,0,1,0,0,1,1,0,0,1,0,1,0]","location_rts":"[1576,526,1107,516,658,846,860,639,475,1003,475,438,510]","trial_type":"fractal-mutation","trial_index":102,"time_elapsed":3185420,"internal_node_id":"0.0-5.0-48.0"},{"group":"hexagon_bi","fractal_assignment":["../images/org_blu.png","../images/ylw_slt.png","../images/blu_wht.png","../images/gry_blk.png","../images/cyn_red.png","../images/pnk_blu.png"],"mutagen_generator_assignment":[0,1],"goal":5,"start":3,"action_noise":0,"location_history":"[3,4,5]","action_history":"[0,1]","mutagen_history":"[0,1]","location_rts":"[2085,544]","trial_type":"fractal-mutation","trial_index":103,"time_elapsed":3194124,"internal_node_id":"0.0-5.0-49.0"},{"view_history":"[{\"page_index\":0,\"viewing_time\":18000}]","rt":18001,"trial_type":"instructions","trial_index":104,"time_elapsed":3213126,"internal_node_id":"0.0-6.0"},{"rt":11229,"responses":"{\"Q0\":\"nope\"}","trial_type":"survey-text","trial_index":105,"time_elapsed":3225361,"internal_node_id":"0.0-7.0"}]