[{"view_history":"[{\"page_index\":0,\"viewing_time\":39655},{\"page_index\":1,\"viewing_time\":150644},{\"page_index\":2,\"viewing_time\":16731}]","rt":207030,"trial_type":"instructions","trial_index":0,"time_elapsed":207030,"internal_node_id":"0.0-0.0"},{"view_history":"[{\"page_index\":0,\"viewing_time\":2074},{\"page_index\":1,\"viewing_time\":165277}]","rt":167351,"trial_type":"instructions","trial_index":1,"time_elapsed":375382,"internal_node_id":"0.0-1.0"},{"group":"hexagon_tri","room_assignment":["green","blue","red","purple","grey","yellow"],"door_color_assignment":["black","white"],"door_generator_assignment":[1,0],"goal":4,"start":0,"action_noise":0,"location_history":"[0,1,3,2,3,4]","action_history":"[1,0,0,1,1]","door_history":"[0,1,1,0,0]","location_rts":"[4144,16640,11583,15421,9358]","trial_type":"two-door-navigation","trial_index":2,"time_elapsed":441913,"internal_node_id":"0.0-2.0-0.0"},{"group":"hexagon_tri","room_assignment":["green","blue","red","purple","grey","yellow"],"door_color_assignment":["black","white"],"door_generator_assignment":[1,0],"goal":3,"start":4,"action_noise":0,"location_history":"[4,0,5,0,1,3]","action_history":"[0,0,1,1,0]","door_history":"[1,1,0,0,1]","location_rts":"[14139,11303,9413,10778,9921]","trial_type":"two-door-navigation","trial_index":3,"time_elapsed":506824,"internal_node_id":"0.0-2.0-1.0"},{"group":"hexagon_tri","room_assignment":["green","blue","red","purple","grey","yellow"],"door_color_assignment":["black","white"],"door_generator_assignment":[1,0],"goal":5,"start":3,"action_noise":0,"location_history":"[3,2,3,4,0,5]","action_history":"[0,1,1,0,0]","door_history":"[1,0,0,1,1]","location_rts":"[19826,13277,16080,3053,1081]","trial_type":"two-door-navigation","trial_index":4,"time_elapsed":569476,"internal_node_id":"0.0-2.0-2.0"},{"group":"hexagon_tri","room_assignment":["green","blue","red","purple","grey","yellow"],"door_color_assignment":["black","white"],"door_generator_assignment":[1,0],"goal":2,"start":5,"action_noise":0,"location_history":"[5,4,2]","action_history":"[0,1]","door_history":"[1,0]","location_rts":"[11235,30651]","trial_type":"two-door-navigation","trial_index":5,"time_elapsed":617523,"internal_node_id":"0.0-2.0-3.0"},{"group":"hexagon_tri","room_assignment":["green","blue","red","purple","grey","yellow"],"door_color_assignment":["black","white"],"door_generator_assignment":[1,0],"goal":1,"start":2,"action_noise":0,"location_history":"[2,1]","action_history":"[0]","door_history":"[1]","location_rts":"[17052]","trial_type":"two-door-navigation","trial_index":6,"time_elapsed":639670,"internal_node_id":"0.0-2.0-4.0"},{"group":"hexagon_tri","room_assignment":["green","blue","red","purple","grey","yellow"],"door_color_assignment":["black","white"],"door_generator_assignment":[1,0],"goal":4,"start":1,"action_noise":0,"location_history":"[1,3,4]","action_history":"[0,1]","door_history":"[1,0]","location_rts":"[11299,5072]","trial_type":"two-door-navigation","trial_index":7,"time_elapsed":662156,"internal_node_id":"0.0-2.0-5.0"},{"group":"hexagon_tri","room_assignment":["green","blue","red","purple","grey","yellow"],"door_color_assignment":["black","white"],"door_generator_assignment":[1,0],"goal":1,"start":4,"action_noise":0,"location_history":"[4,0,1]","action_history":"[0,1]","door_history":"[1,0]","location_rts":"[4680,8822]","trial_type":"two-door-navigation","trial_index":8,"time_elapsed":681796,"internal_node_id":"0.0-2.0-6.0"},{"group":"hexagon_tri","room_assignment":["green","blue","red","purple","grey","yellow"],"door_color_assignment":["black","white"],"door_generator_assignment":[1,0],"goal":5,"start":1,"action_noise":0,"location_history":"[1,5]","action_history":"[1]","door_history":"[0]","location_rts":"[20798]","trial_type":"two-door-navigation","trial_index":9,"time_elapsed":707674,"internal_node_id":"0.0-2.0-7.0"},{"group":"hexagon_tri","room_assignment":["green","blue","red","purple","grey","yellow"],"door_color_assignment":["black","white"],"door_generator_assignment":[1,0],"goal":0,"start":5,"action_noise":0,"location_history":"[5,0]","action_history":"[1]","door_history":"[0]","location_rts":"[4727]","trial_type":"two-door-navigation","trial_index":10,"time_elapsed":717478,"internal_node_id":"0.0-2.0-8.0"},{"group":"hexagon_tri","room_assignment":["green","blue","red","purple","grey","yellow"],"door_color_assignment":["black","white"],"door_generator_assignment":[1,0],"goal":2,"start":0,"action_noise":0,"location_history":"[0,5,4,2]","action_history":"[0,0,1]","door_history":"[1,1,0]","location_rts":"[11941,3544,6452]","trial_type":"two-door-navigation","trial_index":11,"time_elapsed":746553,"internal_node_id":"0.0-2.0-9.0"},{"group":"hexagon_tri","room_assignment":["green","blue","red","purple","grey","yellow"],"door_color_assignment":["black","white"],"door_generator_assignment":[1,0],"goal":3,"start":2,"action_noise":0,"location_history":"[2,3]","action_history":"[1]","door_history":"[0]","location_rts":"[5642]","trial_type":"two-door-navigation","trial_index":12,"time_elapsed":757240,"internal_node_id":"0.0-2.0-10.0"},{"group":"hexagon_tri","room_assignment":["green","blue","red","purple","grey","yellow"],"door_color_assignment":["black","white"],"door_generator_assignment":[1,0],"goal":0,"start":3,"action_noise":0,"location_history":"[3,2,3,4,0]","action_history":"[0,1,1,0]","door_history":"[1,0,0,1]","location_rts":"[6217,6018,397,13485]","trial_type":"two-door-navigation","trial_index":13,"time_elapsed":791639,"internal_node_id":"0.0-2.0-11.0"},{"group":"hexagon_tri","room_assignment":["green","blue","red","purple","grey","yellow"],"door_color_assignment":["black","white"],"door_generator_assignment":[1,0],"goal":2,"start":0,"action_noise":0,"location_history":"[0,1,5,0,1,3,2]","action_history":"[1,1,1,1,0,0]","door_history":"[0,0,0,0,1,1]","location_rts":"[13289,17305,17575,9269,1045,3699]","trial_type":"two-door-navigation","trial_index":14,"time_elapsed":864202,"internal_node_id":"0.0-2.0-12.0"},{"group":"hexagon_tri","room_assignment":["green","blue","red","purple","grey","yellow"],"door_color_assignment":["black","white"],"door_generator_assignment":[1,0],"goal":5,"start":2,"action_noise":0,"location_history":"[2,1,5]","action_history":"[0,1]","door_history":"[1,0]","location_rts":"[9913,368]","trial_type":"two-door-navigation","trial_index":15,"time_elapsed":880574,"internal_node_id":"0.0-2.0-13.0"},{"group":"hexagon_tri","room_assignment":["green","blue","red","purple","grey","yellow"],"door_color_assignment":["black","white"],"door_generator_assignment":[1,0],"goal":4,"start":5,"action_noise":0,"location_history":"[5,4]","action_history":"[0]","door_history":"[1]","location_rts":"[5304]","trial_type":"two-door-navigation","trial_index":16,"time_elapsed":890931,"internal_node_id":"0.0-2.0-14.0"},{"group":"hexagon_tri","room_assignment":["green","blue","red","purple","grey","yellow"],"door_color_assignment":["black","white"],"door_generator_assignment":[1,0],"goal":3,"start":4,"action_noise":0,"location_history":"[4,0,5,4,0,5,0,1,3]","action_history":"[0,0,0,0,0,1,1,0]","door_history":"[1,1,1,1,1,0,0,1]","location_rts":"[25026,11429,13231,461,1542,834,792,3962]","trial_type":"two-door-navigation","trial_index":17,"time_elapsed":960761,"internal_node_id":"0.0-2.0-15.0"},{"group":"hexagon_tri","room_assignment":["green","blue","red","purple","grey","yellow"],"door_color_assignment":["black","white"],"door_generator_assignment":[1,0],"goal":1,"start":3,"action_noise":0,"location_history":"[3,2,1]","action_history":"[0,0]","door_history":"[1,1]","location_rts":"[72189,3354]","trial_type":"two-door-navigation","trial_index":18,"time_elapsed":1042397,"internal_node_id":"0.0-2.0-16.0"},{"group":"hexagon_tri","room_assignment":["green","blue","red","purple","grey","yellow"],"door_color_assignment":["black","white"],"door_generator_assignment":[1,0],"goal":5,"start":1,"action_noise":0,"location_history":"[1,5]","action_history":"[1]","door_history":"[0]","location_rts":"[3227]","trial_type":"two-door-navigation","trial_index":19,"time_elapsed":1050677,"internal_node_id":"0.0-2.0-17.0"},{"group":"hexagon_tri","room_assignment":["green","blue","red","purple","grey","yellow"],"door_color_assignment":["black","white"],"door_generator_assignment":[1,0],"goal":4,"start":5,"action_noise":0,"location_history":"[5,4]","action_history":"[0]","door_history":"[1]","location_rts":"[18933]","trial_type":"two-door-navigation","trial_index":20,"time_elapsed":1074689,"internal_node_id":"0.0-2.0-18.0"},{"group":"hexagon_tri","room_assignment":["green","blue","red","purple","grey","yellow"],"door_color_assignment":["black","white"],"door_generator_assignment":[1,0],"goal":0,"start":4,"action_noise":0,"location_history":"[4,2,1,3,4,0]","action_history":"[1,0,0,1,0]","door_history":"[0,1,1,0,1]","location_rts":"[8822,15616,3634,9185,362]","trial_type":"two-door-navigation","trial_index":21,"time_elapsed":1121526,"internal_node_id":"0.0-2.0-19.0"},{"group":"hexagon_tri","room_assignment":["green","blue","red","purple","grey","yellow"],"door_color_assignment":["black","white"],"door_generator_assignment":[1,0],"goal":1,"start":0,"action_noise":0,"location_history":"[0,1]","action_history":"[1]","door_history":"[0]","location_rts":"[4280]","trial_type":"two-door-navigation","trial_index":22,"time_elapsed":1130858,"internal_node_id":"0.0-2.0-20.0"},{"group":"hexagon_tri","room_assignment":["green","blue","red","purple","grey","yellow"],"door_color_assignment":["black","white"],"door_generator_assignment":[1,0],"goal":3,"start":1,"action_noise":0,"location_history":"[1,3]","action_history":"[0]","door_history":"[1]","location_rts":"[15358]","trial_type":"two-door-navigation","trial_index":23,"time_elapsed":1151277,"internal_node_id":"0.0-2.0-21.0"},{"group":"hexagon_tri","room_assignment":["green","blue","red","purple","grey","yellow"],"door_color_assignment":["black","white"],"door_generator_assignment":[1,0],"goal":2,"start":3,"action_noise":0,"location_history":"[3,2]","action_history":"[0]","door_history":"[1]","location_rts":"[6293]","trial_type":"two-door-navigation","trial_index":24,"time_elapsed":1162637,"internal_node_id":"0.0-2.0-22.0"},{"group":"hexagon_tri","room_assignment":["green","blue","red","purple","grey","yellow"],"door_color_assignment":["black","white"],"door_generator_assignment":[1,0],"goal":0,"start":2,"action_noise":0,"location_history":"[2,3,4,0]","action_history":"[1,1,0]","door_history":"[0,0,1]","location_rts":"[10931,9970,2932]","trial_type":"two-door-navigation","trial_index":25,"time_elapsed":1193608,"internal_node_id":"0.0-2.0-23.0"},{"group":"hexagon_tri","room_assignment":["green","blue","red","purple","grey","yellow"],"door_color_assignment":["black","white"],"door_generator_assignment":[1,0],"goal":3,"start":0,"action_noise":0,"location_history":"[0,5,0,1,3]","action_history":"[0,1,1,0]","door_history":"[1,0,0,1]","location_rts":"[13856,8820,2539,6720]","trial_type":"two-door-navigation","trial_index":26,"time_elapsed":1233759,"internal_node_id":"0.0-2.0-24.0"},{"group":"hexagon_tri","room_assignment":["green","blue","red","purple","grey","yellow"],"door_color_assignment":["black","white"],"door_generator_assignment":[1,0],"goal":1,"start":3,"action_noise":0,"location_history":"[3,2,1]","action_history":"[0,0]","door_history":"[1,1]","location_rts":"[16467,798]","trial_type":"two-door-navigation","trial_index":27,"time_elapsed":1257106,"internal_node_id":"0.0-2.0-25.0"},{"group":"hexagon_tri","room_assignment":["green","blue","red","purple","grey","yellow"],"door_color_assignment":["black","white"],"door_generator_assignment":[1,0],"goal":2,"start":1,"action_noise":0,"location_history":"[1,5,0,1,5,0,5,4,0,1,5,4,0,1,5,0,1,3,2]","action_history":"[1,1,1,1,1,0,0,0,1,1,0,0,1,1,1,1,0,0]","door_history":"[0,0,0,0,0,1,1,1,0,0,1,1,0,0,0,0,1,1]","location_rts":"[35371,7411,10476,4424,636,869,1849,3316,3473,19327,4818,1304,682,1604,1088,471,625,5086]","trial_type":"two-door-navigation","trial_index":28,"time_elapsed":1382917,"internal_node_id":"0.0-2.0-26.0"},{"group":"hexagon_tri","room_assignment":["green","blue","red","purple","grey","yellow"],"door_color_assignment":["black","white"],"door_generator_assignment":[1,0],"goal":5,"start":2,"action_noise":0,"location_history":"[2,3,4,2,1,3,4,2,3,2,1,5]","action_history":"[1,1,1,0,0,1,1,1,0,0,1]","door_history":"[0,0,0,1,1,0,0,0,1,1,0]","location_rts":"[10834,20560,11134,10440,3985,957,1504,4982,5627,6321,4933]","trial_type":"two-door-navigation","trial_index":29,"time_elapsed":1479808,"internal_node_id":"0.0-2.0-27.0"},{"group":"hexagon_tri","room_assignment":["green","blue","red","purple","grey","yellow"],"door_color_assignment":["black","white"],"door_generator_assignment":[1,0],"goal":4,"start":5,"action_noise":0,"location_history":"[5,4]","action_history":"[0]","door_history":"[1]","location_rts":"[6410]","trial_type":"two-door-navigation","trial_index":30,"time_elapsed":1491268,"internal_node_id":"0.0-2.0-28.0"},{"group":"hexagon_tri","room_assignment":["green","blue","red","purple","grey","yellow"],"door_color_assignment":["black","white"],"door_generator_assignment":[1,0],"goal":5,"start":4,"action_noise":0,"location_history":"[4,0,5]","action_history":"[0,0]","door_history":"[1,1]","location_rts":"[7568,3233]","trial_type":"two-door-navigation","trial_index":31,"time_elapsed":1508193,"internal_node_id":"0.0-2.0-29.0"},{"group":"hexagon_tri","room_assignment":["green","blue","red","purple","grey","yellow"],"door_color_assignment":["black","white"],"door_generator_assignment":[1,0],"goal":3,"start":5,"action_noise":0,"location_history":"[5,4,2,3]","action_history":"[0,1,1]","door_history":"[1,0,0]","location_rts":"[3391,11972,4184]","trial_type":"two-door-navigation","trial_index":32,"time_elapsed":1534899,"internal_node_id":"0.0-2.0-30.0"},{"group":"hexagon_tri","room_assignment":["green","blue","red","purple","grey","yellow"],"door_color_assignment":["black","white"],"door_generator_assignment":[1,0],"goal":0,"start":3,"action_noise":0,"location_history":"[3,2,1,5,0]","action_history":"[0,0,1,1]","door_history":"[1,1,0,0]","location_rts":"[10858,435,1896,1618]","trial_type":"two-door-navigation","trial_index":33,"time_elapsed":1558007,"internal_node_id":"0.0-2.0-31.0"},{"group":"hexagon_tri","room_assignment":["green","blue","red","purple","grey","yellow"],"door_color_assignment":["black","white"],"door_generator_assignment":[1,0],"goal":4,"start":0,"action_noise":0,"location_history":"[0,5,4]","action_history":"[0,0]","door_history":"[1,1]","location_rts":"[17474,7007]","trial_type":"two-door-navigation","trial_index":34,"time_elapsed":1588598,"internal_node_id":"0.0-2.0-32.0"},{"group":"hexagon_tri","room_assignment":["green","blue","red","purple","grey","yellow"],"door_color_assignment":["black","white"],"door_generator_assignment":[1,0],"goal":1,"start":4,"action_noise":0,"location_history":"[4,0,1]","action_history":"[0,1]","door_history":"[1,0]","location_rts":"[7167,319]","trial_type":"two-door-navigation","trial_index":35,"time_elapsed":1602152,"internal_node_id":"0.0-2.0-33.0"},{"group":"hexagon_tri","room_assignment":["green","blue","red","purple","grey","yellow"],"door_color_assignment":["black","white"],"door_generator_assignment":[1,0],"goal":2,"start":1,"action_noise":0,"location_history":"[1,5,0,1,3,4,2]","action_history":"[1,1,1,0,1,1]","door_history":"[0,0,0,1,0,0]","location_rts":"[26591,5555,3163,6545,2445,4891]","trial_type":"two-door-navigation","trial_index":36,"time_elapsed":1661683,"internal_node_id":"0.0-2.0-34.0"},{"group":"hexagon_tri","room_assignment":["green","blue","red","purple","grey","yellow"],"door_color_assignment":["black","white"],"door_generator_assignment":[1,0],"goal":0,"start":2,"action_noise":0,"location_history":"[2,1,5,0]","action_history":"[0,1,1]","door_history":"[1,0,0]","location_rts":"[1225036,920,3552]","trial_type":"two-door-navigation","trial_index":37,"time_elapsed":2898316,"internal_node_id":"0.0-2.0-35.0"},{"group":"hexagon_tri","room_assignment":["green","blue","red","purple","grey","yellow"],"door_color_assignment":["black","white"],"door_generator_assignment":[1,0],"goal":5,"start":0,"action_noise":0,"location_history":"[0,1,3,2,1,5]","action_history":"[1,0,0,0,1]","door_history":"[0,1,1,1,0]","location_rts":"[10341,4007,3854,2591,950]","trial_type":"two-door-navigation","trial_index":38,"time_elapsed":2929265,"internal_node_id":"0.0-2.0-36.0"},{"group":"hexagon_tri","room_assignment":["green","blue","red","purple","grey","yellow"],"door_color_assignment":["black","white"],"door_generator_assignment":[1,0],"goal":2,"start":5,"action_noise":0,"location_history":"[5,0,5,4,2]","action_history":"[1,0,0,1]","door_history":"[0,1,1,0]","location_rts":"[22266,7709,10364,12102]","trial_type":"two-door-navigation","trial_index":39,"time_elapsed":2989858,"internal_node_id":"0.0-2.0-37.0"},{"group":"hexagon_tri","room_assignment":["green","blue","red","purple","grey","yellow"],"door_color_assignment":["black","white"],"door_generator_assignment":[1,0],"goal":1,"start":2,"action_noise":0,"location_history":"[2,1]","action_history":"[0]","door_history":"[1]","location_rts":"[7488]","trial_type":"two-door-navigation","trial_index":40,"time_elapsed":3002385,"internal_node_id":"0.0-2.0-38.0"},{"group":"hexagon_tri","room_assignment":["green","blue","red","purple","grey","yellow"],"door_color_assignment":["black","white"],"door_generator_assignment":[1,0],"goal":4,"start":1,"action_noise":0,"location_history":"[1,3,4]","action_history":"[0,1]","door_history":"[1,0]","location_rts":"[1313,4559]","trial_type":"two-door-navigation","trial_index":41,"time_elapsed":3014384,"internal_node_id":"0.0-2.0-39.0"},{"group":"hexagon_tri","room_assignment":["green","blue","red","purple","grey","yellow"],"door_color_assignment":["black","white"],"door_generator_assignment":[1,0],"goal":3,"start":4,"action_noise":0,"location_history":"[4,2,3]","action_history":"[1,1]","door_history":"[0,0]","location_rts":"[14633,6725]","trial_type":"two-door-navigation","trial_index":42,"time_elapsed":3041821,"internal_node_id":"0.0-2.0-40.0"},{"group":"hexagon_tri","room_assignment":["green","blue","red","purple","grey","yellow"],"door_color_assignment":["black","white"],"door_generator_assignment":[1,0],"goal":5,"start":3,"action_noise":0,"location_history":"[3,2,1,5]","action_history":"[0,0,1]","door_history":"[1,1,0]","location_rts":"[10459,3613,359]","trial_type":"two-door-navigation","trial_index":43,"time_elapsed":3063794,"internal_node_id":"0.0-2.0-41.0"},{"group":"hexagon_tri","room_assignment":["green","blue","red","purple","grey","yellow"],"door_color_assignment":["black","white"],"door_generator_assignment":[1,0],"goal":3,"start":5,"action_noise":0,"location_history":"[5,4,2,3]","action_history":"[0,1,1]","door_history":"[1,0,0]","location_rts":"[23768,8626,299]","trial_type":"two-door-navigation","trial_index":44,"time_elapsed":3103769,"internal_node_id":"0.0-2.0-42.0"},{"group":"hexagon_tri","room_assignment":["green","blue","red","purple","grey","yellow"],"door_color_assignment":["black","white"],"door_generator_assignment":[1,0],"goal":0,"start":3,"action_noise":0,"location_history":"[3,2,1,5,0]","action_history":"[0,0,1,1]","door_history":"[1,1,0,0]","location_rts":"[3452,3616,1758,1502]","trial_type":"two-door-navigation","trial_index":45,"time_elapsed":3122288,"internal_node_id":"0.0-2.0-43.0"},{"group":"hexagon_tri","room_assignment":["green","blue","red","purple","grey","yellow"],"door_color_assignment":["black","white"],"door_generator_assignment":[1,0],"goal":2,"start":0,"action_noise":0,"location_history":"[0,5,4,2]","action_history":"[0,0,1]","door_history":"[1,1,0]","location_rts":"[10308,7127,2612]","trial_type":"two-door-navigation","trial_index":46,"time_elapsed":3149461,"internal_node_id":"0.0-2.0-44.0"},{"group":"hexagon_tri","room_assignment":["green","blue","red","purple","grey","yellow"],"door_color_assignment":["black","white"],"door_generator_assignment":[1,0],"goal":4,"start":2,"action_noise":0,"location_history":"[2,1,5,0,5,4]","action_history":"[0,1,1,0,0]","door_history":"[1,0,0,1,1]","location_rts":"[4640,3680,825,5703,4463]","trial_type":"two-door-navigation","trial_index":47,"time_elapsed":3177957,"internal_node_id":"0.0-2.0-45.0"},{"group":"hexagon_tri","room_assignment":["green","blue","red","purple","grey","yellow"],"door_color_assignment":["black","white"],"door_generator_assignment":[1,0],"goal":1,"start":4,"action_noise":0,"location_history":"[4,2,1]","action_history":"[1,0]","door_history":"[0,1]","location_rts":"[5746,309]","trial_type":"two-door-navigation","trial_index":48,"time_elapsed":3190102,"internal_node_id":"0.0-2.0-46.0"},{"group":"hexagon_tri","room_assignment":["green","blue","red","purple","grey","yellow"],"door_color_assignment":["black","white"],"door_generator_assignment":[1,0],"goal":4,"start":1,"action_noise":0,"location_history":"[1,3,4]","action_history":"[0,1]","door_history":"[1,0]","location_rts":"[6152,1330]","trial_type":"two-door-navigation","trial_index":49,"time_elapsed":3203676,"internal_node_id":"0.0-2.0-47.0"},{"group":"hexagon_tri","room_assignment":["green","blue","red","purple","grey","yellow"],"door_color_assignment":["black","white"],"door_generator_assignment":[1,0],"goal":3,"start":4,"action_noise":0,"location_history":"[4,2,3]","action_history":"[1,1]","door_history":"[0,0]","location_rts":"[15760,2121]","trial_type":"two-door-navigation","trial_index":50,"time_elapsed":3227657,"internal_node_id":"0.0-2.0-48.0"},{"group":"hexagon_tri","room_assignment":["green","blue","red","purple","grey","yellow"],"door_color_assignment":["black","white"],"door_generator_assignment":[1,0],"goal":5,"start":3,"action_noise":0,"location_history":"[3,2,3,2,1,5]","action_history":"[0,1,0,0,1]","door_history":"[1,0,1,1,0]","location_rts":"[6617,5137,4926,2166,2640]","trial_type":"two-door-navigation","trial_index":51,"time_elapsed":3258382,"internal_node_id":"0.0-2.0-49.0"},{"view_history":"[{\"page_index\":0,\"viewing_time\":2818}]","rt":2818,"trial_type":"instructions","trial_index":52,"time_elapsed":3262204,"internal_node_id":"0.0-3.0"},{"view_history":"[{\"page_index\":0,\"viewing_time\":2866},{\"page_index\":1,\"viewing_time\":22344}]","rt":25211,"trial_type":"instructions","trial_index":53,"time_elapsed":3288419,"internal_node_id":"0.0-4.0"},{"group":"hexagon_tri","fractal_assignment":["../images/blu_wht.png","../images/org_blu.png","../images/cyn_red.png","../images/gry_blk.png","../images/pnk_blu.png","../images/ylw_slt.png"],"mutagen_generator_assignment":[0,1],"goal":4,"start":0,"action_noise":0,"location_history":"[0,1,5,0,5,0,1,3,4]","action_history":"[1,1,1,0,1,1,0,1]","mutagen_history":"[1,1,1,0,1,1,0,1]","location_rts":"[7086,3585,1655,2641,3887,1608,1140,1313]","trial_type":"fractal-mutation","trial_index":54,"time_elapsed":3324021,"internal_node_id":"0.0-5.0-0.0"},{"group":"hexagon_tri","fractal_assignment":["../images/blu_wht.png","../images/org_blu.png","../images/cyn_red.png","../images/gry_blk.png","../images/pnk_blu.png","../images/ylw_slt.png"],"mutagen_generator_assignment":[0,1],"goal":3,"start":4,"action_noise":0,"location_history":"[4,0,5,4,2,3]","action_history":"[0,0,0,1,1]","mutagen_history":"[0,0,0,1,1]","location_rts":"[2244,941,819,835,409]","trial_type":"fractal-mutation","trial_index":55,"time_elapsed":3338659,"internal_node_id":"0.0-5.0-1.0"},{"group":"hexagon_tri","fractal_assignment":["../images/blu_wht.png","../images/org_blu.png","../images/cyn_red.png","../images/gry_blk.png","../images/pnk_blu.png","../images/ylw_slt.png"],"mutagen_generator_assignment":[0,1],"goal":5,"start":3,"action_noise":0,"location_history":"[3,4,0,5]","action_history":"[1,0,0]","mutagen_history":"[1,0,0]","location_rts":"[3105,544,507]","trial_type":"fractal-mutation","trial_index":56,"time_elapsed":3350081,"internal_node_id":"0.0-5.0-2.0"},{"group":"hexagon_tri","fractal_assignment":["../images/blu_wht.png","../images/org_blu.png","../images/cyn_red.png","../images/gry_blk.png","../images/pnk_blu.png","../images/ylw_slt.png"],"mutagen_generator_assignment":[0,1],"goal":2,"start":5,"action_noise":0,"location_history":"[5,4,2]","action_history":"[0,1]","mutagen_history":"[0,1]","location_rts":"[1985,548]","trial_type":"fractal-mutation","trial_index":57,"time_elapsed":3358785,"internal_node_id":"0.0-5.0-3.0"},{"group":"hexagon_tri","fractal_assignment":["../images/blu_wht.png","../images/org_blu.png","../images/cyn_red.png","../images/gry_blk.png","../images/pnk_blu.png","../images/ylw_slt.png"],"mutagen_generator_assignment":[0,1],"goal":1,"start":2,"action_noise":0,"location_history":"[2,3,4,2,3,2,1]","action_history":"[1,1,1,1,0,0]","mutagen_history":"[1,1,1,1,0,0]","location_rts":"[1409,776,638,729,481,601]","trial_type":"fractal-mutation","trial_index":58,"time_elapsed":3373902,"internal_node_id":"0.0-5.0-4.0"},{"group":"hexagon_tri","fractal_assignment":["../images/blu_wht.png","../images/org_blu.png","../images/cyn_red.png","../images/gry_blk.png","../images/pnk_blu.png","../images/ylw_slt.png"],"mutagen_generator_assignment":[0,1],"goal":4,"start":1,"action_noise":0,"location_history":"[1,3,4]","action_history":"[0,1]","mutagen_history":"[0,1]","location_rts":"[900,422]","trial_type":"fractal-mutation","trial_index":59,"time_elapsed":3381384,"internal_node_id":"0.0-5.0-5.0"},{"group":"hexagon_tri","fractal_assignment":["../images/blu_wht.png","../images/org_blu.png","../images/cyn_red.png","../images/gry_blk.png","../images/pnk_blu.png","../images/ylw_slt.png"],"mutagen_generator_assignment":[0,1],"goal":1,"start":4,"action_noise":0,"location_history":"[4,2,1]","action_history":"[1,0]","mutagen_history":"[1,0]","location_rts":"[778,969]","trial_type":"fractal-mutation","trial_index":60,"time_elapsed":3389306,"internal_node_id":"0.0-5.0-6.0"},{"group":"hexagon_tri","fractal_assignment":["../images/blu_wht.png","../images/org_blu.png","../images/cyn_red.png","../images/gry_blk.png","../images/pnk_blu.png","../images/ylw_slt.png"],"mutagen_generator_assignment":[0,1],"goal":5,"start":1,"action_noise":0,"location_history":"[1,3,2,1,5]","action_history":"[0,0,0,1]","mutagen_history":"[0,0,0,1]","location_rts":"[1991,678,700,481]","trial_type":"fractal-mutation","trial_index":61,"time_elapsed":3401484,"internal_node_id":"0.0-5.0-7.0"},{"group":"hexagon_tri","fractal_assignment":["../images/blu_wht.png","../images/org_blu.png","../images/cyn_red.png","../images/gry_blk.png","../images/pnk_blu.png","../images/ylw_slt.png"],"mutagen_generator_assignment":[0,1],"goal":0,"start":5,"action_noise":0,"location_history":"[5,0]","action_history":"[1]","mutagen_history":"[1]","location_rts":"[682]","trial_type":"fractal-mutation","trial_index":62,"time_elapsed":3407249,"internal_node_id":"0.0-5.0-8.0"},{"group":"hexagon_tri","fractal_assignment":["../images/blu_wht.png","../images/org_blu.png","../images/cyn_red.png","../images/gry_blk.png","../images/pnk_blu.png","../images/ylw_slt.png"],"mutagen_generator_assignment":[0,1],"goal":2,"start":0,"action_noise":0,"location_history":"[0,1,3,2]","action_history":"[1,0,0]","mutagen_history":"[1,0,0]","location_rts":"[610,1126,625]","trial_type":"fractal-mutation","trial_index":63,"time_elapsed":3416875,"internal_node_id":"0.0-5.0-9.0"},{"group":"hexagon_tri","fractal_assignment":["../images/blu_wht.png","../images/org_blu.png","../images/cyn_red.png","../images/gry_blk.png","../images/pnk_blu.png","../images/ylw_slt.png"],"mutagen_generator_assignment":[0,1],"goal":3,"start":2,"action_noise":0,"location_history":"[2,3]","action_history":"[1]","mutagen_history":"[1]","location_rts":"[688]","trial_type":"fractal-mutation","trial_index":64,"time_elapsed":3422659,"internal_node_id":"0.0-5.0-10.0"},{"group":"hexagon_tri","fractal_assignment":["../images/blu_wht.png","../images/org_blu.png","../images/cyn_red.png","../images/gry_blk.png","../images/pnk_blu.png","../images/ylw_slt.png"],"mutagen_generator_assignment":[0,1],"goal":0,"start":3,"action_noise":0,"location_history":"[3,4,2,3,2,1,5,0]","action_history":"[1,1,1,0,0,1,1]","mutagen_history":"[1,1,1,0,0,1,1]","location_rts":"[957,691,440,618,544,450,518]","trial_type":"fractal-mutation","trial_index":65,"time_elapsed":3438428,"internal_node_id":"0.0-5.0-11.0"},{"group":"hexagon_tri","fractal_assignment":["../images/blu_wht.png","../images/org_blu.png","../images/cyn_red.png","../images/gry_blk.png","../images/pnk_blu.png","../images/ylw_slt.png"],"mutagen_generator_assignment":[0,1],"goal":2,"start":0,"action_noise":0,"location_history":"[0,1,3,2]","action_history":"[1,0,0]","mutagen_history":"[1,0,0]","location_rts":"[1645,425,561]","trial_type":"fractal-mutation","trial_index":66,"time_elapsed":3448304,"internal_node_id":"0.0-5.0-12.0"},{"group":"hexagon_tri","fractal_assignment":["../images/blu_wht.png","../images/org_blu.png","../images/cyn_red.png","../images/gry_blk.png","../images/pnk_blu.png","../images/ylw_slt.png"],"mutagen_generator_assignment":[0,1],"goal":5,"start":2,"action_noise":0,"location_history":"[2,3,2,1,3,4,0,5]","action_history":"[1,0,0,0,1,0,0]","mutagen_history":"[1,0,0,0,1,0,0]","location_rts":"[1536,435,672,989,970,1004,605]","trial_type":"fractal-mutation","trial_index":67,"time_elapsed":3466086,"internal_node_id":"0.0-5.0-13.0"},{"group":"hexagon_tri","fractal_assignment":["../images/blu_wht.png","../images/org_blu.png","../images/cyn_red.png","../images/gry_blk.png","../images/pnk_blu.png","../images/ylw_slt.png"],"mutagen_generator_assignment":[0,1],"goal":4,"start":5,"action_noise":0,"location_history":"[5,0,1,3,4]","action_history":"[1,1,0,1]","mutagen_history":"[1,1,0,1]","location_rts":"[1022,675,451,754]","trial_type":"fractal-mutation","trial_index":68,"time_elapsed":3477310,"internal_node_id":"0.0-5.0-14.0"},{"group":"hexagon_tri","fractal_assignment":["../images/blu_wht.png","../images/org_blu.png","../images/cyn_red.png","../images/gry_blk.png","../images/pnk_blu.png","../images/ylw_slt.png"],"mutagen_generator_assignment":[0,1],"goal":3,"start":4,"action_noise":0,"location_history":"[4,2,3]","action_history":"[1,1]","mutagen_history":"[1,1]","location_rts":"[461,483]","trial_type":"fractal-mutation","trial_index":69,"time_elapsed":3484414,"internal_node_id":"0.0-5.0-15.0"},{"group":"hexagon_tri","fractal_assignment":["../images/blu_wht.png","../images/org_blu.png","../images/cyn_red.png","../images/gry_blk.png","../images/pnk_blu.png","../images/ylw_slt.png"],"mutagen_generator_assignment":[0,1],"goal":1,"start":3,"action_noise":0,"location_history":"[3,4,0,5,4,0,1]","action_history":"[1,0,0,0,0,1]","mutagen_history":"[1,0,0,0,0,1]","location_rts":"[678,414,585,387,588,971]","trial_type":"fractal-mutation","trial_index":70,"time_elapsed":3498512,"internal_node_id":"0.0-5.0-16.0"},{"group":"hexagon_tri","fractal_assignment":["../images/blu_wht.png","../images/org_blu.png","../images/cyn_red.png","../images/gry_blk.png","../images/pnk_blu.png","../images/ylw_slt.png"],"mutagen_generator_assignment":[0,1],"goal":5,"start":1,"action_noise":0,"location_history":"[1,5]","action_history":"[1]","mutagen_history":"[1]","location_rts":"[607]","trial_type":"fractal-mutation","trial_index":71,"time_elapsed":3504217,"internal_node_id":"0.0-5.0-17.0"},{"group":"hexagon_tri","fractal_assignment":["../images/blu_wht.png","../images/org_blu.png","../images/cyn_red.png","../images/gry_blk.png","../images/pnk_blu.png","../images/ylw_slt.png"],"mutagen_generator_assignment":[0,1],"goal":4,"start":5,"action_noise":0,"location_history":"[5,0,1,3,2,3,4]","action_history":"[1,1,0,0,1,1]","mutagen_history":"[1,1,0,0,1,1]","location_rts":"[582,465,711,591,437,496]","trial_type":"fractal-mutation","trial_index":72,"time_elapsed":3517989,"internal_node_id":"0.0-5.0-18.0"},{"group":"hexagon_tri","fractal_assignment":["../images/blu_wht.png","../images/org_blu.png","../images/cyn_red.png","../images/gry_blk.png","../images/pnk_blu.png","../images/ylw_slt.png"],"mutagen_generator_assignment":[0,1],"goal":0,"start":4,"action_noise":0,"location_history":"[4,2,1,3,2,3,4,2,3,4,2,1,3,4,0]","action_history":"[1,0,0,0,1,1,1,1,1,1,0,0,1,0]","mutagen_history":"[1,0,0,0,1,1,1,1,1,1,0,0,1,0]","location_rts":"[502,504,483,475,453,660,540,430,505,565,668,973,403,721]","trial_type":"fractal-mutation","trial_index":73,"time_elapsed":3544954,"internal_node_id":"0.0-5.0-19.0"},{"group":"hexagon_tri","fractal_assignment":["../images/blu_wht.png","../images/org_blu.png","../images/cyn_red.png","../images/gry_blk.png","../images/pnk_blu.png","../images/ylw_slt.png"],"mutagen_generator_assignment":[0,1],"goal":1,"start":0,"action_noise":0,"location_history":"[0,5,0,1]","action_history":"[0,1,1]","mutagen_history":"[0,1,1]","location_rts":"[1492,396,945]","trial_type":"fractal-mutation","trial_index":74,"time_elapsed":3555031,"internal_node_id":"0.0-5.0-20.0"},{"group":"hexagon_tri","fractal_assignment":["../images/blu_wht.png","../images/org_blu.png","../images/cyn_red.png","../images/gry_blk.png","../images/pnk_blu.png","../images/ylw_slt.png"],"mutagen_generator_assignment":[0,1],"goal":3,"start":1,"action_noise":0,"location_history":"[1,5,4,0,5,0,1,5,4,0,1,5,0,1,3]","action_history":"[1,0,0,0,1,1,1,0,0,1,1,1,1,0]","mutagen_history":"[1,0,0,0,1,1,1,0,0,1,1,1,1,0]","location_rts":"[603,1027,551,970,439,1585,515,646,645,460,765,460,905,483]","trial_type":"fractal-mutation","trial_index":75,"time_elapsed":3584206,"internal_node_id":"0.0-5.0-21.0"},{"group":"hexagon_tri","fractal_assignment":["../images/blu_wht.png","../images/org_blu.png","../images/cyn_red.png","../images/gry_blk.png","../images/pnk_blu.png","../images/ylw_slt.png"],"mutagen_generator_assignment":[0,1],"goal":2,"start":3,"action_noise":0,"location_history":"[3,4,0,5,4,0,1,3,2]","action_history":"[1,0,0,0,0,1,0,0]","mutagen_history":"[1,0,0,0,0,1,0,0]","location_rts":"[433,1344,507,527,517,601,964,747]","trial_type":"fractal-mutation","trial_index":76,"time_elapsed":3602483,"internal_node_id":"0.0-5.0-22.0"},{"group":"hexagon_tri","fractal_assignment":["../images/blu_wht.png","../images/org_blu.png","../images/cyn_red.png","../images/gry_blk.png","../images/pnk_blu.png","../images/ylw_slt.png"],"mutagen_generator_assignment":[0,1],"goal":0,"start":2,"action_noise":0,"location_history":"[2,1,5,0]","action_history":"[0,1,1]","mutagen_history":"[0,1,1]","location_rts":"[4078,608,510]","trial_type":"fractal-mutation","trial_index":77,"time_elapsed":3614936,"internal_node_id":"0.0-5.0-23.0"},{"group":"hexagon_tri","fractal_assignment":["../images/blu_wht.png","../images/org_blu.png","../images/cyn_red.png","../images/gry_blk.png","../images/pnk_blu.png","../images/ylw_slt.png"],"mutagen_generator_assignment":[0,1],"goal":3,"start":0,"action_noise":0,"location_history":"[0,1,3]","action_history":"[1,0]","mutagen_history":"[1,0]","location_rts":"[533,912]","trial_type":"fractal-mutation","trial_index":78,"time_elapsed":3622548,"internal_node_id":"0.0-5.0-24.0"},{"group":"hexagon_tri","fractal_assignment":["../images/blu_wht.png","../images/org_blu.png","../images/cyn_red.png","../images/gry_blk.png","../images/pnk_blu.png","../images/ylw_slt.png"],"mutagen_generator_assignment":[0,1],"goal":1,"start":3,"action_noise":0,"location_history":"[3,2,3,4,0,5,0,1]","action_history":"[0,1,1,0,0,1,1]","mutagen_history":"[0,1,1,0,0,1,1]","location_rts":"[1424,399,1256,563,446,480,514]","trial_type":"fractal-mutation","trial_index":79,"time_elapsed":3639220,"internal_node_id":"0.0-5.0-25.0"},{"group":"hexagon_tri","fractal_assignment":["../images/blu_wht.png","../images/org_blu.png","../images/cyn_red.png","../images/gry_blk.png","../images/pnk_blu.png","../images/ylw_slt.png"],"mutagen_generator_assignment":[0,1],"goal":2,"start":1,"action_noise":0,"location_history":"[1,5,4,0,5,0,1,3,2]","action_history":"[1,0,0,0,1,1,0,0]","mutagen_history":"[1,0,0,0,1,1,0,0]","location_rts":"[6114,436,490,457,425,377,887,601]","trial_type":"fractal-mutation","trial_index":80,"time_elapsed":3661621,"internal_node_id":"0.0-5.0-26.0"},{"group":"hexagon_tri","fractal_assignment":["../images/blu_wht.png","../images/org_blu.png","../images/cyn_red.png","../images/gry_blk.png","../images/pnk_blu.png","../images/ylw_slt.png"],"mutagen_generator_assignment":[0,1],"goal":5,"start":2,"action_noise":0,"location_history":"[2,1,5]","action_history":"[0,1]","mutagen_history":"[0,1]","location_rts":"[1157,405]","trial_type":"fractal-mutation","trial_index":81,"time_elapsed":3669361,"internal_node_id":"0.0-5.0-27.0"},{"group":"hexagon_tri","fractal_assignment":["../images/blu_wht.png","../images/org_blu.png","../images/cyn_red.png","../images/gry_blk.png","../images/pnk_blu.png","../images/ylw_slt.png"],"mutagen_generator_assignment":[0,1],"goal":4,"start":5,"action_noise":0,"location_history":"[5,0,5,4]","action_history":"[1,0,0]","mutagen_history":"[1,0,0]","location_rts":"[478,478,485]","trial_type":"fractal-mutation","trial_index":82,"time_elapsed":3678034,"internal_node_id":"0.0-5.0-28.0"},{"group":"hexagon_tri","fractal_assignment":["../images/blu_wht.png","../images/org_blu.png","../images/cyn_red.png","../images/gry_blk.png","../images/pnk_blu.png","../images/ylw_slt.png"],"mutagen_generator_assignment":[0,1],"goal":5,"start":4,"action_noise":0,"location_history":"[4,2,3,2,3,2,3,4,2,3,2,1,3,4,0,5]","action_history":"[1,1,0,1,0,1,1,1,1,0,0,0,1,0,0]","mutagen_history":"[1,1,0,1,0,1,1,1,1,0,0,0,1,0,0]","location_rts":"[704,1289,375,658,663,614,412,500,438,501,354,400,945,578,399]","trial_type":"fractal-mutation","trial_index":83,"time_elapsed":3707062,"internal_node_id":"0.0-5.0-29.0"},{"group":"hexagon_tri","fractal_assignment":["../images/blu_wht.png","../images/org_blu.png","../images/cyn_red.png","../images/gry_blk.png","../images/pnk_blu.png","../images/ylw_slt.png"],"mutagen_generator_assignment":[0,1],"goal":3,"start":5,"action_noise":0,"location_history":"[5,0,5,4,0,5,4,0,1,3]","action_history":"[1,0,0,0,0,0,0,1,0]","mutagen_history":"[1,0,0,0,0,0,0,1,0]","location_rts":"[434,556,351,491,800,451,532,699,826]","trial_type":"fractal-mutation","trial_index":84,"time_elapsed":3725877,"internal_node_id":"0.0-5.0-30.0"},{"group":"hexagon_tri","fractal_assignment":["../images/blu_wht.png","../images/org_blu.png","../images/cyn_red.png","../images/gry_blk.png","../images/pnk_blu.png","../images/ylw_slt.png"],"mutagen_generator_assignment":[0,1],"goal":0,"start":3,"action_noise":0,"location_history":"[3,4,0]","action_history":"[1,0]","mutagen_history":"[1,0]","location_rts":"[853,573]","trial_type":"fractal-mutation","trial_index":85,"time_elapsed":3733460,"internal_node_id":"0.0-5.0-31.0"},{"group":"hexagon_tri","fractal_assignment":["../images/blu_wht.png","../images/org_blu.png","../images/cyn_red.png","../images/gry_blk.png","../images/pnk_blu.png","../images/ylw_slt.png"],"mutagen_generator_assignment":[0,1],"goal":4,"start":0,"action_noise":0,"location_history":"[0,1,3,2,3,4]","action_history":"[1,0,0,1,1]","mutagen_history":"[1,0,0,1,1]","location_rts":"[921,631,583,474,774]","trial_type":"fractal-mutation","trial_index":86,"time_elapsed":3746236,"internal_node_id":"0.0-5.0-32.0"},{"group":"hexagon_tri","fractal_assignment":["../images/blu_wht.png","../images/org_blu.png","../images/cyn_red.png","../images/gry_blk.png","../images/pnk_blu.png","../images/ylw_slt.png"],"mutagen_generator_assignment":[0,1],"goal":1,"start":4,"action_noise":0,"location_history":"[4,2,1]","action_history":"[1,0]","mutagen_history":"[1,0]","location_rts":"[513,1119]","trial_type":"fractal-mutation","trial_index":87,"time_elapsed":3754032,"internal_node_id":"0.0-5.0-33.0"},{"group":"hexagon_tri","fractal_assignment":["../images/blu_wht.png","../images/org_blu.png","../images/cyn_red.png","../images/gry_blk.png","../images/pnk_blu.png","../images/ylw_slt.png"],"mutagen_generator_assignment":[0,1],"goal":2,"start":1,"action_noise":0,"location_history":"[1,5,0,5,4,2]","action_history":"[1,1,0,0,1]","mutagen_history":"[1,1,0,0,1]","location_rts":"[1225,1566,468,564,506]","trial_type":"fractal-mutation","trial_index":88,"time_elapsed":3767770,"internal_node_id":"0.0-5.0-34.0"},{"group":"hexagon_tri","fractal_assignment":["../images/blu_wht.png","../images/org_blu.png","../images/cyn_red.png","../images/gry_blk.png","../images/pnk_blu.png","../images/ylw_slt.png"],"mutagen_generator_assignment":[0,1],"goal":0,"start":2,"action_noise":0,"location_history":"[2,3,4,0]","action_history":"[1,1,0]","mutagen_history":"[1,1,0]","location_rts":"[463,1080,536]","trial_type":"fractal-mutation","trial_index":89,"time_elapsed":3777082,"internal_node_id":"0.0-5.0-35.0"},{"group":"hexagon_tri","fractal_assignment":["../images/blu_wht.png","../images/org_blu.png","../images/cyn_red.png","../images/gry_blk.png","../images/pnk_blu.png","../images/ylw_slt.png"],"mutagen_generator_assignment":[0,1],"goal":5,"start":0,"action_noise":0,"location_history":"[0,1,3,2,3,4,2,3,2,3,4,2,3,4,0,5]","action_history":"[1,0,0,1,1,1,1,0,1,1,1,1,1,0,0]","mutagen_history":"[1,0,0,1,1,1,1,0,1,1,1,1,1,0,0]","location_rts":"[530,1270,534,546,618,827,430,663,446,339,331,478,966,360,528]","trial_type":"fractal-mutation","trial_index":90,"time_elapsed":3806129,"internal_node_id":"0.0-5.0-36.0"},{"group":"hexagon_tri","fractal_assignment":["../images/blu_wht.png","../images/org_blu.png","../images/cyn_red.png","../images/gry_blk.png","../images/pnk_blu.png","../images/ylw_slt.png"],"mutagen_generator_assignment":[0,1],"goal":2,"start":5,"action_noise":0,"location_history":"[5,0,5,0,1,3,2]","action_history":"[1,0,1,1,0,0]","mutagen_history":"[1,0,1,1,0,0]","location_rts":"[582,818,537,386,1040,610]","trial_type":"fractal-mutation","trial_index":91,"time_elapsed":3820599,"internal_node_id":"0.0-5.0-37.0"},{"group":"hexagon_tri","fractal_assignment":["../images/blu_wht.png","../images/org_blu.png","../images/cyn_red.png","../images/gry_blk.png","../images/pnk_blu.png","../images/ylw_slt.png"],"mutagen_generator_assignment":[0,1],"goal":1,"start":2,"action_noise":0,"location_history":"[2,3,2,1]","action_history":"[1,0,0]","mutagen_history":"[1,0,0]","location_rts":"[392,484,859]","trial_type":"fractal-mutation","trial_index":92,"time_elapsed":3829585,"internal_node_id":"0.0-5.0-38.0"},{"group":"hexagon_tri","fractal_assignment":["../images/blu_wht.png","../images/org_blu.png","../images/cyn_red.png","../images/gry_blk.png","../images/pnk_blu.png","../images/ylw_slt.png"],"mutagen_generator_assignment":[0,1],"goal":4,"start":1,"action_noise":0,"location_history":"[1,5,0,5,4]","action_history":"[1,1,0,0]","mutagen_history":"[1,1,0,0]","location_rts":"[460,687,585,618]","trial_type":"fractal-mutation","trial_index":93,"time_elapsed":3840253,"internal_node_id":"0.0-5.0-39.0"},{"group":"hexagon_tri","fractal_assignment":["../images/blu_wht.png","../images/org_blu.png","../images/cyn_red.png","../images/gry_blk.png","../images/pnk_blu.png","../images/ylw_slt.png"],"mutagen_generator_assignment":[0,1],"goal":3,"start":4,"action_noise":0,"location_history":"[4,2,3]","action_history":"[1,1]","mutagen_history":"[1,1]","location_rts":"[563,541]","trial_type":"fractal-mutation","trial_index":94,"time_elapsed":3847524,"internal_node_id":"0.0-5.0-40.0"},{"group":"hexagon_tri","fractal_assignment":["../images/blu_wht.png","../images/org_blu.png","../images/cyn_red.png","../images/gry_blk.png","../images/pnk_blu.png","../images/ylw_slt.png"],"mutagen_generator_assignment":[0,1],"goal":5,"start":3,"action_noise":0,"location_history":"[3,4,0,5]","action_history":"[1,0,0]","mutagen_history":"[1,0,0]","location_rts":"[1194,446,539]","trial_type":"fractal-mutation","trial_index":95,"time_elapsed":3856923,"internal_node_id":"0.0-5.0-41.0"},{"group":"hexagon_tri","fractal_assignment":["../images/blu_wht.png","../images/org_blu.png","../images/cyn_red.png","../images/gry_blk.png","../images/pnk_blu.png","../images/ylw_slt.png"],"mutagen_generator_assignment":[0,1],"goal":3,"start":5,"action_noise":0,"location_history":"[5,0,5,4,2,1,3]","action_history":"[1,0,0,1,0,0]","mutagen_history":"[1,0,0,1,0,0]","location_rts":"[997,458,506,552,764,1047]","trial_type":"fractal-mutation","trial_index":96,"time_elapsed":3871747,"internal_node_id":"0.0-5.0-42.0"},{"group":"hexagon_tri","fractal_assignment":["../images/blu_wht.png","../images/org_blu.png","../images/cyn_red.png","../images/gry_blk.png","../images/pnk_blu.png","../images/ylw_slt.png"],"mutagen_generator_assignment":[0,1],"goal":0,"start":3,"action_noise":0,"location_history":"[3,4,0]","action_history":"[1,0]","mutagen_history":"[1,0]","location_rts":"[495,485]","trial_type":"fractal-mutation","trial_index":97,"time_elapsed":3878903,"internal_node_id":"0.0-5.0-43.0"},{"group":"hexagon_tri","fractal_assignment":["../images/blu_wht.png","../images/org_blu.png","../images/cyn_red.png","../images/gry_blk.png","../images/pnk_blu.png","../images/ylw_slt.png"],"mutagen_generator_assignment":[0,1],"goal":2,"start":0,"action_noise":0,"location_history":"[0,1,3,2]","action_history":"[1,0,0]","mutagen_history":"[1,0,0]","location_rts":"[555,831,621]","trial_type":"fractal-mutation","trial_index":98,"time_elapsed":3888166,"internal_node_id":"0.0-5.0-44.0"},{"group":"hexagon_tri","fractal_assignment":["../images/blu_wht.png","../images/org_blu.png","../images/cyn_red.png","../images/gry_blk.png","../images/pnk_blu.png","../images/ylw_slt.png"],"mutagen_generator_assignment":[0,1],"goal":4,"start":2,"action_noise":0,"location_history":"[2,3,4]","action_history":"[1,1]","mutagen_history":"[1,1]","location_rts":"[996,878]","trial_type":"fractal-mutation","trial_index":99,"time_elapsed":3896198,"internal_node_id":"0.0-5.0-45.0"},{"group":"hexagon_tri","fractal_assignment":["../images/blu_wht.png","../images/org_blu.png","../images/cyn_red.png","../images/gry_blk.png","../images/pnk_blu.png","../images/ylw_slt.png"],"mutagen_generator_assignment":[0,1],"goal":1,"start":4,"action_noise":0,"location_history":"[4,2,1]","action_history":"[1,0]","mutagen_history":"[1,0]","location_rts":"[866,503]","trial_type":"fractal-mutation","trial_index":100,"time_elapsed":3903726,"internal_node_id":"0.0-5.0-46.0"},{"group":"hexagon_tri","fractal_assignment":["../images/blu_wht.png","../images/org_blu.png","../images/cyn_red.png","../images/gry_blk.png","../images/pnk_blu.png","../images/ylw_slt.png"],"mutagen_generator_assignment":[0,1],"goal":4,"start":1,"action_noise":0,"location_history":"[1,5,0,1,5,0,5,0,1,5,0,5,0,1,3,4]","action_history":"[1,1,1,1,1,0,1,1,1,1,0,1,1,0,1]","mutagen_history":"[1,1,1,1,1,0,1,1,1,1,0,1,1,0,1]","location_rts":"[894,426,1050,509,518,577,561,609,575,694,448,355,419,792,565]","trial_type":"fractal-mutation","trial_index":101,"time_elapsed":3932925,"internal_node_id":"0.0-5.0-47.0"},{"group":"hexagon_tri","fractal_assignment":["../images/blu_wht.png","../images/org_blu.png","../images/cyn_red.png","../images/gry_blk.png","../images/pnk_blu.png","../images/ylw_slt.png"],"mutagen_generator_assignment":[0,1],"goal":3,"start":4,"action_noise":0,"location_history":"[4,2,1,3]","action_history":"[1,0,0]","mutagen_history":"[1,0,0]","location_rts":"[694,1044,497]","trial_type":"fractal-mutation","trial_index":102,"time_elapsed":3942417,"internal_node_id":"0.0-5.0-48.0"},{"group":"hexagon_tri","fractal_assignment":["../images/blu_wht.png","../images/org_blu.png","../images/cyn_red.png","../images/gry_blk.png","../images/pnk_blu.png","../images/ylw_slt.png"],"mutagen_generator_assignment":[0,1],"goal":5,"start":3,"action_noise":0,"location_history":"[3,2,3,4,2,1,3,4,0,5]","action_history":"[0,1,1,1,0,0,1,0,0]","mutagen_history":"[0,1,1,1,0,0,1,0,0]","location_rts":"[1318,526,1027,1250,430,546,535,493,562]","trial_type":"fractal-mutation","trial_index":103,"time_elapsed":3962789,"internal_node_id":"0.0-5.0-49.0"},{"view_history":"[{\"page_index\":0,\"viewing_time\":10665}]","rt":10666,"trial_type":"instructions","trial_index":104,"time_elapsed":3974459,"internal_node_id":"0.0-6.0"},{"rt":1786,"responses":"{\"Q0\":\"\"}","trial_type":"survey-text","trial_index":105,"time_elapsed":3977251,"internal_node_id":"0.0-7.0"}]