[{"view_history":"[{\"page_index\":0,\"viewing_time\":35898},{\"page_index\":1,\"viewing_time\":1051846},{\"page_index\":2,\"viewing_time\":34869}]","rt":1122614,"trial_type":"instructions","trial_index":0,"time_elapsed":1122614,"internal_node_id":"0.0-0.0"},{"view_history":"[{\"page_index\":0,\"viewing_time\":2896},{\"page_index\":1,\"viewing_time\":35134}]","rt":38031,"trial_type":"instructions","trial_index":1,"time_elapsed":1161646,"internal_node_id":"0.0-1.0"},{"group":"hexagon_bi","room_assignment":["blue","green","purple","yellow","grey","red"],"door_color_assignment":["black","white"],"door_generator_assignment":[0,1],"goal":4,"start":0,"action_noise":0,"location_history":"[0,1,2,3,2,1,2,1,2,1,0,5,4]","action_history":"[1,0,1,1,0,0,0,0,0,1,0,1]","door_history":"[1,0,1,1,0,0,0,0,0,1,0,1]","location_rts":"[6946,4987,2728,1156,2832,2384,734,691,505,3572,1781,866]","trial_type":"two-door-navigation","trial_index":2,"time_elapsed":1206861,"internal_node_id":"0.0-2.0-0.0"},{"group":"hexagon_bi","room_assignment":["blue","green","purple","yellow","grey","red"],"door_color_assignment":["black","white"],"door_generator_assignment":[0,1],"goal":3,"start":4,"action_noise":0,"location_history":"[4,5,4,5,0,1,2,3]","action_history":"[1,1,1,0,1,0,1]","door_history":"[1,1,1,0,1,0,1]","location_rts":"[4403,1288,686,1715,979,915,697]","trial_type":"two-door-navigation","trial_index":3,"time_elapsed":1228552,"internal_node_id":"0.0-2.0-1.0"},{"group":"hexagon_bi","room_assignment":["blue","green","purple","yellow","grey","red"],"door_color_assignment":["black","white"],"door_generator_assignment":[0,1],"goal":5,"start":3,"action_noise":0,"location_history":"[3,2,3,2,1,0,1,0,1,0,5]","action_history":"[1,1,1,0,1,1,1,1,1,0]","door_history":"[1,1,1,0,1,1,1,1,1,0]","location_rts":"[3494,721,1639,528,857,2466,34378,19067,11336,5006]","trial_type":"two-door-navigation","trial_index":4,"time_elapsed":1322064,"internal_node_id":"0.0-2.0-2.0"},{"group":"hexagon_bi","room_assignment":["blue","green","purple","yellow","grey","red"],"door_color_assignment":["black","white"],"door_generator_assignment":[0,1],"goal":2,"start":5,"action_noise":0,"location_history":"[5,4,5,4,3,2]","action_history":"[1,1,1,0,1]","door_history":"[1,1,1,0,1]","location_rts":"[7011,6495,9773,804,9303]","trial_type":"two-door-navigation","trial_index":5,"time_elapsed":1364455,"internal_node_id":"0.0-2.0-3.0"},{"group":"hexagon_bi","room_assignment":["blue","green","purple","yellow","grey","red"],"door_color_assignment":["black","white"],"door_generator_assignment":[0,1],"goal":1,"start":2,"action_noise":0,"location_history":"[2,3,4,5,0,1]","action_history":"[1,0,1,0,1]","door_history":"[1,0,1,0,1]","location_rts":"[8172,16216,23528,3176,12882]","trial_type":"two-door-navigation","trial_index":6,"time_elapsed":1437434,"internal_node_id":"0.0-2.0-4.0"},{"group":"hexagon_bi","room_assignment":["blue","green","purple","yellow","grey","red"],"door_color_assignment":["black","white"],"door_generator_assignment":[0,1],"goal":4,"start":1,"action_noise":0,"location_history":"[1,0,5,4]","action_history":"[1,0,1]","door_history":"[1,0,1]","location_rts":"[8239,19912,948]","trial_type":"two-door-navigation","trial_index":7,"time_elapsed":1473537,"internal_node_id":"0.0-2.0-5.0"},{"group":"hexagon_bi","room_assignment":["blue","green","purple","yellow","grey","red"],"door_color_assignment":["black","white"],"door_generator_assignment":[0,1],"goal":1,"start":4,"action_noise":0,"location_history":"[4,3,4,5,0,1]","action_history":"[0,0,1,0,1]","door_history":"[0,0,1,0,1]","location_rts":"[22625,1108,31086,14663,3318]","trial_type":"two-door-navigation","trial_index":8,"time_elapsed":1555346,"internal_node_id":"0.0-2.0-6.0"},{"group":"hexagon_bi","room_assignment":["blue","green","purple","yellow","grey","red"],"door_color_assignment":["black","white"],"door_generator_assignment":[0,1],"goal":5,"start":1,"action_noise":0,"location_history":"[1,2,1,0,5]","action_history":"[0,0,1,0]","door_history":"[0,0,1,0]","location_rts":"[4763,18705,15140,876]","trial_type":"two-door-navigation","trial_index":9,"time_elapsed":1602844,"internal_node_id":"0.0-2.0-7.0"},{"group":"hexagon_bi","room_assignment":["blue","green","purple","yellow","grey","red"],"door_color_assignment":["black","white"],"door_generator_assignment":[0,1],"goal":0,"start":5,"action_noise":0,"location_history":"[5,0]","action_history":"[0]","door_history":"[0]","location_rts":"[3492]","trial_type":"two-door-navigation","trial_index":10,"time_elapsed":1611337,"internal_node_id":"0.0-2.0-8.0"},{"group":"hexagon_bi","room_assignment":["blue","green","purple","yellow","grey","red"],"door_color_assignment":["black","white"],"door_generator_assignment":[0,1],"goal":2,"start":0,"action_noise":0,"location_history":"[0,1,2]","action_history":"[1,0]","door_history":"[1,0]","location_rts":"[4538,722]","trial_type":"two-door-navigation","trial_index":11,"time_elapsed":1622601,"internal_node_id":"0.0-2.0-9.0"},{"group":"hexagon_bi","room_assignment":["blue","green","purple","yellow","grey","red"],"door_color_assignment":["black","white"],"door_generator_assignment":[0,1],"goal":3,"start":2,"action_noise":0,"location_history":"[2,3]","action_history":"[1]","door_history":"[1]","location_rts":"[5172]","trial_type":"two-door-navigation","trial_index":12,"time_elapsed":1632775,"internal_node_id":"0.0-2.0-10.0"},{"group":"hexagon_bi","room_assignment":["blue","green","purple","yellow","grey","red"],"door_color_assignment":["black","white"],"door_generator_assignment":[0,1],"goal":0,"start":3,"action_noise":0,"location_history":"[3,2,1,0]","action_history":"[1,0,1]","door_history":"[1,0,1]","location_rts":"[22333,1109,537]","trial_type":"two-door-navigation","trial_index":13,"time_elapsed":1663756,"internal_node_id":"0.0-2.0-11.0"},{"group":"hexagon_bi","room_assignment":["blue","green","purple","yellow","grey","red"],"door_color_assignment":["black","white"],"door_generator_assignment":[0,1],"goal":2,"start":0,"action_noise":0,"location_history":"[0,1,2]","action_history":"[1,0]","door_history":"[1,0]","location_rts":"[6754,413]","trial_type":"two-door-navigation","trial_index":14,"time_elapsed":1676925,"internal_node_id":"0.0-2.0-12.0"},{"group":"hexagon_bi","room_assignment":["blue","green","purple","yellow","grey","red"],"door_color_assignment":["black","white"],"door_generator_assignment":[0,1],"goal":5,"start":2,"action_noise":0,"location_history":"[2,1,2,3,4,5]","action_history":"[0,0,1,0,1]","door_history":"[0,0,1,0,1]","location_rts":"[15277,2564,11449,7589,805]","trial_type":"two-door-navigation","trial_index":15,"time_elapsed":1723619,"internal_node_id":"0.0-2.0-13.0"},{"group":"hexagon_bi","room_assignment":["blue","green","purple","yellow","grey","red"],"door_color_assignment":["black","white"],"door_generator_assignment":[0,1],"goal":4,"start":5,"action_noise":0,"location_history":"[5,4]","action_history":"[1]","door_history":"[1]","location_rts":"[5188]","trial_type":"two-door-navigation","trial_index":16,"time_elapsed":1733808,"internal_node_id":"0.0-2.0-14.0"},{"group":"hexagon_bi","room_assignment":["blue","green","purple","yellow","grey","red"],"door_color_assignment":["black","white"],"door_generator_assignment":[0,1],"goal":3,"start":4,"action_noise":0,"location_history":"[4,3]","action_history":"[0]","door_history":"[0]","location_rts":"[19831]","trial_type":"two-door-navigation","trial_index":17,"time_elapsed":1758639,"internal_node_id":"0.0-2.0-15.0"},{"group":"hexagon_bi","room_assignment":["blue","green","purple","yellow","grey","red"],"door_color_assignment":["black","white"],"door_generator_assignment":[0,1],"goal":1,"start":3,"action_noise":0,"location_history":"[3,2,1]","action_history":"[1,0]","door_history":"[1,0]","location_rts":"[6828,368]","trial_type":"two-door-navigation","trial_index":18,"time_elapsed":1771845,"internal_node_id":"0.0-2.0-16.0"},{"group":"hexagon_bi","room_assignment":["blue","green","purple","yellow","grey","red"],"door_color_assignment":["black","white"],"door_generator_assignment":[0,1],"goal":5,"start":1,"action_noise":0,"location_history":"[1,0,5]","action_history":"[1,0]","door_history":"[1,0]","location_rts":"[4867,284]","trial_type":"two-door-navigation","trial_index":19,"time_elapsed":1782998,"internal_node_id":"0.0-2.0-17.0"},{"group":"hexagon_bi","room_assignment":["blue","green","purple","yellow","grey","red"],"door_color_assignment":["black","white"],"door_generator_assignment":[0,1],"goal":4,"start":5,"action_noise":0,"location_history":"[5,4]","action_history":"[1]","door_history":"[1]","location_rts":"[22025]","trial_type":"two-door-navigation","trial_index":20,"time_elapsed":1810023,"internal_node_id":"0.0-2.0-18.0"},{"group":"hexagon_bi","room_assignment":["blue","green","purple","yellow","grey","red"],"door_color_assignment":["black","white"],"door_generator_assignment":[0,1],"goal":0,"start":4,"action_noise":0,"location_history":"[4,5,0]","action_history":"[1,0]","door_history":"[1,0]","location_rts":"[12415,673]","trial_type":"two-door-navigation","trial_index":21,"time_elapsed":1829113,"internal_node_id":"0.0-2.0-19.0"},{"group":"hexagon_bi","room_assignment":["blue","green","purple","yellow","grey","red"],"door_color_assignment":["black","white"],"door_generator_assignment":[0,1],"goal":1,"start":0,"action_noise":0,"location_history":"[0,1]","action_history":"[1]","door_history":"[1]","location_rts":"[10137]","trial_type":"two-door-navigation","trial_index":22,"time_elapsed":1844257,"internal_node_id":"0.0-2.0-20.0"},{"group":"hexagon_bi","room_assignment":["blue","green","purple","yellow","grey","red"],"door_color_assignment":["black","white"],"door_generator_assignment":[0,1],"goal":3,"start":1,"action_noise":0,"location_history":"[1,2,3]","action_history":"[0,1]","door_history":"[0,1]","location_rts":"[9916,367]","trial_type":"two-door-navigation","trial_index":23,"time_elapsed":1860541,"internal_node_id":"0.0-2.0-21.0"},{"group":"hexagon_bi","room_assignment":["blue","green","purple","yellow","grey","red"],"door_color_assignment":["black","white"],"door_generator_assignment":[0,1],"goal":2,"start":3,"action_noise":0,"location_history":"[3,2]","action_history":"[1]","door_history":"[1]","location_rts":"[5716]","trial_type":"two-door-navigation","trial_index":24,"time_elapsed":1871259,"internal_node_id":"0.0-2.0-22.0"},{"group":"hexagon_bi","room_assignment":["blue","green","purple","yellow","grey","red"],"door_color_assignment":["black","white"],"door_generator_assignment":[0,1],"goal":0,"start":2,"action_noise":0,"location_history":"[2,1,2,3,4,5,0]","action_history":"[0,0,1,0,1,0]","door_history":"[0,0,1,0,1,0]","location_rts":"[13213,1150,42658,13558,404,469]","trial_type":"two-door-navigation","trial_index":25,"time_elapsed":1952717,"internal_node_id":"0.0-2.0-23.0"},{"group":"hexagon_bi","room_assignment":["blue","green","purple","yellow","grey","red"],"door_color_assignment":["black","white"],"door_generator_assignment":[0,1],"goal":3,"start":0,"action_noise":0,"location_history":"[0,5,4,3]","action_history":"[0,1,0]","door_history":"[0,1,0]","location_rts":"[14757,616,235]","trial_type":"two-door-navigation","trial_index":26,"time_elapsed":1975325,"internal_node_id":"0.0-2.0-24.0"},{"group":"hexagon_bi","room_assignment":["blue","green","purple","yellow","grey","red"],"door_color_assignment":["black","white"],"door_generator_assignment":[0,1],"goal":1,"start":3,"action_noise":0,"location_history":"[3,2,1]","action_history":"[1,0]","door_history":"[1,0]","location_rts":"[3841,374]","trial_type":"two-door-navigation","trial_index":27,"time_elapsed":1985542,"internal_node_id":"0.0-2.0-25.0"},{"group":"hexagon_bi","room_assignment":["blue","green","purple","yellow","grey","red"],"door_color_assignment":["black","white"],"door_generator_assignment":[0,1],"goal":2,"start":1,"action_noise":0,"location_history":"[1,2]","action_history":"[0]","door_history":"[0]","location_rts":"[3649]","trial_type":"two-door-navigation","trial_index":28,"time_elapsed":1994192,"internal_node_id":"0.0-2.0-26.0"},{"group":"hexagon_bi","room_assignment":["blue","green","purple","yellow","grey","red"],"door_color_assignment":["black","white"],"door_generator_assignment":[0,1],"goal":5,"start":2,"action_noise":0,"location_history":"[2,3,4,5]","action_history":"[1,0,1]","door_history":"[1,0,1]","location_rts":"[27388,2020,558]","trial_type":"two-door-navigation","trial_index":29,"time_elapsed":2031161,"internal_node_id":"0.0-2.0-27.0"},{"group":"hexagon_bi","room_assignment":["blue","green","purple","yellow","grey","red"],"door_color_assignment":["black","white"],"door_generator_assignment":[0,1],"goal":4,"start":5,"action_noise":0,"location_history":"[5,4]","action_history":"[1]","door_history":"[1]","location_rts":"[4376]","trial_type":"two-door-navigation","trial_index":30,"time_elapsed":2040541,"internal_node_id":"0.0-2.0-28.0"},{"group":"hexagon_bi","room_assignment":["blue","green","purple","yellow","grey","red"],"door_color_assignment":["black","white"],"door_generator_assignment":[0,1],"goal":5,"start":4,"action_noise":0,"location_history":"[4,5]","action_history":"[1]","door_history":"[1]","location_rts":"[3738]","trial_type":"two-door-navigation","trial_index":31,"time_elapsed":2049281,"internal_node_id":"0.0-2.0-29.0"},{"group":"hexagon_bi","room_assignment":["blue","green","purple","yellow","grey","red"],"door_color_assignment":["black","white"],"door_generator_assignment":[0,1],"goal":3,"start":5,"action_noise":0,"location_history":"[5,4,3]","action_history":"[1,0]","door_history":"[1,0]","location_rts":"[7801,326]","trial_type":"two-door-navigation","trial_index":32,"time_elapsed":2063412,"internal_node_id":"0.0-2.0-30.0"},{"group":"hexagon_bi","room_assignment":["blue","green","purple","yellow","grey","red"],"door_color_assignment":["black","white"],"door_generator_assignment":[0,1],"goal":0,"start":3,"action_noise":0,"location_history":"[3,4,5,0]","action_history":"[0,1,0]","door_history":"[0,1,0]","location_rts":"[11278,7642,704]","trial_type":"two-door-navigation","trial_index":33,"time_elapsed":2090623,"internal_node_id":"0.0-2.0-31.0"},{"group":"hexagon_bi","room_assignment":["blue","green","purple","yellow","grey","red"],"door_color_assignment":["black","white"],"door_generator_assignment":[0,1],"goal":4,"start":0,"action_noise":0,"location_history":"[0,5,4]","action_history":"[0,1]","door_history":"[0,1]","location_rts":"[9659,344]","trial_type":"two-door-navigation","trial_index":34,"time_elapsed":2106670,"internal_node_id":"0.0-2.0-32.0"},{"group":"hexagon_bi","room_assignment":["blue","green","purple","yellow","grey","red"],"door_color_assignment":["black","white"],"door_generator_assignment":[0,1],"goal":1,"start":4,"action_noise":0,"location_history":"[4,3,2,1]","action_history":"[0,1,0]","door_history":"[0,1,0]","location_rts":"[8408,462,238]","trial_type":"two-door-navigation","trial_index":35,"time_elapsed":2122781,"internal_node_id":"0.0-2.0-33.0"},{"group":"hexagon_bi","room_assignment":["blue","green","purple","yellow","grey","red"],"door_color_assignment":["black","white"],"door_generator_assignment":[0,1],"goal":2,"start":1,"action_noise":0,"location_history":"[1,2]","action_history":"[0]","door_history":"[0]","location_rts":"[4757]","trial_type":"two-door-navigation","trial_index":36,"time_elapsed":2132542,"internal_node_id":"0.0-2.0-34.0"},{"group":"hexagon_bi","room_assignment":["blue","green","purple","yellow","grey","red"],"door_color_assignment":["black","white"],"door_generator_assignment":[0,1],"goal":0,"start":2,"action_noise":0,"location_history":"[2,3,2,1,0]","action_history":"[1,1,0,1]","door_history":"[1,1,0,1]","location_rts":"[13164,8189,342,189]","trial_type":"two-door-navigation","trial_index":37,"time_elapsed":2162429,"internal_node_id":"0.0-2.0-35.0"},{"group":"hexagon_bi","room_assignment":["blue","green","purple","yellow","grey","red"],"door_color_assignment":["black","white"],"door_generator_assignment":[0,1],"goal":5,"start":0,"action_noise":0,"location_history":"[0,5]","action_history":"[0]","door_history":"[0]","location_rts":"[5464]","trial_type":"two-door-navigation","trial_index":38,"time_elapsed":2172895,"internal_node_id":"0.0-2.0-36.0"},{"group":"hexagon_bi","room_assignment":["blue","green","purple","yellow","grey","red"],"door_color_assignment":["black","white"],"door_generator_assignment":[0,1],"goal":2,"start":5,"action_noise":0,"location_history":"[5,4,3,2]","action_history":"[1,0,1]","door_history":"[1,0,1]","location_rts":"[9439,560,239]","trial_type":"two-door-navigation","trial_index":39,"time_elapsed":2190135,"internal_node_id":"0.0-2.0-37.0"},{"group":"hexagon_bi","room_assignment":["blue","green","purple","yellow","grey","red"],"door_color_assignment":["black","white"],"door_generator_assignment":[0,1],"goal":1,"start":2,"action_noise":0,"location_history":"[2,1]","action_history":"[0]","door_history":"[0]","location_rts":"[4738]","trial_type":"two-door-navigation","trial_index":40,"time_elapsed":2199874,"internal_node_id":"0.0-2.0-38.0"},{"group":"hexagon_bi","room_assignment":["blue","green","purple","yellow","grey","red"],"door_color_assignment":["black","white"],"door_generator_assignment":[0,1],"goal":4,"start":1,"action_noise":0,"location_history":"[1,0,5,4]","action_history":"[1,0,1]","door_history":"[1,0,1]","location_rts":"[17363,13061,266]","trial_type":"two-door-navigation","trial_index":41,"time_elapsed":2237564,"internal_node_id":"0.0-2.0-39.0"},{"group":"hexagon_bi","room_assignment":["blue","green","purple","yellow","grey","red"],"door_color_assignment":["black","white"],"door_generator_assignment":[0,1],"goal":3,"start":4,"action_noise":0,"location_history":"[4,3]","action_history":"[0]","door_history":"[0]","location_rts":"[6264]","trial_type":"two-door-navigation","trial_index":42,"time_elapsed":2248832,"internal_node_id":"0.0-2.0-40.0"},{"group":"hexagon_bi","room_assignment":["blue","green","purple","yellow","grey","red"],"door_color_assignment":["black","white"],"door_generator_assignment":[0,1],"goal":5,"start":3,"action_noise":0,"location_history":"[3,4,5]","action_history":"[0,1]","door_history":"[0,1]","location_rts":"[8046,439]","trial_type":"two-door-navigation","trial_index":43,"time_elapsed":2263318,"internal_node_id":"0.0-2.0-41.0"},{"group":"hexagon_bi","room_assignment":["blue","green","purple","yellow","grey","red"],"door_color_assignment":["black","white"],"door_generator_assignment":[0,1],"goal":3,"start":5,"action_noise":0,"location_history":"[5,4,3]","action_history":"[1,0]","door_history":"[1,0]","location_rts":"[9871,258]","trial_type":"two-door-navigation","trial_index":44,"time_elapsed":2279449,"internal_node_id":"0.0-2.0-42.0"},{"group":"hexagon_bi","room_assignment":["blue","green","purple","yellow","grey","red"],"door_color_assignment":["black","white"],"door_generator_assignment":[0,1],"goal":0,"start":3,"action_noise":0,"location_history":"[3,2,1,0]","action_history":"[1,0,1]","door_history":"[1,0,1]","location_rts":"[7745,608,326]","trial_type":"two-door-navigation","trial_index":45,"time_elapsed":2295130,"internal_node_id":"0.0-2.0-43.0"},{"group":"hexagon_bi","room_assignment":["blue","green","purple","yellow","grey","red"],"door_color_assignment":["black","white"],"door_generator_assignment":[0,1],"goal":2,"start":0,"action_noise":0,"location_history":"[0,1,2]","action_history":"[1,0]","door_history":"[1,0]","location_rts":"[4255,338]","trial_type":"two-door-navigation","trial_index":46,"time_elapsed":2305725,"internal_node_id":"0.0-2.0-44.0"},{"group":"hexagon_bi","room_assignment":["blue","green","purple","yellow","grey","red"],"door_color_assignment":["black","white"],"door_generator_assignment":[0,1],"goal":4,"start":2,"action_noise":0,"location_history":"[2,1,0,5,4]","action_history":"[0,1,0,1]","door_history":"[0,1,0,1]","location_rts":"[16425,5657,268,268]","trial_type":"two-door-navigation","trial_index":47,"time_elapsed":2336350,"internal_node_id":"0.0-2.0-45.0"},{"group":"hexagon_bi","room_assignment":["blue","green","purple","yellow","grey","red"],"door_color_assignment":["black","white"],"door_generator_assignment":[0,1],"goal":1,"start":4,"action_noise":0,"location_history":"[4,5,0,1]","action_history":"[1,0,1]","door_history":"[1,0,1]","location_rts":"[14957,11443,11138]","trial_type":"two-door-navigation","trial_index":48,"time_elapsed":2380892,"internal_node_id":"0.0-2.0-46.0"},{"group":"hexagon_bi","room_assignment":["blue","green","purple","yellow","grey","red"],"door_color_assignment":["black","white"],"door_generator_assignment":[0,1],"goal":4,"start":1,"action_noise":0,"location_history":"[1,0,5,4]","action_history":"[1,0,1]","door_history":"[1,0,1]","location_rts":"[14695,7486,277]","trial_type":"two-door-navigation","trial_index":49,"time_elapsed":2410357,"internal_node_id":"0.0-2.0-47.0"},{"group":"hexagon_bi","room_assignment":["blue","green","purple","yellow","grey","red"],"door_color_assignment":["black","white"],"door_generator_assignment":[0,1],"goal":3,"start":4,"action_noise":0,"location_history":"[4,3]","action_history":"[0]","door_history":"[0]","location_rts":"[2833]","trial_type":"two-door-navigation","trial_index":50,"time_elapsed":2418192,"internal_node_id":"0.0-2.0-48.0"},{"group":"hexagon_bi","room_assignment":["blue","green","purple","yellow","grey","red"],"door_color_assignment":["black","white"],"door_generator_assignment":[0,1],"goal":5,"start":3,"action_noise":0,"location_history":"[3,4,5]","action_history":"[0,1]","door_history":"[0,1]","location_rts":"[3455,518]","trial_type":"two-door-navigation","trial_index":51,"time_elapsed":2428167,"internal_node_id":"0.0-2.0-49.0"},{"view_history":"[{\"page_index\":0,\"viewing_time\":4101}]","rt":4101,"trial_type":"instructions","trial_index":52,"time_elapsed":2433269,"internal_node_id":"0.0-3.0"},{"view_history":"[{\"page_index\":0,\"viewing_time\":5055},{\"page_index\":1,\"viewing_time\":52408}]","rt":57463,"trial_type":"instructions","trial_index":53,"time_elapsed":2491733,"internal_node_id":"0.0-4.0"},{"group":"hexagon_tri","fractal_assignment":["../images/blu_wht.png","../images/pnk_blu.png","../images/cyn_red.png","../images/ylw_slt.png","../images/org_blu.png","../images/gry_blk.png"],"mutagen_generator_assignment":[0,1],"goal":4,"start":0,"action_noise":0,"location_history":"[0,5,4]","action_history":"[0,0]","mutagen_history":"[0,0]","location_rts":"[13078,4563]","trial_type":"fractal-mutation","trial_index":54,"time_elapsed":2515388,"internal_node_id":"0.0-5.0-0.0"},{"group":"hexagon_tri","fractal_assignment":["../images/blu_wht.png","../images/pnk_blu.png","../images/cyn_red.png","../images/ylw_slt.png","../images/org_blu.png","../images/gry_blk.png"],"mutagen_generator_assignment":[0,1],"goal":3,"start":4,"action_noise":0,"location_history":"[4,2,3]","action_history":"[1,1]","mutagen_history":"[1,1]","location_rts":"[1973,1241]","trial_type":"fractal-mutation","trial_index":55,"time_elapsed":2524649,"internal_node_id":"0.0-5.0-1.0"},{"group":"hexagon_tri","fractal_assignment":["../images/blu_wht.png","../images/pnk_blu.png","../images/cyn_red.png","../images/ylw_slt.png","../images/org_blu.png","../images/gry_blk.png"],"mutagen_generator_assignment":[0,1],"goal":5,"start":3,"action_noise":0,"location_history":"[3,2,3,2,3,4,2,3,4,0,5]","action_history":"[0,1,0,1,1,1,1,1,0,0]","mutagen_history":"[0,1,0,1,1,1,1,1,0,0]","location_rts":"[1943,691,997,873,1049,662,551,630,381,1512]","trial_type":"fractal-mutation","trial_index":56,"time_elapsed":2548032,"internal_node_id":"0.0-5.0-2.0"},{"group":"hexagon_tri","fractal_assignment":["../images/blu_wht.png","../images/pnk_blu.png","../images/cyn_red.png","../images/ylw_slt.png","../images/org_blu.png","../images/gry_blk.png"],"mutagen_generator_assignment":[0,1],"goal":2,"start":5,"action_noise":0,"location_history":"[5,0,1,5,0,5,4,0,5,4,2]","action_history":"[1,1,1,1,0,0,0,0,0,1]","mutagen_history":"[1,1,1,1,0,0,0,0,0,1]","location_rts":"[1509,622,682,629,552,536,516,601,2264,742]","trial_type":"fractal-mutation","trial_index":57,"time_elapsed":2570757,"internal_node_id":"0.0-5.0-3.0"},{"group":"hexagon_tri","fractal_assignment":["../images/blu_wht.png","../images/pnk_blu.png","../images/cyn_red.png","../images/ylw_slt.png","../images/org_blu.png","../images/gry_blk.png"],"mutagen_generator_assignment":[0,1],"goal":1,"start":2,"action_noise":0,"location_history":"[2,1]","action_history":"[0]","mutagen_history":"[0]","location_rts":"[71394]","trial_type":"fractal-mutation","trial_index":58,"time_elapsed":2648047,"internal_node_id":"0.0-5.0-4.0"},{"group":"hexagon_tri","fractal_assignment":["../images/blu_wht.png","../images/pnk_blu.png","../images/cyn_red.png","../images/ylw_slt.png","../images/org_blu.png","../images/gry_blk.png"],"mutagen_generator_assignment":[0,1],"goal":4,"start":1,"action_noise":0,"location_history":"[1,5,0,5,0,5,0,1,3,2,1,3,4]","action_history":"[1,1,0,1,0,1,1,0,0,0,0,1]","mutagen_history":"[1,1,0,1,0,1,1,0,0,0,0,1]","location_rts":"[1338,433,696,631,453,948,540,743,493,673,1592,319]","trial_type":"fractal-mutation","trial_index":59,"time_elapsed":2672960,"internal_node_id":"0.0-5.0-5.0"},{"group":"hexagon_tri","fractal_assignment":["../images/blu_wht.png","../images/pnk_blu.png","../images/cyn_red.png","../images/ylw_slt.png","../images/org_blu.png","../images/gry_blk.png"],"mutagen_generator_assignment":[0,1],"goal":1,"start":4,"action_noise":0,"location_history":"[4,2,3,4,2,1]","action_history":"[1,1,1,1,0]","mutagen_history":"[1,1,1,1,0]","location_rts":"[1346,592,479,596,1478]","trial_type":"fractal-mutation","trial_index":60,"time_elapsed":2686469,"internal_node_id":"0.0-5.0-6.0"},{"group":"hexagon_tri","fractal_assignment":["../images/blu_wht.png","../images/pnk_blu.png","../images/cyn_red.png","../images/ylw_slt.png","../images/org_blu.png","../images/gry_blk.png"],"mutagen_generator_assignment":[0,1],"goal":5,"start":1,"action_noise":0,"location_history":"[1,5]","action_history":"[1]","mutagen_history":"[1]","location_rts":"[1454]","trial_type":"fractal-mutation","trial_index":61,"time_elapsed":2692923,"internal_node_id":"0.0-5.0-7.0"},{"group":"hexagon_tri","fractal_assignment":["../images/blu_wht.png","../images/pnk_blu.png","../images/cyn_red.png","../images/ylw_slt.png","../images/org_blu.png","../images/gry_blk.png"],"mutagen_generator_assignment":[0,1],"goal":0,"start":5,"action_noise":0,"location_history":"[5,4,0]","action_history":"[0,0]","mutagen_history":"[0,0]","location_rts":"[1246,1165]","trial_type":"fractal-mutation","trial_index":62,"time_elapsed":2701341,"internal_node_id":"0.0-5.0-8.0"},{"group":"hexagon_tri","fractal_assignment":["../images/blu_wht.png","../images/pnk_blu.png","../images/cyn_red.png","../images/ylw_slt.png","../images/org_blu.png","../images/gry_blk.png"],"mutagen_generator_assignment":[0,1],"goal":2,"start":0,"action_noise":0,"location_history":"[0,1,3,4,2]","action_history":"[1,0,1,1]","mutagen_history":"[1,0,1,1]","location_rts":"[1452,903,384,764]","trial_type":"fractal-mutation","trial_index":63,"time_elapsed":2712882,"internal_node_id":"0.0-5.0-9.0"},{"group":"hexagon_tri","fractal_assignment":["../images/blu_wht.png","../images/pnk_blu.png","../images/cyn_red.png","../images/ylw_slt.png","../images/org_blu.png","../images/gry_blk.png"],"mutagen_generator_assignment":[0,1],"goal":3,"start":2,"action_noise":0,"location_history":"[2,1,3]","action_history":"[0,0]","mutagen_history":"[0,0]","location_rts":"[1345,486]","trial_type":"fractal-mutation","trial_index":64,"time_elapsed":2720719,"internal_node_id":"0.0-5.0-10.0"},{"group":"hexagon_tri","fractal_assignment":["../images/blu_wht.png","../images/pnk_blu.png","../images/cyn_red.png","../images/ylw_slt.png","../images/org_blu.png","../images/gry_blk.png"],"mutagen_generator_assignment":[0,1],"goal":0,"start":3,"action_noise":0,"location_history":"[3,4,2,3,2,3,4,0]","action_history":"[1,1,1,0,1,1,0]","mutagen_history":"[1,1,1,0,1,1,0]","location_rts":"[1444,561,572,1175,383,980,1138]","trial_type":"fractal-mutation","trial_index":65,"time_elapsed":2738016,"internal_node_id":"0.0-5.0-11.0"},{"group":"hexagon_tri","fractal_assignment":["../images/blu_wht.png","../images/pnk_blu.png","../images/cyn_red.png","../images/ylw_slt.png","../images/org_blu.png","../images/gry_blk.png"],"mutagen_generator_assignment":[0,1],"goal":2,"start":0,"action_noise":0,"location_history":"[0,1,5,0,5,0,5,0,1,3,2]","action_history":"[1,1,1,0,1,0,1,1,0,0]","mutagen_history":"[1,1,1,0,1,0,1,1,0,0]","location_rts":"[1300,715,563,587,422,678,399,720,2600,791]","trial_type":"fractal-mutation","trial_index":66,"time_elapsed":2760911,"internal_node_id":"0.0-5.0-12.0"},{"group":"hexagon_tri","fractal_assignment":["../images/blu_wht.png","../images/pnk_blu.png","../images/cyn_red.png","../images/ylw_slt.png","../images/org_blu.png","../images/gry_blk.png"],"mutagen_generator_assignment":[0,1],"goal":5,"start":2,"action_noise":0,"location_history":"[2,1,5]","action_history":"[0,1]","mutagen_history":"[0,1]","location_rts":"[5188,680]","trial_type":"fractal-mutation","trial_index":67,"time_elapsed":2772787,"internal_node_id":"0.0-5.0-13.0"},{"group":"hexagon_tri","fractal_assignment":["../images/blu_wht.png","../images/pnk_blu.png","../images/cyn_red.png","../images/ylw_slt.png","../images/org_blu.png","../images/gry_blk.png"],"mutagen_generator_assignment":[0,1],"goal":4,"start":5,"action_noise":0,"location_history":"[5,0,1,3,2,3,2,3,4]","action_history":"[1,1,0,0,1,0,1,1]","mutagen_history":"[1,1,0,0,1,0,1,1]","location_rts":"[870,750,481,430,742,703,426,764]","trial_type":"fractal-mutation","trial_index":68,"time_elapsed":2789997,"internal_node_id":"0.0-5.0-14.0"},{"group":"hexagon_tri","fractal_assignment":["../images/blu_wht.png","../images/pnk_blu.png","../images/cyn_red.png","../images/ylw_slt.png","../images/org_blu.png","../images/gry_blk.png"],"mutagen_generator_assignment":[0,1],"goal":3,"start":4,"action_noise":0,"location_history":"[4,2,1,3]","action_history":"[1,0,0]","mutagen_history":"[1,0,0]","location_rts":"[867,1287,1214]","trial_type":"fractal-mutation","trial_index":69,"time_elapsed":2800381,"internal_node_id":"0.0-5.0-15.0"},{"group":"hexagon_tri","fractal_assignment":["../images/blu_wht.png","../images/pnk_blu.png","../images/cyn_red.png","../images/ylw_slt.png","../images/org_blu.png","../images/gry_blk.png"],"mutagen_generator_assignment":[0,1],"goal":1,"start":3,"action_noise":0,"location_history":"[3,4,2,1]","action_history":"[1,1,0]","mutagen_history":"[1,1,0]","location_rts":"[585,634,915]","trial_type":"fractal-mutation","trial_index":70,"time_elapsed":2809552,"internal_node_id":"0.0-5.0-16.0"},{"group":"hexagon_tri","fractal_assignment":["../images/blu_wht.png","../images/pnk_blu.png","../images/cyn_red.png","../images/ylw_slt.png","../images/org_blu.png","../images/gry_blk.png"],"mutagen_generator_assignment":[0,1],"goal":5,"start":1,"action_noise":0,"location_history":"[1,5]","action_history":"[1]","mutagen_history":"[1]","location_rts":"[896]","trial_type":"fractal-mutation","trial_index":71,"time_elapsed":2815458,"internal_node_id":"0.0-5.0-17.0"},{"group":"hexagon_tri","fractal_assignment":["../images/blu_wht.png","../images/pnk_blu.png","../images/cyn_red.png","../images/ylw_slt.png","../images/org_blu.png","../images/gry_blk.png"],"mutagen_generator_assignment":[0,1],"goal":4,"start":5,"action_noise":0,"location_history":"[5,4]","action_history":"[0]","mutagen_history":"[0]","location_rts":"[1076]","trial_type":"fractal-mutation","trial_index":72,"time_elapsed":2821536,"internal_node_id":"0.0-5.0-18.0"},{"group":"hexagon_tri","fractal_assignment":["../images/blu_wht.png","../images/pnk_blu.png","../images/cyn_red.png","../images/ylw_slt.png","../images/org_blu.png","../images/gry_blk.png"],"mutagen_generator_assignment":[0,1],"goal":0,"start":4,"action_noise":0,"location_history":"[4,2,1,5,4,2,3,2,3,2,1,5,0]","action_history":"[1,0,1,0,1,1,0,1,0,0,1,1]","mutagen_history":"[1,0,1,0,1,1,0,1,0,0,1,1]","location_rts":"[943,793,870,600,431,397,1029,981,539,1679,416,685]","trial_type":"fractal-mutation","trial_index":73,"time_elapsed":2846934,"internal_node_id":"0.0-5.0-19.0"},{"group":"hexagon_tri","fractal_assignment":["../images/blu_wht.png","../images/pnk_blu.png","../images/cyn_red.png","../images/ylw_slt.png","../images/org_blu.png","../images/gry_blk.png"],"mutagen_generator_assignment":[0,1],"goal":1,"start":0,"action_noise":0,"location_history":"[0,1]","action_history":"[1]","mutagen_history":"[1]","location_rts":"[1181]","trial_type":"fractal-mutation","trial_index":74,"time_elapsed":2853116,"internal_node_id":"0.0-5.0-20.0"},{"group":"hexagon_tri","fractal_assignment":["../images/blu_wht.png","../images/pnk_blu.png","../images/cyn_red.png","../images/ylw_slt.png","../images/org_blu.png","../images/gry_blk.png"],"mutagen_generator_assignment":[0,1],"goal":3,"start":1,"action_noise":0,"location_history":"[1,5,0,5,0,5,4,0,1,3]","action_history":"[1,1,0,1,0,0,0,1,0]","mutagen_history":"[1,1,0,1,0,0,0,1,0]","location_rts":"[1492,676,1021,514,903,423,458,459,388]","trial_type":"fractal-mutation","trial_index":75,"time_elapsed":2872603,"internal_node_id":"0.0-5.0-21.0"},{"group":"hexagon_tri","fractal_assignment":["../images/blu_wht.png","../images/pnk_blu.png","../images/cyn_red.png","../images/ylw_slt.png","../images/org_blu.png","../images/gry_blk.png"],"mutagen_generator_assignment":[0,1],"goal":2,"start":3,"action_noise":0,"location_history":"[3,4,2]","action_history":"[1,1]","mutagen_history":"[1,1]","location_rts":"[781,1050]","trial_type":"fractal-mutation","trial_index":76,"time_elapsed":2880446,"internal_node_id":"0.0-5.0-22.0"},{"group":"hexagon_tri","fractal_assignment":["../images/blu_wht.png","../images/pnk_blu.png","../images/cyn_red.png","../images/ylw_slt.png","../images/org_blu.png","../images/gry_blk.png"],"mutagen_generator_assignment":[0,1],"goal":0,"start":2,"action_noise":0,"location_history":"[2,1,3,2,1,5,4,0]","action_history":"[0,0,0,0,1,0,0]","mutagen_history":"[0,0,0,0,1,0,0]","location_rts":"[788,510,407,423,383,414,365]","trial_type":"fractal-mutation","trial_index":77,"time_elapsed":2894754,"internal_node_id":"0.0-5.0-23.0"},{"group":"hexagon_tri","fractal_assignment":["../images/blu_wht.png","../images/pnk_blu.png","../images/cyn_red.png","../images/ylw_slt.png","../images/org_blu.png","../images/gry_blk.png"],"mutagen_generator_assignment":[0,1],"goal":3,"start":0,"action_noise":0,"location_history":"[0,1,5,4,0,1,5,4,2,3]","action_history":"[1,1,0,0,1,1,0,1,1]","mutagen_history":"[1,1,0,0,1,1,0,1,1]","location_rts":"[585,781,398,478,393,427,340,329,357]","trial_type":"fractal-mutation","trial_index":78,"time_elapsed":2911883,"internal_node_id":"0.0-5.0-24.0"},{"group":"hexagon_tri","fractal_assignment":["../images/blu_wht.png","../images/pnk_blu.png","../images/cyn_red.png","../images/ylw_slt.png","../images/org_blu.png","../images/gry_blk.png"],"mutagen_generator_assignment":[0,1],"goal":1,"start":3,"action_noise":0,"location_history":"[3,2,3,4,2,3,2,3,4,0,1]","action_history":"[0,1,1,1,1,0,1,1,0,1]","mutagen_history":"[0,1,1,1,1,0,1,1,0,1]","location_rts":"[554,851,652,416,518,1603,439,536,433,480]","trial_type":"fractal-mutation","trial_index":79,"time_elapsed":2932406,"internal_node_id":"0.0-5.0-25.0"},{"group":"hexagon_tri","fractal_assignment":["../images/blu_wht.png","../images/pnk_blu.png","../images/cyn_red.png","../images/ylw_slt.png","../images/org_blu.png","../images/gry_blk.png"],"mutagen_generator_assignment":[0,1],"goal":2,"start":1,"action_noise":0,"location_history":"[1,5,4,0,5,4,2]","action_history":"[1,0,0,0,0,1]","mutagen_history":"[1,0,0,0,0,1]","location_rts":"[967,385,421,429,506,408]","trial_type":"fractal-mutation","trial_index":80,"time_elapsed":2945549,"internal_node_id":"0.0-5.0-26.0"},{"group":"hexagon_tri","fractal_assignment":["../images/blu_wht.png","../images/pnk_blu.png","../images/cyn_red.png","../images/ylw_slt.png","../images/org_blu.png","../images/gry_blk.png"],"mutagen_generator_assignment":[0,1],"goal":5,"start":2,"action_noise":0,"location_history":"[2,3,4,2,1,3,4,2,1,3,2,3,2,1,5]","action_history":"[1,1,1,0,0,1,1,0,0,0,1,0,0,1]","mutagen_history":"[1,1,1,0,0,1,1,0,0,0,1,0,0,1]","location_rts":"[1680,440,492,443,585,383,683,419,400,422,380,355,478,1269]","trial_type":"fractal-mutation","trial_index":81,"time_elapsed":2972026,"internal_node_id":"0.0-5.0-27.0"},{"group":"hexagon_tri","fractal_assignment":["../images/blu_wht.png","../images/pnk_blu.png","../images/cyn_red.png","../images/ylw_slt.png","../images/org_blu.png","../images/gry_blk.png"],"mutagen_generator_assignment":[0,1],"goal":4,"start":5,"action_noise":0,"location_history":"[5,4]","action_history":"[0]","mutagen_history":"[0]","location_rts":"[1277]","trial_type":"fractal-mutation","trial_index":82,"time_elapsed":2978305,"internal_node_id":"0.0-5.0-28.0"},{"group":"hexagon_tri","fractal_assignment":["../images/blu_wht.png","../images/pnk_blu.png","../images/cyn_red.png","../images/ylw_slt.png","../images/org_blu.png","../images/gry_blk.png"],"mutagen_generator_assignment":[0,1],"goal":5,"start":4,"action_noise":0,"location_history":"[4,2,1,3,2,3,4,2,3,4,0,5]","action_history":"[1,0,0,0,1,1,1,1,1,0,0]","mutagen_history":"[1,0,0,0,1,1,1,1,1,0,0]","location_rts":"[1362,887,880,494,445,411,393,853,373,355,522]","trial_type":"fractal-mutation","trial_index":83,"time_elapsed":3000330,"internal_node_id":"0.0-5.0-29.0"},{"group":"hexagon_tri","fractal_assignment":["../images/blu_wht.png","../images/pnk_blu.png","../images/cyn_red.png","../images/ylw_slt.png","../images/org_blu.png","../images/gry_blk.png"],"mutagen_generator_assignment":[0,1],"goal":3,"start":5,"action_noise":0,"location_history":"[5,0,1,5,4,0,1,3]","action_history":"[1,1,1,0,0,1,0]","mutagen_history":"[1,1,1,0,0,1,0]","location_rts":"[1597,417,371,634,510,600,391]","trial_type":"fractal-mutation","trial_index":84,"time_elapsed":3015899,"internal_node_id":"0.0-5.0-30.0"},{"group":"hexagon_tri","fractal_assignment":["../images/blu_wht.png","../images/pnk_blu.png","../images/cyn_red.png","../images/ylw_slt.png","../images/org_blu.png","../images/gry_blk.png"],"mutagen_generator_assignment":[0,1],"goal":0,"start":3,"action_noise":0,"location_history":"[3,4,2,1,5,0]","action_history":"[1,1,0,1,1]","mutagen_history":"[1,1,0,1,1]","location_rts":"[560,712,540,502,373]","trial_type":"fractal-mutation","trial_index":85,"time_elapsed":3027613,"internal_node_id":"0.0-5.0-31.0"},{"group":"hexagon_tri","fractal_assignment":["../images/blu_wht.png","../images/pnk_blu.png","../images/cyn_red.png","../images/ylw_slt.png","../images/org_blu.png","../images/gry_blk.png"],"mutagen_generator_assignment":[0,1],"goal":4,"start":0,"action_noise":0,"location_history":"[0,1,5,4]","action_history":"[1,1,0]","mutagen_history":"[1,1,0]","location_rts":"[1539,523,381]","trial_type":"fractal-mutation","trial_index":86,"time_elapsed":3037069,"internal_node_id":"0.0-5.0-32.0"},{"group":"hexagon_tri","fractal_assignment":["../images/blu_wht.png","../images/pnk_blu.png","../images/cyn_red.png","../images/ylw_slt.png","../images/org_blu.png","../images/gry_blk.png"],"mutagen_generator_assignment":[0,1],"goal":1,"start":4,"action_noise":0,"location_history":"[4,2,3,4,0,1]","action_history":"[1,1,1,0,1]","mutagen_history":"[1,1,1,0,1]","location_rts":"[1005,589,517,687,680]","trial_type":"fractal-mutation","trial_index":87,"time_elapsed":3049557,"internal_node_id":"0.0-5.0-33.0"},{"group":"hexagon_tri","fractal_assignment":["../images/blu_wht.png","../images/pnk_blu.png","../images/cyn_red.png","../images/ylw_slt.png","../images/org_blu.png","../images/gry_blk.png"],"mutagen_generator_assignment":[0,1],"goal":2,"start":1,"action_noise":0,"location_history":"[1,5,4,2]","action_history":"[1,0,1]","mutagen_history":"[1,0,1]","location_rts":"[1836,558,479]","trial_type":"fractal-mutation","trial_index":88,"time_elapsed":3059443,"internal_node_id":"0.0-5.0-34.0"},{"group":"hexagon_tri","fractal_assignment":["../images/blu_wht.png","../images/pnk_blu.png","../images/cyn_red.png","../images/ylw_slt.png","../images/org_blu.png","../images/gry_blk.png"],"mutagen_generator_assignment":[0,1],"goal":0,"start":2,"action_noise":0,"location_history":"[2,3,2,1,5,4,2,3,4,0]","action_history":"[1,0,0,1,0,1,1,1,0]","mutagen_history":"[1,0,0,1,0,1,1,1,0]","location_rts":"[831,605,566,757,405,420,381,386,454]","trial_type":"fractal-mutation","trial_index":89,"time_elapsed":3077278,"internal_node_id":"0.0-5.0-35.0"},{"group":"hexagon_tri","fractal_assignment":["../images/blu_wht.png","../images/pnk_blu.png","../images/cyn_red.png","../images/ylw_slt.png","../images/org_blu.png","../images/gry_blk.png"],"mutagen_generator_assignment":[0,1],"goal":5,"start":0,"action_noise":0,"location_history":"[0,1,5]","action_history":"[1,1]","mutagen_history":"[1,1]","location_rts":"[734,612]","trial_type":"fractal-mutation","trial_index":90,"time_elapsed":3084633,"internal_node_id":"0.0-5.0-36.0"},{"group":"hexagon_tri","fractal_assignment":["../images/blu_wht.png","../images/pnk_blu.png","../images/cyn_red.png","../images/ylw_slt.png","../images/org_blu.png","../images/gry_blk.png"],"mutagen_generator_assignment":[0,1],"goal":2,"start":5,"action_noise":0,"location_history":"[5,0,5,0,1,5,0,5,0,1,5,0,5,4,0,5,4,2]","action_history":"[1,0,1,1,1,1,0,1,1,1,1,0,0,0,0,0,1]","mutagen_history":"[1,0,1,1,1,1,0,1,1,1,1,0,0,0,0,0,1]","location_rts":"[851,499,477,412,422,400,348,353,437,390,420,394,322,317,598,597,63]","trial_type":"fractal-mutation","trial_index":91,"time_elapsed":3112991,"internal_node_id":"0.0-5.0-37.0"},{"group":"hexagon_tri","fractal_assignment":["../images/blu_wht.png","../images/pnk_blu.png","../images/cyn_red.png","../images/ylw_slt.png","../images/org_blu.png","../images/gry_blk.png"],"mutagen_generator_assignment":[0,1],"goal":1,"start":2,"action_noise":0,"location_history":"[2,3,4,0,1]","action_history":"[1,1,0,1]","mutagen_history":"[1,1,0,1]","location_rts":"[678,506,374,382]","trial_type":"fractal-mutation","trial_index":92,"time_elapsed":3122946,"internal_node_id":"0.0-5.0-38.0"},{"group":"hexagon_tri","fractal_assignment":["../images/blu_wht.png","../images/pnk_blu.png","../images/cyn_red.png","../images/ylw_slt.png","../images/org_blu.png","../images/gry_blk.png"],"mutagen_generator_assignment":[0,1],"goal":4,"start":1,"action_noise":0,"location_history":"[1,5,4]","action_history":"[1,0]","mutagen_history":"[1,0]","location_rts":"[913,498]","trial_type":"fractal-mutation","trial_index":93,"time_elapsed":3130364,"internal_node_id":"0.0-5.0-39.0"},{"group":"hexagon_tri","fractal_assignment":["../images/blu_wht.png","../images/pnk_blu.png","../images/cyn_red.png","../images/ylw_slt.png","../images/org_blu.png","../images/gry_blk.png"],"mutagen_generator_assignment":[0,1],"goal":3,"start":4,"action_noise":0,"location_history":"[4,0,5,0,1,5,0,1,5,4,2,3]","action_history":"[0,0,1,1,1,1,1,1,0,1,1]","mutagen_history":"[0,0,1,1,1,1,1,1,0,1,1]","location_rts":"[1434,716,1307,904,673,670,758,411,792,967,744]","trial_type":"fractal-mutation","trial_index":94,"time_elapsed":3154789,"internal_node_id":"0.0-5.0-40.0"},{"group":"hexagon_tri","fractal_assignment":["../images/blu_wht.png","../images/pnk_blu.png","../images/cyn_red.png","../images/ylw_slt.png","../images/org_blu.png","../images/gry_blk.png"],"mutagen_generator_assignment":[0,1],"goal":5,"start":3,"action_noise":0,"location_history":"[3,4,0,1,5]","action_history":"[1,0,1,1]","mutagen_history":"[1,0,1,1]","location_rts":"[20691,1521,719,971]","trial_type":"fractal-mutation","trial_index":95,"time_elapsed":3186710,"internal_node_id":"0.0-5.0-41.0"},{"group":"hexagon_tri","fractal_assignment":["../images/blu_wht.png","../images/pnk_blu.png","../images/cyn_red.png","../images/ylw_slt.png","../images/org_blu.png","../images/gry_blk.png"],"mutagen_generator_assignment":[0,1],"goal":3,"start":5,"action_noise":0,"location_history":"[5,0,5,4,0,5,0,5,4,0,5,4,2,3]","action_history":"[1,0,0,0,0,1,0,0,0,0,0,1,1]","mutagen_history":"[1,0,0,0,0,1,0,0,0,0,0,1,1]","location_rts":"[1856,713,511,566,462,412,489,472,1901,415,663,141,1764]","trial_type":"fractal-mutation","trial_index":96,"time_elapsed":3214115,"internal_node_id":"0.0-5.0-42.0"},{"group":"hexagon_tri","fractal_assignment":["../images/blu_wht.png","../images/pnk_blu.png","../images/cyn_red.png","../images/ylw_slt.png","../images/org_blu.png","../images/gry_blk.png"],"mutagen_generator_assignment":[0,1],"goal":0,"start":3,"action_noise":0,"location_history":"[3,4,2,3,2,1,3,2,3,4,0]","action_history":"[1,1,1,0,0,0,0,1,1,0]","mutagen_history":"[1,1,1,0,0,0,0,1,1,0]","location_rts":"[2200,1539,535,2090,1086,3062,1293,360,1059,374]","trial_type":"fractal-mutation","trial_index":97,"time_elapsed":3241747,"internal_node_id":"0.0-5.0-43.0"},{"group":"hexagon_tri","fractal_assignment":["../images/blu_wht.png","../images/pnk_blu.png","../images/cyn_red.png","../images/ylw_slt.png","../images/org_blu.png","../images/gry_blk.png"],"mutagen_generator_assignment":[0,1],"goal":2,"start":0,"action_noise":0,"location_history":"[0,1,3,4,2]","action_history":"[1,0,1,1]","mutagen_history":"[1,0,1,1]","location_rts":"[2015,1367,1743,579]","trial_type":"fractal-mutation","trial_index":98,"time_elapsed":3255472,"internal_node_id":"0.0-5.0-44.0"},{"group":"hexagon_tri","fractal_assignment":["../images/blu_wht.png","../images/pnk_blu.png","../images/cyn_red.png","../images/ylw_slt.png","../images/org_blu.png","../images/gry_blk.png"],"mutagen_generator_assignment":[0,1],"goal":4,"start":2,"action_noise":0,"location_history":"[2,3,4]","action_history":"[1,1]","mutagen_history":"[1,1]","location_rts":"[1363,770]","trial_type":"fractal-mutation","trial_index":99,"time_elapsed":3263631,"internal_node_id":"0.0-5.0-45.0"},{"group":"hexagon_tri","fractal_assignment":["../images/blu_wht.png","../images/pnk_blu.png","../images/cyn_red.png","../images/ylw_slt.png","../images/org_blu.png","../images/gry_blk.png"],"mutagen_generator_assignment":[0,1],"goal":1,"start":4,"action_noise":0,"location_history":"[4,2,1]","action_history":"[1,0]","mutagen_history":"[1,0]","location_rts":"[3053,963]","trial_type":"fractal-mutation","trial_index":100,"time_elapsed":3273656,"internal_node_id":"0.0-5.0-46.0"},{"group":"hexagon_tri","fractal_assignment":["../images/blu_wht.png","../images/pnk_blu.png","../images/cyn_red.png","../images/ylw_slt.png","../images/org_blu.png","../images/gry_blk.png"],"mutagen_generator_assignment":[0,1],"goal":4,"start":1,"action_noise":0,"location_history":"[1,5,4]","action_history":"[1,0]","mutagen_history":"[1,0]","location_rts":"[1427,592]","trial_type":"fractal-mutation","trial_index":101,"time_elapsed":3281678,"internal_node_id":"0.0-5.0-47.0"},{"group":"hexagon_tri","fractal_assignment":["../images/blu_wht.png","../images/pnk_blu.png","../images/cyn_red.png","../images/ylw_slt.png","../images/org_blu.png","../images/gry_blk.png"],"mutagen_generator_assignment":[0,1],"goal":3,"start":4,"action_noise":0,"location_history":"[4,0,5,4,0,1,3]","action_history":"[0,0,0,0,1,0]","mutagen_history":"[0,0,0,0,1,0]","location_rts":"[2662,532,668,2142,422,816]","trial_type":"fractal-mutation","trial_index":102,"time_elapsed":3298943,"internal_node_id":"0.0-5.0-48.0"},{"group":"hexagon_tri","fractal_assignment":["../images/blu_wht.png","../images/pnk_blu.png","../images/cyn_red.png","../images/ylw_slt.png","../images/org_blu.png","../images/gry_blk.png"],"mutagen_generator_assignment":[0,1],"goal":5,"start":3,"action_noise":0,"location_history":"[3,2,3,4,0,1,5]","action_history":"[0,1,1,0,1,1]","mutagen_history":"[0,1,1,0,1,1]","location_rts":"[3061,751,539,1101,619,463]","trial_type":"fractal-mutation","trial_index":103,"time_elapsed":3315500,"internal_node_id":"0.0-5.0-49.0"},{"view_history":"[{\"page_index\":0,\"viewing_time\":6235}]","rt":6236,"trial_type":"instructions","trial_index":104,"time_elapsed":3322736,"internal_node_id":"0.0-6.0"},{"rt":5573,"responses":"{\"Q0\":\"ty!\"}","trial_type":"survey-text","trial_index":105,"time_elapsed":3329313,"internal_node_id":"0.0-7.0"}]