[{"view_history":"[{\"page_index\":0,\"viewing_time\":4075},{\"page_index\":1,\"viewing_time\":53644},{\"page_index\":2,\"viewing_time\":15791}]","rt":73512,"trial_type":"instructions","trial_index":0,"time_elapsed":73515,"internal_node_id":"0.0-0.0"},{"view_history":"[{\"page_index\":0,\"viewing_time\":1661},{\"page_index\":1,\"viewing_time\":20081}]","rt":21744,"trial_type":"instructions","trial_index":1,"time_elapsed":96261,"internal_node_id":"0.0-1.0"},{"group":"hexagon_bi","room_assignment":["purple","grey","yellow","green","red","blue"],"door_color_assignment":["black","white"],"door_generator_assignment":[0,1],"goal":4,"start":0,"action_noise":0,"location_history":"[0,1,2,3,2,3,2,1,2,1,0,1,0,5,0,5,4]","action_history":"[1,0,1,1,1,1,0,0,0,1,1,1,0,0,0,1]","door_history":"[1,0,1,1,1,1,0,0,0,1,1,1,0,0,0,1]","location_rts":"[3134,4177,1387,801,859,575,843,691,873,1735,1219,1460,1031,1055,2677,863]","trial_type":"two-door-navigation","trial_index":2,"time_elapsed":140225,"internal_node_id":"0.0-2.0-0.0"},{"group":"hexagon_bi","room_assignment":["purple","grey","yellow","green","red","blue"],"door_color_assignment":["black","white"],"door_generator_assignment":[0,1],"goal":3,"start":4,"action_noise":0,"location_history":"[4,5,4,3]","action_history":"[1,1,0]","door_history":"[1,1,0]","location_rts":"[2309,686,736]","trial_type":"two-door-navigation","trial_index":3,"time_elapsed":151062,"internal_node_id":"0.0-2.0-1.0"},{"group":"hexagon_bi","room_assignment":["purple","grey","yellow","green","red","blue"],"door_color_assignment":["black","white"],"door_generator_assignment":[0,1],"goal":5,"start":3,"action_noise":0,"location_history":"[3,4,3,2,3,4,5]","action_history":"[0,0,1,1,0,1]","door_history":"[0,0,1,1,0,1]","location_rts":"[2276,1508,941,506,1107,365]","trial_type":"two-door-navigation","trial_index":4,"time_elapsed":167959,"internal_node_id":"0.0-2.0-2.0"},{"group":"hexagon_bi","room_assignment":["purple","grey","yellow","green","red","blue"],"door_color_assignment":["black","white"],"door_generator_assignment":[0,1],"goal":2,"start":5,"action_noise":0,"location_history":"[5,4,5,0,5,4,5,4,3,4,3,2]","action_history":"[1,1,0,0,1,1,1,0,0,0,1]","door_history":"[1,1,0,0,1,1,1,0,0,0,1]","location_rts":"[1564,1033,643,372,818,568,601,342,627,611,604]","trial_type":"two-door-navigation","trial_index":5,"time_elapsed":191119,"internal_node_id":"0.0-2.0-3.0"},{"group":"hexagon_bi","room_assignment":["purple","grey","yellow","green","red","blue"],"door_color_assignment":["black","white"],"door_generator_assignment":[0,1],"goal":1,"start":2,"action_noise":0,"location_history":"[2,1]","action_history":"[0]","door_history":"[0]","location_rts":"[3863]","trial_type":"two-door-navigation","trial_index":6,"time_elapsed":200140,"internal_node_id":"0.0-2.0-4.0"},{"group":"hexagon_bi","room_assignment":["purple","grey","yellow","green","red","blue"],"door_color_assignment":["black","white"],"door_generator_assignment":[0,1],"goal":4,"start":1,"action_noise":0,"location_history":"[1,0,5,0,5,4]","action_history":"[1,0,0,0,1]","door_history":"[1,0,0,0,1]","location_rts":"[2190,1307,1200,1602,526]","trial_type":"two-door-navigation","trial_index":7,"time_elapsed":216159,"internal_node_id":"0.0-2.0-5.0"},{"group":"hexagon_bi","room_assignment":["purple","grey","yellow","green","red","blue"],"door_color_assignment":["black","white"],"door_generator_assignment":[0,1],"goal":1,"start":4,"action_noise":0,"location_history":"[4,5,0,5,0,1]","action_history":"[1,0,0,0,1]","door_history":"[1,0,0,0,1]","location_rts":"[1839,1016,439,1705,345]","trial_type":"two-door-navigation","trial_index":8,"time_elapsed":230664,"internal_node_id":"0.0-2.0-6.0"},{"group":"hexagon_bi","room_assignment":["purple","grey","yellow","green","red","blue"],"door_color_assignment":["black","white"],"door_generator_assignment":[0,1],"goal":5,"start":1,"action_noise":0,"location_history":"[1,2,3,2,3,4,3,4,5]","action_history":"[0,1,1,1,0,0,0,1]","door_history":"[0,1,1,1,0,0,0,1]","location_rts":"[3308,1130,6153,783,941,726,609,324]","trial_type":"two-door-navigation","trial_index":9,"time_elapsed":256891,"internal_node_id":"0.0-2.0-7.0"},{"group":"hexagon_bi","room_assignment":["purple","grey","yellow","green","red","blue"],"door_color_assignment":["black","white"],"door_generator_assignment":[0,1],"goal":0,"start":5,"action_noise":0,"location_history":"[5,0]","action_history":"[0]","door_history":"[0]","location_rts":"[1754]","trial_type":"two-door-navigation","trial_index":10,"time_elapsed":263735,"internal_node_id":"0.0-2.0-8.0"},{"group":"hexagon_bi","room_assignment":["purple","grey","yellow","green","red","blue"],"door_color_assignment":["black","white"],"door_generator_assignment":[0,1],"goal":2,"start":0,"action_noise":0,"location_history":"[0,1,0,5,0,1,0,5,0,5,4,5,4,5,0,5,0,1,0,1,2]","action_history":"[1,1,0,0,1,1,0,0,0,1,1,1,1,0,0,0,1,1,1,0]","door_history":"[1,1,0,0,1,1,0,0,0,1,1,1,1,0,0,0,1,1,1,0]","location_rts":"[1946,1121,808,425,1036,633,701,689,330,244,533,511,594,310,488,1776,479,952,581,289]","trial_type":"two-door-navigation","trial_index":11,"time_elapsed":302836,"internal_node_id":"0.0-2.0-9.0"},{"group":"hexagon_bi","room_assignment":["purple","grey","yellow","green","red","blue"],"door_color_assignment":["black","white"],"door_generator_assignment":[0,1],"goal":3,"start":2,"action_noise":0,"location_history":"[2,1,0,1,2,1,2,3]","action_history":"[0,1,1,0,0,0,1]","door_history":"[0,1,1,0,0,0,1]","location_rts":"[3159,1421,650,1095,658,664,304]","trial_type":"two-door-navigation","trial_index":12,"time_elapsed":322050,"internal_node_id":"0.0-2.0-10.0"},{"group":"hexagon_bi","room_assignment":["purple","grey","yellow","green","red","blue"],"door_color_assignment":["black","white"],"door_generator_assignment":[0,1],"goal":0,"start":3,"action_noise":0,"location_history":"[3,4,3,2,3,4,3,2,3,2,1,2,1,0]","action_history":"[0,0,1,1,0,0,1,1,1,0,0,0,1]","door_history":"[0,0,1,1,0,0,1,1,1,0,0,0,1]","location_rts":"[2287,1293,440,662,758,551,1575,512,682,962,560,404,271]","trial_type":"two-door-navigation","trial_index":13,"time_elapsed":350432,"internal_node_id":"0.0-2.0-11.0"},{"group":"hexagon_bi","room_assignment":["purple","grey","yellow","green","red","blue"],"door_color_assignment":["black","white"],"door_generator_assignment":[0,1],"goal":2,"start":0,"action_noise":0,"location_history":"[0,1,2]","action_history":"[1,0]","door_history":"[1,0]","location_rts":"[2503,1351]","trial_type":"two-door-navigation","trial_index":14,"time_elapsed":360351,"internal_node_id":"0.0-2.0-12.0"},{"group":"hexagon_bi","room_assignment":["purple","grey","yellow","green","red","blue"],"door_color_assignment":["black","white"],"door_generator_assignment":[0,1],"goal":5,"start":2,"action_noise":0,"location_history":"[2,1,0,1,2,1,2,3,2,3,4,3,4,5]","action_history":"[0,1,1,0,0,0,1,1,1,0,0,0,1]","door_history":"[0,1,1,0,0,0,1,1,1,0,0,0,1]","location_rts":"[1739,1119,704,524,420,752,310,1341,1180,564,545,812,327]","trial_type":"two-door-navigation","trial_index":15,"time_elapsed":388062,"internal_node_id":"0.0-2.0-13.0"},{"group":"hexagon_bi","room_assignment":["purple","grey","yellow","green","red","blue"],"door_color_assignment":["black","white"],"door_generator_assignment":[0,1],"goal":4,"start":5,"action_noise":0,"location_history":"[5,4]","action_history":"[1]","door_history":"[1]","location_rts":"[3290]","trial_type":"two-door-navigation","trial_index":16,"time_elapsed":396387,"internal_node_id":"0.0-2.0-14.0"},{"group":"hexagon_bi","room_assignment":["purple","grey","yellow","green","red","blue"],"door_color_assignment":["black","white"],"door_generator_assignment":[0,1],"goal":3,"start":4,"action_noise":0,"location_history":"[4,3]","action_history":"[0]","door_history":"[0]","location_rts":"[2260]","trial_type":"two-door-navigation","trial_index":17,"time_elapsed":403691,"internal_node_id":"0.0-2.0-15.0"},{"group":"hexagon_bi","room_assignment":["purple","grey","yellow","green","red","blue"],"door_color_assignment":["black","white"],"door_generator_assignment":[0,1],"goal":1,"start":3,"action_noise":0,"location_history":"[3,2,3,2,1]","action_history":"[1,1,1,0]","door_history":"[1,1,1,0]","location_rts":"[2176,683,1299,313]","trial_type":"two-door-navigation","trial_index":18,"time_elapsed":416317,"internal_node_id":"0.0-2.0-16.0"},{"group":"hexagon_bi","room_assignment":["purple","grey","yellow","green","red","blue"],"door_color_assignment":["black","white"],"door_generator_assignment":[0,1],"goal":5,"start":1,"action_noise":0,"location_history":"[1,0,5]","action_history":"[1,0]","door_history":"[1,0]","location_rts":"[3334,318]","trial_type":"two-door-navigation","trial_index":19,"time_elapsed":426038,"internal_node_id":"0.0-2.0-17.0"},{"group":"hexagon_bi","room_assignment":["purple","grey","yellow","green","red","blue"],"door_color_assignment":["black","white"],"door_generator_assignment":[0,1],"goal":4,"start":5,"action_noise":0,"location_history":"[5,4]","action_history":"[1]","door_history":"[1]","location_rts":"[3053]","trial_type":"two-door-navigation","trial_index":20,"time_elapsed":434140,"internal_node_id":"0.0-2.0-18.0"},{"group":"hexagon_bi","room_assignment":["purple","grey","yellow","green","red","blue"],"door_color_assignment":["black","white"],"door_generator_assignment":[0,1],"goal":0,"start":4,"action_noise":0,"location_history":"[4,5,4,3,4,3,2,1,2,1,0]","action_history":"[1,1,0,0,0,1,0,0,0,1]","door_history":"[1,1,0,0,0,1,0,0,0,1]","location_rts":"[4463,790,1083,456,1008,326,1295,1639,624,392]","trial_type":"two-door-navigation","trial_index":21,"time_elapsed":460555,"internal_node_id":"0.0-2.0-19.0"},{"group":"hexagon_bi","room_assignment":["purple","grey","yellow","green","red","blue"],"door_color_assignment":["black","white"],"door_generator_assignment":[0,1],"goal":1,"start":0,"action_noise":0,"location_history":"[0,1]","action_history":"[1]","door_history":"[1]","location_rts":"[1608]","trial_type":"two-door-navigation","trial_index":22,"time_elapsed":467215,"internal_node_id":"0.0-2.0-20.0"},{"group":"hexagon_bi","room_assignment":["purple","grey","yellow","green","red","blue"],"door_color_assignment":["black","white"],"door_generator_assignment":[0,1],"goal":3,"start":1,"action_noise":0,"location_history":"[1,2,3]","action_history":"[0,1]","door_history":"[0,1]","location_rts":"[3043,1901]","trial_type":"two-door-navigation","trial_index":23,"time_elapsed":478233,"internal_node_id":"0.0-2.0-21.0"},{"group":"hexagon_bi","room_assignment":["purple","grey","yellow","green","red","blue"],"door_color_assignment":["black","white"],"door_generator_assignment":[0,1],"goal":2,"start":3,"action_noise":0,"location_history":"[3,2]","action_history":"[1]","door_history":"[1]","location_rts":"[1525]","trial_type":"two-door-navigation","trial_index":24,"time_elapsed":484797,"internal_node_id":"0.0-2.0-22.0"},{"group":"hexagon_bi","room_assignment":["purple","grey","yellow","green","red","blue"],"door_color_assignment":["black","white"],"door_generator_assignment":[0,1],"goal":0,"start":2,"action_noise":0,"location_history":"[2,3,4,5,4,3,4,3,2,3,2,1,0]","action_history":"[1,0,1,1,0,0,0,1,1,1,0,1]","door_history":"[1,0,1,1,0,0,0,1,1,1,0,1]","location_rts":"[3152,877,990,600,395,590,1154,553,379,581,294,985]","trial_type":"two-door-navigation","trial_index":25,"time_elapsed":511706,"internal_node_id":"0.0-2.0-23.0"},{"group":"hexagon_bi","room_assignment":["purple","grey","yellow","green","red","blue"],"door_color_assignment":["black","white"],"door_generator_assignment":[0,1],"goal":3,"start":0,"action_noise":0,"location_history":"[0,1,2,1,2,3]","action_history":"[1,0,0,0,1]","door_history":"[1,0,0,0,1]","location_rts":"[7133,1695,573,1100,304]","trial_type":"two-door-navigation","trial_index":26,"time_elapsed":531680,"internal_node_id":"0.0-2.0-24.0"},{"group":"hexagon_bi","room_assignment":["purple","grey","yellow","green","red","blue"],"door_color_assignment":["black","white"],"door_generator_assignment":[0,1],"goal":1,"start":3,"action_noise":0,"location_history":"[3,4,3,2,3,4,3,2,3,4,3,4,5,4,5,0,5,0,1]","action_history":"[0,0,1,1,0,0,1,1,0,0,0,1,1,1,0,0,0,1]","door_history":"[0,0,1,1,0,0,1,1,0,0,0,1,1,1,0,0,0,1]","location_rts":"[2624,1238,513,625,488,525,355,1096,2418,734,993,336,1278,1683,815,1298,574,283]","trial_type":"two-door-navigation","trial_index":27,"time_elapsed":572251,"internal_node_id":"0.0-2.0-25.0"},{"group":"hexagon_bi","room_assignment":["purple","grey","yellow","green","red","blue"],"door_color_assignment":["black","white"],"door_generator_assignment":[0,1],"goal":2,"start":1,"action_noise":0,"location_history":"[1,0,1,2]","action_history":"[1,1,0]","door_history":"[1,1,0]","location_rts":"[1260,3388,339]","trial_type":"two-door-navigation","trial_index":28,"time_elapsed":584331,"internal_node_id":"0.0-2.0-26.0"},{"group":"hexagon_bi","room_assignment":["purple","grey","yellow","green","red","blue"],"door_color_assignment":["black","white"],"door_generator_assignment":[0,1],"goal":5,"start":2,"action_noise":0,"location_history":"[2,1,2,3,2,3,4,5]","action_history":"[0,0,1,1,1,0,1]","door_history":"[0,0,1,1,1,0,1]","location_rts":"[2355,1563,308,673,574,327,627]","trial_type":"two-door-navigation","trial_index":29,"time_elapsed":601963,"internal_node_id":"0.0-2.0-27.0"},{"group":"hexagon_bi","room_assignment":["purple","grey","yellow","green","red","blue"],"door_color_assignment":["black","white"],"door_generator_assignment":[0,1],"goal":4,"start":5,"action_noise":0,"location_history":"[5,0,5,4]","action_history":"[0,0,1]","door_history":"[0,0,1]","location_rts":"[2184,1841,341]","trial_type":"two-door-navigation","trial_index":30,"time_elapsed":613461,"internal_node_id":"0.0-2.0-28.0"},{"group":"hexagon_bi","room_assignment":["purple","grey","yellow","green","red","blue"],"door_color_assignment":["black","white"],"door_generator_assignment":[0,1],"goal":5,"start":4,"action_noise":0,"location_history":"[4,3,4,5]","action_history":"[0,0,1]","door_history":"[0,0,1]","location_rts":"[2256,999,479]","trial_type":"two-door-navigation","trial_index":31,"time_elapsed":624301,"internal_node_id":"0.0-2.0-29.0"},{"group":"hexagon_bi","room_assignment":["purple","grey","yellow","green","red","blue"],"door_color_assignment":["black","white"],"door_generator_assignment":[0,1],"goal":3,"start":5,"action_noise":0,"location_history":"[5,0,5,4,5,4,3]","action_history":"[0,0,1,1,1,0]","door_history":"[0,0,1,1,1,0]","location_rts":"[4185,1675,537,651,914,324]","trial_type":"two-door-navigation","trial_index":32,"time_elapsed":642752,"internal_node_id":"0.0-2.0-30.0"},{"group":"hexagon_bi","room_assignment":["purple","grey","yellow","green","red","blue"],"door_color_assignment":["black","white"],"door_generator_assignment":[0,1],"goal":0,"start":3,"action_noise":0,"location_history":"[3,4,3,2,1,2,1,0]","action_history":"[0,0,1,0,0,0,1]","door_history":"[0,0,1,0,0,0,1]","location_rts":"[2420,485,1390,1313,1020,884,316]","trial_type":"two-door-navigation","trial_index":33,"time_elapsed":661913,"internal_node_id":"0.0-2.0-31.0"},{"group":"hexagon_bi","room_assignment":["purple","grey","yellow","green","red","blue"],"door_color_assignment":["black","white"],"door_generator_assignment":[0,1],"goal":4,"start":0,"action_noise":0,"location_history":"[0,5,4]","action_history":"[0,1]","door_history":"[0,1]","location_rts":"[4465,1480]","trial_type":"two-door-navigation","trial_index":34,"time_elapsed":673926,"internal_node_id":"0.0-2.0-32.0"},{"group":"hexagon_bi","room_assignment":["purple","grey","yellow","green","red","blue"],"door_color_assignment":["black","white"],"door_generator_assignment":[0,1],"goal":1,"start":4,"action_noise":0,"location_history":"[4,3,2,3,4,3,2,3,2,1]","action_history":"[0,1,1,0,0,1,1,1,0]","door_history":"[0,1,1,0,0,1,1,1,0]","location_rts":"[3218,883,653,387,513,771,508,509,291]","trial_type":"two-door-navigation","trial_index":35,"time_elapsed":694994,"internal_node_id":"0.0-2.0-33.0"},{"group":"hexagon_bi","room_assignment":["purple","grey","yellow","green","red","blue"],"door_color_assignment":["black","white"],"door_generator_assignment":[0,1],"goal":2,"start":1,"action_noise":0,"location_history":"[1,0,1,2]","action_history":"[1,1,0]","door_history":"[1,1,0]","location_rts":"[1790,1077,353]","trial_type":"two-door-navigation","trial_index":36,"time_elapsed":705315,"internal_node_id":"0.0-2.0-34.0"},{"group":"hexagon_bi","room_assignment":["purple","grey","yellow","green","red","blue"],"door_color_assignment":["black","white"],"door_generator_assignment":[0,1],"goal":0,"start":2,"action_noise":0,"location_history":"[2,1,0]","action_history":"[0,1]","door_history":"[0,1]","location_rts":"[5023,1047]","trial_type":"two-door-navigation","trial_index":37,"time_elapsed":717460,"internal_node_id":"0.0-2.0-35.0"},{"group":"hexagon_bi","room_assignment":["purple","grey","yellow","green","red","blue"],"door_color_assignment":["black","white"],"door_generator_assignment":[0,1],"goal":5,"start":0,"action_noise":0,"location_history":"[0,1,2,1,2,3,4,5]","action_history":"[1,0,0,0,1,0,1]","door_history":"[1,0,0,0,1,0,1]","location_rts":"[1293,2543,1433,2210,269,1704,989]","trial_type":"two-door-navigation","trial_index":38,"time_elapsed":739125,"internal_node_id":"0.0-2.0-36.0"},{"group":"hexagon_bi","room_assignment":["purple","grey","yellow","green","red","blue"],"door_color_assignment":["black","white"],"door_generator_assignment":[0,1],"goal":2,"start":5,"action_noise":0,"location_history":"[5,0,1,0,5,0,1,0,5,0,1,0,5,0,1,2]","action_history":"[0,1,1,0,0,1,1,0,0,1,1,0,0,1,0]","door_history":"[0,1,1,0,0,1,1,0,0,1,1,0,0,1,0]","location_rts":"[3247,2458,2994,285,554,603,505,816,2003,347,666,788,639,1680,2466]","trial_type":"two-door-navigation","trial_index":39,"time_elapsed":778669,"internal_node_id":"0.0-2.0-37.0"},{"group":"hexagon_bi","room_assignment":["purple","grey","yellow","green","red","blue"],"door_color_assignment":["black","white"],"door_generator_assignment":[0,1],"goal":1,"start":2,"action_noise":0,"location_history":"[2,1]","action_history":"[0]","door_history":"[0]","location_rts":"[6160]","trial_type":"two-door-navigation","trial_index":40,"time_elapsed":789877,"internal_node_id":"0.0-2.0-38.0"},{"group":"hexagon_bi","room_assignment":["purple","grey","yellow","green","red","blue"],"door_color_assignment":["black","white"],"door_generator_assignment":[0,1],"goal":4,"start":1,"action_noise":0,"location_history":"[1,2,3,2,1,2,3,4]","action_history":"[0,1,1,0,0,1,0]","door_history":"[0,1,1,0,0,1,0]","location_rts":"[4927,1345,1472,1462,2718,1424,1248]","trial_type":"two-door-navigation","trial_index":41,"time_elapsed":815697,"internal_node_id":"0.0-2.0-39.0"},{"group":"hexagon_bi","room_assignment":["purple","grey","yellow","green","red","blue"],"door_color_assignment":["black","white"],"door_generator_assignment":[0,1],"goal":3,"start":4,"action_noise":0,"location_history":"[4,3]","action_history":"[0]","door_history":"[0]","location_rts":"[5944]","trial_type":"two-door-navigation","trial_index":42,"time_elapsed":826674,"internal_node_id":"0.0-2.0-40.0"},{"group":"hexagon_bi","room_assignment":["purple","grey","yellow","green","red","blue"],"door_color_assignment":["black","white"],"door_generator_assignment":[0,1],"goal":5,"start":3,"action_noise":0,"location_history":"[3,4,5]","action_history":"[0,1]","door_history":"[0,1]","location_rts":"[4093,983]","trial_type":"two-door-navigation","trial_index":43,"time_elapsed":837821,"internal_node_id":"0.0-2.0-41.0"},{"group":"hexagon_bi","room_assignment":["purple","grey","yellow","green","red","blue"],"door_color_assignment":["black","white"],"door_generator_assignment":[0,1],"goal":3,"start":5,"action_noise":0,"location_history":"[5,0,1,2,1,2,3]","action_history":"[0,1,0,0,0,1]","door_history":"[0,1,0,0,0,1]","location_rts":"[2643,1350,1504,1350,751,402]","trial_type":"two-door-navigation","trial_index":44,"time_elapsed":856005,"internal_node_id":"0.0-2.0-42.0"},{"group":"hexagon_bi","room_assignment":["purple","grey","yellow","green","red","blue"],"door_color_assignment":["black","white"],"door_generator_assignment":[0,1],"goal":0,"start":3,"action_noise":0,"location_history":"[3,4,3,2,3,2,1,0]","action_history":"[0,0,1,1,1,0,1]","door_history":"[0,0,1,1,1,0,1]","location_rts":"[4069,2041,1008,1683,717,334,669]","trial_type":"two-door-navigation","trial_index":45,"time_elapsed":877791,"internal_node_id":"0.0-2.0-43.0"},{"group":"hexagon_bi","room_assignment":["purple","grey","yellow","green","red","blue"],"door_color_assignment":["black","white"],"door_generator_assignment":[0,1],"goal":2,"start":0,"action_noise":0,"location_history":"[0,5,4,3,2]","action_history":"[0,1,0,1]","door_history":"[0,1,0,1]","location_rts":"[3091,2111,914,973]","trial_type":"two-door-navigation","trial_index":46,"time_elapsed":893025,"internal_node_id":"0.0-2.0-44.0"},{"group":"hexagon_bi","room_assignment":["purple","grey","yellow","green","red","blue"],"door_color_assignment":["black","white"],"door_generator_assignment":[0,1],"goal":4,"start":2,"action_noise":0,"location_history":"[2,1,0,5,4]","action_history":"[0,1,0,1]","door_history":"[0,1,0,1]","location_rts":"[3722,2333,2644,848]","trial_type":"two-door-navigation","trial_index":47,"time_elapsed":910690,"internal_node_id":"0.0-2.0-45.0"},{"group":"hexagon_bi","room_assignment":["purple","grey","yellow","green","red","blue"],"door_color_assignment":["black","white"],"door_generator_assignment":[0,1],"goal":1,"start":4,"action_noise":0,"location_history":"[4,3,4,5,0,5,0,1]","action_history":"[0,0,1,0,0,0,1]","door_history":"[0,0,1,0,0,0,1]","location_rts":"[2728,2788,3860,827,931,454,321]","trial_type":"two-door-navigation","trial_index":48,"time_elapsed":933805,"internal_node_id":"0.0-2.0-46.0"},{"group":"hexagon_bi","room_assignment":["purple","grey","yellow","green","red","blue"],"door_color_assignment":["black","white"],"door_generator_assignment":[0,1],"goal":4,"start":1,"action_noise":0,"location_history":"[1,2,1,2,3,4]","action_history":"[0,0,0,1,0]","door_history":"[0,0,0,1,0]","location_rts":"[3834,2869,1588,293,3410]","trial_type":"two-door-navigation","trial_index":49,"time_elapsed":954943,"internal_node_id":"0.0-2.0-47.0"},{"group":"hexagon_bi","room_assignment":["purple","grey","yellow","green","red","blue"],"door_color_assignment":["black","white"],"door_generator_assignment":[0,1],"goal":3,"start":4,"action_noise":0,"location_history":"[4,3]","action_history":"[0]","door_history":"[0]","location_rts":"[2378]","trial_type":"two-door-navigation","trial_index":50,"time_elapsed":962355,"internal_node_id":"0.0-2.0-48.0"},{"group":"hexagon_bi","room_assignment":["purple","grey","yellow","green","red","blue"],"door_color_assignment":["black","white"],"door_generator_assignment":[0,1],"goal":5,"start":3,"action_noise":0,"location_history":"[3,4,5]","action_history":"[0,1]","door_history":"[0,1]","location_rts":"[1879,301]","trial_type":"two-door-navigation","trial_index":51,"time_elapsed":970592,"internal_node_id":"0.0-2.0-49.0"},{"view_history":"[{\"page_index\":0,\"viewing_time\":1604}]","rt":1605,"trial_type":"instructions","trial_index":52,"time_elapsed":973198,"internal_node_id":"0.0-3.0"},{"view_history":"[{\"page_index\":0,\"viewing_time\":2137},{\"page_index\":1,\"viewing_time\":50205}]","rt":52342,"trial_type":"instructions","trial_index":53,"time_elapsed":1026543,"internal_node_id":"0.0-4.0"},{"group":"hexagon_bi","fractal_assignment":["../images/pnk_blu.png","../images/gry_blk.png","../images/cyn_red.png","../images/ylw_slt.png","../images/org_blu.png","../images/blu_wht.png"],"mutagen_generator_assignment":[0,1],"goal":4,"start":0,"action_noise":0,"location_history":"[0,5,4]","action_history":"[0,1]","mutagen_history":"[0,1]","location_rts":"[4606,2875]","trial_type":"fractal-mutation","trial_index":54,"time_elapsed":1040233,"internal_node_id":"0.0-5.0-0.0"},{"group":"hexagon_bi","fractal_assignment":["../images/pnk_blu.png","../images/gry_blk.png","../images/cyn_red.png","../images/ylw_slt.png","../images/org_blu.png","../images/blu_wht.png"],"mutagen_generator_assignment":[0,1],"goal":3,"start":4,"action_noise":0,"location_history":"[4,5,0,5,0,1,0,1,2,1,2,3]","action_history":"[1,0,0,0,1,1,1,0,0,0,1]","mutagen_history":"[1,0,0,0,1,1,1,0,0,0,1]","location_rts":"[1790,3468,1368,1765,773,2068,927,888,1218,892,470]","trial_type":"fractal-mutation","trial_index":55,"time_elapsed":1071736,"internal_node_id":"0.0-5.0-1.0"},{"group":"hexagon_bi","fractal_assignment":["../images/pnk_blu.png","../images/gry_blk.png","../images/cyn_red.png","../images/ylw_slt.png","../images/org_blu.png","../images/blu_wht.png"],"mutagen_generator_assignment":[0,1],"goal":5,"start":3,"action_noise":0,"location_history":"[3,4,3,2,3,2,1,0,1,0,5]","action_history":"[0,0,1,1,1,0,1,1,1,0]","mutagen_history":"[0,0,1,1,1,0,1,1,1,0]","location_rts":"[2009,766,802,590,873,943,1309,720,815,773]","trial_type":"fractal-mutation","trial_index":56,"time_elapsed":1096166,"internal_node_id":"0.0-5.0-2.0"},{"group":"hexagon_bi","fractal_assignment":["../images/pnk_blu.png","../images/gry_blk.png","../images/cyn_red.png","../images/ylw_slt.png","../images/org_blu.png","../images/blu_wht.png"],"mutagen_generator_assignment":[0,1],"goal":2,"start":5,"action_noise":0,"location_history":"[5,0,5,4,3,2]","action_history":"[0,0,1,0,1]","mutagen_history":"[0,0,1,0,1]","location_rts":"[2018,1339,706,690,661]","trial_type":"fractal-mutation","trial_index":57,"time_elapsed":1110936,"internal_node_id":"0.0-5.0-3.0"},{"group":"hexagon_bi","fractal_assignment":["../images/pnk_blu.png","../images/gry_blk.png","../images/cyn_red.png","../images/ylw_slt.png","../images/org_blu.png","../images/blu_wht.png"],"mutagen_generator_assignment":[0,1],"goal":1,"start":2,"action_noise":0,"location_history":"[2,1]","action_history":"[0]","mutagen_history":"[0]","location_rts":"[1545]","trial_type":"fractal-mutation","trial_index":58,"time_elapsed":1117560,"internal_node_id":"0.0-5.0-4.0"},{"group":"hexagon_bi","fractal_assignment":["../images/pnk_blu.png","../images/gry_blk.png","../images/cyn_red.png","../images/ylw_slt.png","../images/org_blu.png","../images/blu_wht.png"],"mutagen_generator_assignment":[0,1],"goal":4,"start":1,"action_noise":0,"location_history":"[1,0,5,0,1,0,1,2,1,0,5,0,1,0,5,0,5,4]","action_history":"[1,0,0,1,1,1,0,0,1,0,0,1,1,0,0,0,1]","mutagen_history":"[1,0,0,1,1,1,0,0,1,0,0,1,1,0,0,0,1]","location_rts":"[1214,637,675,881,843,392,307,746,422,428,632,399,2232,750,614,1509,313]","trial_type":"fractal-mutation","trial_index":59,"time_elapsed":1152715,"internal_node_id":"0.0-5.0-5.0"},{"group":"hexagon_bi","fractal_assignment":["../images/pnk_blu.png","../images/gry_blk.png","../images/cyn_red.png","../images/ylw_slt.png","../images/org_blu.png","../images/blu_wht.png"],"mutagen_generator_assignment":[0,1],"goal":1,"start":4,"action_noise":0,"location_history":"[4,3,4,5,4,5,0,1]","action_history":"[0,0,1,1,1,0,1]","mutagen_history":"[0,0,1,1,1,0,1]","location_rts":"[1687,1253,318,699,366,319,1116]","trial_type":"fractal-mutation","trial_index":60,"time_elapsed":1169954,"internal_node_id":"0.0-5.0-6.0"},{"group":"hexagon_bi","fractal_assignment":["../images/pnk_blu.png","../images/gry_blk.png","../images/cyn_red.png","../images/ylw_slt.png","../images/org_blu.png","../images/blu_wht.png"],"mutagen_generator_assignment":[0,1],"goal":5,"start":1,"action_noise":0,"location_history":"[1,2,3,2,1,0,1,2,1,0,5]","action_history":"[0,1,1,0,1,1,0,0,1,0]","mutagen_history":"[0,1,1,0,1,1,0,0,1,0]","location_rts":"[2032,828,585,386,898,575,1084,904,469,1065]","trial_type":"fractal-mutation","trial_index":61,"time_elapsed":1193529,"internal_node_id":"0.0-5.0-7.0"},{"group":"hexagon_bi","fractal_assignment":["../images/pnk_blu.png","../images/gry_blk.png","../images/cyn_red.png","../images/ylw_slt.png","../images/org_blu.png","../images/blu_wht.png"],"mutagen_generator_assignment":[0,1],"goal":0,"start":5,"action_noise":0,"location_history":"[5,0]","action_history":"[0]","mutagen_history":"[0]","location_rts":"[3852]","trial_type":"fractal-mutation","trial_index":62,"time_elapsed":1202450,"internal_node_id":"0.0-5.0-8.0"},{"group":"hexagon_bi","fractal_assignment":["../images/pnk_blu.png","../images/gry_blk.png","../images/cyn_red.png","../images/ylw_slt.png","../images/org_blu.png","../images/blu_wht.png"],"mutagen_generator_assignment":[0,1],"goal":2,"start":0,"action_noise":0,"location_history":"[0,1,2]","action_history":"[1,0]","mutagen_history":"[1,0]","location_rts":"[2193,875]","trial_type":"fractal-mutation","trial_index":63,"time_elapsed":1211645,"internal_node_id":"0.0-5.0-9.0"},{"group":"hexagon_bi","fractal_assignment":["../images/pnk_blu.png","../images/gry_blk.png","../images/cyn_red.png","../images/ylw_slt.png","../images/org_blu.png","../images/blu_wht.png"],"mutagen_generator_assignment":[0,1],"goal":3,"start":2,"action_noise":0,"location_history":"[2,1,0,1,2,3]","action_history":"[0,1,1,0,1]","mutagen_history":"[0,1,1,0,1]","location_rts":"[1601,982,772,306,1206]","trial_type":"fractal-mutation","trial_index":64,"time_elapsed":1225923,"internal_node_id":"0.0-5.0-10.0"},{"group":"hexagon_bi","fractal_assignment":["../images/pnk_blu.png","../images/gry_blk.png","../images/cyn_red.png","../images/ylw_slt.png","../images/org_blu.png","../images/blu_wht.png"],"mutagen_generator_assignment":[0,1],"goal":0,"start":3,"action_noise":0,"location_history":"[3,2,3,4,3,2,3,4,5,0]","action_history":"[1,1,0,0,1,1,0,1,0]","mutagen_history":"[1,1,0,0,1,1,0,1,0]","location_rts":"[1168,648,382,1085,593,622,1803,1158,423]","trial_type":"fractal-mutation","trial_index":65,"time_elapsed":1247477,"internal_node_id":"0.0-5.0-11.0"},{"group":"hexagon_bi","fractal_assignment":["../images/pnk_blu.png","../images/gry_blk.png","../images/cyn_red.png","../images/ylw_slt.png","../images/org_blu.png","../images/blu_wht.png"],"mutagen_generator_assignment":[0,1],"goal":2,"start":0,"action_noise":0,"location_history":"[0,5,0,1,2]","action_history":"[0,0,1,0]","mutagen_history":"[0,0,1,0]","location_rts":"[1109,1076,362,1074]","trial_type":"fractal-mutation","trial_index":66,"time_elapsed":1259347,"internal_node_id":"0.0-5.0-12.0"},{"group":"hexagon_bi","fractal_assignment":["../images/pnk_blu.png","../images/gry_blk.png","../images/cyn_red.png","../images/ylw_slt.png","../images/org_blu.png","../images/blu_wht.png"],"mutagen_generator_assignment":[0,1],"goal":5,"start":2,"action_noise":0,"location_history":"[2,1,0,1,2,1,0,5]","action_history":"[0,1,1,0,0,1,0]","mutagen_history":"[0,1,1,0,0,1,0]","location_rts":"[1579,4827,721,334,824,339,1475]","trial_type":"fractal-mutation","trial_index":67,"time_elapsed":1280964,"internal_node_id":"0.0-5.0-13.0"},{"group":"hexagon_bi","fractal_assignment":["../images/pnk_blu.png","../images/gry_blk.png","../images/cyn_red.png","../images/ylw_slt.png","../images/org_blu.png","../images/blu_wht.png"],"mutagen_generator_assignment":[0,1],"goal":4,"start":5,"action_noise":0,"location_history":"[5,0,1,0,5,0,1,0,5,0,1,0,5,4]","action_history":"[0,1,1,0,0,1,1,0,0,1,1,0,1]","mutagen_history":"[0,1,1,0,0,1,1,0,0,1,1,0,1]","location_rts":"[1736,1178,596,391,663,278,354,472,2469,852,856,726,1150]","trial_type":"fractal-mutation","trial_index":68,"time_elapsed":1310564,"internal_node_id":"0.0-5.0-14.0"},{"group":"hexagon_bi","fractal_assignment":["../images/pnk_blu.png","../images/gry_blk.png","../images/cyn_red.png","../images/ylw_slt.png","../images/org_blu.png","../images/blu_wht.png"],"mutagen_generator_assignment":[0,1],"goal":3,"start":4,"action_noise":0,"location_history":"[4,5,0,5,4,5,0,5,4,5,0,5,0,1,2,3]","action_history":"[1,0,0,1,1,0,0,1,1,0,0,0,1,0,1]","mutagen_history":"[1,0,0,1,1,0,0,1,1,0,0,0,1,0,1]","location_rts":"[1452,1130,907,875,1507,1370,740,694,963,406,688,918,397,2842,1460]","trial_type":"fractal-mutation","trial_index":69,"time_elapsed":1346910,"internal_node_id":"0.0-5.0-15.0"},{"group":"hexagon_bi","fractal_assignment":["../images/pnk_blu.png","../images/gry_blk.png","../images/cyn_red.png","../images/ylw_slt.png","../images/org_blu.png","../images/blu_wht.png"],"mutagen_generator_assignment":[0,1],"goal":1,"start":3,"action_noise":0,"location_history":"[3,4,3,2,1]","action_history":"[0,0,1,0]","mutagen_history":"[0,0,1,0]","location_rts":"[2107,1246,452,2377]","trial_type":"fractal-mutation","trial_index":70,"time_elapsed":1361334,"internal_node_id":"0.0-5.0-16.0"},{"group":"hexagon_bi","fractal_assignment":["../images/pnk_blu.png","../images/gry_blk.png","../images/cyn_red.png","../images/ylw_slt.png","../images/org_blu.png","../images/blu_wht.png"],"mutagen_generator_assignment":[0,1],"goal":5,"start":1,"action_noise":0,"location_history":"[1,2,3,2,1,2,3,4,3,2,1,2,3,2,1,2,3,4,3,2,3,2,1,0,1,2,3,2,3,4,3,2,3,4,3,2,3,4,3,2,3,4,3,2,1,0,1,2,1,0,1,2,3,4,3,2,3,2,1,2,3,2,1,0,5]","action_history":"[0,1,1,0,0,1,0,0,1,0,0,1,1,0,0,1,0,0,1,1,1,0,1,1,0,1,1,1,0,0,1,1,0,0,1,1,0,0,1,1,0,0,1,0,1,1,0,0,1,1,0,1,0,0,1,1,1,0,0,1,1,0,1,0]","mutagen_history":"[0,1,1,0,0,1,0,0,1,0,0,1,1,0,0,1,0,0,1,1,1,0,1,1,0,1,1,1,0,0,1,1,0,0,1,1,0,0,1,1,0,0,1,0,1,1,0,0,1,1,0,1,0,0,1,1,1,0,0,1,1,0,1,0]","location_rts":"[1660,582,503,325,715,432,1020,762,785,440,632,284,418,486,699,557,724,667,270,397,451,391,1090,880,374,366,405,613,648,1093,332,588,327,778,336,4806,1405,824,797,579,457,943,648,1164,1708,787,422,1091,590,739,877,643,866,791,346,781,700,342,699,866,698,420,444,1025]","trial_type":"fractal-mutation","trial_index":71,"time_elapsed":1481603,"internal_node_id":"0.0-5.0-17.0"},{"group":"hexagon_bi","fractal_assignment":["../images/pnk_blu.png","../images/gry_blk.png","../images/cyn_red.png","../images/ylw_slt.png","../images/org_blu.png","../images/blu_wht.png"],"mutagen_generator_assignment":[0,1],"goal":4,"start":5,"action_noise":0,"location_history":"[5,0,1,2,3,2,3,4]","action_history":"[0,1,0,1,1,1,0]","mutagen_history":"[0,1,0,1,1,1,0]","location_rts":"[1432,585,516,453,551,552,334]","trial_type":"fractal-mutation","trial_index":72,"time_elapsed":1497717,"internal_node_id":"0.0-5.0-18.0"},{"group":"hexagon_bi","fractal_assignment":["../images/pnk_blu.png","../images/gry_blk.png","../images/cyn_red.png","../images/ylw_slt.png","../images/org_blu.png","../images/blu_wht.png"],"mutagen_generator_assignment":[0,1],"goal":0,"start":4,"action_noise":0,"location_history":"[4,3,4,5,4,5,0]","action_history":"[0,0,1,1,1,0]","mutagen_history":"[0,0,1,1,1,0]","location_rts":"[1217,828,596,651,448,343]","trial_type":"fractal-mutation","trial_index":73,"time_elapsed":1512246,"internal_node_id":"0.0-5.0-19.0"},{"group":"hexagon_bi","fractal_assignment":["../images/pnk_blu.png","../images/gry_blk.png","../images/cyn_red.png","../images/ylw_slt.png","../images/org_blu.png","../images/blu_wht.png"],"mutagen_generator_assignment":[0,1],"goal":1,"start":0,"action_noise":0,"location_history":"[0,5,4,5,0,5,4,3,2,1]","action_history":"[0,1,1,0,0,1,0,1,0]","mutagen_history":"[0,1,1,0,0,1,0,1,0]","location_rts":"[3934,726,600,299,689,567,2049,1267,949]","trial_type":"fractal-mutation","trial_index":74,"time_elapsed":1536919,"internal_node_id":"0.0-5.0-20.0"},{"group":"hexagon_bi","fractal_assignment":["../images/pnk_blu.png","../images/gry_blk.png","../images/cyn_red.png","../images/ylw_slt.png","../images/org_blu.png","../images/blu_wht.png"],"mutagen_generator_assignment":[0,1],"goal":3,"start":1,"action_noise":0,"location_history":"[1,0,5,0,1,0,5,0,1,2,3]","action_history":"[1,0,0,1,1,0,0,1,0,1]","mutagen_history":"[1,0,0,1,1,0,0,1,0,1]","location_rts":"[1602,639,786,288,684,383,652,611,1090,846]","trial_type":"fractal-mutation","trial_index":75,"time_elapsed":1559208,"internal_node_id":"0.0-5.0-21.0"},{"group":"hexagon_bi","fractal_assignment":["../images/pnk_blu.png","../images/gry_blk.png","../images/cyn_red.png","../images/ylw_slt.png","../images/org_blu.png","../images/blu_wht.png"],"mutagen_generator_assignment":[0,1],"goal":2,"start":3,"action_noise":0,"location_history":"[3,2]","action_history":"[1]","mutagen_history":"[1]","location_rts":"[959]","trial_type":"fractal-mutation","trial_index":76,"time_elapsed":1565258,"internal_node_id":"0.0-5.0-22.0"},{"group":"hexagon_bi","fractal_assignment":["../images/pnk_blu.png","../images/gry_blk.png","../images/cyn_red.png","../images/ylw_slt.png","../images/org_blu.png","../images/blu_wht.png"],"mutagen_generator_assignment":[0,1],"goal":0,"start":2,"action_noise":0,"location_history":"[2,3,4,5,0]","action_history":"[1,0,1,0]","mutagen_history":"[1,0,1,0]","location_rts":"[1839,633,618,712]","trial_type":"fractal-mutation","trial_index":77,"time_elapsed":1577346,"internal_node_id":"0.0-5.0-23.0"},{"group":"hexagon_bi","fractal_assignment":["../images/pnk_blu.png","../images/gry_blk.png","../images/cyn_red.png","../images/ylw_slt.png","../images/org_blu.png","../images/blu_wht.png"],"mutagen_generator_assignment":[0,1],"goal":3,"start":0,"action_noise":0,"location_history":"[0,5,4,3]","action_history":"[0,1,0]","mutagen_history":"[0,1,0]","location_rts":"[721,484,406]","trial_type":"fractal-mutation","trial_index":78,"time_elapsed":1586207,"internal_node_id":"0.0-5.0-24.0"},{"group":"hexagon_bi","fractal_assignment":["../images/pnk_blu.png","../images/gry_blk.png","../images/cyn_red.png","../images/ylw_slt.png","../images/org_blu.png","../images/blu_wht.png"],"mutagen_generator_assignment":[0,1],"goal":1,"start":3,"action_noise":0,"location_history":"[3,2,1]","action_history":"[1,0]","mutagen_history":"[1,0]","location_rts":"[933,414]","trial_type":"fractal-mutation","trial_index":79,"time_elapsed":1593714,"internal_node_id":"0.0-5.0-25.0"},{"group":"hexagon_bi","fractal_assignment":["../images/pnk_blu.png","../images/gry_blk.png","../images/cyn_red.png","../images/ylw_slt.png","../images/org_blu.png","../images/blu_wht.png"],"mutagen_generator_assignment":[0,1],"goal":2,"start":1,"action_noise":0,"location_history":"[1,0,5,4,3,2]","action_history":"[1,0,1,0,1]","mutagen_history":"[1,0,1,0,1]","location_rts":"[784,564,442,509,527]","trial_type":"fractal-mutation","trial_index":80,"time_elapsed":1605932,"internal_node_id":"0.0-5.0-26.0"},{"group":"hexagon_bi","fractal_assignment":["../images/pnk_blu.png","../images/gry_blk.png","../images/cyn_red.png","../images/ylw_slt.png","../images/org_blu.png","../images/blu_wht.png"],"mutagen_generator_assignment":[0,1],"goal":5,"start":2,"action_noise":0,"location_history":"[2,3,4,5]","action_history":"[1,0,1]","mutagen_history":"[1,0,1]","location_rts":"[1559,432,380]","trial_type":"fractal-mutation","trial_index":81,"time_elapsed":1615543,"internal_node_id":"0.0-5.0-27.0"},{"group":"hexagon_bi","fractal_assignment":["../images/pnk_blu.png","../images/gry_blk.png","../images/cyn_red.png","../images/ylw_slt.png","../images/org_blu.png","../images/blu_wht.png"],"mutagen_generator_assignment":[0,1],"goal":4,"start":5,"action_noise":0,"location_history":"[5,0,1,2,3,4]","action_history":"[0,1,0,1,0]","mutagen_history":"[0,1,0,1,0]","location_rts":"[992,536,395,385,504]","trial_type":"fractal-mutation","trial_index":82,"time_elapsed":1627728,"internal_node_id":"0.0-5.0-28.0"},{"group":"hexagon_bi","fractal_assignment":["../images/pnk_blu.png","../images/gry_blk.png","../images/cyn_red.png","../images/ylw_slt.png","../images/org_blu.png","../images/blu_wht.png"],"mutagen_generator_assignment":[0,1],"goal":5,"start":4,"action_noise":0,"location_history":"[4,5]","action_history":"[1]","mutagen_history":"[1]","location_rts":"[486]","trial_type":"fractal-mutation","trial_index":83,"time_elapsed":1633312,"internal_node_id":"0.0-5.0-29.0"},{"group":"hexagon_bi","fractal_assignment":["../images/pnk_blu.png","../images/gry_blk.png","../images/cyn_red.png","../images/ylw_slt.png","../images/org_blu.png","../images/blu_wht.png"],"mutagen_generator_assignment":[0,1],"goal":3,"start":5,"action_noise":0,"location_history":"[5,0,1,2,3]","action_history":"[0,1,0,1]","mutagen_history":"[0,1,0,1]","location_rts":"[744,551,694,581]","trial_type":"fractal-mutation","trial_index":84,"time_elapsed":1644160,"internal_node_id":"0.0-5.0-30.0"},{"group":"hexagon_bi","fractal_assignment":["../images/pnk_blu.png","../images/gry_blk.png","../images/cyn_red.png","../images/ylw_slt.png","../images/org_blu.png","../images/blu_wht.png"],"mutagen_generator_assignment":[0,1],"goal":0,"start":3,"action_noise":0,"location_history":"[3,2,1,0]","action_history":"[1,0,1]","mutagen_history":"[1,0,1]","location_rts":"[779,603,458]","trial_type":"fractal-mutation","trial_index":85,"time_elapsed":1653247,"internal_node_id":"0.0-5.0-31.0"},{"group":"hexagon_bi","fractal_assignment":["../images/pnk_blu.png","../images/gry_blk.png","../images/cyn_red.png","../images/ylw_slt.png","../images/org_blu.png","../images/blu_wht.png"],"mutagen_generator_assignment":[0,1],"goal":4,"start":0,"action_noise":0,"location_history":"[0,5,4]","action_history":"[0,1]","mutagen_history":"[0,1]","location_rts":"[1108,494]","trial_type":"fractal-mutation","trial_index":86,"time_elapsed":1661027,"internal_node_id":"0.0-5.0-32.0"},{"group":"hexagon_bi","fractal_assignment":["../images/pnk_blu.png","../images/gry_blk.png","../images/cyn_red.png","../images/ylw_slt.png","../images/org_blu.png","../images/blu_wht.png"],"mutagen_generator_assignment":[0,1],"goal":1,"start":4,"action_noise":0,"location_history":"[4,3,2,1]","action_history":"[0,1,0]","mutagen_history":"[0,1,0]","location_rts":"[1006,462,379]","trial_type":"fractal-mutation","trial_index":87,"time_elapsed":1670128,"internal_node_id":"0.0-5.0-33.0"},{"group":"hexagon_bi","fractal_assignment":["../images/pnk_blu.png","../images/gry_blk.png","../images/cyn_red.png","../images/ylw_slt.png","../images/org_blu.png","../images/blu_wht.png"],"mutagen_generator_assignment":[0,1],"goal":2,"start":1,"action_noise":0,"location_history":"[1,0,5,0,1,2]","action_history":"[1,0,0,1,0]","mutagen_history":"[1,0,0,1,0]","location_rts":"[2186,639,1803,315,391]","trial_type":"fractal-mutation","trial_index":88,"time_elapsed":1684829,"internal_node_id":"0.0-5.0-34.0"},{"group":"hexagon_bi","fractal_assignment":["../images/pnk_blu.png","../images/gry_blk.png","../images/cyn_red.png","../images/ylw_slt.png","../images/org_blu.png","../images/blu_wht.png"],"mutagen_generator_assignment":[0,1],"goal":0,"start":2,"action_noise":0,"location_history":"[2,3,4,5,0]","action_history":"[1,0,1,0]","mutagen_history":"[1,0,1,0]","location_rts":"[933,1065,1132,564]","trial_type":"fractal-mutation","trial_index":89,"time_elapsed":1696827,"internal_node_id":"0.0-5.0-35.0"},{"group":"hexagon_bi","fractal_assignment":["../images/pnk_blu.png","../images/gry_blk.png","../images/cyn_red.png","../images/ylw_slt.png","../images/org_blu.png","../images/blu_wht.png"],"mutagen_generator_assignment":[0,1],"goal":5,"start":0,"action_noise":0,"location_history":"[0,5]","action_history":"[0]","mutagen_history":"[0]","location_rts":"[3670]","trial_type":"fractal-mutation","trial_index":90,"time_elapsed":1705559,"internal_node_id":"0.0-5.0-36.0"},{"group":"hexagon_bi","fractal_assignment":["../images/pnk_blu.png","../images/gry_blk.png","../images/cyn_red.png","../images/ylw_slt.png","../images/org_blu.png","../images/blu_wht.png"],"mutagen_generator_assignment":[0,1],"goal":2,"start":5,"action_noise":0,"location_history":"[5,0,1,2]","action_history":"[0,1,0]","mutagen_history":"[0,1,0]","location_rts":"[2444,827,635]","trial_type":"fractal-mutation","trial_index":91,"time_elapsed":1716746,"internal_node_id":"0.0-5.0-37.0"},{"group":"hexagon_bi","fractal_assignment":["../images/pnk_blu.png","../images/gry_blk.png","../images/cyn_red.png","../images/ylw_slt.png","../images/org_blu.png","../images/blu_wht.png"],"mutagen_generator_assignment":[0,1],"goal":1,"start":2,"action_noise":0,"location_history":"[2,1]","action_history":"[0]","mutagen_history":"[0]","location_rts":"[2135]","trial_type":"fractal-mutation","trial_index":92,"time_elapsed":1723963,"internal_node_id":"0.0-5.0-38.0"},{"group":"hexagon_bi","fractal_assignment":["../images/pnk_blu.png","../images/gry_blk.png","../images/cyn_red.png","../images/ylw_slt.png","../images/org_blu.png","../images/blu_wht.png"],"mutagen_generator_assignment":[0,1],"goal":4,"start":1,"action_noise":0,"location_history":"[1,0,5,4]","action_history":"[1,0,1]","mutagen_history":"[1,0,1]","location_rts":"[2767,2365,550]","trial_type":"fractal-mutation","trial_index":93,"time_elapsed":1736887,"internal_node_id":"0.0-5.0-39.0"},{"group":"hexagon_bi","fractal_assignment":["../images/pnk_blu.png","../images/gry_blk.png","../images/cyn_red.png","../images/ylw_slt.png","../images/org_blu.png","../images/blu_wht.png"],"mutagen_generator_assignment":[0,1],"goal":3,"start":4,"action_noise":0,"location_history":"[4,3]","action_history":"[0]","mutagen_history":"[0]","location_rts":"[7602]","trial_type":"fractal-mutation","trial_index":94,"time_elapsed":1749607,"internal_node_id":"0.0-5.0-40.0"},{"group":"hexagon_bi","fractal_assignment":["../images/pnk_blu.png","../images/gry_blk.png","../images/cyn_red.png","../images/ylw_slt.png","../images/org_blu.png","../images/blu_wht.png"],"mutagen_generator_assignment":[0,1],"goal":5,"start":3,"action_noise":0,"location_history":"[3,2,1,0,5]","action_history":"[1,0,1,0]","mutagen_history":"[1,0,1,0]","location_rts":"[1034,927,1208,439]","trial_type":"fractal-mutation","trial_index":95,"time_elapsed":1761547,"internal_node_id":"0.0-5.0-41.0"},{"group":"hexagon_bi","fractal_assignment":["../images/pnk_blu.png","../images/gry_blk.png","../images/cyn_red.png","../images/ylw_slt.png","../images/org_blu.png","../images/blu_wht.png"],"mutagen_generator_assignment":[0,1],"goal":3,"start":5,"action_noise":0,"location_history":"[5,0,1,2,3]","action_history":"[0,1,0,1]","mutagen_history":"[0,1,0,1]","location_rts":"[856,547,411,317]","trial_type":"fractal-mutation","trial_index":96,"time_elapsed":1772041,"internal_node_id":"0.0-5.0-42.0"},{"group":"hexagon_bi","fractal_assignment":["../images/pnk_blu.png","../images/gry_blk.png","../images/cyn_red.png","../images/ylw_slt.png","../images/org_blu.png","../images/blu_wht.png"],"mutagen_generator_assignment":[0,1],"goal":0,"start":3,"action_noise":0,"location_history":"[3,2,1,0]","action_history":"[1,0,1]","mutagen_history":"[1,0,1]","location_rts":"[4963,1875,2346]","trial_type":"fractal-mutation","trial_index":97,"time_elapsed":1788547,"internal_node_id":"0.0-5.0-43.0"},{"group":"hexagon_bi","fractal_assignment":["../images/pnk_blu.png","../images/gry_blk.png","../images/cyn_red.png","../images/ylw_slt.png","../images/org_blu.png","../images/blu_wht.png"],"mutagen_generator_assignment":[0,1],"goal":2,"start":0,"action_noise":0,"location_history":"[0,5,4,3,2]","action_history":"[0,1,0,1]","mutagen_history":"[0,1,0,1]","location_rts":"[6263,1833,617,1405]","trial_type":"fractal-mutation","trial_index":98,"time_elapsed":1807032,"internal_node_id":"0.0-5.0-44.0"},{"group":"hexagon_bi","fractal_assignment":["../images/pnk_blu.png","../images/gry_blk.png","../images/cyn_red.png","../images/ylw_slt.png","../images/org_blu.png","../images/blu_wht.png"],"mutagen_generator_assignment":[0,1],"goal":4,"start":2,"action_noise":0,"location_history":"[2,1,0,5,4]","action_history":"[0,1,0,1]","mutagen_history":"[0,1,0,1]","location_rts":"[11383,374,375,404]","trial_type":"fractal-mutation","trial_index":99,"time_elapsed":1827960,"internal_node_id":"0.0-5.0-45.0"},{"group":"hexagon_bi","fractal_assignment":["../images/pnk_blu.png","../images/gry_blk.png","../images/cyn_red.png","../images/ylw_slt.png","../images/org_blu.png","../images/blu_wht.png"],"mutagen_generator_assignment":[0,1],"goal":1,"start":4,"action_noise":0,"location_history":"[4,5,0,1]","action_history":"[1,0,1]","mutagen_history":"[1,0,1]","location_rts":"[3937,779,570]","trial_type":"fractal-mutation","trial_index":100,"time_elapsed":1840547,"internal_node_id":"0.0-5.0-46.0"},{"group":"hexagon_bi","fractal_assignment":["../images/pnk_blu.png","../images/gry_blk.png","../images/cyn_red.png","../images/ylw_slt.png","../images/org_blu.png","../images/blu_wht.png"],"mutagen_generator_assignment":[0,1],"goal":4,"start":1,"action_noise":0,"location_history":"[1,2,3,4]","action_history":"[0,1,0]","mutagen_history":"[0,1,0]","location_rts":"[445,425,351]","trial_type":"fractal-mutation","trial_index":101,"time_elapsed":1849002,"internal_node_id":"0.0-5.0-47.0"},{"group":"hexagon_bi","fractal_assignment":["../images/pnk_blu.png","../images/gry_blk.png","../images/cyn_red.png","../images/ylw_slt.png","../images/org_blu.png","../images/blu_wht.png"],"mutagen_generator_assignment":[0,1],"goal":3,"start":4,"action_noise":0,"location_history":"[4,3]","action_history":"[0]","mutagen_history":"[0]","location_rts":"[566]","trial_type":"fractal-mutation","trial_index":102,"time_elapsed":1854637,"internal_node_id":"0.0-5.0-48.0"},{"group":"hexagon_bi","fractal_assignment":["../images/pnk_blu.png","../images/gry_blk.png","../images/cyn_red.png","../images/ylw_slt.png","../images/org_blu.png","../images/blu_wht.png"],"mutagen_generator_assignment":[0,1],"goal":5,"start":3,"action_noise":0,"location_history":"[3,2,1,0,5]","action_history":"[1,0,1,0]","mutagen_history":"[1,0,1,0]","location_rts":"[1086,675,574,396]","trial_type":"fractal-mutation","trial_index":103,"time_elapsed":1865688,"internal_node_id":"0.0-5.0-49.0"},{"view_history":"[{\"page_index\":0,\"viewing_time\":9989}]","rt":9990,"trial_type":"instructions","trial_index":104,"time_elapsed":1876678,"internal_node_id":"0.0-6.0"},{"rt":1873,"responses":"{\"Q0\":\"\"}","trial_type":"survey-text","trial_index":105,"time_elapsed":1879566,"internal_node_id":"0.0-7.0"}]