[{"view_history":"[{\"page_index\":0,\"viewing_time\":6526},{\"page_index\":1,\"viewing_time\":25921},{\"page_index\":2,\"viewing_time\":666287}]","rt":698735,"trial_type":"instructions","trial_index":0,"time_elapsed":698736,"internal_node_id":"0.0-0.0"},{"view_history":"[{\"page_index\":0,\"viewing_time\":5789},{\"page_index\":1,\"viewing_time\":68161}]","rt":73950,"trial_type":"instructions","trial_index":1,"time_elapsed":773689,"internal_node_id":"0.0-1.0"},{"group":"hexagon_bi","room_assignment":["green","purple","grey","blue","red","yellow"],"door_color_assignment":["white","black"],"door_generator_assignment":[0,1],"goal":4,"start":0,"action_noise":0,"location_history":"[0,5,0,5,0,5,0,5,4]","action_history":"[0,0,0,0,0,0,0,1]","door_history":"[0,0,0,0,0,0,0,1]","location_rts":"[3003,1374,611,475,494,650,448,2582]","trial_type":"two-door-navigation","trial_index":2,"time_elapsed":795508,"internal_node_id":"0.0-2.0-0.0"},{"group":"hexagon_bi","room_assignment":["green","purple","grey","blue","red","yellow"],"door_color_assignment":["white","black"],"door_generator_assignment":[0,1],"goal":3,"start":4,"action_noise":0,"location_history":"[4,3]","action_history":"[0]","door_history":"[0]","location_rts":"[1872]","trial_type":"two-door-navigation","trial_index":3,"time_elapsed":802413,"internal_node_id":"0.0-2.0-1.0"},{"group":"hexagon_bi","room_assignment":["green","purple","grey","blue","red","yellow"],"door_color_assignment":["white","black"],"door_generator_assignment":[0,1],"goal":5,"start":3,"action_noise":0,"location_history":"[3,2,3,4,3,2,3,4,3,4,3,2,3,2,1,2,1,0,5]","action_history":"[1,1,0,0,1,1,0,0,0,0,1,1,1,0,0,0,1,0]","door_history":"[1,1,0,0,1,1,0,0,0,0,1,1,1,0,0,0,1,0]","location_rts":"[1728,1110,703,940,857,629,745,397,514,428,445,699,383,2123,1155,674,426,1070]","trial_type":"two-door-navigation","trial_index":4,"time_elapsed":839810,"internal_node_id":"0.0-2.0-2.0"},{"group":"hexagon_bi","room_assignment":["green","purple","grey","blue","red","yellow"],"door_color_assignment":["white","black"],"door_generator_assignment":[0,1],"goal":2,"start":5,"action_noise":0,"location_history":"[5,4,5,0,5,4,3,2]","action_history":"[1,1,0,0,1,0,1]","door_history":"[1,1,0,0,1,0,1]","location_rts":"[1840,858,902,730,430,930,1014]","trial_type":"two-door-navigation","trial_index":5,"time_elapsed":857660,"internal_node_id":"0.0-2.0-3.0"},{"group":"hexagon_bi","room_assignment":["green","purple","grey","blue","red","yellow"],"door_color_assignment":["white","black"],"door_generator_assignment":[0,1],"goal":1,"start":2,"action_noise":0,"location_history":"[2,1]","action_history":"[0]","door_history":"[0]","location_rts":"[3594]","trial_type":"two-door-navigation","trial_index":6,"time_elapsed":866279,"internal_node_id":"0.0-2.0-4.0"},{"group":"hexagon_bi","room_assignment":["green","purple","grey","blue","red","yellow"],"door_color_assignment":["white","black"],"door_generator_assignment":[0,1],"goal":4,"start":1,"action_noise":0,"location_history":"[1,0,1,2,3,4]","action_history":"[1,1,0,1,0]","door_history":"[1,1,0,1,0]","location_rts":"[1293,942,596,597,992]","trial_type":"two-door-navigation","trial_index":7,"time_elapsed":879798,"internal_node_id":"0.0-2.0-5.0"},{"group":"hexagon_bi","room_assignment":["green","purple","grey","blue","red","yellow"],"door_color_assignment":["white","black"],"door_generator_assignment":[0,1],"goal":1,"start":4,"action_noise":0,"location_history":"[4,3,2,1]","action_history":"[0,1,0]","door_history":"[0,1,0]","location_rts":"[962,502,579]","trial_type":"two-door-navigation","trial_index":8,"time_elapsed":888895,"internal_node_id":"0.0-2.0-6.0"},{"group":"hexagon_bi","room_assignment":["green","purple","grey","blue","red","yellow"],"door_color_assignment":["white","black"],"door_generator_assignment":[0,1],"goal":5,"start":1,"action_noise":0,"location_history":"[1,0,5]","action_history":"[1,0]","door_history":"[1,0]","location_rts":"[1584,812]","trial_type":"two-door-navigation","trial_index":9,"time_elapsed":897338,"internal_node_id":"0.0-2.0-7.0"},{"group":"hexagon_bi","room_assignment":["green","purple","grey","blue","red","yellow"],"door_color_assignment":["white","black"],"door_generator_assignment":[0,1],"goal":0,"start":5,"action_noise":0,"location_history":"[5,4,3,4,5,4,5,0]","action_history":"[1,0,0,1,1,1,0]","door_history":"[1,0,0,1,1,1,0]","location_rts":"[1920,793,1236,675,444,1277,825]","trial_type":"two-door-navigation","trial_index":10,"time_elapsed":915659,"internal_node_id":"0.0-2.0-8.0"},{"group":"hexagon_bi","room_assignment":["green","purple","grey","blue","red","yellow"],"door_color_assignment":["white","black"],"door_generator_assignment":[0,1],"goal":2,"start":0,"action_noise":0,"location_history":"[0,1,2]","action_history":"[1,0]","door_history":"[1,0]","location_rts":"[2018,937]","trial_type":"two-door-navigation","trial_index":11,"time_elapsed":924655,"internal_node_id":"0.0-2.0-9.0"},{"group":"hexagon_bi","room_assignment":["green","purple","grey","blue","red","yellow"],"door_color_assignment":["white","black"],"door_generator_assignment":[0,1],"goal":3,"start":2,"action_noise":0,"location_history":"[2,3]","action_history":"[1]","door_history":"[1]","location_rts":"[1069]","trial_type":"two-door-navigation","trial_index":12,"time_elapsed":930746,"internal_node_id":"0.0-2.0-10.0"},{"group":"hexagon_bi","room_assignment":["green","purple","grey","blue","red","yellow"],"door_color_assignment":["white","black"],"door_generator_assignment":[0,1],"goal":0,"start":3,"action_noise":0,"location_history":"[3,2,1,0]","action_history":"[1,0,1]","door_history":"[1,0,1]","location_rts":"[1971,762,866]","trial_type":"two-door-navigation","trial_index":13,"time_elapsed":941405,"internal_node_id":"0.0-2.0-11.0"},{"group":"hexagon_bi","room_assignment":["green","purple","grey","blue","red","yellow"],"door_color_assignment":["white","black"],"door_generator_assignment":[0,1],"goal":2,"start":0,"action_noise":0,"location_history":"[0,5,4,3,2]","action_history":"[0,1,0,1]","door_history":"[0,1,0,1]","location_rts":"[1849,1168,672,646]","trial_type":"two-door-navigation","trial_index":14,"time_elapsed":953829,"internal_node_id":"0.0-2.0-12.0"},{"group":"hexagon_bi","room_assignment":["green","purple","grey","blue","red","yellow"],"door_color_assignment":["white","black"],"door_generator_assignment":[0,1],"goal":5,"start":2,"action_noise":0,"location_history":"[2,1,0,5]","action_history":"[0,1,0]","door_history":"[0,1,0]","location_rts":"[1755,701,651]","trial_type":"two-door-navigation","trial_index":15,"time_elapsed":964001,"internal_node_id":"0.0-2.0-13.0"},{"group":"hexagon_bi","room_assignment":["green","purple","grey","blue","red","yellow"],"door_color_assignment":["white","black"],"door_generator_assignment":[0,1],"goal":4,"start":5,"action_noise":0,"location_history":"[5,0,1,2,3,2,1,2,3,2,1,0,5,4]","action_history":"[0,1,0,1,1,0,0,1,1,0,1,0,1]","door_history":"[0,1,0,1,1,0,0,1,1,0,1,0,1]","location_rts":"[1891,369,761,519,513,653,311,1158,673,1539,1322,1012,774]","trial_type":"two-door-navigation","trial_index":16,"time_elapsed":992759,"internal_node_id":"0.0-2.0-14.0"},{"group":"hexagon_bi","room_assignment":["green","purple","grey","blue","red","yellow"],"door_color_assignment":["white","black"],"door_generator_assignment":[0,1],"goal":3,"start":4,"action_noise":0,"location_history":"[4,5,0,1,2,3]","action_history":"[1,0,1,0,1]","door_history":"[1,0,1,0,1]","location_rts":"[2777,772,546,581,452]","trial_type":"two-door-navigation","trial_index":17,"time_elapsed":1006984,"internal_node_id":"0.0-2.0-15.0"},{"group":"hexagon_bi","room_assignment":["green","purple","grey","blue","red","yellow"],"door_color_assignment":["white","black"],"door_generator_assignment":[0,1],"goal":1,"start":3,"action_noise":0,"location_history":"[3,4,5,0,1]","action_history":"[0,1,0,1]","door_history":"[0,1,0,1]","location_rts":"[3968,776,773,401]","trial_type":"two-door-navigation","trial_index":18,"time_elapsed":1020986,"internal_node_id":"0.0-2.0-16.0"},{"group":"hexagon_bi","room_assignment":["green","purple","grey","blue","red","yellow"],"door_color_assignment":["white","black"],"door_generator_assignment":[0,1],"goal":5,"start":1,"action_noise":0,"location_history":"[1,2,3,4,3,2,3,2,1,0,5]","action_history":"[0,1,0,0,1,1,1,0,1,0]","door_history":"[0,1,0,0,1,1,1,0,1,0]","location_rts":"[2824,876,673,1019,437,365,1360,423,328,635]","trial_type":"two-door-navigation","trial_index":19,"time_elapsed":1044132,"internal_node_id":"0.0-2.0-17.0"},{"group":"hexagon_bi","room_assignment":["green","purple","grey","blue","red","yellow"],"door_color_assignment":["white","black"],"door_generator_assignment":[0,1],"goal":4,"start":5,"action_noise":0,"location_history":"[5,4]","action_history":"[1]","door_history":"[1]","location_rts":"[1577]","trial_type":"two-door-navigation","trial_index":20,"time_elapsed":1050733,"internal_node_id":"0.0-2.0-18.0"},{"group":"hexagon_bi","room_assignment":["green","purple","grey","blue","red","yellow"],"door_color_assignment":["white","black"],"door_generator_assignment":[0,1],"goal":0,"start":4,"action_noise":0,"location_history":"[4,3,4,5,0]","action_history":"[0,0,1,0]","door_history":"[0,0,1,0]","location_rts":"[1576,710,341,474]","trial_type":"two-door-navigation","trial_index":21,"time_elapsed":1061917,"internal_node_id":"0.0-2.0-19.0"},{"group":"hexagon_bi","room_assignment":["green","purple","grey","blue","red","yellow"],"door_color_assignment":["white","black"],"door_generator_assignment":[0,1],"goal":1,"start":0,"action_noise":0,"location_history":"[0,5,0,1]","action_history":"[0,0,1]","door_history":"[0,0,1]","location_rts":"[13556,4959,9000]","trial_type":"two-door-navigation","trial_index":22,"time_elapsed":1096489,"internal_node_id":"0.0-2.0-20.0"},{"group":"hexagon_bi","room_assignment":["green","purple","grey","blue","red","yellow"],"door_color_assignment":["white","black"],"door_generator_assignment":[0,1],"goal":3,"start":1,"action_noise":0,"location_history":"[1,0,5,4,3]","action_history":"[1,0,1,0]","door_history":"[1,0,1,0]","location_rts":"[2099,4391,2361,5735]","trial_type":"two-door-navigation","trial_index":23,"time_elapsed":1119157,"internal_node_id":"0.0-2.0-21.0"},{"group":"hexagon_bi","room_assignment":["green","purple","grey","blue","red","yellow"],"door_color_assignment":["white","black"],"door_generator_assignment":[0,1],"goal":2,"start":3,"action_noise":0,"location_history":"[3,2]","action_history":"[1]","door_history":"[1]","location_rts":"[2266]","trial_type":"two-door-navigation","trial_index":24,"time_elapsed":1126448,"internal_node_id":"0.0-2.0-22.0"},{"group":"hexagon_bi","room_assignment":["green","purple","grey","blue","red","yellow"],"door_color_assignment":["white","black"],"door_generator_assignment":[0,1],"goal":0,"start":2,"action_noise":0,"location_history":"[2,1,2,3,2,3,4,3,2,1,0]","action_history":"[0,0,1,1,1,0,0,1,0,1]","door_history":"[0,0,1,1,1,0,0,1,0,1]","location_rts":"[3435,12003,5748,9332,5383,8784,8530,4898,5413,2665]","trial_type":"two-door-navigation","trial_index":25,"time_elapsed":1206839,"internal_node_id":"0.0-2.0-23.0"},{"group":"hexagon_bi","room_assignment":["green","purple","grey","blue","red","yellow"],"door_color_assignment":["white","black"],"door_generator_assignment":[0,1],"goal":3,"start":0,"action_noise":0,"location_history":"[0,5,4,3]","action_history":"[0,1,0]","door_history":"[0,1,0]","location_rts":"[7694,8373,844]","trial_type":"two-door-navigation","trial_index":26,"time_elapsed":1230813,"internal_node_id":"0.0-2.0-24.0"},{"group":"hexagon_bi","room_assignment":["green","purple","grey","blue","red","yellow"],"door_color_assignment":["white","black"],"door_generator_assignment":[0,1],"goal":1,"start":3,"action_noise":0,"location_history":"[3,2,1]","action_history":"[1,0]","door_history":"[1,0]","location_rts":"[5611,431]","trial_type":"two-door-navigation","trial_index":27,"time_elapsed":1242904,"internal_node_id":"0.0-2.0-25.0"},{"group":"hexagon_bi","room_assignment":["green","purple","grey","blue","red","yellow"],"door_color_assignment":["white","black"],"door_generator_assignment":[0,1],"goal":2,"start":1,"action_noise":0,"location_history":"[1,2]","action_history":"[0]","door_history":"[0]","location_rts":"[4344]","trial_type":"two-door-navigation","trial_index":28,"time_elapsed":1252269,"internal_node_id":"0.0-2.0-26.0"},{"group":"hexagon_bi","room_assignment":["green","purple","grey","blue","red","yellow"],"door_color_assignment":["white","black"],"door_generator_assignment":[0,1],"goal":5,"start":2,"action_noise":0,"location_history":"[2,1,0,1,0,5]","action_history":"[0,1,1,1,0]","door_history":"[0,1,1,1,0]","location_rts":"[8572,737,1797,2302,3315]","trial_type":"two-door-navigation","trial_index":29,"time_elapsed":1278097,"internal_node_id":"0.0-2.0-27.0"},{"group":"hexagon_bi","room_assignment":["green","purple","grey","blue","red","yellow"],"door_color_assignment":["white","black"],"door_generator_assignment":[0,1],"goal":4,"start":5,"action_noise":0,"location_history":"[5,4]","action_history":"[1]","door_history":"[1]","location_rts":"[2986]","trial_type":"two-door-navigation","trial_index":30,"time_elapsed":1286107,"internal_node_id":"0.0-2.0-28.0"},{"group":"hexagon_bi","room_assignment":["green","purple","grey","blue","red","yellow"],"door_color_assignment":["white","black"],"door_generator_assignment":[0,1],"goal":5,"start":4,"action_noise":0,"location_history":"[4,5]","action_history":"[1]","door_history":"[1]","location_rts":"[3280]","trial_type":"two-door-navigation","trial_index":31,"time_elapsed":1294412,"internal_node_id":"0.0-2.0-29.0"},{"group":"hexagon_bi","room_assignment":["green","purple","grey","blue","red","yellow"],"door_color_assignment":["white","black"],"door_generator_assignment":[0,1],"goal":3,"start":5,"action_noise":0,"location_history":"[5,4,3]","action_history":"[1,0]","door_history":"[1,0]","location_rts":"[3521,702]","trial_type":"two-door-navigation","trial_index":32,"time_elapsed":1304676,"internal_node_id":"0.0-2.0-30.0"},{"group":"hexagon_bi","room_assignment":["green","purple","grey","blue","red","yellow"],"door_color_assignment":["white","black"],"door_generator_assignment":[0,1],"goal":0,"start":3,"action_noise":0,"location_history":"[3,2,1,0]","action_history":"[1,0,1]","door_history":"[1,0,1]","location_rts":"[7548,497,295]","trial_type":"two-door-navigation","trial_index":33,"time_elapsed":1320081,"internal_node_id":"0.0-2.0-31.0"},{"group":"hexagon_bi","room_assignment":["green","purple","grey","blue","red","yellow"],"door_color_assignment":["white","black"],"door_generator_assignment":[0,1],"goal":4,"start":0,"action_noise":0,"location_history":"[0,5,4]","action_history":"[0,1]","door_history":"[0,1]","location_rts":"[6168,387]","trial_type":"two-door-navigation","trial_index":34,"time_elapsed":1332680,"internal_node_id":"0.0-2.0-32.0"},{"group":"hexagon_bi","room_assignment":["green","purple","grey","blue","red","yellow"],"door_color_assignment":["white","black"],"door_generator_assignment":[0,1],"goal":1,"start":4,"action_noise":0,"location_history":"[4,3,2,1]","action_history":"[0,1,0]","door_history":"[0,1,0]","location_rts":"[6324,348,657]","trial_type":"two-door-navigation","trial_index":35,"time_elapsed":1347076,"internal_node_id":"0.0-2.0-33.0"},{"group":"hexagon_bi","room_assignment":["green","purple","grey","blue","red","yellow"],"door_color_assignment":["white","black"],"door_generator_assignment":[0,1],"goal":2,"start":1,"action_noise":0,"location_history":"[1,2]","action_history":"[0]","door_history":"[0]","location_rts":"[2888]","trial_type":"two-door-navigation","trial_index":36,"time_elapsed":1354986,"internal_node_id":"0.0-2.0-34.0"},{"group":"hexagon_bi","room_assignment":["green","purple","grey","blue","red","yellow"],"door_color_assignment":["white","black"],"door_generator_assignment":[0,1],"goal":0,"start":2,"action_noise":0,"location_history":"[2,1,0]","action_history":"[0,1]","door_history":"[0,1]","location_rts":"[4051,642]","trial_type":"two-door-navigation","trial_index":37,"time_elapsed":1365731,"internal_node_id":"0.0-2.0-35.0"},{"group":"hexagon_bi","room_assignment":["green","purple","grey","blue","red","yellow"],"door_color_assignment":["white","black"],"door_generator_assignment":[0,1],"goal":5,"start":0,"action_noise":0,"location_history":"[0,5]","action_history":"[0]","door_history":"[0]","location_rts":"[4555]","trial_type":"two-door-navigation","trial_index":38,"time_elapsed":1375313,"internal_node_id":"0.0-2.0-36.0"},{"group":"hexagon_bi","room_assignment":["green","purple","grey","blue","red","yellow"],"door_color_assignment":["white","black"],"door_generator_assignment":[0,1],"goal":2,"start":5,"action_noise":0,"location_history":"[5,4,3,2]","action_history":"[1,0,1]","door_history":"[1,0,1]","location_rts":"[9816,395,1013]","trial_type":"two-door-navigation","trial_index":39,"time_elapsed":1393599,"internal_node_id":"0.0-2.0-37.0"},{"group":"hexagon_bi","room_assignment":["green","purple","grey","blue","red","yellow"],"door_color_assignment":["white","black"],"door_generator_assignment":[0,1],"goal":1,"start":2,"action_noise":0,"location_history":"[2,1]","action_history":"[0]","door_history":"[0]","location_rts":"[6864]","trial_type":"two-door-navigation","trial_index":40,"time_elapsed":1405486,"internal_node_id":"0.0-2.0-38.0"},{"group":"hexagon_bi","room_assignment":["green","purple","grey","blue","red","yellow"],"door_color_assignment":["white","black"],"door_generator_assignment":[0,1],"goal":4,"start":1,"action_noise":0,"location_history":"[1,0,5,4]","action_history":"[1,0,1]","door_history":"[1,0,1]","location_rts":"[2237,6134,788]","trial_type":"two-door-navigation","trial_index":41,"time_elapsed":1421711,"internal_node_id":"0.0-2.0-39.0"},{"group":"hexagon_bi","room_assignment":["green","purple","grey","blue","red","yellow"],"door_color_assignment":["white","black"],"door_generator_assignment":[0,1],"goal":3,"start":4,"action_noise":0,"location_history":"[4,3]","action_history":"[0]","door_history":"[0]","location_rts":"[2776]","trial_type":"two-door-navigation","trial_index":42,"time_elapsed":1429506,"internal_node_id":"0.0-2.0-40.0"},{"group":"hexagon_bi","room_assignment":["green","purple","grey","blue","red","yellow"],"door_color_assignment":["white","black"],"door_generator_assignment":[0,1],"goal":5,"start":3,"action_noise":0,"location_history":"[3,2,1,0,5]","action_history":"[1,0,1,0]","door_history":"[1,0,1,0]","location_rts":"[8222,622,970,313]","trial_type":"two-door-navigation","trial_index":43,"time_elapsed":1447715,"internal_node_id":"0.0-2.0-41.0"},{"group":"hexagon_bi","room_assignment":["green","purple","grey","blue","red","yellow"],"door_color_assignment":["white","black"],"door_generator_assignment":[0,1],"goal":3,"start":5,"action_noise":0,"location_history":"[5,4,3]","action_history":"[1,0]","door_history":"[1,0]","location_rts":"[4615,259]","trial_type":"two-door-navigation","trial_index":44,"time_elapsed":1458637,"internal_node_id":"0.0-2.0-42.0"},{"group":"hexagon_bi","room_assignment":["green","purple","grey","blue","red","yellow"],"door_color_assignment":["white","black"],"door_generator_assignment":[0,1],"goal":0,"start":3,"action_noise":0,"location_history":"[3,4,5,0]","action_history":"[0,1,0]","door_history":"[0,1,0]","location_rts":"[13672,3534,1948]","trial_type":"two-door-navigation","trial_index":45,"time_elapsed":1484857,"internal_node_id":"0.0-2.0-43.0"},{"group":"hexagon_bi","room_assignment":["green","purple","grey","blue","red","yellow"],"door_color_assignment":["white","black"],"door_generator_assignment":[0,1],"goal":2,"start":0,"action_noise":0,"location_history":"[0,1,2]","action_history":"[1,0]","door_history":"[1,0]","location_rts":"[11463,10029]","trial_type":"two-door-navigation","trial_index":46,"time_elapsed":1512396,"internal_node_id":"0.0-2.0-44.0"},{"group":"hexagon_bi","room_assignment":["green","purple","grey","blue","red","yellow"],"door_color_assignment":["white","black"],"door_generator_assignment":[0,1],"goal":4,"start":2,"action_noise":0,"location_history":"[2,3,4]","action_history":"[1,0]","door_history":"[1,0]","location_rts":"[3109,10638]","trial_type":"two-door-navigation","trial_index":47,"time_elapsed":1532187,"internal_node_id":"0.0-2.0-45.0"},{"group":"hexagon_bi","room_assignment":["green","purple","grey","blue","red","yellow"],"door_color_assignment":["white","black"],"door_generator_assignment":[0,1],"goal":1,"start":4,"action_noise":0,"location_history":"[4,5,0,1]","action_history":"[1,0,1]","door_history":"[1,0,1]","location_rts":"[6826,740,895]","trial_type":"two-door-navigation","trial_index":48,"time_elapsed":1547709,"internal_node_id":"0.0-2.0-46.0"},{"group":"hexagon_bi","room_assignment":["green","purple","grey","blue","red","yellow"],"door_color_assignment":["white","black"],"door_generator_assignment":[0,1],"goal":4,"start":1,"action_noise":0,"location_history":"[1,2,3,2,3,4]","action_history":"[0,1,1,1,0]","door_history":"[0,1,1,1,0]","location_rts":"[11299,9569,15463,4502,9805]","trial_type":"two-door-navigation","trial_index":49,"time_elapsed":1607453,"internal_node_id":"0.0-2.0-47.0"},{"group":"hexagon_bi","room_assignment":["green","purple","grey","blue","red","yellow"],"door_color_assignment":["white","black"],"door_generator_assignment":[0,1],"goal":3,"start":4,"action_noise":0,"location_history":"[4,3]","action_history":"[0]","door_history":"[0]","location_rts":"[3745]","trial_type":"two-door-navigation","trial_index":50,"time_elapsed":1616222,"internal_node_id":"0.0-2.0-48.0"},{"group":"hexagon_bi","room_assignment":["green","purple","grey","blue","red","yellow"],"door_color_assignment":["white","black"],"door_generator_assignment":[0,1],"goal":5,"start":3,"action_noise":0,"location_history":"[3,4,5]","action_history":"[0,1]","door_history":"[0,1]","location_rts":"[11003,491]","trial_type":"two-door-navigation","trial_index":51,"time_elapsed":1633758,"internal_node_id":"0.0-2.0-49.0"},{"view_history":"[{\"page_index\":0,\"viewing_time\":3277}]","rt":3277,"trial_type":"instructions","trial_index":52,"time_elapsed":1638035,"internal_node_id":"0.0-3.0"},{"view_history":"[{\"page_index\":0,\"viewing_time\":3408},{\"page_index\":1,\"viewing_time\":40316}]","rt":43724,"trial_type":"instructions","trial_index":53,"time_elapsed":1682760,"internal_node_id":"0.0-4.0"},{"group":"hexagon_tri","fractal_assignment":["../images/org_blu.png","../images/cyn_red.png","../images/gry_blk.png","../images/blu_wht.png","../images/pnk_blu.png","../images/ylw_slt.png"],"mutagen_generator_assignment":[1,0],"goal":4,"start":0,"action_noise":0,"location_history":"[0,1,5,4]","action_history":"[1,1,0]","mutagen_history":"[0,0,1]","location_rts":"[10365,5927,757]","trial_type":"fractal-mutation","trial_index":54,"time_elapsed":1706927,"internal_node_id":"0.0-5.0-0.0"},{"group":"hexagon_tri","fractal_assignment":["../images/org_blu.png","../images/cyn_red.png","../images/gry_blk.png","../images/blu_wht.png","../images/pnk_blu.png","../images/ylw_slt.png"],"mutagen_generator_assignment":[1,0],"goal":3,"start":4,"action_noise":0,"location_history":"[4,2,3]","action_history":"[1,1]","mutagen_history":"[0,0]","location_rts":"[1495,574]","trial_type":"fractal-mutation","trial_index":55,"time_elapsed":1715071,"internal_node_id":"0.0-5.0-1.0"},{"group":"hexagon_tri","fractal_assignment":["../images/org_blu.png","../images/cyn_red.png","../images/gry_blk.png","../images/blu_wht.png","../images/pnk_blu.png","../images/ylw_slt.png"],"mutagen_generator_assignment":[1,0],"goal":5,"start":3,"action_noise":0,"location_history":"[3,2,1,3,4,2,3,4,0,5]","action_history":"[0,0,0,1,1,1,1,0,0]","mutagen_history":"[1,1,1,0,0,0,0,1,1]","location_rts":"[13804,696,459,500,640,452,669,398,933]","trial_type":"fractal-mutation","trial_index":56,"time_elapsed":1746974,"internal_node_id":"0.0-5.0-2.0"},{"group":"hexagon_tri","fractal_assignment":["../images/org_blu.png","../images/cyn_red.png","../images/gry_blk.png","../images/blu_wht.png","../images/pnk_blu.png","../images/ylw_slt.png"],"mutagen_generator_assignment":[1,0],"goal":2,"start":5,"action_noise":0,"location_history":"[5,4,2]","action_history":"[0,1]","mutagen_history":"[1,0]","location_rts":"[2665,718]","trial_type":"fractal-mutation","trial_index":57,"time_elapsed":1756440,"internal_node_id":"0.0-5.0-3.0"},{"group":"hexagon_tri","fractal_assignment":["../images/org_blu.png","../images/cyn_red.png","../images/gry_blk.png","../images/blu_wht.png","../images/pnk_blu.png","../images/ylw_slt.png"],"mutagen_generator_assignment":[1,0],"goal":1,"start":2,"action_noise":0,"location_history":"[2,3,4,2,3,2,3,2,1]","action_history":"[1,1,1,1,0,1,0,0]","mutagen_history":"[0,0,0,0,1,0,1,1]","location_rts":"[1444,314,403,448,293,377,356,343]","trial_type":"fractal-mutation","trial_index":58,"time_elapsed":1772690,"internal_node_id":"0.0-5.0-4.0"},{"group":"hexagon_tri","fractal_assignment":["../images/org_blu.png","../images/cyn_red.png","../images/gry_blk.png","../images/blu_wht.png","../images/pnk_blu.png","../images/ylw_slt.png"],"mutagen_generator_assignment":[1,0],"goal":4,"start":1,"action_noise":0,"location_history":"[1,5,4]","action_history":"[1,0]","mutagen_history":"[0,1]","location_rts":"[2064,291]","trial_type":"fractal-mutation","trial_index":59,"time_elapsed":1781142,"internal_node_id":"0.0-5.0-5.0"},{"group":"hexagon_tri","fractal_assignment":["../images/org_blu.png","../images/cyn_red.png","../images/gry_blk.png","../images/blu_wht.png","../images/pnk_blu.png","../images/ylw_slt.png"],"mutagen_generator_assignment":[1,0],"goal":1,"start":4,"action_noise":0,"location_history":"[4,2,3,2,1]","action_history":"[1,1,0,0]","mutagen_history":"[0,0,1,1]","location_rts":"[1163,444,297,420]","trial_type":"fractal-mutation","trial_index":60,"time_elapsed":1791621,"internal_node_id":"0.0-5.0-6.0"},{"group":"hexagon_tri","fractal_assignment":["../images/org_blu.png","../images/cyn_red.png","../images/gry_blk.png","../images/blu_wht.png","../images/pnk_blu.png","../images/ylw_slt.png"],"mutagen_generator_assignment":[1,0],"goal":5,"start":1,"action_noise":0,"location_history":"[1,5]","action_history":"[1]","mutagen_history":"[0]","location_rts":"[1247]","trial_type":"fractal-mutation","trial_index":61,"time_elapsed":1797904,"internal_node_id":"0.0-5.0-7.0"},{"group":"hexagon_tri","fractal_assignment":["../images/org_blu.png","../images/cyn_red.png","../images/gry_blk.png","../images/blu_wht.png","../images/pnk_blu.png","../images/ylw_slt.png"],"mutagen_generator_assignment":[1,0],"goal":0,"start":5,"action_noise":0,"location_history":"[5,4,2,1,3,2,3,2,3,4,0]","action_history":"[0,1,0,0,0,1,0,1,1,0]","mutagen_history":"[1,0,1,1,1,0,1,0,0,1]","location_rts":"[890,349,283,366,415,295,289,312,234,278]","trial_type":"fractal-mutation","trial_index":62,"time_elapsed":1815986,"internal_node_id":"0.0-5.0-8.0"},{"group":"hexagon_tri","fractal_assignment":["../images/org_blu.png","../images/cyn_red.png","../images/gry_blk.png","../images/blu_wht.png","../images/pnk_blu.png","../images/ylw_slt.png"],"mutagen_generator_assignment":[1,0],"goal":2,"start":0,"action_noise":0,"location_history":"[0,1,5,0,1,3,2]","action_history":"[1,1,1,1,0,0]","mutagen_history":"[0,0,0,0,1,1]","location_rts":"[1119,339,325,340,285,349]","trial_type":"fractal-mutation","trial_index":63,"time_elapsed":1828953,"internal_node_id":"0.0-5.0-9.0"},{"group":"hexagon_tri","fractal_assignment":["../images/org_blu.png","../images/cyn_red.png","../images/gry_blk.png","../images/blu_wht.png","../images/pnk_blu.png","../images/ylw_slt.png"],"mutagen_generator_assignment":[1,0],"goal":3,"start":2,"action_noise":0,"location_history":"[2,3]","action_history":"[1]","mutagen_history":"[0]","location_rts":"[1079]","trial_type":"fractal-mutation","trial_index":64,"time_elapsed":1835070,"internal_node_id":"0.0-5.0-10.0"},{"group":"hexagon_tri","fractal_assignment":["../images/org_blu.png","../images/cyn_red.png","../images/gry_blk.png","../images/blu_wht.png","../images/pnk_blu.png","../images/ylw_slt.png"],"mutagen_generator_assignment":[1,0],"goal":0,"start":3,"action_noise":0,"location_history":"[3,4,2,1,3,4,0]","action_history":"[1,1,0,0,1,0]","mutagen_history":"[0,0,1,1,0,1]","location_rts":"[3751,315,397,511,483,269]","trial_type":"fractal-mutation","trial_index":65,"time_elapsed":1851008,"internal_node_id":"0.0-5.0-11.0"},{"group":"hexagon_tri","fractal_assignment":["../images/org_blu.png","../images/cyn_red.png","../images/gry_blk.png","../images/blu_wht.png","../images/pnk_blu.png","../images/ylw_slt.png"],"mutagen_generator_assignment":[1,0],"goal":2,"start":0,"action_noise":0,"location_history":"[0,1,5,4,2]","action_history":"[1,1,0,1]","mutagen_history":"[0,0,1,0]","location_rts":"[1259,295,348,314]","trial_type":"fractal-mutation","trial_index":66,"time_elapsed":1861365,"internal_node_id":"0.0-5.0-12.0"},{"group":"hexagon_tri","fractal_assignment":["../images/org_blu.png","../images/cyn_red.png","../images/gry_blk.png","../images/blu_wht.png","../images/pnk_blu.png","../images/ylw_slt.png"],"mutagen_generator_assignment":[1,0],"goal":5,"start":2,"action_noise":0,"location_history":"[2,3,4,0,5]","action_history":"[1,1,0,0]","mutagen_history":"[0,0,1,1]","location_rts":"[1365,362,329,324]","trial_type":"fractal-mutation","trial_index":67,"time_elapsed":1871892,"internal_node_id":"0.0-5.0-13.0"},{"group":"hexagon_tri","fractal_assignment":["../images/org_blu.png","../images/cyn_red.png","../images/gry_blk.png","../images/blu_wht.png","../images/pnk_blu.png","../images/ylw_slt.png"],"mutagen_generator_assignment":[1,0],"goal":4,"start":5,"action_noise":0,"location_history":"[5,0,1,3,4]","action_history":"[1,1,0,1]","mutagen_history":"[0,0,1,0]","location_rts":"[937,390,309,347]","trial_type":"fractal-mutation","trial_index":68,"time_elapsed":1882007,"internal_node_id":"0.0-5.0-14.0"},{"group":"hexagon_tri","fractal_assignment":["../images/org_blu.png","../images/cyn_red.png","../images/gry_blk.png","../images/blu_wht.png","../images/pnk_blu.png","../images/ylw_slt.png"],"mutagen_generator_assignment":[1,0],"goal":3,"start":4,"action_noise":0,"location_history":"[4,2,3]","action_history":"[1,1]","mutagen_history":"[0,0]","location_rts":"[1082,400]","trial_type":"fractal-mutation","trial_index":69,"time_elapsed":1889555,"internal_node_id":"0.0-5.0-15.0"},{"group":"hexagon_tri","fractal_assignment":["../images/org_blu.png","../images/cyn_red.png","../images/gry_blk.png","../images/blu_wht.png","../images/pnk_blu.png","../images/ylw_slt.png"],"mutagen_generator_assignment":[1,0],"goal":1,"start":3,"action_noise":0,"location_history":"[3,4,2,3,2,3,2,1]","action_history":"[1,1,1,0,1,0,0]","mutagen_history":"[0,0,0,1,0,1,1]","location_rts":"[1241,327,491,291,362,335,244]","trial_type":"fractal-mutation","trial_index":70,"time_elapsed":1904092,"internal_node_id":"0.0-5.0-16.0"},{"group":"hexagon_tri","fractal_assignment":["../images/org_blu.png","../images/cyn_red.png","../images/gry_blk.png","../images/blu_wht.png","../images/pnk_blu.png","../images/ylw_slt.png"],"mutagen_generator_assignment":[1,0],"goal":5,"start":1,"action_noise":0,"location_history":"[1,5]","action_history":"[1]","mutagen_history":"[0]","location_rts":"[1072]","trial_type":"fractal-mutation","trial_index":71,"time_elapsed":1910204,"internal_node_id":"0.0-5.0-17.0"},{"group":"hexagon_tri","fractal_assignment":["../images/org_blu.png","../images/cyn_red.png","../images/gry_blk.png","../images/blu_wht.png","../images/pnk_blu.png","../images/ylw_slt.png"],"mutagen_generator_assignment":[1,0],"goal":4,"start":5,"action_noise":0,"location_history":"[5,4]","action_history":"[0]","mutagen_history":"[1]","location_rts":"[1875]","trial_type":"fractal-mutation","trial_index":72,"time_elapsed":1917124,"internal_node_id":"0.0-5.0-18.0"},{"group":"hexagon_tri","fractal_assignment":["../images/org_blu.png","../images/cyn_red.png","../images/gry_blk.png","../images/blu_wht.png","../images/pnk_blu.png","../images/ylw_slt.png"],"mutagen_generator_assignment":[1,0],"goal":0,"start":4,"action_noise":0,"location_history":"[4,2,3,2,3,4,0]","action_history":"[1,1,0,1,1,0]","mutagen_history":"[0,0,1,0,0,1]","location_rts":"[1388,339,622,330,305,275]","trial_type":"fractal-mutation","trial_index":73,"time_elapsed":1930595,"internal_node_id":"0.0-5.0-19.0"},{"group":"hexagon_tri","fractal_assignment":["../images/org_blu.png","../images/cyn_red.png","../images/gry_blk.png","../images/blu_wht.png","../images/pnk_blu.png","../images/ylw_slt.png"],"mutagen_generator_assignment":[1,0],"goal":1,"start":0,"action_noise":0,"location_history":"[0,5,0,1]","action_history":"[0,1,1]","mutagen_history":"[1,0,0]","location_rts":"[1633,343,678]","trial_type":"fractal-mutation","trial_index":74,"time_elapsed":1940356,"internal_node_id":"0.0-5.0-20.0"},{"group":"hexagon_tri","fractal_assignment":["../images/org_blu.png","../images/cyn_red.png","../images/gry_blk.png","../images/blu_wht.png","../images/pnk_blu.png","../images/ylw_slt.png"],"mutagen_generator_assignment":[1,0],"goal":3,"start":1,"action_noise":0,"location_history":"[1,5,0,5,0,5,4,0,1,3]","action_history":"[1,1,0,1,0,0,0,1,0]","mutagen_history":"[0,0,1,0,1,1,1,0,1]","location_rts":"[1374,348,431,874,396,61,416,1397,313]","trial_type":"fractal-mutation","trial_index":75,"time_elapsed":1959290,"internal_node_id":"0.0-5.0-21.0"},{"group":"hexagon_tri","fractal_assignment":["../images/org_blu.png","../images/cyn_red.png","../images/gry_blk.png","../images/blu_wht.png","../images/pnk_blu.png","../images/ylw_slt.png"],"mutagen_generator_assignment":[1,0],"goal":2,"start":3,"action_noise":0,"location_history":"[3,2]","action_history":"[0]","mutagen_history":"[1]","location_rts":"[4638]","trial_type":"fractal-mutation","trial_index":76,"time_elapsed":1968975,"internal_node_id":"0.0-5.0-22.0"},{"group":"hexagon_tri","fractal_assignment":["../images/org_blu.png","../images/cyn_red.png","../images/gry_blk.png","../images/blu_wht.png","../images/pnk_blu.png","../images/ylw_slt.png"],"mutagen_generator_assignment":[1,0],"goal":0,"start":2,"action_noise":0,"location_history":"[2,1,5,4,2,3,2,3,4,0]","action_history":"[0,1,0,1,1,0,1,1,0]","mutagen_history":"[1,0,1,0,0,1,0,0,1]","location_rts":"[1095,449,361,845,279,682,386,230,400]","trial_type":"fractal-mutation","trial_index":77,"time_elapsed":1987019,"internal_node_id":"0.0-5.0-23.0"},{"group":"hexagon_tri","fractal_assignment":["../images/org_blu.png","../images/cyn_red.png","../images/gry_blk.png","../images/blu_wht.png","../images/pnk_blu.png","../images/ylw_slt.png"],"mutagen_generator_assignment":[1,0],"goal":3,"start":0,"action_noise":0,"location_history":"[0,5,4,2,3]","action_history":"[0,0,1,1]","mutagen_history":"[1,1,0,0]","location_rts":"[1449,477,369,358]","trial_type":"fractal-mutation","trial_index":78,"time_elapsed":1997814,"internal_node_id":"0.0-5.0-24.0"},{"group":"hexagon_tri","fractal_assignment":["../images/org_blu.png","../images/cyn_red.png","../images/gry_blk.png","../images/blu_wht.png","../images/pnk_blu.png","../images/ylw_slt.png"],"mutagen_generator_assignment":[1,0],"goal":1,"start":3,"action_noise":0,"location_history":"[3,4,2,1]","action_history":"[1,1,0]","mutagen_history":"[0,0,1]","location_rts":"[991,401,992]","trial_type":"fractal-mutation","trial_index":79,"time_elapsed":2007303,"internal_node_id":"0.0-5.0-25.0"},{"group":"hexagon_tri","fractal_assignment":["../images/org_blu.png","../images/cyn_red.png","../images/gry_blk.png","../images/blu_wht.png","../images/pnk_blu.png","../images/ylw_slt.png"],"mutagen_generator_assignment":[1,0],"goal":2,"start":1,"action_noise":0,"location_history":"[1,5,0,5,0,1,3,4,0,5,4,2]","action_history":"[1,1,0,1,1,0,1,0,0,0,1]","mutagen_history":"[0,0,1,0,0,1,0,1,1,1,0]","location_rts":"[934,344,349,377,316,368,827,694,483,1014,463]","trial_type":"fractal-mutation","trial_index":80,"time_elapsed":2028883,"internal_node_id":"0.0-5.0-26.0"},{"group":"hexagon_tri","fractal_assignment":["../images/org_blu.png","../images/cyn_red.png","../images/gry_blk.png","../images/blu_wht.png","../images/pnk_blu.png","../images/ylw_slt.png"],"mutagen_generator_assignment":[1,0],"goal":5,"start":2,"action_noise":0,"location_history":"[2,3,4,0,1,5]","action_history":"[1,1,0,1,1]","mutagen_history":"[0,0,1,0,0]","location_rts":"[2885,424,412,376,705]","trial_type":"fractal-mutation","trial_index":81,"time_elapsed":2042848,"internal_node_id":"0.0-5.0-27.0"},{"group":"hexagon_tri","fractal_assignment":["../images/org_blu.png","../images/cyn_red.png","../images/gry_blk.png","../images/blu_wht.png","../images/pnk_blu.png","../images/ylw_slt.png"],"mutagen_generator_assignment":[1,0],"goal":4,"start":5,"action_noise":0,"location_history":"[5,4]","action_history":"[0]","mutagen_history":"[1]","location_rts":"[1355]","trial_type":"fractal-mutation","trial_index":82,"time_elapsed":2049252,"internal_node_id":"0.0-5.0-28.0"},{"group":"hexagon_tri","fractal_assignment":["../images/org_blu.png","../images/cyn_red.png","../images/gry_blk.png","../images/blu_wht.png","../images/pnk_blu.png","../images/ylw_slt.png"],"mutagen_generator_assignment":[1,0],"goal":5,"start":4,"action_noise":0,"location_history":"[4,0,5]","action_history":"[0,0]","mutagen_history":"[1,1]","location_rts":"[2707,374]","trial_type":"fractal-mutation","trial_index":83,"time_elapsed":2058419,"internal_node_id":"0.0-5.0-29.0"},{"group":"hexagon_tri","fractal_assignment":["../images/org_blu.png","../images/cyn_red.png","../images/gry_blk.png","../images/blu_wht.png","../images/pnk_blu.png","../images/ylw_slt.png"],"mutagen_generator_assignment":[1,0],"goal":3,"start":5,"action_noise":0,"location_history":"[5,0,1,5,4,2,1,3]","action_history":"[1,1,1,0,1,0,0]","mutagen_history":"[0,0,0,1,0,1,1]","location_rts":"[1004,371,726,516,360,337,317]","trial_type":"fractal-mutation","trial_index":84,"time_elapsed":2073309,"internal_node_id":"0.0-5.0-30.0"},{"group":"hexagon_tri","fractal_assignment":["../images/org_blu.png","../images/cyn_red.png","../images/gry_blk.png","../images/blu_wht.png","../images/pnk_blu.png","../images/ylw_slt.png"],"mutagen_generator_assignment":[1,0],"goal":0,"start":3,"action_noise":0,"location_history":"[3,2,3,2,3,4,2,3,2,1,3,4,0]","action_history":"[0,1,0,1,1,1,1,0,0,0,1,0]","mutagen_history":"[1,0,1,0,0,0,0,1,1,1,0,1]","location_rts":"[847,301,263,242,307,337,410,340,387,641,440,404]","trial_type":"fractal-mutation","trial_index":85,"time_elapsed":2094660,"internal_node_id":"0.0-5.0-31.0"},{"group":"hexagon_tri","fractal_assignment":["../images/org_blu.png","../images/cyn_red.png","../images/gry_blk.png","../images/blu_wht.png","../images/pnk_blu.png","../images/ylw_slt.png"],"mutagen_generator_assignment":[1,0],"goal":4,"start":0,"action_noise":0,"location_history":"[0,1,3,4]","action_history":"[1,0,1]","mutagen_history":"[0,1,0]","location_rts":"[849,557,387]","trial_type":"fractal-mutation","trial_index":86,"time_elapsed":2103555,"internal_node_id":"0.0-5.0-32.0"},{"group":"hexagon_tri","fractal_assignment":["../images/org_blu.png","../images/cyn_red.png","../images/gry_blk.png","../images/blu_wht.png","../images/pnk_blu.png","../images/ylw_slt.png"],"mutagen_generator_assignment":[1,0],"goal":1,"start":4,"action_noise":0,"location_history":"[4,2,3,2,1]","action_history":"[1,1,0,0]","mutagen_history":"[0,0,1,1]","location_rts":"[1144,323,738,398]","trial_type":"fractal-mutation","trial_index":87,"time_elapsed":2114305,"internal_node_id":"0.0-5.0-33.0"},{"group":"hexagon_tri","fractal_assignment":["../images/org_blu.png","../images/cyn_red.png","../images/gry_blk.png","../images/blu_wht.png","../images/pnk_blu.png","../images/ylw_slt.png"],"mutagen_generator_assignment":[1,0],"goal":2,"start":1,"action_noise":0,"location_history":"[1,5,0,5,0,5,4,0,1,5,0,5,4,0,5,0,5,0,1,3,4,0,1,3,2]","action_history":"[1,1,0,1,0,0,0,1,1,1,0,0,0,0,1,0,1,1,0,1,0,1,0,0]","mutagen_history":"[0,0,1,0,1,1,1,0,0,0,1,1,1,1,0,1,0,0,1,0,1,0,1,1]","location_rts":"[1427,350,575,354,369,50,449,915,470,397,729,331,365,922,326,328,449,254,959,793,523,395,312,338]","trial_type":"fractal-mutation","trial_index":88,"time_elapsed":2155508,"internal_node_id":"0.0-5.0-34.0"},{"group":"hexagon_tri","fractal_assignment":["../images/org_blu.png","../images/cyn_red.png","../images/gry_blk.png","../images/blu_wht.png","../images/pnk_blu.png","../images/ylw_slt.png"],"mutagen_generator_assignment":[1,0],"goal":0,"start":2,"action_noise":0,"location_history":"[2,3,4,2,3,2,1,3,4,0]","action_history":"[1,1,1,1,0,0,0,1,0]","mutagen_history":"[0,0,0,0,1,1,1,0,1]","location_rts":"[1252,335,416,440,299,375,504,536,268]","trial_type":"fractal-mutation","trial_index":89,"time_elapsed":2173234,"internal_node_id":"0.0-5.0-35.0"},{"group":"hexagon_tri","fractal_assignment":["../images/org_blu.png","../images/cyn_red.png","../images/gry_blk.png","../images/blu_wht.png","../images/pnk_blu.png","../images/ylw_slt.png"],"mutagen_generator_assignment":[1,0],"goal":5,"start":0,"action_noise":0,"location_history":"[0,5]","action_history":"[0]","mutagen_history":"[1]","location_rts":"[3191]","trial_type":"fractal-mutation","trial_index":90,"time_elapsed":2181470,"internal_node_id":"0.0-5.0-36.0"},{"group":"hexagon_tri","fractal_assignment":["../images/org_blu.png","../images/cyn_red.png","../images/gry_blk.png","../images/blu_wht.png","../images/pnk_blu.png","../images/ylw_slt.png"],"mutagen_generator_assignment":[1,0],"goal":2,"start":5,"action_noise":0,"location_history":"[5,0,1,3,2]","action_history":"[1,1,0,0]","mutagen_history":"[0,0,1,1]","location_rts":"[1423,749,955,451]","trial_type":"fractal-mutation","trial_index":91,"time_elapsed":2193192,"internal_node_id":"0.0-5.0-37.0"},{"group":"hexagon_tri","fractal_assignment":["../images/org_blu.png","../images/cyn_red.png","../images/gry_blk.png","../images/blu_wht.png","../images/pnk_blu.png","../images/ylw_slt.png"],"mutagen_generator_assignment":[1,0],"goal":1,"start":2,"action_noise":0,"location_history":"[2,1]","action_history":"[0]","mutagen_history":"[1]","location_rts":"[2026]","trial_type":"fractal-mutation","trial_index":92,"time_elapsed":2200253,"internal_node_id":"0.0-5.0-38.0"},{"group":"hexagon_tri","fractal_assignment":["../images/org_blu.png","../images/cyn_red.png","../images/gry_blk.png","../images/blu_wht.png","../images/pnk_blu.png","../images/ylw_slt.png"],"mutagen_generator_assignment":[1,0],"goal":4,"start":1,"action_noise":0,"location_history":"[1,3,2,3,2,1,3,2,3,4]","action_history":"[0,0,1,0,0,0,0,1,1]","mutagen_history":"[1,1,0,1,1,1,1,0,0]","location_rts":"[1388,485,346,301,1222,459,720,395,660]","trial_type":"fractal-mutation","trial_index":93,"time_elapsed":2219545,"internal_node_id":"0.0-5.0-39.0"},{"group":"hexagon_tri","fractal_assignment":["../images/org_blu.png","../images/cyn_red.png","../images/gry_blk.png","../images/blu_wht.png","../images/pnk_blu.png","../images/ylw_slt.png"],"mutagen_generator_assignment":[1,0],"goal":3,"start":4,"action_noise":0,"location_history":"[4,2,3]","action_history":"[1,1]","mutagen_history":"[0,0]","location_rts":"[9811,655]","trial_type":"fractal-mutation","trial_index":94,"time_elapsed":2236079,"internal_node_id":"0.0-5.0-40.0"},{"group":"hexagon_tri","fractal_assignment":["../images/org_blu.png","../images/cyn_red.png","../images/gry_blk.png","../images/blu_wht.png","../images/pnk_blu.png","../images/ylw_slt.png"],"mutagen_generator_assignment":[1,0],"goal":5,"start":3,"action_noise":0,"location_history":"[3,2,3,4,2,1,3,2,3,2,1,3,4,0,5]","action_history":"[0,1,1,1,0,0,0,1,0,0,0,1,0,0]","mutagen_history":"[1,0,0,0,1,1,1,0,1,1,1,0,1,1]","location_rts":"[919,753,682,449,300,713,436,317,1332,681,606,630,258,492]","trial_type":"fractal-mutation","trial_index":95,"time_elapsed":2263138,"internal_node_id":"0.0-5.0-41.0"},{"group":"hexagon_tri","fractal_assignment":["../images/org_blu.png","../images/cyn_red.png","../images/gry_blk.png","../images/blu_wht.png","../images/pnk_blu.png","../images/ylw_slt.png"],"mutagen_generator_assignment":[1,0],"goal":3,"start":5,"action_noise":0,"location_history":"[5,4,0,5,0,1,5,4,0,1,3]","action_history":"[0,0,0,1,1,1,0,0,1,0]","mutagen_history":"[1,1,1,0,0,0,1,1,0,1]","location_rts":"[1909,464,368,231,340,380,415,970,554,297]","trial_type":"fractal-mutation","trial_index":96,"time_elapsed":2283411,"internal_node_id":"0.0-5.0-42.0"},{"group":"hexagon_tri","fractal_assignment":["../images/org_blu.png","../images/cyn_red.png","../images/gry_blk.png","../images/blu_wht.png","../images/pnk_blu.png","../images/ylw_slt.png"],"mutagen_generator_assignment":[1,0],"goal":0,"start":3,"action_noise":0,"location_history":"[3,2,3,2,3,2,1,3,4,2,3,2,1,3,4,2,3,2,1,5,0]","action_history":"[0,1,0,1,0,0,0,1,1,1,0,0,0,1,1,1,0,0,1,1]","mutagen_history":"[1,0,1,0,1,1,1,0,0,0,1,1,1,0,0,0,1,1,0,0]","location_rts":"[973,319,397,258,264,331,393,256,392,460,581,305,492,384,479,390,381,1020,1103,672]","trial_type":"fractal-mutation","trial_index":97,"time_elapsed":2317938,"internal_node_id":"0.0-5.0-43.0"},{"group":"hexagon_tri","fractal_assignment":["../images/org_blu.png","../images/cyn_red.png","../images/gry_blk.png","../images/blu_wht.png","../images/pnk_blu.png","../images/ylw_slt.png"],"mutagen_generator_assignment":[1,0],"goal":2,"start":0,"action_noise":0,"location_history":"[0,1,5,4,0,5,4,2]","action_history":"[1,1,0,0,0,0,1]","mutagen_history":"[0,0,1,1,1,1,0]","location_rts":"[1447,422,364,619,968,582,211]","trial_type":"fractal-mutation","trial_index":98,"time_elapsed":2333799,"internal_node_id":"0.0-5.0-44.0"},{"group":"hexagon_tri","fractal_assignment":["../images/org_blu.png","../images/cyn_red.png","../images/gry_blk.png","../images/blu_wht.png","../images/pnk_blu.png","../images/ylw_slt.png"],"mutagen_generator_assignment":[1,0],"goal":4,"start":2,"action_noise":0,"location_history":"[2,3,4]","action_history":"[1,1]","mutagen_history":"[0,0]","location_rts":"[2035,297]","trial_type":"fractal-mutation","trial_index":99,"time_elapsed":2342198,"internal_node_id":"0.0-5.0-45.0"},{"group":"hexagon_tri","fractal_assignment":["../images/org_blu.png","../images/cyn_red.png","../images/gry_blk.png","../images/blu_wht.png","../images/pnk_blu.png","../images/ylw_slt.png"],"mutagen_generator_assignment":[1,0],"goal":1,"start":4,"action_noise":0,"location_history":"[4,0,5,0,5,0,1]","action_history":"[0,0,1,0,1,1]","mutagen_history":"[1,1,0,1,0,0]","location_rts":"[782,500,317,463,300,296]","trial_type":"fractal-mutation","trial_index":100,"time_elapsed":2355069,"internal_node_id":"0.0-5.0-46.0"},{"group":"hexagon_tri","fractal_assignment":["../images/org_blu.png","../images/cyn_red.png","../images/gry_blk.png","../images/blu_wht.png","../images/pnk_blu.png","../images/ylw_slt.png"],"mutagen_generator_assignment":[1,0],"goal":4,"start":1,"action_noise":0,"location_history":"[1,5,0,1,3,4]","action_history":"[1,1,1,0,1]","mutagen_history":"[0,0,0,1,0]","location_rts":"[15060,16438,31412,4551,35458]","trial_type":"fractal-mutation","trial_index":101,"time_elapsed":2467158,"internal_node_id":"0.0-5.0-47.0"},{"group":"hexagon_tri","fractal_assignment":["../images/org_blu.png","../images/cyn_red.png","../images/gry_blk.png","../images/blu_wht.png","../images/pnk_blu.png","../images/ylw_slt.png"],"mutagen_generator_assignment":[1,0],"goal":3,"start":4,"action_noise":0,"location_history":"[4,2,1,3]","action_history":"[1,0,0]","mutagen_history":"[0,1,1]","location_rts":"[23842,25368,20223]","trial_type":"fractal-mutation","trial_index":102,"time_elapsed":2543697,"internal_node_id":"0.0-5.0-48.0"},{"group":"hexagon_tri","fractal_assignment":["../images/org_blu.png","../images/cyn_red.png","../images/gry_blk.png","../images/blu_wht.png","../images/pnk_blu.png","../images/ylw_slt.png"],"mutagen_generator_assignment":[1,0],"goal":5,"start":3,"action_noise":0,"location_history":"[3,2,1,5]","action_history":"[0,0,1]","mutagen_history":"[1,1,0]","location_rts":"[5151,7143,3174]","trial_type":"fractal-mutation","trial_index":103,"time_elapsed":2566275,"internal_node_id":"0.0-5.0-49.0"},{"view_history":"[{\"page_index\":0,\"viewing_time\":21473}]","rt":21474,"trial_type":"instructions","trial_index":104,"time_elapsed":2588751,"internal_node_id":"0.0-6.0"},{"rt":40787,"responses":"{\"Q0\":\"It was challenging and interesting! I saw surprised to see how long it took to get familiar with the moves!\"}","trial_type":"survey-text","trial_index":105,"time_elapsed":2630543,"internal_node_id":"0.0-7.0"}]