[{"view_history":"[{\"page_index\":0,\"viewing_time\":15846},{\"page_index\":1,\"viewing_time\":2885},{\"page_index\":2,\"viewing_time\":6129}]","rt":24860,"trial_type":"instructions","trial_index":0,"time_elapsed":24862,"internal_node_id":"0.0-0.0"},{"view_history":"[{\"page_index\":0,\"viewing_time\":1685},{\"page_index\":1,\"viewing_time\":12023}]","rt":13709,"trial_type":"instructions","trial_index":1,"time_elapsed":39574,"internal_node_id":"0.0-1.0"},{"group":"hexagon_bi","room_assignment":["yellow","green","red","purple","grey","blue"],"door_color_assignment":["black","white"],"door_generator_assignment":[0,1],"goal":4,"start":0,"action_noise":0,"location_history":"[0,1,2,1,2,3,2,1,0,5,0,1,0,1,2,3,4]","action_history":"[1,0,0,0,1,1,0,1,0,0,1,1,1,0,1,0]","door_history":"[1,0,0,0,1,1,0,1,0,0,1,1,1,0,1,0]","location_rts":"[3468,2268,1853,1403,1339,1656,2235,1570,1726,1775,1406,435,504,264,316,472]","trial_type":"two-door-navigation","trial_index":2,"time_elapsed":83095,"internal_node_id":"0.0-2.0-0.0"},{"group":"hexagon_bi","room_assignment":["yellow","green","red","purple","grey","blue"],"door_color_assignment":["black","white"],"door_generator_assignment":[0,1],"goal":3,"start":4,"action_noise":0,"location_history":"[4,3]","action_history":"[0]","door_history":"[0]","location_rts":"[2545]","trial_type":"two-door-navigation","trial_index":3,"time_elapsed":90709,"internal_node_id":"0.0-2.0-1.0"},{"group":"hexagon_bi","room_assignment":["yellow","green","red","purple","grey","blue"],"door_color_assignment":["black","white"],"door_generator_assignment":[0,1],"goal":5,"start":3,"action_noise":0,"location_history":"[3,2,3,2,3,4,3,4,3,2,1,0,5]","action_history":"[1,1,1,1,0,0,0,0,1,0,1,0]","door_history":"[1,1,1,1,0,0,0,0,1,0,1,0]","location_rts":"[2600,1483,1248,999,1160,992,1040,1142,942,825,610,684]","trial_type":"two-door-navigation","trial_index":4,"time_elapsed":120983,"internal_node_id":"0.0-2.0-2.0"},{"group":"hexagon_bi","room_assignment":["yellow","green","red","purple","grey","blue"],"door_color_assignment":["black","white"],"door_generator_assignment":[0,1],"goal":2,"start":5,"action_noise":0,"location_history":"[5,4,3,4,5,4,5,4,3,2]","action_history":"[1,0,0,1,1,1,1,0,1]","door_history":"[1,0,0,1,1,1,1,0,1]","location_rts":"[2394,1020,766,458,450,496,305,1488,154]","trial_type":"two-door-navigation","trial_index":5,"time_elapsed":141925,"internal_node_id":"0.0-2.0-3.0"},{"group":"hexagon_bi","room_assignment":["yellow","green","red","purple","grey","blue"],"door_color_assignment":["black","white"],"door_generator_assignment":[0,1],"goal":1,"start":2,"action_noise":0,"location_history":"[2,3,4,5,0,1]","action_history":"[1,0,1,0,1]","door_history":"[1,0,1,0,1]","location_rts":"[1850,682,714,570,579]","trial_type":"two-door-navigation","trial_index":6,"time_elapsed":155586,"internal_node_id":"0.0-2.0-4.0"},{"group":"hexagon_bi","room_assignment":["yellow","green","red","purple","grey","blue"],"door_color_assignment":["black","white"],"door_generator_assignment":[0,1],"goal":4,"start":1,"action_noise":0,"location_history":"[1,2,3,4]","action_history":"[0,1,0]","door_history":"[0,1,0]","location_rts":"[2216,393,308]","trial_type":"two-door-navigation","trial_index":7,"time_elapsed":165700,"internal_node_id":"0.0-2.0-5.0"},{"group":"hexagon_bi","room_assignment":["yellow","green","red","purple","grey","blue"],"door_color_assignment":["black","white"],"door_generator_assignment":[0,1],"goal":1,"start":4,"action_noise":0,"location_history":"[4,5,0,1]","action_history":"[1,0,1]","door_history":"[1,0,1]","location_rts":"[1552,482,504]","trial_type":"two-door-navigation","trial_index":8,"time_elapsed":175396,"internal_node_id":"0.0-2.0-6.0"},{"group":"hexagon_bi","room_assignment":["yellow","green","red","purple","grey","blue"],"door_color_assignment":["black","white"],"door_generator_assignment":[0,1],"goal":5,"start":1,"action_noise":0,"location_history":"[1,0,5]","action_history":"[1,0]","door_history":"[1,0]","location_rts":"[2481,606]","trial_type":"two-door-navigation","trial_index":9,"time_elapsed":184683,"internal_node_id":"0.0-2.0-7.0"},{"group":"hexagon_bi","room_assignment":["yellow","green","red","purple","grey","blue"],"door_color_assignment":["black","white"],"door_generator_assignment":[0,1],"goal":0,"start":5,"action_noise":0,"location_history":"[5,4,3,2,1,0]","action_history":"[1,0,1,0,1]","door_history":"[1,0,1,0,1]","location_rts":"[1872,593,462,580,500]","trial_type":"two-door-navigation","trial_index":10,"time_elapsed":197930,"internal_node_id":"0.0-2.0-8.0"},{"group":"hexagon_bi","room_assignment":["yellow","green","red","purple","grey","blue"],"door_color_assignment":["black","white"],"door_generator_assignment":[0,1],"goal":2,"start":0,"action_noise":0,"location_history":"[0,5,4,3,2]","action_history":"[0,1,0,1]","door_history":"[0,1,0,1]","location_rts":"[5996,474,478,493]","trial_type":"two-door-navigation","trial_index":11,"time_elapsed":213617,"internal_node_id":"0.0-2.0-9.0"},{"group":"hexagon_bi","room_assignment":["yellow","green","red","purple","grey","blue"],"door_color_assignment":["black","white"],"door_generator_assignment":[0,1],"goal":3,"start":2,"action_noise":0,"location_history":"[2,3]","action_history":"[1]","door_history":"[1]","location_rts":"[1910]","trial_type":"two-door-navigation","trial_index":12,"time_elapsed":220558,"internal_node_id":"0.0-2.0-10.0"},{"group":"hexagon_bi","room_assignment":["yellow","green","red","purple","grey","blue"],"door_color_assignment":["black","white"],"door_generator_assignment":[0,1],"goal":0,"start":3,"action_noise":0,"location_history":"[3,4,5,0]","action_history":"[0,1,0]","door_history":"[0,1,0]","location_rts":"[2276,211,468]","trial_type":"two-door-navigation","trial_index":13,"time_elapsed":230757,"internal_node_id":"0.0-2.0-11.0"},{"group":"hexagon_bi","room_assignment":["yellow","green","red","purple","grey","blue"],"door_color_assignment":["black","white"],"door_generator_assignment":[0,1],"goal":2,"start":0,"action_noise":0,"location_history":"[0,1,2]","action_history":"[1,0]","door_history":"[1,0]","location_rts":"[2320,449]","trial_type":"two-door-navigation","trial_index":14,"time_elapsed":239666,"internal_node_id":"0.0-2.0-12.0"},{"group":"hexagon_bi","room_assignment":["yellow","green","red","purple","grey","blue"],"door_color_assignment":["black","white"],"door_generator_assignment":[0,1],"goal":5,"start":2,"action_noise":0,"location_history":"[2,1,0,5]","action_history":"[0,1,0]","door_history":"[0,1,0]","location_rts":"[1376,1127,716]","trial_type":"two-door-navigation","trial_index":15,"time_elapsed":250178,"internal_node_id":"0.0-2.0-13.0"},{"group":"hexagon_bi","room_assignment":["yellow","green","red","purple","grey","blue"],"door_color_assignment":["black","white"],"door_generator_assignment":[0,1],"goal":4,"start":5,"action_noise":0,"location_history":"[5,0,1,2,3,4]","action_history":"[0,1,0,1,0]","door_history":"[0,1,0,1,0]","location_rts":"[1743,444,576,695,673]","trial_type":"two-door-navigation","trial_index":16,"time_elapsed":263573,"internal_node_id":"0.0-2.0-14.0"},{"group":"hexagon_bi","room_assignment":["yellow","green","red","purple","grey","blue"],"door_color_assignment":["black","white"],"door_generator_assignment":[0,1],"goal":3,"start":4,"action_noise":0,"location_history":"[4,5,4,3]","action_history":"[1,1,0]","door_history":"[1,1,0]","location_rts":"[1516,767,984]","trial_type":"two-door-navigation","trial_index":17,"time_elapsed":274022,"internal_node_id":"0.0-2.0-15.0"},{"group":"hexagon_bi","room_assignment":["yellow","green","red","purple","grey","blue"],"door_color_assignment":["black","white"],"door_generator_assignment":[0,1],"goal":1,"start":3,"action_noise":0,"location_history":"[3,4,5,0,1]","action_history":"[0,1,0,1]","door_history":"[0,1,0,1]","location_rts":"[2228,559,1073,961]","trial_type":"two-door-navigation","trial_index":18,"time_elapsed":287212,"internal_node_id":"0.0-2.0-16.0"},{"group":"hexagon_bi","room_assignment":["yellow","green","red","purple","grey","blue"],"door_color_assignment":["black","white"],"door_generator_assignment":[0,1],"goal":5,"start":1,"action_noise":0,"location_history":"[1,2,3,4,5]","action_history":"[0,1,0,1]","door_history":"[0,1,0,1]","location_rts":"[1692,758,741,734]","trial_type":"two-door-navigation","trial_index":19,"time_elapsed":299357,"internal_node_id":"0.0-2.0-17.0"},{"group":"hexagon_bi","room_assignment":["yellow","green","red","purple","grey","blue"],"door_color_assignment":["black","white"],"door_generator_assignment":[0,1],"goal":4,"start":5,"action_noise":0,"location_history":"[5,4]","action_history":"[1]","door_history":"[1]","location_rts":"[2161]","trial_type":"two-door-navigation","trial_index":20,"time_elapsed":306558,"internal_node_id":"0.0-2.0-18.0"},{"group":"hexagon_bi","room_assignment":["yellow","green","red","purple","grey","blue"],"door_color_assignment":["black","white"],"door_generator_assignment":[0,1],"goal":0,"start":4,"action_noise":0,"location_history":"[4,5,0]","action_history":"[1,0]","door_history":"[1,0]","location_rts":"[1656,894]","trial_type":"two-door-navigation","trial_index":21,"time_elapsed":315193,"internal_node_id":"0.0-2.0-19.0"},{"group":"hexagon_bi","room_assignment":["yellow","green","red","purple","grey","blue"],"door_color_assignment":["black","white"],"door_generator_assignment":[0,1],"goal":1,"start":0,"action_noise":0,"location_history":"[0,5,4,3,2,3,2,3,4,5,0,1]","action_history":"[0,1,0,1,1,1,1,0,1,0,1]","door_history":"[0,1,0,1,1,1,1,0,1,0,1]","location_rts":"[3137,694,2284,639,628,935,550,842,602,587,402]","trial_type":"two-door-navigation","trial_index":22,"time_elapsed":341925,"internal_node_id":"0.0-2.0-20.0"},{"group":"hexagon_bi","room_assignment":["yellow","green","red","purple","grey","blue"],"door_color_assignment":["black","white"],"door_generator_assignment":[0,1],"goal":3,"start":1,"action_noise":0,"location_history":"[1,0,5,4,3]","action_history":"[1,0,1,0]","door_history":"[1,0,1,0]","location_rts":"[1762,689,613,701]","trial_type":"two-door-navigation","trial_index":23,"time_elapsed":353948,"internal_node_id":"0.0-2.0-21.0"},{"group":"hexagon_bi","room_assignment":["yellow","green","red","purple","grey","blue"],"door_color_assignment":["black","white"],"door_generator_assignment":[0,1],"goal":2,"start":3,"action_noise":0,"location_history":"[3,2]","action_history":"[1]","door_history":"[1]","location_rts":"[5526]","trial_type":"two-door-navigation","trial_index":24,"time_elapsed":364509,"internal_node_id":"0.0-2.0-22.0"},{"group":"hexagon_bi","room_assignment":["yellow","green","red","purple","grey","blue"],"door_color_assignment":["black","white"],"door_generator_assignment":[0,1],"goal":0,"start":2,"action_noise":0,"location_history":"[2,1,0]","action_history":"[0,1]","door_history":"[0,1]","location_rts":"[1984,570]","trial_type":"two-door-navigation","trial_index":25,"time_elapsed":373128,"internal_node_id":"0.0-2.0-23.0"},{"group":"hexagon_bi","room_assignment":["yellow","green","red","purple","grey","blue"],"door_color_assignment":["black","white"],"door_generator_assignment":[0,1],"goal":3,"start":0,"action_noise":0,"location_history":"[0,1,0,5,4,3]","action_history":"[1,1,0,1,0]","door_history":"[1,1,0,1,0]","location_rts":"[1608,432,665,542,746]","trial_type":"two-door-navigation","trial_index":26,"time_elapsed":386258,"internal_node_id":"0.0-2.0-24.0"},{"group":"hexagon_bi","room_assignment":["yellow","green","red","purple","grey","blue"],"door_color_assignment":["black","white"],"door_generator_assignment":[0,1],"goal":1,"start":3,"action_noise":0,"location_history":"[3,4,5,4,3,4,5,0,1]","action_history":"[0,1,1,0,0,1,0,1]","door_history":"[0,1,1,0,0,1,0,1]","location_rts":"[1703,479,603,487,800,583,1721,646]","trial_type":"two-door-navigation","trial_index":27,"time_elapsed":405599,"internal_node_id":"0.0-2.0-25.0"},{"group":"hexagon_bi","room_assignment":["yellow","green","red","purple","grey","blue"],"door_color_assignment":["black","white"],"door_generator_assignment":[0,1],"goal":2,"start":1,"action_noise":0,"location_history":"[1,2]","action_history":"[0]","door_history":"[0]","location_rts":"[2020]","trial_type":"two-door-navigation","trial_index":28,"time_elapsed":412658,"internal_node_id":"0.0-2.0-26.0"},{"group":"hexagon_bi","room_assignment":["yellow","green","red","purple","grey","blue"],"door_color_assignment":["black","white"],"door_generator_assignment":[0,1],"goal":5,"start":2,"action_noise":0,"location_history":"[2,1,0,5]","action_history":"[0,1,0]","door_history":"[0,1,0]","location_rts":"[1261,417,432]","trial_type":"two-door-navigation","trial_index":29,"time_elapsed":421906,"internal_node_id":"0.0-2.0-27.0"},{"group":"hexagon_bi","room_assignment":["yellow","green","red","purple","grey","blue"],"door_color_assignment":["black","white"],"door_generator_assignment":[0,1],"goal":4,"start":5,"action_noise":0,"location_history":"[5,4]","action_history":"[1]","door_history":"[1]","location_rts":"[840]","trial_type":"two-door-navigation","trial_index":30,"time_elapsed":427791,"internal_node_id":"0.0-2.0-28.0"},{"group":"hexagon_bi","room_assignment":["yellow","green","red","purple","grey","blue"],"door_color_assignment":["black","white"],"door_generator_assignment":[0,1],"goal":5,"start":4,"action_noise":0,"location_history":"[4,3,2,1,0,5]","action_history":"[0,1,0,1,0]","door_history":"[0,1,0,1,0]","location_rts":"[1552,779,875,487,488]","trial_type":"two-door-navigation","trial_index":31,"time_elapsed":441191,"internal_node_id":"0.0-2.0-29.0"},{"group":"hexagon_bi","room_assignment":["yellow","green","red","purple","grey","blue"],"door_color_assignment":["black","white"],"door_generator_assignment":[0,1],"goal":3,"start":5,"action_noise":0,"location_history":"[5,4,5,0,5,4,3]","action_history":"[1,1,0,0,1,0]","door_history":"[1,1,0,0,1,0]","location_rts":"[2183,505,628,517,468,447]","trial_type":"two-door-navigation","trial_index":32,"time_elapsed":456219,"internal_node_id":"0.0-2.0-30.0"},{"group":"hexagon_bi","room_assignment":["yellow","green","red","purple","grey","blue"],"door_color_assignment":["black","white"],"door_generator_assignment":[0,1],"goal":0,"start":3,"action_noise":0,"location_history":"[3,4,5,0]","action_history":"[0,1,0]","door_history":"[0,1,0]","location_rts":"[1118,438,375]","trial_type":"two-door-navigation","trial_index":33,"time_elapsed":465317,"internal_node_id":"0.0-2.0-31.0"},{"group":"hexagon_bi","room_assignment":["yellow","green","red","purple","grey","blue"],"door_color_assignment":["black","white"],"door_generator_assignment":[0,1],"goal":4,"start":0,"action_noise":0,"location_history":"[0,5,4]","action_history":"[0,1]","door_history":"[0,1]","location_rts":"[651,524]","trial_type":"two-door-navigation","trial_index":34,"time_elapsed":472582,"internal_node_id":"0.0-2.0-32.0"},{"group":"hexagon_bi","room_assignment":["yellow","green","red","purple","grey","blue"],"door_color_assignment":["black","white"],"door_generator_assignment":[0,1],"goal":1,"start":4,"action_noise":0,"location_history":"[4,3,2,1]","action_history":"[0,1,0]","door_history":"[0,1,0]","location_rts":"[1683,405,615]","trial_type":"two-door-navigation","trial_index":35,"time_elapsed":482379,"internal_node_id":"0.0-2.0-33.0"},{"group":"hexagon_bi","room_assignment":["yellow","green","red","purple","grey","blue"],"door_color_assignment":["black","white"],"door_generator_assignment":[0,1],"goal":2,"start":1,"action_noise":0,"location_history":"[1,2]","action_history":"[0]","door_history":"[0]","location_rts":"[1158]","trial_type":"two-door-navigation","trial_index":36,"time_elapsed":488569,"internal_node_id":"0.0-2.0-34.0"},{"group":"hexagon_bi","room_assignment":["yellow","green","red","purple","grey","blue"],"door_color_assignment":["black","white"],"door_generator_assignment":[0,1],"goal":0,"start":2,"action_noise":0,"location_history":"[2,3,4,5,0]","action_history":"[1,0,1,0]","door_history":"[1,0,1,0]","location_rts":"[1197,596,385,402]","trial_type":"two-door-navigation","trial_index":37,"time_elapsed":499423,"internal_node_id":"0.0-2.0-35.0"},{"group":"hexagon_bi","room_assignment":["yellow","green","red","purple","grey","blue"],"door_color_assignment":["black","white"],"door_generator_assignment":[0,1],"goal":5,"start":0,"action_noise":0,"location_history":"[0,5]","action_history":"[0]","door_history":"[0]","location_rts":"[1314]","trial_type":"two-door-navigation","trial_index":38,"time_elapsed":505832,"internal_node_id":"0.0-2.0-36.0"},{"group":"hexagon_bi","room_assignment":["yellow","green","red","purple","grey","blue"],"door_color_assignment":["black","white"],"door_generator_assignment":[0,1],"goal":2,"start":5,"action_noise":0,"location_history":"[5,0,1,2]","action_history":"[0,1,0]","door_history":"[0,1,0]","location_rts":"[1190,524,517]","trial_type":"two-door-navigation","trial_index":39,"time_elapsed":515252,"internal_node_id":"0.0-2.0-37.0"},{"group":"hexagon_bi","room_assignment":["yellow","green","red","purple","grey","blue"],"door_color_assignment":["black","white"],"door_generator_assignment":[0,1],"goal":1,"start":2,"action_noise":0,"location_history":"[2,3,2,1]","action_history":"[1,1,0]","door_history":"[1,1,0]","location_rts":"[2000,414,733]","trial_type":"two-door-navigation","trial_index":40,"time_elapsed":525573,"internal_node_id":"0.0-2.0-38.0"},{"group":"hexagon_bi","room_assignment":["yellow","green","red","purple","grey","blue"],"door_color_assignment":["black","white"],"door_generator_assignment":[0,1],"goal":4,"start":1,"action_noise":0,"location_history":"[1,2,1,0,5,4]","action_history":"[0,0,1,0,1]","door_history":"[0,0,1,0,1]","location_rts":"[876,700,533,258,449]","trial_type":"two-door-navigation","trial_index":41,"time_elapsed":537687,"internal_node_id":"0.0-2.0-39.0"},{"group":"hexagon_bi","room_assignment":["yellow","green","red","purple","grey","blue"],"door_color_assignment":["black","white"],"door_generator_assignment":[0,1],"goal":3,"start":4,"action_noise":0,"location_history":"[4,3]","action_history":"[0]","door_history":"[0]","location_rts":"[1303]","trial_type":"two-door-navigation","trial_index":42,"time_elapsed":544043,"internal_node_id":"0.0-2.0-40.0"},{"group":"hexagon_bi","room_assignment":["yellow","green","red","purple","grey","blue"],"door_color_assignment":["black","white"],"door_generator_assignment":[0,1],"goal":5,"start":3,"action_noise":0,"location_history":"[3,4,3,2,1,2,3,4,5]","action_history":"[0,0,1,0,0,1,0,1]","door_history":"[0,0,1,0,0,1,0,1]","location_rts":"[2391,438,865,470,838,366,277,364]","trial_type":"two-door-navigation","trial_index":43,"time_elapsed":562462,"internal_node_id":"0.0-2.0-41.0"},{"group":"hexagon_bi","room_assignment":["yellow","green","red","purple","grey","blue"],"door_color_assignment":["black","white"],"door_generator_assignment":[0,1],"goal":3,"start":5,"action_noise":0,"location_history":"[5,0,1,2,3]","action_history":"[0,1,0,1]","door_history":"[0,1,0,1]","location_rts":"[1803,286,370,449]","trial_type":"two-door-navigation","trial_index":44,"time_elapsed":573566,"internal_node_id":"0.0-2.0-42.0"},{"group":"hexagon_bi","room_assignment":["yellow","green","red","purple","grey","blue"],"door_color_assignment":["black","white"],"door_generator_assignment":[0,1],"goal":0,"start":3,"action_noise":0,"location_history":"[3,4,5,0]","action_history":"[0,1,0]","door_history":"[0,1,0]","location_rts":"[1489,425,516]","trial_type":"two-door-navigation","trial_index":45,"time_elapsed":583177,"internal_node_id":"0.0-2.0-43.0"},{"group":"hexagon_bi","room_assignment":["yellow","green","red","purple","grey","blue"],"door_color_assignment":["black","white"],"door_generator_assignment":[0,1],"goal":2,"start":0,"action_noise":0,"location_history":"[0,5,4,3,2]","action_history":"[0,1,0,1]","door_history":"[0,1,0,1]","location_rts":"[723,651,425,360]","trial_type":"two-door-navigation","trial_index":46,"time_elapsed":593567,"internal_node_id":"0.0-2.0-44.0"},{"group":"hexagon_bi","room_assignment":["yellow","green","red","purple","grey","blue"],"door_color_assignment":["black","white"],"door_generator_assignment":[0,1],"goal":4,"start":2,"action_noise":0,"location_history":"[2,1,0,5,4]","action_history":"[0,1,0,1]","door_history":"[0,1,0,1]","location_rts":"[686,469,532,494]","trial_type":"two-door-navigation","trial_index":47,"time_elapsed":603935,"internal_node_id":"0.0-2.0-45.0"},{"group":"hexagon_bi","room_assignment":["yellow","green","red","purple","grey","blue"],"door_color_assignment":["black","white"],"door_generator_assignment":[0,1],"goal":1,"start":4,"action_noise":0,"location_history":"[4,3,2,1]","action_history":"[0,1,0]","door_history":"[0,1,0]","location_rts":"[2990,399,301]","trial_type":"two-door-navigation","trial_index":48,"time_elapsed":614770,"internal_node_id":"0.0-2.0-46.0"},{"group":"hexagon_bi","room_assignment":["yellow","green","red","purple","grey","blue"],"door_color_assignment":["black","white"],"door_generator_assignment":[0,1],"goal":4,"start":1,"action_noise":0,"location_history":"[1,2,3,4]","action_history":"[0,1,0]","door_history":"[0,1,0]","location_rts":"[585,287,417]","trial_type":"two-door-navigation","trial_index":49,"time_elapsed":623201,"internal_node_id":"0.0-2.0-47.0"},{"group":"hexagon_bi","room_assignment":["yellow","green","red","purple","grey","blue"],"door_color_assignment":["black","white"],"door_generator_assignment":[0,1],"goal":3,"start":4,"action_noise":0,"location_history":"[4,3]","action_history":"[0]","door_history":"[0]","location_rts":"[724]","trial_type":"two-door-navigation","trial_index":50,"time_elapsed":629046,"internal_node_id":"0.0-2.0-48.0"},{"group":"hexagon_bi","room_assignment":["yellow","green","red","purple","grey","blue"],"door_color_assignment":["black","white"],"door_generator_assignment":[0,1],"goal":5,"start":3,"action_noise":0,"location_history":"[3,4,5]","action_history":"[0,1]","door_history":"[0,1]","location_rts":"[1221,407]","trial_type":"two-door-navigation","trial_index":51,"time_elapsed":636824,"internal_node_id":"0.0-2.0-49.0"},{"view_history":"[{\"page_index\":0,\"viewing_time\":2159}]","rt":2160,"trial_type":"instructions","trial_index":52,"time_elapsed":639985,"internal_node_id":"0.0-3.0"},{"view_history":"[{\"page_index\":0,\"viewing_time\":1537},{\"page_index\":1,\"viewing_time\":17091}]","rt":18629,"trial_type":"instructions","trial_index":53,"time_elapsed":659614,"internal_node_id":"0.0-4.0"},{"group":"hexagon_tri","fractal_assignment":["../images/org_blu.png","../images/gry_blk.png","../images/pnk_blu.png","../images/blu_wht.png","../images/ylw_slt.png","../images/cyn_red.png"],"mutagen_generator_assignment":[0,1],"goal":4,"start":0,"action_noise":0,"location_history":"[0,1,3,2,1,5,0,1,3,4]","action_history":"[1,0,0,0,1,1,1,0,1]","mutagen_history":"[1,0,0,0,1,1,1,0,1]","location_rts":"[2459,3083,2874,558,388,449,403,300,319]","trial_type":"fractal-mutation","trial_index":54,"time_elapsed":684257,"internal_node_id":"0.0-5.0-0.0"},{"group":"hexagon_tri","fractal_assignment":["../images/org_blu.png","../images/gry_blk.png","../images/pnk_blu.png","../images/blu_wht.png","../images/ylw_slt.png","../images/cyn_red.png"],"mutagen_generator_assignment":[0,1],"goal":3,"start":4,"action_noise":0,"location_history":"[4,2,1,5,4,2,1,3]","action_history":"[1,0,1,0,1,0,0]","mutagen_history":"[1,0,1,0,1,0,0]","location_rts":"[660,328,324,347,398,417,560]","trial_type":"fractal-mutation","trial_index":55,"time_elapsed":698871,"internal_node_id":"0.0-5.0-1.0"},{"group":"hexagon_tri","fractal_assignment":["../images/org_blu.png","../images/gry_blk.png","../images/pnk_blu.png","../images/blu_wht.png","../images/ylw_slt.png","../images/cyn_red.png"],"mutagen_generator_assignment":[0,1],"goal":5,"start":3,"action_noise":0,"location_history":"[3,2,1,5]","action_history":"[0,0,1]","mutagen_history":"[0,0,1]","location_rts":"[1351,306,269]","trial_type":"fractal-mutation","trial_index":56,"time_elapsed":707941,"internal_node_id":"0.0-5.0-2.0"},{"group":"hexagon_tri","fractal_assignment":["../images/org_blu.png","../images/gry_blk.png","../images/pnk_blu.png","../images/blu_wht.png","../images/ylw_slt.png","../images/cyn_red.png"],"mutagen_generator_assignment":[0,1],"goal":2,"start":5,"action_noise":0,"location_history":"[5,4,0,5,4,2]","action_history":"[0,0,0,0,1]","mutagen_history":"[0,0,0,0,1]","location_rts":"[430,522,547,586,253]","trial_type":"fractal-mutation","trial_index":57,"time_elapsed":719502,"internal_node_id":"0.0-5.0-3.0"},{"group":"hexagon_tri","fractal_assignment":["../images/org_blu.png","../images/gry_blk.png","../images/pnk_blu.png","../images/blu_wht.png","../images/ylw_slt.png","../images/cyn_red.png"],"mutagen_generator_assignment":[0,1],"goal":1,"start":2,"action_noise":0,"location_history":"[2,1]","action_history":"[0]","mutagen_history":"[0]","location_rts":"[4133]","trial_type":"fractal-mutation","trial_index":58,"time_elapsed":728750,"internal_node_id":"0.0-5.0-4.0"},{"group":"hexagon_tri","fractal_assignment":["../images/org_blu.png","../images/gry_blk.png","../images/pnk_blu.png","../images/blu_wht.png","../images/ylw_slt.png","../images/cyn_red.png"],"mutagen_generator_assignment":[0,1],"goal":4,"start":1,"action_noise":0,"location_history":"[1,5,4]","action_history":"[1,0]","mutagen_history":"[1,0]","location_rts":"[2262,2518]","trial_type":"fractal-mutation","trial_index":59,"time_elapsed":739804,"internal_node_id":"0.0-5.0-5.0"},{"group":"hexagon_tri","fractal_assignment":["../images/org_blu.png","../images/gry_blk.png","../images/pnk_blu.png","../images/blu_wht.png","../images/ylw_slt.png","../images/cyn_red.png"],"mutagen_generator_assignment":[0,1],"goal":1,"start":4,"action_noise":0,"location_history":"[4,0,1]","action_history":"[0,1]","mutagen_history":"[0,1]","location_rts":"[411,315]","trial_type":"fractal-mutation","trial_index":60,"time_elapsed":746703,"internal_node_id":"0.0-5.0-6.0"},{"group":"hexagon_tri","fractal_assignment":["../images/org_blu.png","../images/gry_blk.png","../images/pnk_blu.png","../images/blu_wht.png","../images/ylw_slt.png","../images/cyn_red.png"],"mutagen_generator_assignment":[0,1],"goal":5,"start":1,"action_noise":0,"location_history":"[1,3,2,1,3,4,2,1,5]","action_history":"[0,0,0,0,1,1,0,1]","mutagen_history":"[0,0,0,0,1,1,0,1]","location_rts":"[865,362,357,440,336,419,383,314]","trial_type":"fractal-mutation","trial_index":61,"time_elapsed":762893,"internal_node_id":"0.0-5.0-7.0"},{"group":"hexagon_tri","fractal_assignment":["../images/org_blu.png","../images/gry_blk.png","../images/pnk_blu.png","../images/blu_wht.png","../images/ylw_slt.png","../images/cyn_red.png"],"mutagen_generator_assignment":[0,1],"goal":0,"start":5,"action_noise":0,"location_history":"[5,4,2,3,2,3,4,2,1,3,4,0]","action_history":"[0,1,1,0,1,1,1,0,0,1,0]","mutagen_history":"[0,1,1,0,1,1,1,0,0,1,0]","location_rts":"[1229,359,435,397,355,413,278,403,325,166,219]","trial_type":"fractal-mutation","trial_index":62,"time_elapsed":783529,"internal_node_id":"0.0-5.0-8.0"},{"group":"hexagon_tri","fractal_assignment":["../images/org_blu.png","../images/gry_blk.png","../images/pnk_blu.png","../images/blu_wht.png","../images/ylw_slt.png","../images/cyn_red.png"],"mutagen_generator_assignment":[0,1],"goal":2,"start":0,"action_noise":0,"location_history":"[0,5,0,5,0,5,0,5,0,5,4,2]","action_history":"[0,1,0,1,0,1,0,1,0,0,1]","mutagen_history":"[0,1,0,1,0,1,0,1,0,0,1]","location_rts":"[848,386,351,293,395,307,447,348,421,842,307]","trial_type":"fractal-mutation","trial_index":63,"time_elapsed":804365,"internal_node_id":"0.0-5.0-9.0"},{"group":"hexagon_tri","fractal_assignment":["../images/org_blu.png","../images/gry_blk.png","../images/pnk_blu.png","../images/blu_wht.png","../images/ylw_slt.png","../images/cyn_red.png"],"mutagen_generator_assignment":[0,1],"goal":3,"start":2,"action_noise":0,"location_history":"[2,1,5,0,1,3]","action_history":"[0,1,1,1,0]","mutagen_history":"[0,1,1,1,0]","location_rts":"[1070,476,593,463,277]","trial_type":"fractal-mutation","trial_index":64,"time_elapsed":816681,"internal_node_id":"0.0-5.0-10.0"},{"group":"hexagon_tri","fractal_assignment":["../images/org_blu.png","../images/gry_blk.png","../images/pnk_blu.png","../images/blu_wht.png","../images/ylw_slt.png","../images/cyn_red.png"],"mutagen_generator_assignment":[0,1],"goal":0,"start":3,"action_noise":0,"location_history":"[3,2,3,4,0]","action_history":"[0,1,1,0]","mutagen_history":"[0,1,1,0]","location_rts":"[1033,581,591,432]","trial_type":"fractal-mutation","trial_index":65,"time_elapsed":827687,"internal_node_id":"0.0-5.0-11.0"},{"group":"hexagon_tri","fractal_assignment":["../images/org_blu.png","../images/gry_blk.png","../images/pnk_blu.png","../images/blu_wht.png","../images/ylw_slt.png","../images/cyn_red.png"],"mutagen_generator_assignment":[0,1],"goal":2,"start":0,"action_noise":0,"location_history":"[0,1,3,4,0,1,3,4,2]","action_history":"[1,0,1,0,1,0,1,1]","mutagen_history":"[1,0,1,0,1,0,1,1]","location_rts":"[427,302,252,362,223,408,424,336]","trial_type":"fractal-mutation","trial_index":66,"time_elapsed":843190,"internal_node_id":"0.0-5.0-12.0"},{"group":"hexagon_tri","fractal_assignment":["../images/org_blu.png","../images/gry_blk.png","../images/pnk_blu.png","../images/blu_wht.png","../images/ylw_slt.png","../images/cyn_red.png"],"mutagen_generator_assignment":[0,1],"goal":5,"start":2,"action_noise":0,"location_history":"[2,3,2,3,4,2,1,5]","action_history":"[1,0,1,1,1,0,1]","mutagen_history":"[1,0,1,1,1,0,1]","location_rts":"[377,214,359,373,560,762,561]","trial_type":"fractal-mutation","trial_index":67,"time_elapsed":857962,"internal_node_id":"0.0-5.0-13.0"},{"group":"hexagon_tri","fractal_assignment":["../images/org_blu.png","../images/gry_blk.png","../images/pnk_blu.png","../images/blu_wht.png","../images/ylw_slt.png","../images/cyn_red.png"],"mutagen_generator_assignment":[0,1],"goal":4,"start":5,"action_noise":0,"location_history":"[5,4]","action_history":"[0]","mutagen_history":"[0]","location_rts":"[1460]","trial_type":"fractal-mutation","trial_index":68,"time_elapsed":864474,"internal_node_id":"0.0-5.0-14.0"},{"group":"hexagon_tri","fractal_assignment":["../images/org_blu.png","../images/gry_blk.png","../images/pnk_blu.png","../images/blu_wht.png","../images/ylw_slt.png","../images/cyn_red.png"],"mutagen_generator_assignment":[0,1],"goal":3,"start":4,"action_noise":0,"location_history":"[4,0,1,3]","action_history":"[0,1,0]","mutagen_history":"[0,1,0]","location_rts":"[668,345,395]","trial_type":"fractal-mutation","trial_index":69,"time_elapsed":873133,"internal_node_id":"0.0-5.0-15.0"},{"group":"hexagon_tri","fractal_assignment":["../images/org_blu.png","../images/gry_blk.png","../images/pnk_blu.png","../images/blu_wht.png","../images/ylw_slt.png","../images/cyn_red.png"],"mutagen_generator_assignment":[0,1],"goal":1,"start":3,"action_noise":0,"location_history":"[3,4,0,1]","action_history":"[1,0,1]","mutagen_history":"[1,0,1]","location_rts":"[938,518,278]","trial_type":"fractal-mutation","trial_index":70,"time_elapsed":882247,"internal_node_id":"0.0-5.0-16.0"},{"group":"hexagon_tri","fractal_assignment":["../images/org_blu.png","../images/gry_blk.png","../images/pnk_blu.png","../images/blu_wht.png","../images/ylw_slt.png","../images/cyn_red.png"],"mutagen_generator_assignment":[0,1],"goal":5,"start":1,"action_noise":0,"location_history":"[1,3,4,0,1,3,4,2,1,5]","action_history":"[0,1,0,1,0,1,1,0,1]","mutagen_history":"[0,1,0,1,0,1,1,0,1]","location_rts":"[473,512,313,373,391,322,262,403,745]","trial_type":"fractal-mutation","trial_index":71,"time_elapsed":899850,"internal_node_id":"0.0-5.0-17.0"},{"group":"hexagon_tri","fractal_assignment":["../images/org_blu.png","../images/gry_blk.png","../images/pnk_blu.png","../images/blu_wht.png","../images/ylw_slt.png","../images/cyn_red.png"],"mutagen_generator_assignment":[0,1],"goal":4,"start":5,"action_noise":0,"location_history":"[5,0,5,0,1,3,2,3,2,1,3,4]","action_history":"[1,0,1,1,0,0,1,0,0,0,1]","mutagen_history":"[1,0,1,1,0,0,1,0,0,0,1]","location_rts":"[818,707,381,336,242,453,394,263,294,421,313]","trial_type":"fractal-mutation","trial_index":72,"time_elapsed":920435,"internal_node_id":"0.0-5.0-18.0"},{"group":"hexagon_tri","fractal_assignment":["../images/org_blu.png","../images/gry_blk.png","../images/pnk_blu.png","../images/blu_wht.png","../images/ylw_slt.png","../images/cyn_red.png"],"mutagen_generator_assignment":[0,1],"goal":0,"start":4,"action_noise":0,"location_history":"[4,2,1,5,0]","action_history":"[1,0,1,1]","mutagen_history":"[1,0,1,1]","location_rts":"[542,395,396,614]","trial_type":"fractal-mutation","trial_index":73,"time_elapsed":930769,"internal_node_id":"0.0-5.0-19.0"},{"group":"hexagon_tri","fractal_assignment":["../images/org_blu.png","../images/gry_blk.png","../images/pnk_blu.png","../images/blu_wht.png","../images/ylw_slt.png","../images/cyn_red.png"],"mutagen_generator_assignment":[0,1],"goal":1,"start":0,"action_noise":0,"location_history":"[0,1]","action_history":"[1]","mutagen_history":"[1]","location_rts":"[678]","trial_type":"fractal-mutation","trial_index":74,"time_elapsed":936526,"internal_node_id":"0.0-5.0-20.0"},{"group":"hexagon_tri","fractal_assignment":["../images/org_blu.png","../images/gry_blk.png","../images/pnk_blu.png","../images/blu_wht.png","../images/ylw_slt.png","../images/cyn_red.png"],"mutagen_generator_assignment":[0,1],"goal":3,"start":1,"action_noise":0,"location_history":"[1,3]","action_history":"[0]","mutagen_history":"[0]","location_rts":"[1265]","trial_type":"fractal-mutation","trial_index":75,"time_elapsed":942882,"internal_node_id":"0.0-5.0-21.0"},{"group":"hexagon_tri","fractal_assignment":["../images/org_blu.png","../images/gry_blk.png","../images/pnk_blu.png","../images/blu_wht.png","../images/ylw_slt.png","../images/cyn_red.png"],"mutagen_generator_assignment":[0,1],"goal":2,"start":3,"action_noise":0,"location_history":"[3,2]","action_history":"[0]","mutagen_history":"[0]","location_rts":"[795]","trial_type":"fractal-mutation","trial_index":76,"time_elapsed":948792,"internal_node_id":"0.0-5.0-22.0"},{"group":"hexagon_tri","fractal_assignment":["../images/org_blu.png","../images/gry_blk.png","../images/pnk_blu.png","../images/blu_wht.png","../images/ylw_slt.png","../images/cyn_red.png"],"mutagen_generator_assignment":[0,1],"goal":0,"start":2,"action_noise":0,"location_history":"[2,1,5,4,2,3,4,2,1,5,4,0]","action_history":"[0,1,0,1,1,1,1,0,1,0,0]","mutagen_history":"[0,1,0,1,1,1,1,0,1,0,0]","location_rts":"[1443,482,443,469,455,485,538,363,390,384,479]","trial_type":"fractal-mutation","trial_index":77,"time_elapsed":970578,"internal_node_id":"0.0-5.0-23.0"},{"group":"hexagon_tri","fractal_assignment":["../images/org_blu.png","../images/gry_blk.png","../images/pnk_blu.png","../images/blu_wht.png","../images/ylw_slt.png","../images/cyn_red.png"],"mutagen_generator_assignment":[0,1],"goal":3,"start":0,"action_noise":0,"location_history":"[0,1,5,4,0,5,0,5,0,1,5,4,0,5,0,1,3]","action_history":"[1,1,0,0,0,1,0,1,1,1,0,0,0,1,1,0]","mutagen_history":"[1,1,0,0,0,1,0,1,1,1,0,0,0,1,1,0]","location_rts":"[814,431,290,637,403,307,347,532,155,363,610,408,328,577,425,902]","trial_type":"fractal-mutation","trial_index":78,"time_elapsed":999406,"internal_node_id":"0.0-5.0-24.0"},{"group":"hexagon_tri","fractal_assignment":["../images/org_blu.png","../images/gry_blk.png","../images/pnk_blu.png","../images/blu_wht.png","../images/ylw_slt.png","../images/cyn_red.png"],"mutagen_generator_assignment":[0,1],"goal":1,"start":3,"action_noise":0,"location_history":"[3,2,3,4,2,3,2,1]","action_history":"[0,1,1,1,1,0,0]","mutagen_history":"[0,1,1,1,1,0,0]","location_rts":"[671,458,574,436,500,226,481]","trial_type":"fractal-mutation","trial_index":79,"time_elapsed":1014325,"internal_node_id":"0.0-5.0-25.0"},{"group":"hexagon_tri","fractal_assignment":["../images/org_blu.png","../images/gry_blk.png","../images/pnk_blu.png","../images/blu_wht.png","../images/ylw_slt.png","../images/cyn_red.png"],"mutagen_generator_assignment":[0,1],"goal":2,"start":1,"action_noise":0,"location_history":"[1,5,4,2]","action_history":"[1,0,1]","mutagen_history":"[1,0,1]","location_rts":"[1453,324,390]","trial_type":"fractal-mutation","trial_index":80,"time_elapsed":1023799,"internal_node_id":"0.0-5.0-26.0"},{"group":"hexagon_tri","fractal_assignment":["../images/org_blu.png","../images/gry_blk.png","../images/pnk_blu.png","../images/blu_wht.png","../images/ylw_slt.png","../images/cyn_red.png"],"mutagen_generator_assignment":[0,1],"goal":5,"start":2,"action_noise":0,"location_history":"[2,3,4,2,1,5]","action_history":"[1,1,1,0,1]","mutagen_history":"[1,1,1,0,1]","location_rts":"[1637,400,388,347,419]","trial_type":"fractal-mutation","trial_index":81,"time_elapsed":1036381,"internal_node_id":"0.0-5.0-27.0"},{"group":"hexagon_tri","fractal_assignment":["../images/org_blu.png","../images/gry_blk.png","../images/pnk_blu.png","../images/blu_wht.png","../images/ylw_slt.png","../images/cyn_red.png"],"mutagen_generator_assignment":[0,1],"goal":4,"start":5,"action_noise":0,"location_history":"[5,4]","action_history":"[0]","mutagen_history":"[0]","location_rts":"[1215]","trial_type":"fractal-mutation","trial_index":82,"time_elapsed":1042680,"internal_node_id":"0.0-5.0-28.0"},{"group":"hexagon_tri","fractal_assignment":["../images/org_blu.png","../images/gry_blk.png","../images/pnk_blu.png","../images/blu_wht.png","../images/ylw_slt.png","../images/cyn_red.png"],"mutagen_generator_assignment":[0,1],"goal":5,"start":4,"action_noise":0,"location_history":"[4,0,1,3,4,2,3,2,3,2,3,2,1,5]","action_history":"[0,1,0,1,1,1,0,1,0,1,0,0,1]","mutagen_history":"[0,1,0,1,1,1,0,1,0,1,0,0,1]","location_rts":"[1113,647,415,338,582,460,356,447,212,531,305,404,400]","trial_type":"fractal-mutation","trial_index":83,"time_elapsed":1067026,"internal_node_id":"0.0-5.0-29.0"},{"group":"hexagon_tri","fractal_assignment":["../images/org_blu.png","../images/gry_blk.png","../images/pnk_blu.png","../images/blu_wht.png","../images/ylw_slt.png","../images/cyn_red.png"],"mutagen_generator_assignment":[0,1],"goal":3,"start":5,"action_noise":0,"location_history":"[5,0,1,3]","action_history":"[1,1,0]","mutagen_history":"[1,1,0]","location_rts":"[1055,1126,297]","trial_type":"fractal-mutation","trial_index":84,"time_elapsed":1076833,"internal_node_id":"0.0-5.0-30.0"},{"group":"hexagon_tri","fractal_assignment":["../images/org_blu.png","../images/gry_blk.png","../images/pnk_blu.png","../images/blu_wht.png","../images/ylw_slt.png","../images/cyn_red.png"],"mutagen_generator_assignment":[0,1],"goal":0,"start":3,"action_noise":0,"location_history":"[3,2,3,2,3,4,0]","action_history":"[0,1,0,1,1,0]","mutagen_history":"[0,1,0,1,1,0]","location_rts":"[1821,652,427,389,402,450]","trial_type":"fractal-mutation","trial_index":85,"time_elapsed":1091491,"internal_node_id":"0.0-5.0-31.0"},{"group":"hexagon_tri","fractal_assignment":["../images/org_blu.png","../images/gry_blk.png","../images/pnk_blu.png","../images/blu_wht.png","../images/ylw_slt.png","../images/cyn_red.png"],"mutagen_generator_assignment":[0,1],"goal":4,"start":0,"action_noise":0,"location_history":"[0,1,3,4]","action_history":"[1,0,1]","mutagen_history":"[1,0,1]","location_rts":"[2511,321,370]","trial_type":"fractal-mutation","trial_index":86,"time_elapsed":1102008,"internal_node_id":"0.0-5.0-32.0"},{"group":"hexagon_tri","fractal_assignment":["../images/org_blu.png","../images/gry_blk.png","../images/pnk_blu.png","../images/blu_wht.png","../images/ylw_slt.png","../images/cyn_red.png"],"mutagen_generator_assignment":[0,1],"goal":1,"start":4,"action_noise":0,"location_history":"[4,2,1]","action_history":"[1,0]","mutagen_history":"[1,0]","location_rts":"[406,473]","trial_type":"fractal-mutation","trial_index":87,"time_elapsed":1109080,"internal_node_id":"0.0-5.0-33.0"},{"group":"hexagon_tri","fractal_assignment":["../images/org_blu.png","../images/gry_blk.png","../images/pnk_blu.png","../images/blu_wht.png","../images/ylw_slt.png","../images/cyn_red.png"],"mutagen_generator_assignment":[0,1],"goal":2,"start":1,"action_noise":0,"location_history":"[1,3,4,0,1,5,0,5,0,5,4,2]","action_history":"[0,1,0,1,1,1,0,1,0,0,1]","mutagen_history":"[0,1,0,1,1,1,0,1,0,0,1]","location_rts":"[402,432,384,375,563,528,254,494,751,208,376]","trial_type":"fractal-mutation","trial_index":88,"time_elapsed":1129830,"internal_node_id":"0.0-5.0-34.0"},{"group":"hexagon_tri","fractal_assignment":["../images/org_blu.png","../images/gry_blk.png","../images/pnk_blu.png","../images/blu_wht.png","../images/ylw_slt.png","../images/cyn_red.png"],"mutagen_generator_assignment":[0,1],"goal":0,"start":2,"action_noise":0,"location_history":"[2,3,2,1,5,0]","action_history":"[1,0,0,1,1]","mutagen_history":"[1,0,0,1,1]","location_rts":"[487,272,298,349,318]","trial_type":"fractal-mutation","trial_index":89,"time_elapsed":1140992,"internal_node_id":"0.0-5.0-35.0"},{"group":"hexagon_tri","fractal_assignment":["../images/org_blu.png","../images/gry_blk.png","../images/pnk_blu.png","../images/blu_wht.png","../images/ylw_slt.png","../images/cyn_red.png"],"mutagen_generator_assignment":[0,1],"goal":5,"start":0,"action_noise":0,"location_history":"[0,5]","action_history":"[0]","mutagen_history":"[0]","location_rts":"[7736]","trial_type":"fractal-mutation","trial_index":90,"time_elapsed":1153835,"internal_node_id":"0.0-5.0-36.0"},{"group":"hexagon_tri","fractal_assignment":["../images/org_blu.png","../images/gry_blk.png","../images/pnk_blu.png","../images/blu_wht.png","../images/ylw_slt.png","../images/cyn_red.png"],"mutagen_generator_assignment":[0,1],"goal":2,"start":5,"action_noise":0,"location_history":"[5,0,5,0,1,3,2]","action_history":"[1,0,1,1,0,0]","mutagen_history":"[1,0,1,1,0,0]","location_rts":"[242,348,286,394,61,530]","trial_type":"fractal-mutation","trial_index":91,"time_elapsed":1166299,"internal_node_id":"0.0-5.0-37.0"},{"group":"hexagon_tri","fractal_assignment":["../images/org_blu.png","../images/gry_blk.png","../images/pnk_blu.png","../images/blu_wht.png","../images/ylw_slt.png","../images/cyn_red.png"],"mutagen_generator_assignment":[0,1],"goal":1,"start":2,"action_noise":0,"location_history":"[2,1]","action_history":"[0]","mutagen_history":"[0]","location_rts":"[13]","trial_type":"fractal-mutation","trial_index":92,"time_elapsed":1171404,"internal_node_id":"0.0-5.0-38.0"},{"group":"hexagon_tri","fractal_assignment":["../images/org_blu.png","../images/gry_blk.png","../images/pnk_blu.png","../images/blu_wht.png","../images/ylw_slt.png","../images/cyn_red.png"],"mutagen_generator_assignment":[0,1],"goal":4,"start":1,"action_noise":0,"location_history":"[1,3,4]","action_history":"[0,1]","mutagen_history":"[0,1]","location_rts":"[461,689]","trial_type":"fractal-mutation","trial_index":93,"time_elapsed":1178752,"internal_node_id":"0.0-5.0-39.0"},{"group":"hexagon_tri","fractal_assignment":["../images/org_blu.png","../images/gry_blk.png","../images/pnk_blu.png","../images/blu_wht.png","../images/ylw_slt.png","../images/cyn_red.png"],"mutagen_generator_assignment":[0,1],"goal":3,"start":4,"action_noise":0,"location_history":"[4,2,1,5,4,0,1,3]","action_history":"[1,0,1,0,0,1,0]","mutagen_history":"[1,0,1,0,0,1,0]","location_rts":"[962,325,273,275,62,304,355]","trial_type":"fractal-mutation","trial_index":94,"time_elapsed":1192961,"internal_node_id":"0.0-5.0-40.0"},{"group":"hexagon_tri","fractal_assignment":["../images/org_blu.png","../images/gry_blk.png","../images/pnk_blu.png","../images/blu_wht.png","../images/ylw_slt.png","../images/cyn_red.png"],"mutagen_generator_assignment":[0,1],"goal":5,"start":3,"action_noise":0,"location_history":"[3,4,0,5]","action_history":"[1,0,0]","mutagen_history":"[1,0,0]","location_rts":"[1050,468,508]","trial_type":"fractal-mutation","trial_index":95,"time_elapsed":1202183,"internal_node_id":"0.0-5.0-41.0"},{"group":"hexagon_tri","fractal_assignment":["../images/org_blu.png","../images/gry_blk.png","../images/pnk_blu.png","../images/blu_wht.png","../images/ylw_slt.png","../images/cyn_red.png"],"mutagen_generator_assignment":[0,1],"goal":3,"start":5,"action_noise":0,"location_history":"[5,0,1,3]","action_history":"[1,1,0]","mutagen_history":"[1,1,0]","location_rts":"[1241,639,432]","trial_type":"fractal-mutation","trial_index":96,"time_elapsed":1211767,"internal_node_id":"0.0-5.0-42.0"},{"group":"hexagon_tri","fractal_assignment":["../images/org_blu.png","../images/gry_blk.png","../images/pnk_blu.png","../images/blu_wht.png","../images/ylw_slt.png","../images/cyn_red.png"],"mutagen_generator_assignment":[0,1],"goal":0,"start":3,"action_noise":0,"location_history":"[3,4,2,1,5,0]","action_history":"[1,1,0,1,1]","mutagen_history":"[1,1,0,1,1]","location_rts":"[1771,734,518,551,550]","trial_type":"fractal-mutation","trial_index":97,"time_elapsed":1225316,"internal_node_id":"0.0-5.0-43.0"},{"group":"hexagon_tri","fractal_assignment":["../images/org_blu.png","../images/gry_blk.png","../images/pnk_blu.png","../images/blu_wht.png","../images/ylw_slt.png","../images/cyn_red.png"],"mutagen_generator_assignment":[0,1],"goal":2,"start":0,"action_noise":0,"location_history":"[0,1,3,2]","action_history":"[1,0,0]","mutagen_history":"[1,0,0]","location_rts":"[907,289,446]","trial_type":"fractal-mutation","trial_index":98,"time_elapsed":1234222,"internal_node_id":"0.0-5.0-44.0"},{"group":"hexagon_tri","fractal_assignment":["../images/org_blu.png","../images/gry_blk.png","../images/pnk_blu.png","../images/blu_wht.png","../images/ylw_slt.png","../images/cyn_red.png"],"mutagen_generator_assignment":[0,1],"goal":4,"start":2,"action_noise":0,"location_history":"[2,3,2,3,4]","action_history":"[1,0,1,1]","mutagen_history":"[1,0,1,1]","location_rts":"[1256,485,293,412]","trial_type":"fractal-mutation","trial_index":99,"time_elapsed":1245018,"internal_node_id":"0.0-5.0-45.0"},{"group":"hexagon_tri","fractal_assignment":["../images/org_blu.png","../images/gry_blk.png","../images/pnk_blu.png","../images/blu_wht.png","../images/ylw_slt.png","../images/cyn_red.png"],"mutagen_generator_assignment":[0,1],"goal":1,"start":4,"action_noise":0,"location_history":"[4,2,1]","action_history":"[1,0]","mutagen_history":"[1,0]","location_rts":"[581,806]","trial_type":"fractal-mutation","trial_index":100,"time_elapsed":1252582,"internal_node_id":"0.0-5.0-46.0"},{"group":"hexagon_tri","fractal_assignment":["../images/org_blu.png","../images/gry_blk.png","../images/pnk_blu.png","../images/blu_wht.png","../images/ylw_slt.png","../images/cyn_red.png"],"mutagen_generator_assignment":[0,1],"goal":4,"start":1,"action_noise":0,"location_history":"[1,3,2,3,2,3,4]","action_history":"[0,0,1,0,1,1]","mutagen_history":"[0,0,1,0,1,1]","location_rts":"[1238,408,265,462,369,426]","trial_type":"fractal-mutation","trial_index":101,"time_elapsed":1266300,"internal_node_id":"0.0-5.0-47.0"},{"group":"hexagon_tri","fractal_assignment":["../images/org_blu.png","../images/gry_blk.png","../images/pnk_blu.png","../images/blu_wht.png","../images/ylw_slt.png","../images/cyn_red.png"],"mutagen_generator_assignment":[0,1],"goal":3,"start":4,"action_noise":0,"location_history":"[4,0,1,5,0,5,4,0,1,3]","action_history":"[0,1,1,1,0,0,0,1,0]","mutagen_history":"[0,1,1,1,0,0,0,1,0]","location_rts":"[670,286,343,444,381,763,742,368,767]","trial_type":"fractal-mutation","trial_index":102,"time_elapsed":1284892,"internal_node_id":"0.0-5.0-48.0"},{"group":"hexagon_tri","fractal_assignment":["../images/org_blu.png","../images/gry_blk.png","../images/pnk_blu.png","../images/blu_wht.png","../images/ylw_slt.png","../images/cyn_red.png"],"mutagen_generator_assignment":[0,1],"goal":5,"start":3,"action_noise":0,"location_history":"[3,4,2,1,3,4,2,1,3,2,1,5]","action_history":"[1,1,0,0,1,1,0,0,0,0,1]","mutagen_history":"[1,1,0,0,1,1,0,0,0,0,1]","location_rts":"[1691,4704,468,346,97,359,386,349,1089,374,232]","trial_type":"fractal-mutation","trial_index":103,"time_elapsed":1311053,"internal_node_id":"0.0-5.0-49.0"},{"view_history":"[{\"page_index\":0,\"viewing_time\":19064}]","rt":19064,"trial_type":"instructions","trial_index":104,"time_elapsed":1331119,"internal_node_id":"0.0-6.0"},{"rt":4544,"responses":"{\"Q0\":\"NONE\"}","trial_type":"survey-text","trial_index":105,"time_elapsed":1336673,"internal_node_id":"0.0-7.0"}]