[{"view_history":"[{\"page_index\":0,\"viewing_time\":83424},{\"page_index\":1,\"viewing_time\":7988},{\"page_index\":2,\"viewing_time\":9247}]","rt":100661,"trial_type":"instructions","trial_index":0,"time_elapsed":100664,"internal_node_id":"0.0-0.0"},{"view_history":"[{\"page_index\":0,\"viewing_time\":1419},{\"page_index\":1,\"viewing_time\":10040}]","rt":11460,"trial_type":"instructions","trial_index":1,"time_elapsed":113126,"internal_node_id":"0.0-1.0"},{"group":"hexagon_tri","room_assignment":["red","purple","green","blue","yellow","grey"],"door_color_assignment":["black","white"],"door_generator_assignment":[1,0],"goal":4,"start":0,"action_noise":0,"location_history":"[0,1,5,0,1,5,0,1,5,0,1,5,0,5,4]","action_history":"[1,1,1,1,1,1,1,1,1,1,1,1,0,0]","door_history":"[0,0,0,0,0,0,0,0,0,0,0,0,1,1]","location_rts":"[3754,2312,861,574,520,379,351,350,351,601,748,506,975,391]","trial_type":"two-door-navigation","trial_index":2,"time_elapsed":144991,"internal_node_id":"0.0-2.0-0.0"},{"group":"hexagon_tri","room_assignment":["red","purple","green","blue","yellow","grey"],"door_color_assignment":["black","white"],"door_generator_assignment":[1,0],"goal":3,"start":4,"action_noise":0,"location_history":"[4,2,3]","action_history":"[1,1]","door_history":"[0,0]","location_rts":"[15170,675]","trial_type":"two-door-navigation","trial_index":3,"time_elapsed":167048,"internal_node_id":"0.0-2.0-1.0"},{"group":"hexagon_tri","room_assignment":["red","purple","green","blue","yellow","grey"],"door_color_assignment":["black","white"],"door_generator_assignment":[1,0],"goal":5,"start":3,"action_noise":0,"location_history":"[3,4,2,3,4,0,5]","action_history":"[1,1,1,1,0,0]","door_history":"[0,0,0,0,1,1]","location_rts":"[2242,1042,401,531,1067,705]","trial_type":"two-door-navigation","trial_index":4,"time_elapsed":183230,"internal_node_id":"0.0-2.0-2.0"},{"group":"hexagon_tri","room_assignment":["red","purple","green","blue","yellow","grey"],"door_color_assignment":["black","white"],"door_generator_assignment":[1,0],"goal":2,"start":5,"action_noise":0,"location_history":"[5,4,0,5,4,2]","action_history":"[0,0,0,0,1]","door_history":"[1,1,1,1,0]","location_rts":"[1076,644,469,463,849]","trial_type":"two-door-navigation","trial_index":5,"time_elapsed":195848,"internal_node_id":"0.0-2.0-3.0"},{"group":"hexagon_tri","room_assignment":["red","purple","green","blue","yellow","grey"],"door_color_assignment":["black","white"],"door_generator_assignment":[1,0],"goal":1,"start":2,"action_noise":0,"location_history":"[2,3,2,3,4,0,5,4,0,5,0,1]","action_history":"[1,0,1,1,0,0,0,0,0,1,1]","door_history":"[0,1,0,0,1,1,1,1,1,0,0]","location_rts":"[1393,1029,725,833,727,665,333,281,667,859,331]","trial_type":"two-door-navigation","trial_index":6,"time_elapsed":218967,"internal_node_id":"0.0-2.0-4.0"},{"group":"hexagon_tri","room_assignment":["red","purple","green","blue","yellow","grey"],"door_color_assignment":["black","white"],"door_generator_assignment":[1,0],"goal":4,"start":1,"action_noise":0,"location_history":"[1,5,0,1,3,2,1,3,2,1,5,4]","action_history":"[1,1,1,0,0,0,0,0,0,1,0]","door_history":"[0,0,0,1,1,1,1,1,1,0,1]","location_rts":"[893,359,359,3236,427,409,422,378,369,310,322]","trial_type":"two-door-navigation","trial_index":7,"time_elapsed":241710,"internal_node_id":"0.0-2.0-5.0"},{"group":"hexagon_tri","room_assignment":["red","purple","green","blue","yellow","grey"],"door_color_assignment":["black","white"],"door_generator_assignment":[1,0],"goal":1,"start":4,"action_noise":0,"location_history":"[4,2,3,4,2,1]","action_history":"[1,1,1,1,0]","door_history":"[0,0,0,0,1]","location_rts":"[758,848,439,498,685]","trial_type":"two-door-navigation","trial_index":8,"time_elapsed":254059,"internal_node_id":"0.0-2.0-6.0"},{"group":"hexagon_tri","room_assignment":["red","purple","green","blue","yellow","grey"],"door_color_assignment":["black","white"],"door_generator_assignment":[1,0],"goal":5,"start":1,"action_noise":0,"location_history":"[1,3,2,3,4,2,1,3,2,1,3,4,2,3,4,2,3,4,2,3,2,1,3,2,1,5]","action_history":"[0,0,1,1,1,0,0,0,0,0,1,1,1,1,1,1,1,1,1,0,0,0,0,0,1]","door_history":"[1,1,0,0,0,1,1,1,1,1,0,0,0,0,0,0,0,0,0,1,1,1,1,1,0]","location_rts":"[809,320,546,328,384,583,480,315,325,332,204,243,261,216,322,275,309,136,254,181,343,498,401,390,478]","trial_type":"two-door-navigation","trial_index":9,"time_elapsed":292549,"internal_node_id":"0.0-2.0-7.0"},{"group":"hexagon_tri","room_assignment":["red","purple","green","blue","yellow","grey"],"door_color_assignment":["black","white"],"door_generator_assignment":[1,0],"goal":0,"start":5,"action_noise":0,"location_history":"[5,4,2,1,3,2,1,5,0]","action_history":"[0,1,0,0,0,0,1,1]","door_history":"[1,0,1,1,1,1,0,0]","location_rts":"[1073,566,775,1153,488,440,1176,1167]","trial_type":"two-door-navigation","trial_index":10,"time_elapsed":311563,"internal_node_id":"0.0-2.0-8.0"},{"group":"hexagon_tri","room_assignment":["red","purple","green","blue","yellow","grey"],"door_color_assignment":["black","white"],"door_generator_assignment":[1,0],"goal":2,"start":0,"action_noise":0,"location_history":"[0,1,3,2]","action_history":"[1,0,0]","door_history":"[0,1,1]","location_rts":"[2224,1937,941]","trial_type":"two-door-navigation","trial_index":11,"time_elapsed":323748,"internal_node_id":"0.0-2.0-9.0"},{"group":"hexagon_tri","room_assignment":["red","purple","green","blue","yellow","grey"],"door_color_assignment":["black","white"],"door_generator_assignment":[1,0],"goal":3,"start":2,"action_noise":0,"location_history":"[2,1,3]","action_history":"[0,0]","door_history":"[1,1]","location_rts":"[876,1492]","trial_type":"two-door-navigation","trial_index":12,"time_elapsed":332162,"internal_node_id":"0.0-2.0-10.0"},{"group":"hexagon_tri","room_assignment":["red","purple","green","blue","yellow","grey"],"door_color_assignment":["black","white"],"door_generator_assignment":[1,0],"goal":0,"start":3,"action_noise":0,"location_history":"[3,4,0]","action_history":"[1,0]","door_history":"[0,1]","location_rts":"[1434,1144]","trial_type":"two-door-navigation","trial_index":13,"time_elapsed":340795,"internal_node_id":"0.0-2.0-11.0"},{"group":"hexagon_tri","room_assignment":["red","purple","green","blue","yellow","grey"],"door_color_assignment":["black","white"],"door_generator_assignment":[1,0],"goal":2,"start":0,"action_noise":0,"location_history":"[0,1,3,4,2]","action_history":"[1,0,1,1]","door_history":"[0,1,0,0]","location_rts":"[3188,1765,902,863]","trial_type":"two-door-navigation","trial_index":14,"time_elapsed":355609,"internal_node_id":"0.0-2.0-12.0"},{"group":"hexagon_tri","room_assignment":["red","purple","green","blue","yellow","grey"],"door_color_assignment":["black","white"],"door_generator_assignment":[1,0],"goal":5,"start":2,"action_noise":0,"location_history":"[2,1,5]","action_history":"[0,1]","door_history":"[1,0]","location_rts":"[3372,369]","trial_type":"two-door-navigation","trial_index":15,"time_elapsed":365398,"internal_node_id":"0.0-2.0-13.0"},{"group":"hexagon_tri","room_assignment":["red","purple","green","blue","yellow","grey"],"door_color_assignment":["black","white"],"door_generator_assignment":[1,0],"goal":4,"start":5,"action_noise":0,"location_history":"[5,4]","action_history":"[0]","door_history":"[1]","location_rts":"[2857]","trial_type":"two-door-navigation","trial_index":16,"time_elapsed":373281,"internal_node_id":"0.0-2.0-14.0"},{"group":"hexagon_tri","room_assignment":["red","purple","green","blue","yellow","grey"],"door_color_assignment":["black","white"],"door_generator_assignment":[1,0],"goal":3,"start":4,"action_noise":0,"location_history":"[4,0,1,5,4,0,5,4,2,1,5,0,5,4,2,3]","action_history":"[0,1,1,0,0,0,0,1,0,1,1,0,0,1,1]","door_history":"[1,0,0,1,1,1,1,0,1,0,0,1,1,0,0]","location_rts":"[2460,1624,1761,1030,481,681,1254,773,626,568,1126,560,390,639,321]","trial_type":"two-door-navigation","trial_index":17,"time_elapsed":406915,"internal_node_id":"0.0-2.0-15.0"},{"group":"hexagon_tri","room_assignment":["red","purple","green","blue","yellow","grey"],"door_color_assignment":["black","white"],"door_generator_assignment":[1,0],"goal":1,"start":3,"action_noise":0,"location_history":"[3,2,1]","action_history":"[0,0]","door_history":"[1,1]","location_rts":"[1670,1261]","trial_type":"two-door-navigation","trial_index":18,"time_elapsed":415898,"internal_node_id":"0.0-2.0-16.0"},{"group":"hexagon_tri","room_assignment":["red","purple","green","blue","yellow","grey"],"door_color_assignment":["black","white"],"door_generator_assignment":[1,0],"goal":5,"start":1,"action_noise":0,"location_history":"[1,3,4,2,1,5]","action_history":"[0,1,1,0,1]","door_history":"[1,0,0,1,0]","location_rts":"[993,1577,1291,667,530]","trial_type":"two-door-navigation","trial_index":19,"time_elapsed":430070,"internal_node_id":"0.0-2.0-17.0"},{"group":"hexagon_tri","room_assignment":["red","purple","green","blue","yellow","grey"],"door_color_assignment":["black","white"],"door_generator_assignment":[1,0],"goal":4,"start":5,"action_noise":0,"location_history":"[5,4]","action_history":"[0]","door_history":"[1]","location_rts":"[780]","trial_type":"two-door-navigation","trial_index":20,"time_elapsed":435999,"internal_node_id":"0.0-2.0-18.0"},{"group":"hexagon_tri","room_assignment":["red","purple","green","blue","yellow","grey"],"door_color_assignment":["black","white"],"door_generator_assignment":[1,0],"goal":0,"start":4,"action_noise":0,"location_history":"[4,2,1,5,4,2,3,2,1,3,4,2,3,4,0]","action_history":"[1,0,1,0,1,1,0,0,0,1,1,1,1,0]","door_history":"[0,1,0,1,0,0,1,1,1,0,0,0,0,1]","location_rts":"[1074,574,304,1482,535,341,880,452,415,352,311,331,333,283]","trial_type":"two-door-navigation","trial_index":21,"time_elapsed":462013,"internal_node_id":"0.0-2.0-19.0"},{"group":"hexagon_tri","room_assignment":["red","purple","green","blue","yellow","grey"],"door_color_assignment":["black","white"],"door_generator_assignment":[1,0],"goal":1,"start":0,"action_noise":0,"location_history":"[0,1]","action_history":"[1]","door_history":"[0]","location_rts":"[1224]","trial_type":"two-door-navigation","trial_index":22,"time_elapsed":468266,"internal_node_id":"0.0-2.0-20.0"},{"group":"hexagon_tri","room_assignment":["red","purple","green","blue","yellow","grey"],"door_color_assignment":["black","white"],"door_generator_assignment":[1,0],"goal":3,"start":1,"action_noise":0,"location_history":"[1,5,4,0,5,0,1,3]","action_history":"[1,0,0,0,1,1,0]","door_history":"[0,1,1,1,0,0,1]","location_rts":"[926,1596,1225,984,506,718,884]","trial_type":"two-door-navigation","trial_index":23,"time_elapsed":486280,"internal_node_id":"0.0-2.0-21.0"},{"group":"hexagon_tri","room_assignment":["red","purple","green","blue","yellow","grey"],"door_color_assignment":["black","white"],"door_generator_assignment":[1,0],"goal":2,"start":3,"action_noise":0,"location_history":"[3,2]","action_history":"[0]","door_history":"[1]","location_rts":"[2196]","trial_type":"two-door-navigation","trial_index":24,"time_elapsed":493502,"internal_node_id":"0.0-2.0-22.0"},{"group":"hexagon_tri","room_assignment":["red","purple","green","blue","yellow","grey"],"door_color_assignment":["black","white"],"door_generator_assignment":[1,0],"goal":0,"start":2,"action_noise":0,"location_history":"[2,1,5,0]","action_history":"[0,1,1]","door_history":"[1,0,0]","location_rts":"[2232,1128,739]","trial_type":"two-door-navigation","trial_index":25,"time_elapsed":504670,"internal_node_id":"0.0-2.0-23.0"},{"group":"hexagon_tri","room_assignment":["red","purple","green","blue","yellow","grey"],"door_color_assignment":["black","white"],"door_generator_assignment":[1,0],"goal":3,"start":0,"action_noise":0,"location_history":"[0,1,3]","action_history":"[1,0]","door_history":"[0,1]","location_rts":"[1253,1707]","trial_type":"two-door-navigation","trial_index":26,"time_elapsed":513679,"internal_node_id":"0.0-2.0-24.0"},{"group":"hexagon_tri","room_assignment":["red","purple","green","blue","yellow","grey"],"door_color_assignment":["black","white"],"door_generator_assignment":[1,0],"goal":1,"start":3,"action_noise":0,"location_history":"[3,2,1]","action_history":"[0,0]","door_history":"[1,1]","location_rts":"[1736,781]","trial_type":"two-door-navigation","trial_index":27,"time_elapsed":522246,"internal_node_id":"0.0-2.0-25.0"},{"group":"hexagon_tri","room_assignment":["red","purple","green","blue","yellow","grey"],"door_color_assignment":["black","white"],"door_generator_assignment":[1,0],"goal":2,"start":1,"action_noise":0,"location_history":"[1,3,2]","action_history":"[0,0]","door_history":"[1,1]","location_rts":"[4223,411]","trial_type":"two-door-navigation","trial_index":28,"time_elapsed":532929,"internal_node_id":"0.0-2.0-26.0"},{"group":"hexagon_tri","room_assignment":["red","purple","green","blue","yellow","grey"],"door_color_assignment":["black","white"],"door_generator_assignment":[1,0],"goal":5,"start":2,"action_noise":0,"location_history":"[2,3,2,3,4,0,1,3,4,2,3,4,0,5]","action_history":"[1,0,1,1,0,1,0,1,1,1,1,0,0]","door_history":"[0,1,0,0,1,0,1,0,0,0,0,1,1]","location_rts":"[2452,2546,497,727,1102,573,1196,311,370,431,408,1156,1144]","trial_type":"two-door-navigation","trial_index":29,"time_elapsed":563162,"internal_node_id":"0.0-2.0-27.0"},{"group":"hexagon_tri","room_assignment":["red","purple","green","blue","yellow","grey"],"door_color_assignment":["black","white"],"door_generator_assignment":[1,0],"goal":4,"start":5,"action_noise":0,"location_history":"[5,4]","action_history":"[0]","door_history":"[1]","location_rts":"[2674]","trial_type":"two-door-navigation","trial_index":30,"time_elapsed":570865,"internal_node_id":"0.0-2.0-28.0"},{"group":"hexagon_tri","room_assignment":["red","purple","green","blue","yellow","grey"],"door_color_assignment":["black","white"],"door_generator_assignment":[1,0],"goal":5,"start":4,"action_noise":0,"location_history":"[4,2,1,5]","action_history":"[1,0,1]","door_history":"[0,1,0]","location_rts":"[2157,2804,1138]","trial_type":"two-door-navigation","trial_index":31,"time_elapsed":584067,"internal_node_id":"0.0-2.0-29.0"},{"group":"hexagon_tri","room_assignment":["red","purple","green","blue","yellow","grey"],"door_color_assignment":["black","white"],"door_generator_assignment":[1,0],"goal":3,"start":5,"action_noise":0,"location_history":"[5,4,0,1,3]","action_history":"[0,0,1,0]","door_history":"[1,1,0,1]","location_rts":"[1843,1157,750,2973]","trial_type":"two-door-navigation","trial_index":32,"time_elapsed":598900,"internal_node_id":"0.0-2.0-30.0"},{"group":"hexagon_tri","room_assignment":["red","purple","green","blue","yellow","grey"],"door_color_assignment":["black","white"],"door_generator_assignment":[1,0],"goal":0,"start":3,"action_noise":0,"location_history":"[3,2,3,4,0]","action_history":"[0,1,1,0]","door_history":"[1,0,0,1]","location_rts":"[1586,477,1194,519]","trial_type":"two-door-navigation","trial_index":33,"time_elapsed":610778,"internal_node_id":"0.0-2.0-31.0"},{"group":"hexagon_tri","room_assignment":["red","purple","green","blue","yellow","grey"],"door_color_assignment":["black","white"],"door_generator_assignment":[1,0],"goal":4,"start":0,"action_noise":0,"location_history":"[0,5,0,5,4]","action_history":"[0,1,0,0]","door_history":"[1,0,1,1]","location_rts":"[1220,981,810,342]","trial_type":"two-door-navigation","trial_index":34,"time_elapsed":622225,"internal_node_id":"0.0-2.0-32.0"},{"group":"hexagon_tri","room_assignment":["red","purple","green","blue","yellow","grey"],"door_color_assignment":["black","white"],"door_generator_assignment":[1,0],"goal":1,"start":4,"action_noise":0,"location_history":"[4,2,1]","action_history":"[1,0]","door_history":"[0,1]","location_rts":"[1631,1918]","trial_type":"two-door-navigation","trial_index":35,"time_elapsed":631833,"internal_node_id":"0.0-2.0-33.0"},{"group":"hexagon_tri","room_assignment":["red","purple","green","blue","yellow","grey"],"door_color_assignment":["black","white"],"door_generator_assignment":[1,0],"goal":2,"start":1,"action_noise":0,"location_history":"[1,3,2]","action_history":"[0,0]","door_history":"[1,1]","location_rts":"[3224,282]","trial_type":"two-door-navigation","trial_index":36,"time_elapsed":641387,"internal_node_id":"0.0-2.0-34.0"},{"group":"hexagon_tri","room_assignment":["red","purple","green","blue","yellow","grey"],"door_color_assignment":["black","white"],"door_generator_assignment":[1,0],"goal":0,"start":2,"action_noise":0,"location_history":"[2,1,5,0]","action_history":"[0,1,1]","door_history":"[1,0,0]","location_rts":"[1201,542,895]","trial_type":"two-door-navigation","trial_index":37,"time_elapsed":651098,"internal_node_id":"0.0-2.0-35.0"},{"group":"hexagon_tri","room_assignment":["red","purple","green","blue","yellow","grey"],"door_color_assignment":["black","white"],"door_generator_assignment":[1,0],"goal":5,"start":0,"action_noise":0,"location_history":"[0,5]","action_history":"[0]","door_history":"[1]","location_rts":"[1976]","trial_type":"two-door-navigation","trial_index":38,"time_elapsed":658102,"internal_node_id":"0.0-2.0-36.0"},{"group":"hexagon_tri","room_assignment":["red","purple","green","blue","yellow","grey"],"door_color_assignment":["black","white"],"door_generator_assignment":[1,0],"goal":2,"start":5,"action_noise":0,"location_history":"[5,0,5,4,2]","action_history":"[1,0,0,1]","door_history":"[0,1,1,0]","location_rts":"[1964,1348,522,839]","trial_type":"two-door-navigation","trial_index":39,"time_elapsed":670870,"internal_node_id":"0.0-2.0-37.0"},{"group":"hexagon_tri","room_assignment":["red","purple","green","blue","yellow","grey"],"door_color_assignment":["black","white"],"door_generator_assignment":[1,0],"goal":1,"start":2,"action_noise":0,"location_history":"[2,1]","action_history":"[0]","door_history":"[1]","location_rts":"[1847]","trial_type":"two-door-navigation","trial_index":40,"time_elapsed":677751,"internal_node_id":"0.0-2.0-38.0"},{"group":"hexagon_tri","room_assignment":["red","purple","green","blue","yellow","grey"],"door_color_assignment":["black","white"],"door_generator_assignment":[1,0],"goal":4,"start":1,"action_noise":0,"location_history":"[1,3,4]","action_history":"[0,1]","door_history":"[1,0]","location_rts":"[3098,351]","trial_type":"two-door-navigation","trial_index":41,"time_elapsed":687257,"internal_node_id":"0.0-2.0-39.0"},{"group":"hexagon_tri","room_assignment":["red","purple","green","blue","yellow","grey"],"door_color_assignment":["black","white"],"door_generator_assignment":[1,0],"goal":3,"start":4,"action_noise":0,"location_history":"[4,0,5,4,2,3]","action_history":"[0,0,0,1,1]","door_history":"[1,1,1,0,0]","location_rts":"[2004,1816,1107,704,1078]","trial_type":"two-door-navigation","trial_index":42,"time_elapsed":703077,"internal_node_id":"0.0-2.0-40.0"},{"group":"hexagon_tri","room_assignment":["red","purple","green","blue","yellow","grey"],"door_color_assignment":["black","white"],"door_generator_assignment":[1,0],"goal":5,"start":3,"action_noise":0,"location_history":"[3,2,3,4,2,1,5]","action_history":"[0,1,1,1,0,1]","door_history":"[1,0,0,0,1,0]","location_rts":"[1388,710,1215,1379,706,635]","trial_type":"two-door-navigation","trial_index":43,"time_elapsed":719250,"internal_node_id":"0.0-2.0-41.0"},{"group":"hexagon_tri","room_assignment":["red","purple","green","blue","yellow","grey"],"door_color_assignment":["black","white"],"door_generator_assignment":[1,0],"goal":3,"start":5,"action_noise":0,"location_history":"[5,0,1,3]","action_history":"[1,1,0]","door_history":"[0,0,1]","location_rts":"[1295,1046,1203]","trial_type":"two-door-navigation","trial_index":44,"time_elapsed":729873,"internal_node_id":"0.0-2.0-42.0"},{"group":"hexagon_tri","room_assignment":["red","purple","green","blue","yellow","grey"],"door_color_assignment":["black","white"],"door_generator_assignment":[1,0],"goal":0,"start":3,"action_noise":0,"location_history":"[3,4,0]","action_history":"[1,0]","door_history":"[0,1]","location_rts":"[3938,7565]","trial_type":"two-door-navigation","trial_index":45,"time_elapsed":747598,"internal_node_id":"0.0-2.0-43.0"},{"group":"hexagon_tri","room_assignment":["red","purple","green","blue","yellow","grey"],"door_color_assignment":["black","white"],"door_generator_assignment":[1,0],"goal":2,"start":0,"action_noise":0,"location_history":"[0,5,0,1,3,2]","action_history":"[0,1,1,0,0]","door_history":"[1,0,0,1,1]","location_rts":"[1070,352,585,794,343]","trial_type":"two-door-navigation","trial_index":46,"time_elapsed":759875,"internal_node_id":"0.0-2.0-44.0"},{"group":"hexagon_tri","room_assignment":["red","purple","green","blue","yellow","grey"],"door_color_assignment":["black","white"],"door_generator_assignment":[1,0],"goal":4,"start":2,"action_noise":0,"location_history":"[2,1,5,0,1,3,2,1,5,4]","action_history":"[0,1,1,1,0,0,0,1,0]","door_history":"[1,0,0,0,1,1,1,0,1]","location_rts":"[1248,381,851,514,401,352,320,812,792]","trial_type":"two-door-navigation","trial_index":47,"time_elapsed":778754,"internal_node_id":"0.0-2.0-45.0"},{"group":"hexagon_tri","room_assignment":["red","purple","green","blue","yellow","grey"],"door_color_assignment":["black","white"],"door_generator_assignment":[1,0],"goal":1,"start":4,"action_noise":0,"location_history":"[4,0,5,0,5,0,1]","action_history":"[0,0,1,0,1,1]","door_history":"[1,1,0,1,0,0]","location_rts":"[824,1291,927,577,645,333]","trial_type":"two-door-navigation","trial_index":48,"time_elapsed":793494,"internal_node_id":"0.0-2.0-46.0"},{"group":"hexagon_tri","room_assignment":["red","purple","green","blue","yellow","grey"],"door_color_assignment":["black","white"],"door_generator_assignment":[1,0],"goal":4,"start":1,"action_noise":0,"location_history":"[1,3,4]","action_history":"[0,1]","door_history":"[1,0]","location_rts":"[919,272]","trial_type":"two-door-navigation","trial_index":49,"time_elapsed":800733,"internal_node_id":"0.0-2.0-47.0"},{"group":"hexagon_tri","room_assignment":["red","purple","green","blue","yellow","grey"],"door_color_assignment":["black","white"],"door_generator_assignment":[1,0],"goal":3,"start":4,"action_noise":0,"location_history":"[4,0,1,3]","action_history":"[0,1,0]","door_history":"[1,0,1]","location_rts":"[533,567,1241]","trial_type":"two-door-navigation","trial_index":50,"time_elapsed":810166,"internal_node_id":"0.0-2.0-48.0"},{"group":"hexagon_tri","room_assignment":["red","purple","green","blue","yellow","grey"],"door_color_assignment":["black","white"],"door_generator_assignment":[1,0],"goal":5,"start":3,"action_noise":0,"location_history":"[3,2,3,2,1,5]","action_history":"[0,1,0,0,1]","door_history":"[1,0,1,1,0]","location_rts":"[852,289,279,334,399]","trial_type":"two-door-navigation","trial_index":51,"time_elapsed":821446,"internal_node_id":"0.0-2.0-49.0"},{"view_history":"[{\"page_index\":0,\"viewing_time\":81199}]","rt":81200,"trial_type":"instructions","trial_index":52,"time_elapsed":903646,"internal_node_id":"0.0-3.0"},{"view_history":"[{\"page_index\":0,\"viewing_time\":4697},{\"page_index\":1,\"viewing_time\":33374}]","rt":38071,"trial_type":"instructions","trial_index":53,"time_elapsed":942720,"internal_node_id":"0.0-4.0"},{"group":"hexagon_tri","fractal_assignment":["../images/ylw_slt.png","../images/blu_wht.png","../images/cyn_red.png","../images/org_blu.png","../images/gry_blk.png","../images/pnk_blu.png"],"mutagen_generator_assignment":[1,0],"goal":4,"start":0,"action_noise":0,"location_history":"[0,1,5,0,5,4]","action_history":"[1,1,1,0,0]","mutagen_history":"[0,0,0,1,1]","location_rts":"[5472,3909,838,2566,1152]","trial_type":"fractal-mutation","trial_index":54,"time_elapsed":965856,"internal_node_id":"0.0-5.0-0.0"},{"group":"hexagon_tri","fractal_assignment":["../images/ylw_slt.png","../images/blu_wht.png","../images/cyn_red.png","../images/org_blu.png","../images/gry_blk.png","../images/pnk_blu.png"],"mutagen_generator_assignment":[1,0],"goal":3,"start":4,"action_noise":0,"location_history":"[4,0,1,3]","action_history":"[0,1,0]","mutagen_history":"[1,0,1]","location_rts":"[2278,677,575]","trial_type":"fractal-mutation","trial_index":55,"time_elapsed":976526,"internal_node_id":"0.0-5.0-1.0"},{"group":"hexagon_tri","fractal_assignment":["../images/ylw_slt.png","../images/blu_wht.png","../images/cyn_red.png","../images/org_blu.png","../images/gry_blk.png","../images/pnk_blu.png"],"mutagen_generator_assignment":[1,0],"goal":5,"start":3,"action_noise":0,"location_history":"[3,4,0,1,3,2,1,3,4,2,3,4,0,5]","action_history":"[1,0,1,0,0,0,0,1,1,1,1,0,0]","mutagen_history":"[0,1,0,1,1,1,1,0,0,0,0,1,1]","location_rts":"[1954,530,1221,695,390,607,631,413,305,992,640,437,566]","trial_type":"fractal-mutation","trial_index":56,"time_elapsed":1004316,"internal_node_id":"0.0-5.0-2.0"},{"group":"hexagon_tri","fractal_assignment":["../images/ylw_slt.png","../images/blu_wht.png","../images/cyn_red.png","../images/org_blu.png","../images/gry_blk.png","../images/pnk_blu.png"],"mutagen_generator_assignment":[1,0],"goal":2,"start":5,"action_noise":0,"location_history":"[5,4,2]","action_history":"[0,1]","mutagen_history":"[1,0]","location_rts":"[2114,439]","trial_type":"fractal-mutation","trial_index":57,"time_elapsed":1012942,"internal_node_id":"0.0-5.0-3.0"},{"group":"hexagon_tri","fractal_assignment":["../images/ylw_slt.png","../images/blu_wht.png","../images/cyn_red.png","../images/org_blu.png","../images/gry_blk.png","../images/pnk_blu.png"],"mutagen_generator_assignment":[1,0],"goal":1,"start":2,"action_noise":0,"location_history":"[2,3,4,0,1]","action_history":"[1,1,0,1]","mutagen_history":"[0,0,1,0]","location_rts":"[1767,517,702,586]","trial_type":"fractal-mutation","trial_index":58,"time_elapsed":1024635,"internal_node_id":"0.0-5.0-4.0"},{"group":"hexagon_tri","fractal_assignment":["../images/ylw_slt.png","../images/blu_wht.png","../images/cyn_red.png","../images/org_blu.png","../images/gry_blk.png","../images/pnk_blu.png"],"mutagen_generator_assignment":[1,0],"goal":4,"start":1,"action_noise":0,"location_history":"[1,5,4]","action_history":"[1,0]","mutagen_history":"[0,1]","location_rts":"[1817,451]","trial_type":"fractal-mutation","trial_index":59,"time_elapsed":1033007,"internal_node_id":"0.0-5.0-5.0"},{"group":"hexagon_tri","fractal_assignment":["../images/ylw_slt.png","../images/blu_wht.png","../images/cyn_red.png","../images/org_blu.png","../images/gry_blk.png","../images/pnk_blu.png"],"mutagen_generator_assignment":[1,0],"goal":1,"start":4,"action_noise":0,"location_history":"[4,0,1]","action_history":"[0,1]","mutagen_history":"[1,0]","location_rts":"[1803,462]","trial_type":"fractal-mutation","trial_index":60,"time_elapsed":1041337,"internal_node_id":"0.0-5.0-6.0"},{"group":"hexagon_tri","fractal_assignment":["../images/ylw_slt.png","../images/blu_wht.png","../images/cyn_red.png","../images/org_blu.png","../images/gry_blk.png","../images/pnk_blu.png"],"mutagen_generator_assignment":[1,0],"goal":5,"start":1,"action_noise":0,"location_history":"[1,3,4,2,1,3,2,3,2,1,5]","action_history":"[0,1,1,0,0,0,1,0,0,1]","mutagen_history":"[1,0,0,1,1,1,0,1,1,0]","location_rts":"[1640,389,1134,232,759,744,484,813,891,406]","trial_type":"fractal-mutation","trial_index":61,"time_elapsed":1063172,"internal_node_id":"0.0-5.0-7.0"},{"group":"hexagon_tri","fractal_assignment":["../images/ylw_slt.png","../images/blu_wht.png","../images/cyn_red.png","../images/org_blu.png","../images/gry_blk.png","../images/pnk_blu.png"],"mutagen_generator_assignment":[1,0],"goal":0,"start":5,"action_noise":0,"location_history":"[5,4,2,1,5,4,2,1,5,4,0]","action_history":"[0,1,0,1,0,1,0,1,0,0]","mutagen_history":"[1,0,1,0,1,0,1,0,1,1]","location_rts":"[1611,270,1526,445,641,361,6774,245,529,624]","trial_type":"fractal-mutation","trial_index":62,"time_elapsed":1090525,"internal_node_id":"0.0-5.0-8.0"},{"group":"hexagon_tri","fractal_assignment":["../images/ylw_slt.png","../images/blu_wht.png","../images/cyn_red.png","../images/org_blu.png","../images/gry_blk.png","../images/pnk_blu.png"],"mutagen_generator_assignment":[1,0],"goal":2,"start":0,"action_noise":0,"location_history":"[0,1,3,4,0,5,0,5,0,1,5,4,2]","action_history":"[1,0,1,0,0,1,0,1,1,1,0,1]","mutagen_history":"[0,1,0,1,1,0,1,0,0,0,1,0]","location_rts":"[1042,347,556,451,876,1016,857,692,198,537,557,421]","trial_type":"fractal-mutation","trial_index":63,"time_elapsed":1114467,"internal_node_id":"0.0-5.0-9.0"},{"group":"hexagon_tri","fractal_assignment":["../images/ylw_slt.png","../images/blu_wht.png","../images/cyn_red.png","../images/org_blu.png","../images/gry_blk.png","../images/pnk_blu.png"],"mutagen_generator_assignment":[1,0],"goal":3,"start":2,"action_noise":0,"location_history":"[2,1,5,4,2,1,3]","action_history":"[0,1,0,1,0,0]","mutagen_history":"[1,0,1,0,1,1]","location_rts":"[1287,264,848,291,723,646]","trial_type":"fractal-mutation","trial_index":64,"time_elapsed":1128730,"internal_node_id":"0.0-5.0-10.0"},{"group":"hexagon_tri","fractal_assignment":["../images/ylw_slt.png","../images/blu_wht.png","../images/cyn_red.png","../images/org_blu.png","../images/gry_blk.png","../images/pnk_blu.png"],"mutagen_generator_assignment":[1,0],"goal":0,"start":3,"action_noise":0,"location_history":"[3,2,3,4,0]","action_history":"[0,1,1,0]","mutagen_history":"[1,0,0,1]","location_rts":"[1306,319,1302,472]","trial_type":"fractal-mutation","trial_index":65,"time_elapsed":1140248,"internal_node_id":"0.0-5.0-11.0"},{"group":"hexagon_tri","fractal_assignment":["../images/ylw_slt.png","../images/blu_wht.png","../images/cyn_red.png","../images/org_blu.png","../images/gry_blk.png","../images/pnk_blu.png"],"mutagen_generator_assignment":[1,0],"goal":2,"start":0,"action_noise":0,"location_history":"[0,5,0,1,3,4,0,5,0,5,4,2]","action_history":"[0,1,1,0,1,0,0,1,0,0,1]","mutagen_history":"[1,0,0,1,0,1,1,0,1,1,0]","location_rts":"[1429,323,1398,615,491,549,706,504,484,319,490]","trial_type":"fractal-mutation","trial_index":66,"time_elapsed":1162926,"internal_node_id":"0.0-5.0-12.0"},{"group":"hexagon_tri","fractal_assignment":["../images/ylw_slt.png","../images/blu_wht.png","../images/cyn_red.png","../images/org_blu.png","../images/gry_blk.png","../images/pnk_blu.png"],"mutagen_generator_assignment":[1,0],"goal":5,"start":2,"action_noise":0,"location_history":"[2,1,5]","action_history":"[0,1]","mutagen_history":"[1,0]","location_rts":"[3255,188]","trial_type":"fractal-mutation","trial_index":67,"time_elapsed":1172518,"internal_node_id":"0.0-5.0-13.0"},{"group":"hexagon_tri","fractal_assignment":["../images/ylw_slt.png","../images/blu_wht.png","../images/cyn_red.png","../images/org_blu.png","../images/gry_blk.png","../images/pnk_blu.png"],"mutagen_generator_assignment":[1,0],"goal":4,"start":5,"action_noise":0,"location_history":"[5,4]","action_history":"[0]","mutagen_history":"[1]","location_rts":"[1472]","trial_type":"fractal-mutation","trial_index":68,"time_elapsed":1179040,"internal_node_id":"0.0-5.0-14.0"},{"group":"hexagon_tri","fractal_assignment":["../images/ylw_slt.png","../images/blu_wht.png","../images/cyn_red.png","../images/org_blu.png","../images/gry_blk.png","../images/pnk_blu.png"],"mutagen_generator_assignment":[1,0],"goal":3,"start":4,"action_noise":0,"location_history":"[4,0,1,5,4,2,1,3]","action_history":"[0,1,1,0,1,0,0]","mutagen_history":"[1,0,0,1,0,1,1]","location_rts":"[1313,329,1001,623,1134,547,647]","trial_type":"fractal-mutation","trial_index":69,"time_elapsed":1195867,"internal_node_id":"0.0-5.0-15.0"},{"group":"hexagon_tri","fractal_assignment":["../images/ylw_slt.png","../images/blu_wht.png","../images/cyn_red.png","../images/org_blu.png","../images/gry_blk.png","../images/pnk_blu.png"],"mutagen_generator_assignment":[1,0],"goal":1,"start":3,"action_noise":0,"location_history":"[3,2,3,2,1]","action_history":"[0,1,0,0]","mutagen_history":"[1,0,1,1]","location_rts":"[848,348,613,305]","trial_type":"fractal-mutation","trial_index":70,"time_elapsed":1206131,"internal_node_id":"0.0-5.0-16.0"},{"group":"hexagon_tri","fractal_assignment":["../images/ylw_slt.png","../images/blu_wht.png","../images/cyn_red.png","../images/org_blu.png","../images/gry_blk.png","../images/pnk_blu.png"],"mutagen_generator_assignment":[1,0],"goal":5,"start":1,"action_noise":0,"location_history":"[1,3,4,0,1,3,2,1,5]","action_history":"[0,1,0,1,0,0,0,1]","mutagen_history":"[1,0,1,0,1,1,1,0]","location_rts":"[824,250,964,728,781,333,757,546]","trial_type":"fractal-mutation","trial_index":71,"time_elapsed":1223600,"internal_node_id":"0.0-5.0-17.0"},{"group":"hexagon_tri","fractal_assignment":["../images/ylw_slt.png","../images/blu_wht.png","../images/cyn_red.png","../images/org_blu.png","../images/gry_blk.png","../images/pnk_blu.png"],"mutagen_generator_assignment":[1,0],"goal":4,"start":5,"action_noise":0,"location_history":"[5,0,5,4]","action_history":"[1,0,0]","mutagen_history":"[0,1,1]","location_rts":"[1257,793,786]","trial_type":"fractal-mutation","trial_index":72,"time_elapsed":1233531,"internal_node_id":"0.0-5.0-18.0"},{"group":"hexagon_tri","fractal_assignment":["../images/ylw_slt.png","../images/blu_wht.png","../images/cyn_red.png","../images/org_blu.png","../images/gry_blk.png","../images/pnk_blu.png"],"mutagen_generator_assignment":[1,0],"goal":0,"start":4,"action_noise":0,"location_history":"[4,2,1,5,0]","action_history":"[1,0,1,1]","mutagen_history":"[0,1,0,0]","location_rts":"[1557,885,487,500]","trial_type":"fractal-mutation","trial_index":73,"time_elapsed":1245077,"internal_node_id":"0.0-5.0-19.0"},{"group":"hexagon_tri","fractal_assignment":["../images/ylw_slt.png","../images/blu_wht.png","../images/cyn_red.png","../images/org_blu.png","../images/gry_blk.png","../images/pnk_blu.png"],"mutagen_generator_assignment":[1,0],"goal":1,"start":0,"action_noise":0,"location_history":"[0,5,0,1]","action_history":"[0,1,1]","mutagen_history":"[1,0,0]","location_rts":"[1575,370,961]","trial_type":"fractal-mutation","trial_index":74,"time_elapsed":1255075,"internal_node_id":"0.0-5.0-20.0"},{"group":"hexagon_tri","fractal_assignment":["../images/ylw_slt.png","../images/blu_wht.png","../images/cyn_red.png","../images/org_blu.png","../images/gry_blk.png","../images/pnk_blu.png"],"mutagen_generator_assignment":[1,0],"goal":3,"start":1,"action_noise":0,"location_history":"[1,5,4,0,1,5,4,0,5,0,1,5,0,1,5,4,0,5,4,2,1,5,0,5,4,2,3]","action_history":"[1,0,0,1,1,0,0,0,1,1,1,1,1,1,0,0,0,0,1,0,1,1,0,0,1,1]","mutagen_history":"[0,1,1,0,0,1,1,1,0,0,0,0,0,0,1,1,1,1,0,1,0,0,1,1,0,0]","location_rts":"[1828,382,928,488,776,357,448,70,479,378,294,603,544,453,417,379,433,333,565,911,461,660,1288,667,387,604]","trial_type":"fractal-mutation","trial_index":75,"time_elapsed":1302016,"internal_node_id":"0.0-5.0-21.0"},{"group":"hexagon_tri","fractal_assignment":["../images/ylw_slt.png","../images/blu_wht.png","../images/cyn_red.png","../images/org_blu.png","../images/gry_blk.png","../images/pnk_blu.png"],"mutagen_generator_assignment":[1,0],"goal":2,"start":3,"action_noise":0,"location_history":"[3,2]","action_history":"[0]","mutagen_history":"[1]","location_rts":"[9077]","trial_type":"fractal-mutation","trial_index":76,"time_elapsed":1317135,"internal_node_id":"0.0-5.0-22.0"},{"group":"hexagon_tri","fractal_assignment":["../images/ylw_slt.png","../images/blu_wht.png","../images/cyn_red.png","../images/org_blu.png","../images/gry_blk.png","../images/pnk_blu.png"],"mutagen_generator_assignment":[1,0],"goal":0,"start":2,"action_noise":0,"location_history":"[2,3,2,3,4,0]","action_history":"[1,0,1,1,0]","mutagen_history":"[0,1,0,0,1]","location_rts":"[1377,445,653,740,540]","trial_type":"fractal-mutation","trial_index":77,"time_elapsed":1330046,"internal_node_id":"0.0-5.0-23.0"},{"group":"hexagon_tri","fractal_assignment":["../images/ylw_slt.png","../images/blu_wht.png","../images/cyn_red.png","../images/org_blu.png","../images/gry_blk.png","../images/pnk_blu.png"],"mutagen_generator_assignment":[1,0],"goal":3,"start":0,"action_noise":0,"location_history":"[0,5,0,1,3]","action_history":"[0,1,1,0]","mutagen_history":"[1,0,0,1]","location_rts":"[1030,539,579,654]","trial_type":"fractal-mutation","trial_index":78,"time_elapsed":1340975,"internal_node_id":"0.0-5.0-24.0"},{"group":"hexagon_tri","fractal_assignment":["../images/ylw_slt.png","../images/blu_wht.png","../images/cyn_red.png","../images/org_blu.png","../images/gry_blk.png","../images/pnk_blu.png"],"mutagen_generator_assignment":[1,0],"goal":1,"start":3,"action_noise":0,"location_history":"[3,2,3,4,0,1]","action_history":"[0,1,1,0,1]","mutagen_history":"[1,0,0,1,0]","location_rts":"[7310,597,723,552,419]","trial_type":"fractal-mutation","trial_index":79,"time_elapsed":1359720,"internal_node_id":"0.0-5.0-25.0"},{"group":"hexagon_tri","fractal_assignment":["../images/ylw_slt.png","../images/blu_wht.png","../images/cyn_red.png","../images/org_blu.png","../images/gry_blk.png","../images/pnk_blu.png"],"mutagen_generator_assignment":[1,0],"goal":2,"start":1,"action_noise":0,"location_history":"[1,5,4,2]","action_history":"[1,0,1]","mutagen_history":"[0,1,0]","location_rts":"[1283,483,256]","trial_type":"fractal-mutation","trial_index":80,"time_elapsed":1368835,"internal_node_id":"0.0-5.0-26.0"},{"group":"hexagon_tri","fractal_assignment":["../images/ylw_slt.png","../images/blu_wht.png","../images/cyn_red.png","../images/org_blu.png","../images/gry_blk.png","../images/pnk_blu.png"],"mutagen_generator_assignment":[1,0],"goal":5,"start":2,"action_noise":0,"location_history":"[2,3,2,3,4,0,1,3,2,1,5]","action_history":"[1,0,1,1,0,1,0,0,0,1]","mutagen_history":"[0,1,0,0,1,0,1,1,1,0]","location_rts":"[1958,296,764,540,403,880,641,430,556,485]","trial_type":"fractal-mutation","trial_index":81,"time_elapsed":1392553,"internal_node_id":"0.0-5.0-27.0"},{"group":"hexagon_tri","fractal_assignment":["../images/ylw_slt.png","../images/blu_wht.png","../images/cyn_red.png","../images/org_blu.png","../images/gry_blk.png","../images/pnk_blu.png"],"mutagen_generator_assignment":[1,0],"goal":4,"start":5,"action_noise":0,"location_history":"[5,0,5,4]","action_history":"[1,0,0]","mutagen_history":"[0,1,1]","location_rts":"[3231,485,713]","trial_type":"fractal-mutation","trial_index":82,"time_elapsed":1404095,"internal_node_id":"0.0-5.0-28.0"},{"group":"hexagon_tri","fractal_assignment":["../images/ylw_slt.png","../images/blu_wht.png","../images/cyn_red.png","../images/org_blu.png","../images/gry_blk.png","../images/pnk_blu.png"],"mutagen_generator_assignment":[1,0],"goal":5,"start":4,"action_noise":0,"location_history":"[4,2,1,5]","action_history":"[1,0,1]","mutagen_history":"[0,1,0]","location_rts":"[681,448,429]","trial_type":"fractal-mutation","trial_index":83,"time_elapsed":1412739,"internal_node_id":"0.0-5.0-29.0"},{"group":"hexagon_tri","fractal_assignment":["../images/ylw_slt.png","../images/blu_wht.png","../images/cyn_red.png","../images/org_blu.png","../images/gry_blk.png","../images/pnk_blu.png"],"mutagen_generator_assignment":[1,0],"goal":3,"start":5,"action_noise":0,"location_history":"[5,0,5,0,1,3]","action_history":"[1,0,1,1,0]","mutagen_history":"[0,1,0,0,1]","location_rts":"[746,567,530,484,498]","trial_type":"fractal-mutation","trial_index":84,"time_elapsed":1424726,"internal_node_id":"0.0-5.0-30.0"},{"group":"hexagon_tri","fractal_assignment":["../images/ylw_slt.png","../images/blu_wht.png","../images/cyn_red.png","../images/org_blu.png","../images/gry_blk.png","../images/pnk_blu.png"],"mutagen_generator_assignment":[1,0],"goal":0,"start":3,"action_noise":0,"location_history":"[3,4,0]","action_history":"[1,0]","mutagen_history":"[0,1]","location_rts":"[944,423]","trial_type":"fractal-mutation","trial_index":85,"time_elapsed":1432171,"internal_node_id":"0.0-5.0-31.0"},{"group":"hexagon_tri","fractal_assignment":["../images/ylw_slt.png","../images/blu_wht.png","../images/cyn_red.png","../images/org_blu.png","../images/gry_blk.png","../images/pnk_blu.png"],"mutagen_generator_assignment":[1,0],"goal":4,"start":0,"action_noise":0,"location_history":"[0,5,0,1,3,4]","action_history":"[0,1,1,0,1]","mutagen_history":"[1,0,0,1,0]","location_rts":"[1020,935,612,582,1157]","trial_type":"fractal-mutation","trial_index":86,"time_elapsed":1447019,"internal_node_id":"0.0-5.0-32.0"},{"group":"hexagon_tri","fractal_assignment":["../images/ylw_slt.png","../images/blu_wht.png","../images/cyn_red.png","../images/org_blu.png","../images/gry_blk.png","../images/pnk_blu.png"],"mutagen_generator_assignment":[1,0],"goal":1,"start":4,"action_noise":0,"location_history":"[4,0,1]","action_history":"[0,1]","mutagen_history":"[1,0]","location_rts":"[4231,281]","trial_type":"fractal-mutation","trial_index":87,"time_elapsed":1458593,"internal_node_id":"0.0-5.0-33.0"},{"group":"hexagon_tri","fractal_assignment":["../images/ylw_slt.png","../images/blu_wht.png","../images/cyn_red.png","../images/org_blu.png","../images/gry_blk.png","../images/pnk_blu.png"],"mutagen_generator_assignment":[1,0],"goal":2,"start":1,"action_noise":0,"location_history":"[1,5,4,2]","action_history":"[1,0,1]","mutagen_history":"[0,1,0]","location_rts":"[1153,482,454]","trial_type":"fractal-mutation","trial_index":88,"time_elapsed":1467784,"internal_node_id":"0.0-5.0-34.0"},{"group":"hexagon_tri","fractal_assignment":["../images/ylw_slt.png","../images/blu_wht.png","../images/cyn_red.png","../images/org_blu.png","../images/gry_blk.png","../images/pnk_blu.png"],"mutagen_generator_assignment":[1,0],"goal":0,"start":2,"action_noise":0,"location_history":"[2,1,5,4,2,1,5,0]","action_history":"[0,1,0,1,0,1,1]","mutagen_history":"[1,0,1,0,1,0,0]","location_rts":"[1258,434,597,438,726,401,429]","trial_type":"fractal-mutation","trial_index":89,"time_elapsed":1483285,"internal_node_id":"0.0-5.0-35.0"},{"group":"hexagon_tri","fractal_assignment":["../images/ylw_slt.png","../images/blu_wht.png","../images/cyn_red.png","../images/org_blu.png","../images/gry_blk.png","../images/pnk_blu.png"],"mutagen_generator_assignment":[1,0],"goal":5,"start":0,"action_noise":0,"location_history":"[0,5]","action_history":"[0]","mutagen_history":"[1]","location_rts":"[1610]","trial_type":"fractal-mutation","trial_index":90,"time_elapsed":1489932,"internal_node_id":"0.0-5.0-36.0"},{"group":"hexagon_tri","fractal_assignment":["../images/ylw_slt.png","../images/blu_wht.png","../images/cyn_red.png","../images/org_blu.png","../images/gry_blk.png","../images/pnk_blu.png"],"mutagen_generator_assignment":[1,0],"goal":2,"start":5,"action_noise":0,"location_history":"[5,0,5,0,1,3,4,0,1,3,2]","action_history":"[1,0,1,1,0,1,0,1,0,0]","mutagen_history":"[0,1,0,0,1,0,1,0,1,1]","location_rts":"[1180,241,606,426,280,683,519,479,426,548]","trial_type":"fractal-mutation","trial_index":91,"time_elapsed":1509664,"internal_node_id":"0.0-5.0-37.0"},{"group":"hexagon_tri","fractal_assignment":["../images/ylw_slt.png","../images/blu_wht.png","../images/cyn_red.png","../images/org_blu.png","../images/gry_blk.png","../images/pnk_blu.png"],"mutagen_generator_assignment":[1,0],"goal":1,"start":2,"action_noise":0,"location_history":"[2,1]","action_history":"[0]","mutagen_history":"[1]","location_rts":"[1139]","trial_type":"fractal-mutation","trial_index":92,"time_elapsed":1515847,"internal_node_id":"0.0-5.0-38.0"},{"group":"hexagon_tri","fractal_assignment":["../images/ylw_slt.png","../images/blu_wht.png","../images/cyn_red.png","../images/org_blu.png","../images/gry_blk.png","../images/pnk_blu.png"],"mutagen_generator_assignment":[1,0],"goal":4,"start":1,"action_noise":0,"location_history":"[1,3,4]","action_history":"[0,1]","mutagen_history":"[1,0]","location_rts":"[1114,285]","trial_type":"fractal-mutation","trial_index":93,"time_elapsed":1523312,"internal_node_id":"0.0-5.0-39.0"},{"group":"hexagon_tri","fractal_assignment":["../images/ylw_slt.png","../images/blu_wht.png","../images/cyn_red.png","../images/org_blu.png","../images/gry_blk.png","../images/pnk_blu.png"],"mutagen_generator_assignment":[1,0],"goal":3,"start":4,"action_noise":0,"location_history":"[4,0,1,3]","action_history":"[0,1,0]","mutagen_history":"[1,0,1]","location_rts":"[580,328,352]","trial_type":"fractal-mutation","trial_index":94,"time_elapsed":1531684,"internal_node_id":"0.0-5.0-40.0"},{"group":"hexagon_tri","fractal_assignment":["../images/ylw_slt.png","../images/blu_wht.png","../images/cyn_red.png","../images/org_blu.png","../images/gry_blk.png","../images/pnk_blu.png"],"mutagen_generator_assignment":[1,0],"goal":5,"start":3,"action_noise":0,"location_history":"[3,2,3,4,0,1,5]","action_history":"[0,1,1,0,1,1]","mutagen_history":"[1,0,0,1,0,0]","location_rts":"[18136,320,829,454,577,456]","trial_type":"fractal-mutation","trial_index":95,"time_elapsed":1562647,"internal_node_id":"0.0-5.0-41.0"},{"group":"hexagon_tri","fractal_assignment":["../images/ylw_slt.png","../images/blu_wht.png","../images/cyn_red.png","../images/org_blu.png","../images/gry_blk.png","../images/pnk_blu.png"],"mutagen_generator_assignment":[1,0],"goal":3,"start":5,"action_noise":0,"location_history":"[5,0,1,3]","action_history":"[1,1,0]","mutagen_history":"[0,0,1]","location_rts":"[1587,475,313]","trial_type":"fractal-mutation","trial_index":96,"time_elapsed":1572113,"internal_node_id":"0.0-5.0-42.0"},{"group":"hexagon_tri","fractal_assignment":["../images/ylw_slt.png","../images/blu_wht.png","../images/cyn_red.png","../images/org_blu.png","../images/gry_blk.png","../images/pnk_blu.png"],"mutagen_generator_assignment":[1,0],"goal":0,"start":3,"action_noise":0,"location_history":"[3,2,3,2,1,5,0]","action_history":"[0,1,0,0,1,1]","mutagen_history":"[1,0,1,1,0,0]","location_rts":"[1346,371,476,192,350,867]","trial_type":"fractal-mutation","trial_index":97,"time_elapsed":1586024,"internal_node_id":"0.0-5.0-43.0"},{"group":"hexagon_tri","fractal_assignment":["../images/ylw_slt.png","../images/blu_wht.png","../images/cyn_red.png","../images/org_blu.png","../images/gry_blk.png","../images/pnk_blu.png"],"mutagen_generator_assignment":[1,0],"goal":2,"start":0,"action_noise":0,"location_history":"[0,5,0,1,3,4,0,1,3,2]","action_history":"[0,1,1,0,1,0,1,0,0]","mutagen_history":"[1,0,0,1,0,1,0,1,1]","location_rts":"[9039,332,444,281,529,459,552,11535,387]","trial_type":"fractal-mutation","trial_index":98,"time_elapsed":1623931,"internal_node_id":"0.0-5.0-44.0"},{"group":"hexagon_tri","fractal_assignment":["../images/ylw_slt.png","../images/blu_wht.png","../images/cyn_red.png","../images/org_blu.png","../images/gry_blk.png","../images/pnk_blu.png"],"mutagen_generator_assignment":[1,0],"goal":4,"start":2,"action_noise":0,"location_history":"[2,1,5,4]","action_history":"[0,1,0]","mutagen_history":"[1,0,1]","location_rts":"[12522,681,384]","trial_type":"fractal-mutation","trial_index":99,"time_elapsed":1644625,"internal_node_id":"0.0-5.0-45.0"},{"group":"hexagon_tri","fractal_assignment":["../images/ylw_slt.png","../images/blu_wht.png","../images/cyn_red.png","../images/org_blu.png","../images/gry_blk.png","../images/pnk_blu.png"],"mutagen_generator_assignment":[1,0],"goal":1,"start":4,"action_noise":0,"location_history":"[4,2,1]","action_history":"[1,0]","mutagen_history":"[0,1]","location_rts":"[1545,733]","trial_type":"fractal-mutation","trial_index":100,"time_elapsed":1652980,"internal_node_id":"0.0-5.0-46.0"},{"group":"hexagon_tri","fractal_assignment":["../images/ylw_slt.png","../images/blu_wht.png","../images/cyn_red.png","../images/org_blu.png","../images/gry_blk.png","../images/pnk_blu.png"],"mutagen_generator_assignment":[1,0],"goal":4,"start":1,"action_noise":0,"location_history":"[1,3,4]","action_history":"[0,1]","mutagen_history":"[1,0]","location_rts":"[1186,804]","trial_type":"fractal-mutation","trial_index":101,"time_elapsed":1661046,"internal_node_id":"0.0-5.0-47.0"},{"group":"hexagon_tri","fractal_assignment":["../images/ylw_slt.png","../images/blu_wht.png","../images/cyn_red.png","../images/org_blu.png","../images/gry_blk.png","../images/pnk_blu.png"],"mutagen_generator_assignment":[1,0],"goal":3,"start":4,"action_noise":0,"location_history":"[4,2,1,5,0,1,3]","action_history":"[1,0,1,1,1,0]","mutagen_history":"[0,1,0,0,0,1]","location_rts":"[1485,1288,825,468,438,340]","trial_type":"fractal-mutation","trial_index":102,"time_elapsed":1676078,"internal_node_id":"0.0-5.0-48.0"},{"group":"hexagon_tri","fractal_assignment":["../images/ylw_slt.png","../images/blu_wht.png","../images/cyn_red.png","../images/org_blu.png","../images/gry_blk.png","../images/pnk_blu.png"],"mutagen_generator_assignment":[1,0],"goal":5,"start":3,"action_noise":0,"location_history":"[3,2,3,2,1,5]","action_history":"[0,1,0,0,1]","mutagen_history":"[1,0,1,1,0]","location_rts":"[1208,238,472,147,371]","trial_type":"fractal-mutation","trial_index":103,"time_elapsed":1687680,"internal_node_id":"0.0-5.0-49.0"},{"view_history":"[{\"page_index\":0,\"viewing_time\":9785}]","rt":9786,"trial_type":"instructions","trial_index":104,"time_elapsed":1698468,"internal_node_id":"0.0-6.0"},{"rt":6568,"responses":"{\"Q0\":\"No, I do not.\"}","trial_type":"survey-text","trial_index":105,"time_elapsed":1706051,"internal_node_id":"0.0-7.0"}]