[{"view_history":"[{\"page_index\":0,\"viewing_time\":1529},{\"page_index\":1,\"viewing_time\":1399},{\"page_index\":2,\"viewing_time\":944}]","rt":3872,"trial_type":"instructions","trial_index":0,"time_elapsed":3872,"internal_node_id":"0.0-0.0"},{"view_history":"[{\"page_index\":0,\"viewing_time\":1640},{\"page_index\":1,\"viewing_time\":1583}]","rt":3223,"trial_type":"instructions","trial_index":1,"time_elapsed":8096,"internal_node_id":"0.0-1.0"},{"group":"hexagon_tri","room_assignment":["yellow","green","blue","grey","red","purple"],"door_color_assignment":["black","white"],"door_generator_assignment":[1,0],"goal":4,"start":0,"action_noise":0,"location_history":"[0,5,4]","action_history":"[0,0]","door_history":"[1,1]","location_rts":"[1557,3020]","trial_type":"two-door-navigation","trial_index":2,"time_elapsed":18721,"internal_node_id":"0.0-2.0-0.0"},{"group":"hexagon_tri","room_assignment":["yellow","green","blue","grey","red","purple"],"door_color_assignment":["black","white"],"door_generator_assignment":[1,0],"goal":3,"start":4,"action_noise":0,"location_history":"[4,2,1,5,0,5,4,2,3]","action_history":"[1,0,1,1,0,0,1,1]","door_history":"[0,1,0,0,1,1,0,0]","location_rts":"[1429,2164,924,1509,691,627,238,2469]","trial_type":"two-door-navigation","trial_index":3,"time_elapsed":40936,"internal_node_id":"0.0-2.0-1.0"},{"group":"hexagon_tri","room_assignment":["yellow","green","blue","grey","red","purple"],"door_color_assignment":["black","white"],"door_generator_assignment":[1,0],"goal":5,"start":3,"action_noise":0,"location_history":"[3,2,1,3,2,3,2,1,5]","action_history":"[0,0,0,0,1,0,0,1]","door_history":"[1,1,1,1,0,1,1,0]","location_rts":"[846,491,1020,821,524,220,140,277]","trial_type":"two-door-navigation","trial_index":4,"time_elapsed":57439,"internal_node_id":"0.0-2.0-2.0"},{"group":"hexagon_tri","room_assignment":["yellow","green","blue","grey","red","purple"],"door_color_assignment":["black","white"],"door_generator_assignment":[1,0],"goal":2,"start":5,"action_noise":0,"location_history":"[5,4,2]","action_history":"[0,1]","door_history":"[1,0]","location_rts":"[6185,533]","trial_type":"two-door-navigation","trial_index":5,"time_elapsed":70200,"internal_node_id":"0.0-2.0-3.0"},{"group":"hexagon_tri","room_assignment":["yellow","green","blue","grey","red","purple"],"door_color_assignment":["black","white"],"door_generator_assignment":[1,0],"goal":1,"start":2,"action_noise":0,"location_history":"[2,3,2,3,2,3,4,0,5,4,2,1]","action_history":"[1,0,1,0,1,1,0,0,0,1,0]","door_history":"[0,1,0,1,0,0,1,1,1,0,1]","location_rts":"[4001,68,3002,427,4827,1077,68,4156,3276,3444,380]","trial_type":"two-door-navigation","trial_index":6,"time_elapsed":110149,"internal_node_id":"0.0-2.0-4.0"},{"group":"hexagon_tri","room_assignment":["yellow","green","blue","grey","red","purple"],"door_color_assignment":["black","white"],"door_generator_assignment":[1,0],"goal":4,"start":1,"action_noise":0,"location_history":"[1,3,2,3,2,3,4]","action_history":"[0,0,1,0,1,1]","door_history":"[1,1,0,1,0,0]","location_rts":"[9220,3148,779,213,1691,661]","trial_type":"two-door-navigation","trial_index":7,"time_elapsed":135982,"internal_node_id":"0.0-2.0-5.0"},{"group":"hexagon_tri","room_assignment":["yellow","green","blue","grey","red","purple"],"door_color_assignment":["black","white"],"door_generator_assignment":[1,0],"goal":1,"start":4,"action_noise":0,"location_history":"[4,0,1]","action_history":"[0,1]","door_history":"[1,0]","location_rts":"[3673,101]","trial_type":"two-door-navigation","trial_index":8,"time_elapsed":145798,"internal_node_id":"0.0-2.0-6.0"},{"group":"hexagon_tri","room_assignment":["yellow","green","blue","grey","red","purple"],"door_color_assignment":["black","white"],"door_generator_assignment":[1,0],"goal":5,"start":1,"action_noise":0,"location_history":"[1,5]","action_history":"[1]","door_history":"[0]","location_rts":"[185]","trial_type":"two-door-navigation","trial_index":9,"time_elapsed":151008,"internal_node_id":"0.0-2.0-7.0"},{"group":"hexagon_tri","room_assignment":["yellow","green","blue","grey","red","purple"],"door_color_assignment":["black","white"],"door_generator_assignment":[1,0],"goal":0,"start":5,"action_noise":0,"location_history":"[5,0]","action_history":"[1]","door_history":"[0]","location_rts":"[424]","trial_type":"two-door-navigation","trial_index":10,"time_elapsed":156455,"internal_node_id":"0.0-2.0-8.0"},{"group":"hexagon_tri","room_assignment":["yellow","green","blue","grey","red","purple"],"door_color_assignment":["black","white"],"door_generator_assignment":[1,0],"goal":2,"start":0,"action_noise":0,"location_history":"[0,1,5,0,1,5,4,2]","action_history":"[1,1,1,1,1,0,1]","door_history":"[0,0,0,0,0,1,0]","location_rts":"[175,212,178,203,428,773,82]","trial_type":"two-door-navigation","trial_index":11,"time_elapsed":169654,"internal_node_id":"0.0-2.0-9.0"},{"group":"hexagon_tri","room_assignment":["yellow","green","blue","grey","red","purple"],"door_color_assignment":["black","white"],"door_generator_assignment":[1,0],"goal":3,"start":2,"action_noise":0,"location_history":"[2,3]","action_history":"[1]","door_history":"[0]","location_rts":"[177]","trial_type":"two-door-navigation","trial_index":12,"time_elapsed":174856,"internal_node_id":"0.0-2.0-10.0"},{"group":"hexagon_tri","room_assignment":["yellow","green","blue","grey","red","purple"],"door_color_assignment":["black","white"],"door_generator_assignment":[1,0],"goal":0,"start":3,"action_noise":0,"location_history":"[3,4,2,3,4,2,3,4,2,3,4,2,3,4,2,3,4,2,3,4,0]","action_history":"[1,1,1,1,1,1,1,1,1,1,1,1,1,1,1,1,1,1,1,0]","door_history":"[0,0,0,0,0,0,0,0,0,0,0,0,0,0,0,0,0,0,0,1]","location_rts":"[207,131,147,277,220,218,6,255,44,43,12,51,27,220,27,243,12,44,228,388]","trial_type":"two-door-navigation","trial_index":13,"time_elapsed":202071,"internal_node_id":"0.0-2.0-11.0"},{"group":"hexagon_tri","room_assignment":["yellow","green","blue","grey","red","purple"],"door_color_assignment":["black","white"],"door_generator_assignment":[1,0],"goal":2,"start":0,"action_noise":0,"location_history":"[0,1,3,4,2]","action_history":"[1,0,1,1]","door_history":"[0,1,0,0]","location_rts":"[441,284,195,82]","trial_type":"two-door-navigation","trial_index":14,"time_elapsed":211159,"internal_node_id":"0.0-2.0-12.0"},{"group":"hexagon_tri","room_assignment":["yellow","green","blue","grey","red","purple"],"door_color_assignment":["black","white"],"door_generator_assignment":[1,0],"goal":5,"start":2,"action_noise":0,"location_history":"[2,3,2,1,5]","action_history":"[1,0,0,1]","door_history":"[0,1,1,0]","location_rts":"[255,572,558,3572]","trial_type":"two-door-navigation","trial_index":15,"time_elapsed":224393,"internal_node_id":"0.0-2.0-13.0"},{"group":"hexagon_tri","room_assignment":["yellow","green","blue","grey","red","purple"],"door_color_assignment":["black","white"],"door_generator_assignment":[1,0],"goal":4,"start":5,"action_noise":0,"location_history":"[5,0,1,5,0,1,5,0,1,5,4]","action_history":"[1,1,1,1,1,1,1,1,1,0]","door_history":"[0,0,0,0,0,0,0,0,0,1]","location_rts":"[733,1761,148,196,236,230,179,155,6,746]","trial_type":"two-door-navigation","trial_index":16,"time_elapsed":243232,"internal_node_id":"0.0-2.0-14.0"},{"group":"hexagon_tri","room_assignment":["yellow","green","blue","grey","red","purple"],"door_color_assignment":["black","white"],"door_generator_assignment":[1,0],"goal":3,"start":4,"action_noise":0,"location_history":"[4,2,1,5,0,1,5,0,1,5,0,1,5,0,1,5,0,1,3]","action_history":"[1,0,1,1,1,1,1,1,1,1,1,1,1,1,1,1,1,0]","door_history":"[0,1,0,0,0,0,0,0,0,0,0,0,0,0,0,0,0,1]","location_rts":"[96,195,115,196,204,171,716,165,138,419,194,6,2505,19,263,989,1933,1604]","trial_type":"two-door-navigation","trial_index":17,"time_elapsed":275527,"internal_node_id":"0.0-2.0-15.0"},{"group":"hexagon_tri","room_assignment":["yellow","green","blue","grey","red","purple"],"door_color_assignment":["black","white"],"door_generator_assignment":[1,0],"goal":1,"start":3,"action_noise":0,"location_history":"[3,4,0,1]","action_history":"[1,0,1]","door_history":"[0,1,0]","location_rts":"[127,715,581]","trial_type":"two-door-navigation","trial_index":18,"time_elapsed":284014,"internal_node_id":"0.0-2.0-16.0"},{"group":"hexagon_tri","room_assignment":["yellow","green","blue","grey","red","purple"],"door_color_assignment":["black","white"],"door_generator_assignment":[1,0],"goal":5,"start":1,"action_noise":0,"location_history":"[1,3,4,0,5]","action_history":"[0,1,0,0]","door_history":"[1,0,1,1]","location_rts":"[675,724,771,651]","trial_type":"two-door-navigation","trial_index":19,"time_elapsed":294919,"internal_node_id":"0.0-2.0-17.0"},{"group":"hexagon_tri","room_assignment":["yellow","green","blue","grey","red","purple"],"door_color_assignment":["black","white"],"door_generator_assignment":[1,0],"goal":4,"start":5,"action_noise":0,"location_history":"[5,4]","action_history":"[0]","door_history":"[1]","location_rts":"[487]","trial_type":"two-door-navigation","trial_index":20,"time_elapsed":300430,"internal_node_id":"0.0-2.0-18.0"},{"group":"hexagon_tri","room_assignment":["yellow","green","blue","grey","red","purple"],"door_color_assignment":["black","white"],"door_generator_assignment":[1,0],"goal":0,"start":4,"action_noise":0,"location_history":"[4,0]","action_history":"[0]","door_history":"[1]","location_rts":"[1953]","trial_type":"two-door-navigation","trial_index":21,"time_elapsed":307405,"internal_node_id":"0.0-2.0-19.0"},{"group":"hexagon_tri","room_assignment":["yellow","green","blue","grey","red","purple"],"door_color_assignment":["black","white"],"door_generator_assignment":[1,0],"goal":1,"start":0,"action_noise":0,"location_history":"[0,1]","action_history":"[1]","door_history":"[0]","location_rts":"[1944]","trial_type":"two-door-navigation","trial_index":22,"time_elapsed":314374,"internal_node_id":"0.0-2.0-20.0"},{"group":"hexagon_tri","room_assignment":["yellow","green","blue","grey","red","purple"],"door_color_assignment":["black","white"],"door_generator_assignment":[1,0],"goal":3,"start":1,"action_noise":0,"location_history":"[1,3]","action_history":"[0]","door_history":"[1]","location_rts":"[1418]","trial_type":"two-door-navigation","trial_index":23,"time_elapsed":320816,"internal_node_id":"0.0-2.0-21.0"},{"group":"hexagon_tri","room_assignment":["yellow","green","blue","grey","red","purple"],"door_color_assignment":["black","white"],"door_generator_assignment":[1,0],"goal":2,"start":3,"action_noise":0,"location_history":"[3,2]","action_history":"[0]","door_history":"[1]","location_rts":"[2536]","trial_type":"two-door-navigation","trial_index":24,"time_elapsed":328376,"internal_node_id":"0.0-2.0-22.0"},{"group":"hexagon_tri","room_assignment":["yellow","green","blue","grey","red","purple"],"door_color_assignment":["black","white"],"door_generator_assignment":[1,0],"goal":0,"start":2,"action_noise":0,"location_history":"[2,3,2,1,3,2,1,5,4,0]","action_history":"[1,0,0,0,0,0,1,0,0]","door_history":"[0,1,1,1,1,1,0,1,1]","location_rts":"[2584,2010,931,1795,2124,1517,220,435,19259]","trial_type":"two-door-navigation","trial_index":25,"time_elapsed":372438,"internal_node_id":"0.0-2.0-23.0"},{"group":"hexagon_tri","room_assignment":["yellow","green","blue","grey","red","purple"],"door_color_assignment":["black","white"],"door_generator_assignment":[1,0],"goal":3,"start":0,"action_noise":0,"location_history":"[0,1,5,4,0,5,4,2,3]","action_history":"[1,1,0,0,0,0,1,1]","door_history":"[0,0,1,1,1,1,0,0]","location_rts":"[1121,4861,221,115,92,19,155,931]","trial_type":"two-door-navigation","trial_index":26,"time_elapsed":392119,"internal_node_id":"0.0-2.0-24.0"},{"group":"hexagon_tri","room_assignment":["yellow","green","blue","grey","red","purple"],"door_color_assignment":["black","white"],"door_generator_assignment":[1,0],"goal":1,"start":3,"action_noise":0,"location_history":"[3,4,0,5,0,5,0,5,0,1]","action_history":"[1,0,0,1,0,1,0,1,1]","door_history":"[0,1,1,0,1,0,1,0,0]","location_rts":"[2673,883,715,2116,653,592,573,79,444]","trial_type":"two-door-navigation","trial_index":27,"time_elapsed":414023,"internal_node_id":"0.0-2.0-25.0"},{"group":"hexagon_tri","room_assignment":["yellow","green","blue","grey","red","purple"],"door_color_assignment":["black","white"],"door_generator_assignment":[1,0],"goal":2,"start":1,"action_noise":0,"location_history":"[1,3,2]","action_history":"[0,0]","door_history":"[1,1]","location_rts":"[3728,70]","trial_type":"two-door-navigation","trial_index":28,"time_elapsed":423863,"internal_node_id":"0.0-2.0-26.0"},{"group":"hexagon_tri","room_assignment":["yellow","green","blue","grey","red","purple"],"door_color_assignment":["black","white"],"door_generator_assignment":[1,0],"goal":5,"start":2,"action_noise":0,"location_history":"[2,1,3,2,1,3,2,1,5]","action_history":"[0,0,0,0,0,0,0,1]","door_history":"[1,1,1,1,1,1,1,0]","location_rts":"[11376,20604,75,5178,116,44,140,156]","trial_type":"two-door-navigation","trial_index":29,"time_elapsed":473719,"internal_node_id":"0.0-2.0-27.0"},{"group":"hexagon_tri","room_assignment":["yellow","green","blue","grey","red","purple"],"door_color_assignment":["black","white"],"door_generator_assignment":[1,0],"goal":4,"start":5,"action_noise":0,"location_history":"[5,4]","action_history":"[0]","door_history":"[1]","location_rts":"[615]","trial_type":"two-door-navigation","trial_index":30,"time_elapsed":479360,"internal_node_id":"0.0-2.0-28.0"},{"group":"hexagon_tri","room_assignment":["yellow","green","blue","grey","red","purple"],"door_color_assignment":["black","white"],"door_generator_assignment":[1,0],"goal":5,"start":4,"action_noise":0,"location_history":"[4,0,5]","action_history":"[0,0]","door_history":"[1,1]","location_rts":"[128,75]","trial_type":"two-door-navigation","trial_index":31,"time_elapsed":485608,"internal_node_id":"0.0-2.0-29.0"},{"group":"hexagon_tri","room_assignment":["yellow","green","blue","grey","red","purple"],"door_color_assignment":["black","white"],"door_generator_assignment":[1,0],"goal":3,"start":5,"action_noise":0,"location_history":"[5,4,0,5,0,5,4,2,1,3]","action_history":"[0,0,0,1,0,0,1,0,0]","door_history":"[1,1,1,0,1,1,0,1,1]","location_rts":"[816,139,507,564,267,555,75,190,29]","trial_type":"two-door-navigation","trial_index":32,"time_elapsed":502394,"internal_node_id":"0.0-2.0-30.0"},{"group":"hexagon_tri","room_assignment":["yellow","green","blue","grey","red","purple"],"door_color_assignment":["black","white"],"door_generator_assignment":[1,0],"goal":0,"start":3,"action_noise":0,"location_history":"[3,2,1,3,4,0]","action_history":"[0,0,0,1,0]","door_history":"[1,1,1,0,1]","location_rts":"[16630,84,155,947,434]","trial_type":"two-door-navigation","trial_index":33,"time_elapsed":530751,"internal_node_id":"0.0-2.0-31.0"},{"group":"hexagon_tri","room_assignment":["yellow","green","blue","grey","red","purple"],"door_color_assignment":["black","white"],"door_generator_assignment":[1,0],"goal":4,"start":0,"action_noise":0,"location_history":"[0,5,4]","action_history":"[0,0]","door_history":"[1,1]","location_rts":"[159,58]","trial_type":"two-door-navigation","trial_index":34,"time_elapsed":537014,"internal_node_id":"0.0-2.0-32.0"},{"group":"hexagon_tri","room_assignment":["yellow","green","blue","grey","red","purple"],"door_color_assignment":["black","white"],"door_generator_assignment":[1,0],"goal":1,"start":4,"action_noise":0,"location_history":"[4,0,1]","action_history":"[0,1]","door_history":"[1,0]","location_rts":"[313,99]","trial_type":"two-door-navigation","trial_index":35,"time_elapsed":543472,"internal_node_id":"0.0-2.0-33.0"},{"group":"hexagon_tri","room_assignment":["yellow","green","blue","grey","red","purple"],"door_color_assignment":["black","white"],"door_generator_assignment":[1,0],"goal":2,"start":1,"action_noise":0,"location_history":"[1,5,4,0,1,3,2]","action_history":"[1,0,0,1,0,0]","door_history":"[0,1,1,0,1,1]","location_rts":"[617,29,187,282,116,140]","trial_type":"two-door-navigation","trial_index":36,"time_elapsed":554968,"internal_node_id":"0.0-2.0-34.0"},{"group":"hexagon_tri","room_assignment":["yellow","green","blue","grey","red","purple"],"door_color_assignment":["black","white"],"door_generator_assignment":[1,0],"goal":0,"start":2,"action_noise":0,"location_history":"[2,3,2,1,5,4,0]","action_history":"[1,0,0,1,0,0]","door_history":"[0,1,1,0,1,1]","location_rts":"[552,187,3399,187,6798,37]","trial_type":"two-door-navigation","trial_index":37,"time_elapsed":577395,"internal_node_id":"0.0-2.0-35.0"},{"group":"hexagon_tri","room_assignment":["yellow","green","blue","grey","red","purple"],"door_color_assignment":["black","white"],"door_generator_assignment":[1,0],"goal":5,"start":0,"action_noise":0,"location_history":"[0,5]","action_history":"[0]","door_history":"[1]","location_rts":"[16246]","trial_type":"two-door-navigation","trial_index":38,"time_elapsed":599664,"internal_node_id":"0.0-2.0-36.0"},{"group":"hexagon_tri","room_assignment":["yellow","green","blue","grey","red","purple"],"door_color_assignment":["black","white"],"door_generator_assignment":[1,0],"goal":2,"start":5,"action_noise":0,"location_history":"[5,4,0,1,3,4,0,5,4,0,5,0,5,0,5,0,5,4,0,5,4,2]","action_history":"[0,0,1,0,1,0,0,0,0,0,1,0,1,0,1,0,0,0,0,0,1]","door_history":"[1,1,0,1,0,1,1,1,1,1,0,1,0,1,0,1,1,1,1,1,0]","location_rts":"[1719,243,156,3715,980,20838,8335,27,4245,452,579,2132,125,5774,1203,636,10244,50,346,204,174]","trial_type":"two-door-navigation","trial_index":39,"time_elapsed":688080,"internal_node_id":"0.0-2.0-37.0"},{"group":"hexagon_tri","room_assignment":["yellow","green","blue","grey","red","purple"],"door_color_assignment":["black","white"],"door_generator_assignment":[1,0],"goal":1,"start":2,"action_noise":0,"location_history":"[2,1]","action_history":"[0]","door_history":"[1]","location_rts":"[855]","trial_type":"two-door-navigation","trial_index":40,"time_elapsed":693960,"internal_node_id":"0.0-2.0-38.0"},{"group":"hexagon_tri","room_assignment":["yellow","green","blue","grey","red","purple"],"door_color_assignment":["black","white"],"door_generator_assignment":[1,0],"goal":4,"start":1,"action_noise":0,"location_history":"[1,3,2,1,3,4]","action_history":"[0,0,0,0,1]","door_history":"[1,1,1,1,0]","location_rts":"[687,109,90236,116,221]","trial_type":"two-door-navigation","trial_index":41,"time_elapsed":795397,"internal_node_id":"0.0-2.0-39.0"},{"group":"hexagon_tri","room_assignment":["yellow","green","blue","grey","red","purple"],"door_color_assignment":["black","white"],"door_generator_assignment":[1,0],"goal":3,"start":4,"action_noise":0,"location_history":"[4,0,5,4,2,1,3]","action_history":"[0,0,0,1,0,0]","door_history":"[1,1,1,0,1,1]","location_rts":"[681661,402,117,958,8,59]","trial_type":"two-door-navigation","trial_index":42,"time_elapsed":1489728,"internal_node_id":"0.0-2.0-40.0"},{"group":"hexagon_tri","room_assignment":["yellow","green","blue","grey","red","purple"],"door_color_assignment":["black","white"],"door_generator_assignment":[1,0],"goal":5,"start":3,"action_noise":0,"location_history":"[3,2,1,3,2,1,5]","action_history":"[0,0,0,0,0,1]","door_history":"[1,1,1,1,1,0]","location_rts":"[3582,44,60,107,11556,2644]","trial_type":"two-door-navigation","trial_index":43,"time_elapsed":1518521,"internal_node_id":"0.0-2.0-41.0"},{"group":"hexagon_tri","room_assignment":["yellow","green","blue","grey","red","purple"],"door_color_assignment":["black","white"],"door_generator_assignment":[1,0],"goal":3,"start":5,"action_noise":0,"location_history":"[5,0,1,5,0,1,5,0,5,4,0,5,4,2,1,3]","action_history":"[1,1,1,1,1,1,1,0,0,0,0,0,1,0,0]","door_history":"[0,0,0,0,0,0,0,1,1,1,1,1,0,1,1]","location_rts":"[160,19,90,148,7883,196,916,188,74,67,250,195,77,411,156]","trial_type":"two-door-navigation","trial_index":44,"time_elapsed":1548664,"internal_node_id":"0.0-2.0-42.0"},{"group":"hexagon_tri","room_assignment":["yellow","green","blue","grey","red","purple"],"door_color_assignment":["black","white"],"door_generator_assignment":[1,0],"goal":0,"start":3,"action_noise":0,"location_history":"[3,4,2,3,2,1,3,4,0]","action_history":"[1,1,1,0,0,0,1,0]","door_history":"[0,0,0,1,1,1,0,1]","location_rts":"[2217,11,20,1044,60,19,477,427]","trial_type":"two-door-navigation","trial_index":45,"time_elapsed":1565402,"internal_node_id":"0.0-2.0-43.0"},{"group":"hexagon_tri","room_assignment":["yellow","green","blue","grey","red","purple"],"door_color_assignment":["black","white"],"door_generator_assignment":[1,0],"goal":2,"start":0,"action_noise":0,"location_history":"[0,5,0,1,5,0,1,3,2]","action_history":"[0,1,1,1,1,1,0,0]","door_history":"[1,0,0,0,0,0,1,1]","location_rts":"[1968,59,84,58,3331,269,17062,202]","trial_type":"two-door-navigation","trial_index":46,"time_elapsed":1601600,"internal_node_id":"0.0-2.0-44.0"},{"group":"hexagon_tri","room_assignment":["yellow","green","blue","grey","red","purple"],"door_color_assignment":["black","white"],"door_generator_assignment":[1,0],"goal":4,"start":2,"action_noise":0,"location_history":"[2,3,4]","action_history":"[1,1]","door_history":"[0,0]","location_rts":"[407,844]","trial_type":"two-door-navigation","trial_index":47,"time_elapsed":1608897,"internal_node_id":"0.0-2.0-45.0"},{"group":"hexagon_tri","room_assignment":["yellow","green","blue","grey","red","purple"],"door_color_assignment":["black","white"],"door_generator_assignment":[1,0],"goal":1,"start":4,"action_noise":0,"location_history":"[4,0,5,0,1]","action_history":"[0,0,1,1]","door_history":"[1,1,0,0]","location_rts":"[9905,1191,51,628]","trial_type":"two-door-navigation","trial_index":48,"time_elapsed":1628753,"internal_node_id":"0.0-2.0-46.0"},{"group":"hexagon_tri","room_assignment":["yellow","green","blue","grey","red","purple"],"door_color_assignment":["black","white"],"door_generator_assignment":[1,0],"goal":4,"start":1,"action_noise":0,"location_history":"[1,3,4]","action_history":"[0,1]","door_history":"[1,0]","location_rts":"[112,2325]","trial_type":"two-door-navigation","trial_index":49,"time_elapsed":1637230,"internal_node_id":"0.0-2.0-47.0"},{"group":"hexagon_tri","room_assignment":["yellow","green","blue","grey","red","purple"],"door_color_assignment":["black","white"],"door_generator_assignment":[1,0],"goal":3,"start":4,"action_noise":0,"location_history":"[4,0,5,0,5,4,0,1,3]","action_history":"[0,0,1,0,0,0,1,0]","door_history":"[1,1,0,1,1,1,0,1]","location_rts":"[2042,8627,1036,172,629,1508,507,172]","trial_type":"two-door-navigation","trial_index":50,"time_elapsed":1664087,"internal_node_id":"0.0-2.0-48.0"},{"group":"hexagon_tri","room_assignment":["yellow","green","blue","grey","red","purple"],"door_color_assignment":["black","white"],"door_generator_assignment":[1,0],"goal":5,"start":3,"action_noise":0,"location_history":"[3,2,3,2,3,2,3,4,0,5]","action_history":"[0,1,0,1,0,1,1,0,0]","door_history":"[1,0,1,0,1,0,0,1,1]","location_rts":"[8399,884,1084,266,436,364,1148,405,782]","trial_type":"two-door-navigation","trial_index":51,"time_elapsed":1691352,"internal_node_id":"0.0-2.0-49.0"},{"view_history":"[{\"page_index\":0,\"viewing_time\":2706}]","rt":2707,"trial_type":"instructions","trial_index":52,"time_elapsed":1695059,"internal_node_id":"0.0-3.0"},{"view_history":"[{\"page_index\":0,\"viewing_time\":3503},{\"page_index\":1,\"viewing_time\":2120}]","rt":5623,"trial_type":"instructions","trial_index":53,"time_elapsed":1701682,"internal_node_id":"0.0-4.0"},{"group":"hexagon_bi","fractal_assignment":["../images/org_blu.png","../images/gry_blk.png","../images/pnk_blu.png","../images/ylw_slt.png","../images/blu_wht.png","../images/cyn_red.png"],"mutagen_generator_assignment":[1,0],"goal":4,"start":0,"action_noise":0,"location_history":"[0,1,2,1,0,1,0,5,4]","action_history":"[1,0,0,1,1,1,0,1]","mutagen_history":"[0,1,1,0,0,0,1,0]","location_rts":"[4846,99,93,31,260,12,125,244]","trial_type":"fractal-mutation","trial_index":54,"time_elapsed":1719817,"internal_node_id":"0.0-5.0-0.0"},{"group":"hexagon_bi","fractal_assignment":["../images/org_blu.png","../images/gry_blk.png","../images/pnk_blu.png","../images/ylw_slt.png","../images/blu_wht.png","../images/cyn_red.png"],"mutagen_generator_assignment":[1,0],"goal":3,"start":4,"action_noise":0,"location_history":"[4,5,4,3]","action_history":"[1,1,0]","mutagen_history":"[0,0,1]","location_rts":"[687,613,12]","trial_type":"fractal-mutation","trial_index":55,"time_elapsed":1728285,"internal_node_id":"0.0-5.0-1.0"},{"group":"hexagon_bi","fractal_assignment":["../images/org_blu.png","../images/gry_blk.png","../images/pnk_blu.png","../images/ylw_slt.png","../images/blu_wht.png","../images/cyn_red.png"],"mutagen_generator_assignment":[1,0],"goal":5,"start":3,"action_noise":0,"location_history":"[3,4,5]","action_history":"[0,1]","mutagen_history":"[1,0]","location_rts":"[115,38]","trial_type":"fractal-mutation","trial_index":56,"time_elapsed":1734553,"internal_node_id":"0.0-5.0-2.0"},{"group":"hexagon_bi","fractal_assignment":["../images/org_blu.png","../images/gry_blk.png","../images/pnk_blu.png","../images/ylw_slt.png","../images/blu_wht.png","../images/cyn_red.png"],"mutagen_generator_assignment":[1,0],"goal":2,"start":5,"action_noise":0,"location_history":"[5,0,5,4,3,2]","action_history":"[0,0,1,0,1]","mutagen_history":"[1,1,0,1,0]","location_rts":"[40,2,5,29,58]","trial_type":"fractal-mutation","trial_index":57,"time_elapsed":1743966,"internal_node_id":"0.0-5.0-3.0"},{"group":"hexagon_bi","fractal_assignment":["../images/org_blu.png","../images/gry_blk.png","../images/pnk_blu.png","../images/ylw_slt.png","../images/blu_wht.png","../images/cyn_red.png"],"mutagen_generator_assignment":[1,0],"goal":1,"start":2,"action_noise":0,"location_history":"[2,3,4,5,0,5,0,1]","action_history":"[1,0,1,0,0,0,1]","mutagen_history":"[0,1,0,1,1,1,0]","location_rts":"[488,204,70,108,81,151,256]","trial_type":"fractal-mutation","trial_index":58,"time_elapsed":1756719,"internal_node_id":"0.0-5.0-4.0"},{"group":"hexagon_bi","fractal_assignment":["../images/org_blu.png","../images/gry_blk.png","../images/pnk_blu.png","../images/ylw_slt.png","../images/blu_wht.png","../images/cyn_red.png"],"mutagen_generator_assignment":[1,0],"goal":4,"start":1,"action_noise":0,"location_history":"[1,2,1,2,1,2,1,2,1,2,1,2,1,2,1,2,3,4]","action_history":"[0,0,0,0,0,0,0,0,0,0,0,0,0,0,0,1,0]","mutagen_history":"[1,1,1,1,1,1,1,1,1,1,1,1,1,1,1,0,1]","location_rts":"[89,53,56,40,72,57,48,73,97,95,71,25,49,80,120,22,140]","trial_type":"fractal-mutation","trial_index":59,"time_elapsed":1779980,"internal_node_id":"0.0-5.0-5.0"},{"group":"hexagon_bi","fractal_assignment":["../images/org_blu.png","../images/gry_blk.png","../images/pnk_blu.png","../images/ylw_slt.png","../images/blu_wht.png","../images/cyn_red.png"],"mutagen_generator_assignment":[1,0],"goal":1,"start":4,"action_noise":0,"location_history":"[4,3,4,3,2,1]","action_history":"[0,0,0,1,0]","mutagen_history":"[1,1,1,0,1]","location_rts":"[53,113,100,54,189]","trial_type":"fractal-mutation","trial_index":60,"time_elapsed":1789798,"internal_node_id":"0.0-5.0-6.0"},{"group":"hexagon_bi","fractal_assignment":["../images/org_blu.png","../images/gry_blk.png","../images/pnk_blu.png","../images/ylw_slt.png","../images/blu_wht.png","../images/cyn_red.png"],"mutagen_generator_assignment":[1,0],"goal":5,"start":1,"action_noise":0,"location_history":"[1,0,5]","action_history":"[1,0]","mutagen_history":"[0,1]","location_rts":"[180,117]","trial_type":"fractal-mutation","trial_index":61,"time_elapsed":1796204,"internal_node_id":"0.0-5.0-7.0"},{"group":"hexagon_bi","fractal_assignment":["../images/org_blu.png","../images/gry_blk.png","../images/pnk_blu.png","../images/ylw_slt.png","../images/blu_wht.png","../images/cyn_red.png"],"mutagen_generator_assignment":[1,0],"goal":0,"start":5,"action_noise":0,"location_history":"[5,0]","action_history":"[0]","mutagen_history":"[1]","location_rts":"[29]","trial_type":"fractal-mutation","trial_index":62,"time_elapsed":1801301,"internal_node_id":"0.0-5.0-8.0"},{"group":"hexagon_bi","fractal_assignment":["../images/org_blu.png","../images/gry_blk.png","../images/pnk_blu.png","../images/ylw_slt.png","../images/blu_wht.png","../images/cyn_red.png"],"mutagen_generator_assignment":[1,0],"goal":2,"start":0,"action_noise":0,"location_history":"[0,5,0,5,0,1,2]","action_history":"[0,0,0,0,1,0]","mutagen_history":"[1,1,1,1,0,1]","location_rts":"[11,103,25,48,1,187]","trial_type":"fractal-mutation","trial_index":63,"time_elapsed":1812043,"internal_node_id":"0.0-5.0-9.0"},{"group":"hexagon_bi","fractal_assignment":["../images/org_blu.png","../images/gry_blk.png","../images/pnk_blu.png","../images/ylw_slt.png","../images/blu_wht.png","../images/cyn_red.png"],"mutagen_generator_assignment":[1,0],"goal":3,"start":2,"action_noise":0,"location_history":"[2,1,0,1,2,3]","action_history":"[0,1,1,0,1]","mutagen_history":"[1,0,0,1,0]","location_rts":"[229,73,68,100,74]","trial_type":"fractal-mutation","trial_index":64,"time_elapsed":1821849,"internal_node_id":"0.0-5.0-10.0"},{"group":"hexagon_bi","fractal_assignment":["../images/org_blu.png","../images/gry_blk.png","../images/pnk_blu.png","../images/ylw_slt.png","../images/blu_wht.png","../images/cyn_red.png"],"mutagen_generator_assignment":[1,0],"goal":0,"start":3,"action_noise":0,"location_history":"[3,4,3,4,5,0]","action_history":"[0,0,0,1,0]","mutagen_history":"[1,1,1,0,1]","location_rts":"[127,11,185,201,77]","trial_type":"fractal-mutation","trial_index":65,"time_elapsed":1831747,"internal_node_id":"0.0-5.0-11.0"},{"group":"hexagon_bi","fractal_assignment":["../images/org_blu.png","../images/gry_blk.png","../images/pnk_blu.png","../images/ylw_slt.png","../images/blu_wht.png","../images/cyn_red.png"],"mutagen_generator_assignment":[1,0],"goal":2,"start":0,"action_noise":0,"location_history":"[0,5,0,5,0,1,2]","action_history":"[0,0,0,0,1,0]","mutagen_history":"[1,1,1,1,0,1]","location_rts":"[92,104,121,64,9,213]","trial_type":"fractal-mutation","trial_index":66,"time_elapsed":1842715,"internal_node_id":"0.0-5.0-12.0"},{"group":"hexagon_bi","fractal_assignment":["../images/org_blu.png","../images/gry_blk.png","../images/pnk_blu.png","../images/ylw_slt.png","../images/blu_wht.png","../images/cyn_red.png"],"mutagen_generator_assignment":[1,0],"goal":5,"start":2,"action_noise":0,"location_history":"[2,3,2,1,2,1,2,1,0,1,2,3,4,3,4,3,4,3,4,3,4,3,4,3,4,3,2,1,2,1,2,1,2,3,4,5]","action_history":"[1,1,0,0,0,0,0,1,1,0,1,0,0,0,0,0,0,0,0,0,0,0,0,0,0,1,0,0,0,0,0,0,1,0,1]","mutagen_history":"[0,0,1,1,1,1,1,0,0,1,0,1,1,1,1,1,1,1,1,1,1,1,1,1,1,0,1,1,1,1,1,1,0,1,0]","location_rts":"[102,141,157,33,25,49,158,89,13,1,22,4,97,47,64,34,63,49,64,89,56,33,63,73,31,40,187,119,105,137,215,162,95,12,25]","trial_type":"fractal-mutation","trial_index":67,"time_elapsed":1886440,"internal_node_id":"0.0-5.0-13.0"},{"group":"hexagon_bi","fractal_assignment":["../images/org_blu.png","../images/gry_blk.png","../images/pnk_blu.png","../images/ylw_slt.png","../images/blu_wht.png","../images/cyn_red.png"],"mutagen_generator_assignment":[1,0],"goal":4,"start":5,"action_noise":0,"location_history":"[5,4]","action_history":"[1]","mutagen_history":"[0]","location_rts":"[167]","trial_type":"fractal-mutation","trial_index":68,"time_elapsed":1892405,"internal_node_id":"0.0-5.0-14.0"},{"group":"hexagon_bi","fractal_assignment":["../images/org_blu.png","../images/gry_blk.png","../images/pnk_blu.png","../images/ylw_slt.png","../images/blu_wht.png","../images/cyn_red.png"],"mutagen_generator_assignment":[1,0],"goal":3,"start":4,"action_noise":0,"location_history":"[4,5,4,3]","action_history":"[1,1,0]","mutagen_history":"[0,0,1]","location_rts":"[605,19916,52]","trial_type":"fractal-mutation","trial_index":69,"time_elapsed":1921132,"internal_node_id":"0.0-5.0-15.0"},{"group":"hexagon_bi","fractal_assignment":["../images/org_blu.png","../images/gry_blk.png","../images/pnk_blu.png","../images/ylw_slt.png","../images/blu_wht.png","../images/cyn_red.png"],"mutagen_generator_assignment":[1,0],"goal":1,"start":3,"action_noise":0,"location_history":"[3,2,3,2,3,2,1]","action_history":"[1,1,1,1,1,0]","mutagen_history":"[0,0,0,0,0,1]","location_rts":"[4301,116,684,43,150,110]","trial_type":"fractal-mutation","trial_index":70,"time_elapsed":1936823,"internal_node_id":"0.0-5.0-16.0"},{"group":"hexagon_bi","fractal_assignment":["../images/org_blu.png","../images/gry_blk.png","../images/pnk_blu.png","../images/ylw_slt.png","../images/blu_wht.png","../images/cyn_red.png"],"mutagen_generator_assignment":[1,0],"goal":5,"start":1,"action_noise":0,"location_history":"[1,2,1,2,3,4,3,4,3,4,3,4,3,2,1,0,5]","action_history":"[0,0,0,1,0,0,0,0,0,0,0,0,1,0,1,0]","mutagen_history":"[1,1,1,0,1,1,1,1,1,1,1,1,0,1,0,1]","location_rts":"[586,278,9636,176,118,233,186,201,97,160,297,208,524,342,135,84]","trial_type":"fractal-mutation","trial_index":71,"time_elapsed":1974396,"internal_node_id":"0.0-5.0-17.0"},{"group":"hexagon_bi","fractal_assignment":["../images/org_blu.png","../images/gry_blk.png","../images/pnk_blu.png","../images/ylw_slt.png","../images/blu_wht.png","../images/cyn_red.png"],"mutagen_generator_assignment":[1,0],"goal":4,"start":5,"action_noise":0,"location_history":"[5,0,5,0,1,2,1,2,1,2,1,0,1,0,1,2,3,4]","action_history":"[0,0,0,1,0,0,0,0,0,0,1,1,1,1,0,1,0]","mutagen_history":"[1,1,1,0,1,1,1,1,1,1,0,0,0,0,1,0,1]","location_rts":"[45,32,550,1349378,31,35,27,155,143,142,200,4,195,140,102,157,189]","trial_type":"fractal-mutation","trial_index":72,"time_elapsed":3347920,"internal_node_id":"0.0-5.0-18.0"},{"group":"hexagon_bi","fractal_assignment":["../images/org_blu.png","../images/gry_blk.png","../images/pnk_blu.png","../images/ylw_slt.png","../images/blu_wht.png","../images/cyn_red.png"],"mutagen_generator_assignment":[1,0],"goal":0,"start":4,"action_noise":0,"location_history":"[4,5,4,5,0]","action_history":"[1,1,1,0]","mutagen_history":"[0,0,0,1]","location_rts":"[539,1082,92,258]","trial_type":"fractal-mutation","trial_index":73,"time_elapsed":3358095,"internal_node_id":"0.0-5.0-19.0"},{"group":"hexagon_bi","fractal_assignment":["../images/org_blu.png","../images/gry_blk.png","../images/pnk_blu.png","../images/ylw_slt.png","../images/blu_wht.png","../images/cyn_red.png"],"mutagen_generator_assignment":[1,0],"goal":1,"start":0,"action_noise":0,"location_history":"[0,1]","action_history":"[1]","mutagen_history":"[0]","location_rts":"[21162]","trial_type":"fractal-mutation","trial_index":74,"time_elapsed":3384305,"internal_node_id":"0.0-5.0-20.0"},{"group":"hexagon_bi","fractal_assignment":["../images/org_blu.png","../images/gry_blk.png","../images/pnk_blu.png","../images/ylw_slt.png","../images/blu_wht.png","../images/cyn_red.png"],"mutagen_generator_assignment":[1,0],"goal":3,"start":1,"action_noise":0,"location_history":"[1,2,3]","action_history":"[0,1]","mutagen_history":"[1,0]","location_rts":"[90,51]","trial_type":"fractal-mutation","trial_index":75,"time_elapsed":3390561,"internal_node_id":"0.0-5.0-21.0"},{"group":"hexagon_bi","fractal_assignment":["../images/org_blu.png","../images/gry_blk.png","../images/pnk_blu.png","../images/ylw_slt.png","../images/blu_wht.png","../images/cyn_red.png"],"mutagen_generator_assignment":[1,0],"goal":2,"start":3,"action_noise":0,"location_history":"[3,2]","action_history":"[1]","mutagen_history":"[0]","location_rts":"[193]","trial_type":"fractal-mutation","trial_index":76,"time_elapsed":3395802,"internal_node_id":"0.0-5.0-22.0"},{"group":"hexagon_bi","fractal_assignment":["../images/org_blu.png","../images/gry_blk.png","../images/pnk_blu.png","../images/ylw_slt.png","../images/blu_wht.png","../images/cyn_red.png"],"mutagen_generator_assignment":[1,0],"goal":0,"start":2,"action_noise":0,"location_history":"[2,1,2,1,0]","action_history":"[0,0,0,1]","mutagen_history":"[1,1,1,0]","location_rts":"[145,88,7,127]","trial_type":"fractal-mutation","trial_index":77,"time_elapsed":3404410,"internal_node_id":"0.0-5.0-23.0"},{"group":"hexagon_bi","fractal_assignment":["../images/org_blu.png","../images/gry_blk.png","../images/pnk_blu.png","../images/ylw_slt.png","../images/blu_wht.png","../images/cyn_red.png"],"mutagen_generator_assignment":[1,0],"goal":3,"start":0,"action_noise":0,"location_history":"[0,1,0,5,4,5,4,3]","action_history":"[1,1,0,1,1,1,0]","mutagen_history":"[0,0,1,0,0,0,1]","location_rts":"[24,26,36,74,173,101,115]","trial_type":"fractal-mutation","trial_index":78,"time_elapsed":3416321,"internal_node_id":"0.0-5.0-24.0"},{"group":"hexagon_bi","fractal_assignment":["../images/org_blu.png","../images/gry_blk.png","../images/pnk_blu.png","../images/ylw_slt.png","../images/blu_wht.png","../images/cyn_red.png"],"mutagen_generator_assignment":[1,0],"goal":1,"start":3,"action_noise":0,"location_history":"[3,2,3,2,3,2,1]","action_history":"[1,1,1,1,1,0]","mutagen_history":"[0,0,0,0,0,1]","location_rts":"[225,148,1500,76,91,204]","trial_type":"fractal-mutation","trial_index":79,"time_elapsed":3428854,"internal_node_id":"0.0-5.0-25.0"},{"group":"hexagon_bi","fractal_assignment":["../images/org_blu.png","../images/gry_blk.png","../images/pnk_blu.png","../images/ylw_slt.png","../images/blu_wht.png","../images/cyn_red.png"],"mutagen_generator_assignment":[1,0],"goal":2,"start":1,"action_noise":0,"location_history":"[1,2]","action_history":"[0]","mutagen_history":"[1]","location_rts":"[187]","trial_type":"fractal-mutation","trial_index":80,"time_elapsed":3434113,"internal_node_id":"0.0-5.0-26.0"},{"group":"hexagon_bi","fractal_assignment":["../images/org_blu.png","../images/gry_blk.png","../images/pnk_blu.png","../images/ylw_slt.png","../images/blu_wht.png","../images/cyn_red.png"],"mutagen_generator_assignment":[1,0],"goal":5,"start":2,"action_noise":0,"location_history":"[2,1,0,5]","action_history":"[0,1,0]","mutagen_history":"[1,0,1]","location_rts":"[25,28,100]","trial_type":"fractal-mutation","trial_index":81,"time_elapsed":3441450,"internal_node_id":"0.0-5.0-27.0"},{"group":"hexagon_bi","fractal_assignment":["../images/org_blu.png","../images/gry_blk.png","../images/pnk_blu.png","../images/ylw_slt.png","../images/blu_wht.png","../images/cyn_red.png"],"mutagen_generator_assignment":[1,0],"goal":4,"start":5,"action_noise":0,"location_history":"[5,4]","action_history":"[1]","mutagen_history":"[0]","location_rts":"[120]","trial_type":"fractal-mutation","trial_index":82,"time_elapsed":3446619,"internal_node_id":"0.0-5.0-28.0"},{"group":"hexagon_bi","fractal_assignment":["../images/org_blu.png","../images/gry_blk.png","../images/pnk_blu.png","../images/ylw_slt.png","../images/blu_wht.png","../images/cyn_red.png"],"mutagen_generator_assignment":[1,0],"goal":5,"start":4,"action_noise":0,"location_history":"[4,3,4,3,2,1,2,1,2,1,2,1,0,1,2,1,0,5]","action_history":"[0,0,0,1,0,0,0,0,0,0,0,1,1,0,0,1,0]","mutagen_history":"[1,1,1,0,1,1,1,1,1,1,1,0,0,1,1,0,1]","location_rts":"[47,105,124,12,7,109,77,108,188,159,36,49,92,189,1,28,19]","trial_type":"fractal-mutation","trial_index":83,"time_elapsed":3470008,"internal_node_id":"0.0-5.0-29.0"},{"group":"hexagon_bi","fractal_assignment":["../images/org_blu.png","../images/gry_blk.png","../images/pnk_blu.png","../images/ylw_slt.png","../images/blu_wht.png","../images/cyn_red.png"],"mutagen_generator_assignment":[1,0],"goal":3,"start":5,"action_noise":0,"location_history":"[5,0,5,4,3]","action_history":"[0,0,1,0]","mutagen_history":"[1,1,0,1]","location_rts":"[169,142,29,83]","trial_type":"fractal-mutation","trial_index":84,"time_elapsed":3478679,"internal_node_id":"0.0-5.0-30.0"},{"group":"hexagon_bi","fractal_assignment":["../images/org_blu.png","../images/gry_blk.png","../images/pnk_blu.png","../images/ylw_slt.png","../images/blu_wht.png","../images/cyn_red.png"],"mutagen_generator_assignment":[1,0],"goal":0,"start":3,"action_noise":0,"location_history":"[3,4,3,4,5,4,3,2,3,4,3,4,3,2,3,4,3,4,3,4,3,4,3,4,5,0]","action_history":"[0,0,0,1,1,0,1,1,0,0,0,0,1,1,0,0,0,0,0,0,0,0,0,1,0]","mutagen_history":"[1,1,1,0,0,1,0,0,1,1,1,1,0,0,1,1,1,1,1,1,1,1,1,0,1]","location_rts":"[11,71,108,1596,387,85,175,13,123,31,61,113,46,218,140,148,129,62,47,9,13,44,53,174,155]","trial_type":"fractal-mutation","trial_index":85,"time_elapsed":3513190,"internal_node_id":"0.0-5.0-31.0"},{"group":"hexagon_bi","fractal_assignment":["../images/org_blu.png","../images/gry_blk.png","../images/pnk_blu.png","../images/ylw_slt.png","../images/blu_wht.png","../images/cyn_red.png"],"mutagen_generator_assignment":[1,0],"goal":4,"start":0,"action_noise":0,"location_history":"[0,5,0,1,2,1,0,1,2,1,2,1,0,1,2,3,4]","action_history":"[0,0,1,0,0,1,1,0,0,0,0,1,1,0,1,0]","mutagen_history":"[1,1,0,1,1,0,0,1,1,1,1,0,0,1,0,1]","location_rts":"[147,22,146,36,125,43,35,107,142,27,42,30,156,5,7,216]","trial_type":"fractal-mutation","trial_index":86,"time_elapsed":3536416,"internal_node_id":"0.0-5.0-32.0"},{"group":"hexagon_bi","fractal_assignment":["../images/org_blu.png","../images/gry_blk.png","../images/pnk_blu.png","../images/ylw_slt.png","../images/blu_wht.png","../images/cyn_red.png"],"mutagen_generator_assignment":[1,0],"goal":1,"start":4,"action_noise":0,"location_history":"[4,5,0,5,4,3,2,3,4,5,4,5,0,1]","action_history":"[1,0,0,1,0,1,1,0,1,1,1,0,1]","mutagen_history":"[0,1,1,0,1,0,0,1,0,0,0,1,0]","location_rts":"[2348,147,164,181,83,37,122,17,17,118,101,5,51]","trial_type":"fractal-mutation","trial_index":87,"time_elapsed":3558500,"internal_node_id":"0.0-5.0-33.0"},{"group":"hexagon_bi","fractal_assignment":["../images/org_blu.png","../images/gry_blk.png","../images/pnk_blu.png","../images/ylw_slt.png","../images/blu_wht.png","../images/cyn_red.png"],"mutagen_generator_assignment":[1,0],"goal":2,"start":1,"action_noise":0,"location_history":"[1,2]","action_history":"[0]","mutagen_history":"[1]","location_rts":"[71]","trial_type":"fractal-mutation","trial_index":88,"time_elapsed":3563637,"internal_node_id":"0.0-5.0-34.0"},{"group":"hexagon_bi","fractal_assignment":["../images/org_blu.png","../images/gry_blk.png","../images/pnk_blu.png","../images/ylw_slt.png","../images/blu_wht.png","../images/cyn_red.png"],"mutagen_generator_assignment":[1,0],"goal":0,"start":2,"action_noise":0,"location_history":"[2,1,2,3,2,3,4,3,4,3,4,3,4,5,0]","action_history":"[0,0,1,1,1,0,0,0,0,0,0,0,1,0]","mutagen_history":"[1,1,0,0,0,1,1,1,1,1,1,1,0,1]","location_rts":"[28,38,12,164,180,148,84,104,77,36,304,61,41069,92]","trial_type":"fractal-mutation","trial_index":89,"time_elapsed":3624881,"internal_node_id":"0.0-5.0-35.0"},{"group":"hexagon_bi","fractal_assignment":["../images/org_blu.png","../images/gry_blk.png","../images/pnk_blu.png","../images/ylw_slt.png","../images/blu_wht.png","../images/cyn_red.png"],"mutagen_generator_assignment":[1,0],"goal":5,"start":0,"action_noise":0,"location_history":"[0,5]","action_history":"[0]","mutagen_history":"[1]","location_rts":"[97]","trial_type":"fractal-mutation","trial_index":90,"time_elapsed":3630048,"internal_node_id":"0.0-5.0-36.0"},{"group":"hexagon_bi","fractal_assignment":["../images/org_blu.png","../images/gry_blk.png","../images/pnk_blu.png","../images/ylw_slt.png","../images/blu_wht.png","../images/cyn_red.png"],"mutagen_generator_assignment":[1,0],"goal":2,"start":5,"action_noise":0,"location_history":"[5,0,1,2]","action_history":"[0,1,0]","mutagen_history":"[1,0,1]","location_rts":"[74,125,101]","trial_type":"fractal-mutation","trial_index":91,"time_elapsed":3637527,"internal_node_id":"0.0-5.0-37.0"},{"group":"hexagon_bi","fractal_assignment":["../images/org_blu.png","../images/gry_blk.png","../images/pnk_blu.png","../images/ylw_slt.png","../images/blu_wht.png","../images/cyn_red.png"],"mutagen_generator_assignment":[1,0],"goal":1,"start":2,"action_noise":0,"location_history":"[2,3,2,1]","action_history":"[1,1,0]","mutagen_history":"[0,0,1]","location_rts":"[19,292,13]","trial_type":"fractal-mutation","trial_index":92,"time_elapsed":3645010,"internal_node_id":"0.0-5.0-38.0"},{"group":"hexagon_bi","fractal_assignment":["../images/org_blu.png","../images/gry_blk.png","../images/pnk_blu.png","../images/ylw_slt.png","../images/blu_wht.png","../images/cyn_red.png"],"mutagen_generator_assignment":[1,0],"goal":4,"start":1,"action_noise":0,"location_history":"[1,2,1,2,3,4]","action_history":"[0,0,0,1,0]","mutagen_history":"[1,1,1,0,1]","location_rts":"[104,0,47,213,11234]","trial_type":"fractal-mutation","trial_index":93,"time_elapsed":3665928,"internal_node_id":"0.0-5.0-39.0"},{"group":"hexagon_bi","fractal_assignment":["../images/org_blu.png","../images/gry_blk.png","../images/pnk_blu.png","../images/ylw_slt.png","../images/blu_wht.png","../images/cyn_red.png"],"mutagen_generator_assignment":[1,0],"goal":3,"start":4,"action_noise":0,"location_history":"[4,3]","action_history":"[0]","mutagen_history":"[1]","location_rts":"[65]","trial_type":"fractal-mutation","trial_index":94,"time_elapsed":3671060,"internal_node_id":"0.0-5.0-40.0"},{"group":"hexagon_bi","fractal_assignment":["../images/org_blu.png","../images/gry_blk.png","../images/pnk_blu.png","../images/ylw_slt.png","../images/blu_wht.png","../images/cyn_red.png"],"mutagen_generator_assignment":[1,0],"goal":5,"start":3,"action_noise":0,"location_history":"[3,2,1,0,1,2,1,0,5]","action_history":"[1,0,1,1,0,0,1,0]","mutagen_history":"[0,1,0,0,1,1,0,1]","location_rts":"[20,93,399,13,84,30,129,141]","trial_type":"fractal-mutation","trial_index":95,"time_elapsed":3684406,"internal_node_id":"0.0-5.0-41.0"},{"group":"hexagon_bi","fractal_assignment":["../images/org_blu.png","../images/gry_blk.png","../images/pnk_blu.png","../images/ylw_slt.png","../images/blu_wht.png","../images/cyn_red.png"],"mutagen_generator_assignment":[1,0],"goal":3,"start":5,"action_noise":0,"location_history":"[5,4,3]","action_history":"[1,0]","mutagen_history":"[0,1]","location_rts":"[620,197]","trial_type":"fractal-mutation","trial_index":96,"time_elapsed":3691336,"internal_node_id":"0.0-5.0-42.0"},{"group":"hexagon_bi","fractal_assignment":["../images/org_blu.png","../images/gry_blk.png","../images/pnk_blu.png","../images/ylw_slt.png","../images/blu_wht.png","../images/cyn_red.png"],"mutagen_generator_assignment":[1,0],"goal":0,"start":3,"action_noise":0,"location_history":"[3,2,3,2,3,2,3,4,5,0]","action_history":"[1,1,1,1,1,1,0,1,0]","mutagen_history":"[0,0,0,0,0,0,1,0,1]","location_rts":"[202547,46,85,67,132,27,33,100,100]","trial_type":"fractal-mutation","trial_index":97,"time_elapsed":3907929,"internal_node_id":"0.0-5.0-43.0"},{"group":"hexagon_bi","fractal_assignment":["../images/org_blu.png","../images/gry_blk.png","../images/pnk_blu.png","../images/ylw_slt.png","../images/blu_wht.png","../images/cyn_red.png"],"mutagen_generator_assignment":[1,0],"goal":2,"start":0,"action_noise":0,"location_history":"[0,5,0,5,0,5,0,5,0,5,0,5,0,5,0,5,0,5,0,5,0,5,0,5,0,5,0,5,0,5,0,5,0,5,0,5,0,5,0,5,0,5,0,5,0,5,0,1,0,5,0,5,0,1,2]","action_history":"[0,0,0,0,0,0,0,0,0,0,0,0,0,0,0,0,0,0,0,0,0,0,0,0,0,0,0,0,0,0,0,0,0,0,0,0,0,0,0,0,0,0,0,0,0,0,1,1,0,0,0,0,1,0]","mutagen_history":"[1,1,1,1,1,1,1,1,1,1,1,1,1,1,1,1,1,1,1,1,1,1,1,1,1,1,1,1,1,1,1,1,1,1,1,1,1,1,1,1,1,1,1,1,1,1,0,0,1,1,1,1,0,1]","location_rts":"[58,69,92,57,31,65,1894,72,7,227,871,126,367,18533,242,512,167,215,333,39,39,118,342,214,61,1813,112,39,54,368,95,1,110,53,134,178,348,225,253,70,53,64,54,68,12244,134,797,92,36,1822,101,11,468,13]","trial_type":"fractal-mutation","trial_index":98,"time_elapsed":4014697,"internal_node_id":"0.0-5.0-44.0"},{"group":"hexagon_bi","fractal_assignment":["../images/org_blu.png","../images/gry_blk.png","../images/pnk_blu.png","../images/ylw_slt.png","../images/blu_wht.png","../images/cyn_red.png"],"mutagen_generator_assignment":[1,0],"goal":4,"start":2,"action_noise":0,"location_history":"[2,3,4]","action_history":"[1,0]","mutagen_history":"[0,1]","location_rts":"[2778,186]","trial_type":"fractal-mutation","trial_index":99,"time_elapsed":4023777,"internal_node_id":"0.0-5.0-45.0"},{"group":"hexagon_bi","fractal_assignment":["../images/org_blu.png","../images/gry_blk.png","../images/pnk_blu.png","../images/ylw_slt.png","../images/blu_wht.png","../images/cyn_red.png"],"mutagen_generator_assignment":[1,0],"goal":1,"start":4,"action_noise":0,"location_history":"[4,3,4,3,4,3,4,3,2,3,2,3,2,1]","action_history":"[0,0,0,0,0,0,0,1,1,1,1,1,0]","mutagen_history":"[1,1,1,1,1,1,1,0,0,0,0,0,1]","location_rts":"[153,125,182,141,7,125,118,19,140,44,65,43,60]","trial_type":"fractal-mutation","trial_index":100,"time_elapsed":4042761,"internal_node_id":"0.0-5.0-46.0"},{"group":"hexagon_bi","fractal_assignment":["../images/org_blu.png","../images/gry_blk.png","../images/pnk_blu.png","../images/ylw_slt.png","../images/blu_wht.png","../images/cyn_red.png"],"mutagen_generator_assignment":[1,0],"goal":4,"start":1,"action_noise":0,"location_history":"[1,0,5,4]","action_history":"[1,0,1]","mutagen_history":"[0,1,0]","location_rts":"[26,135,21]","trial_type":"fractal-mutation","trial_index":101,"time_elapsed":4050107,"internal_node_id":"0.0-5.0-47.0"},{"group":"hexagon_bi","fractal_assignment":["../images/org_blu.png","../images/gry_blk.png","../images/pnk_blu.png","../images/ylw_slt.png","../images/blu_wht.png","../images/cyn_red.png"],"mutagen_generator_assignment":[1,0],"goal":3,"start":4,"action_noise":0,"location_history":"[4,3]","action_history":"[0]","mutagen_history":"[1]","location_rts":"[55]","trial_type":"fractal-mutation","trial_index":102,"time_elapsed":4055232,"internal_node_id":"0.0-5.0-48.0"},{"group":"hexagon_bi","fractal_assignment":["../images/org_blu.png","../images/gry_blk.png","../images/pnk_blu.png","../images/ylw_slt.png","../images/blu_wht.png","../images/cyn_red.png"],"mutagen_generator_assignment":[1,0],"goal":5,"start":3,"action_noise":0,"location_history":"[3,2,3,2,1,2,1,2,3,2,3,2,3,4,3,4,5]","action_history":"[1,1,1,0,0,0,0,1,1,1,1,1,0,0,0,1]","mutagen_history":"[0,0,0,1,1,1,1,0,0,0,0,0,1,1,1,0]","location_rts":"[145,4045,169,264,15,28,341,173,691,173,586,68,290,6,155,126]","trial_type":"fractal-mutation","trial_index":103,"time_elapsed":4083385,"internal_node_id":"0.0-5.0-49.0"},{"view_history":"[{\"page_index\":0,\"viewing_time\":12355}]","rt":12355,"trial_type":"instructions","trial_index":104,"time_elapsed":4096740,"internal_node_id":"0.0-6.0"},{"rt":1639,"responses":"{\"Q0\":\"\"}","trial_type":"survey-text","trial_index":105,"time_elapsed":4099380,"internal_node_id":"0.0-7.0"}]