[{"view_history":"[{\"page_index\":0,\"viewing_time\":2571},{\"page_index\":1,\"viewing_time\":5304},{\"page_index\":2,\"viewing_time\":6928}]","rt":14803,"trial_type":"instructions","trial_index":0,"time_elapsed":14805,"internal_node_id":"0.0-0.0"},{"view_history":"[{\"page_index\":0,\"viewing_time\":1166},{\"page_index\":1,\"viewing_time\":4924}]","rt":6091,"trial_type":"instructions","trial_index":1,"time_elapsed":21898,"internal_node_id":"0.0-1.0"},{"group":"hexagon_tri","room_assignment":["blue","yellow","red","grey","green","purple"],"door_color_assignment":["black","white"],"door_generator_assignment":[1,0],"goal":4,"start":0,"action_noise":0,"location_history":"[0,1,5,0,1,5,4]","action_history":"[1,1,1,1,1,0]","door_history":"[0,0,0,0,0,1]","location_rts":"[2874,1126,724,626,577,1116]","trial_type":"two-door-navigation","trial_index":2,"time_elapsed":39596,"internal_node_id":"0.0-2.0-0.0"},{"group":"hexagon_tri","room_assignment":["blue","yellow","red","grey","green","purple"],"door_color_assignment":["black","white"],"door_generator_assignment":[1,0],"goal":3,"start":4,"action_noise":0,"location_history":"[4,0,5,4,2,3]","action_history":"[0,0,0,1,1]","door_history":"[1,1,1,0,0]","location_rts":"[2848,558,623,1033,787]","trial_type":"two-door-navigation","trial_index":3,"time_elapsed":57220,"internal_node_id":"0.0-2.0-1.0"},{"group":"hexagon_tri","room_assignment":["blue","yellow","red","grey","green","purple"],"door_color_assignment":["black","white"],"door_generator_assignment":[1,0],"goal":5,"start":3,"action_noise":0,"location_history":"[3,4,2,3,2,1,3,2,3,4,0,5]","action_history":"[1,1,1,0,0,0,0,1,1,0,0]","door_history":"[0,0,0,1,1,1,1,0,0,1,1]","location_rts":"[1196,527,606,718,557,569,1362,684,1917,1119,1089]","trial_type":"two-door-navigation","trial_index":4,"time_elapsed":83243,"internal_node_id":"0.0-2.0-2.0"},{"group":"hexagon_tri","room_assignment":["blue","yellow","red","grey","green","purple"],"door_color_assignment":["black","white"],"door_generator_assignment":[1,0],"goal":2,"start":5,"action_noise":0,"location_history":"[5,0,5,4,0,5,0,5,4,2]","action_history":"[1,0,0,0,0,1,0,0,1]","door_history":"[0,1,1,1,1,0,1,1,0]","location_rts":"[1821,875,793,634,1359,1741,1651,1138,1010]","trial_type":"two-door-navigation","trial_index":5,"time_elapsed":107761,"internal_node_id":"0.0-2.0-3.0"},{"group":"hexagon_tri","room_assignment":["blue","yellow","red","grey","green","purple"],"door_color_assignment":["black","white"],"door_generator_assignment":[1,0],"goal":1,"start":2,"action_noise":0,"location_history":"[2,1]","action_history":"[0]","door_history":"[1]","location_rts":"[1291]","trial_type":"two-door-navigation","trial_index":6,"time_elapsed":114101,"internal_node_id":"0.0-2.0-4.0"},{"group":"hexagon_tri","room_assignment":["blue","yellow","red","grey","green","purple"],"door_color_assignment":["black","white"],"door_generator_assignment":[1,0],"goal":4,"start":1,"action_noise":0,"location_history":"[1,3,2,1,5,4]","action_history":"[0,0,0,1,0]","door_history":"[1,1,1,0,1]","location_rts":"[853,1128,806,711,911]","trial_type":"two-door-navigation","trial_index":7,"time_elapsed":127731,"internal_node_id":"0.0-2.0-5.0"},{"group":"hexagon_tri","room_assignment":["blue","yellow","red","grey","green","purple"],"door_color_assignment":["black","white"],"door_generator_assignment":[1,0],"goal":1,"start":4,"action_noise":0,"location_history":"[4,0,5,0,1]","action_history":"[0,0,1,1]","door_history":"[1,1,0,0]","location_rts":"[1105,652,682,559]","trial_type":"two-door-navigation","trial_index":8,"time_elapsed":139066,"internal_node_id":"0.0-2.0-6.0"},{"group":"hexagon_tri","room_assignment":["blue","yellow","red","grey","green","purple"],"door_color_assignment":["black","white"],"door_generator_assignment":[1,0],"goal":5,"start":1,"action_noise":0,"location_history":"[1,3,2,1,5]","action_history":"[0,0,0,1]","door_history":"[1,1,1,0]","location_rts":"[1069,707,525,636]","trial_type":"two-door-navigation","trial_index":9,"time_elapsed":150208,"internal_node_id":"0.0-2.0-7.0"},{"group":"hexagon_tri","room_assignment":["blue","yellow","red","grey","green","purple"],"door_color_assignment":["black","white"],"door_generator_assignment":[1,0],"goal":0,"start":5,"action_noise":0,"location_history":"[5,0]","action_history":"[1]","door_history":"[0]","location_rts":"[902]","trial_type":"two-door-navigation","trial_index":10,"time_elapsed":156146,"internal_node_id":"0.0-2.0-8.0"},{"group":"hexagon_tri","room_assignment":["blue","yellow","red","grey","green","purple"],"door_color_assignment":["black","white"],"door_generator_assignment":[1,0],"goal":2,"start":0,"action_noise":0,"location_history":"[0,1,5,4,0,5,0,5,4,2]","action_history":"[1,1,0,0,0,1,0,0,1]","door_history":"[0,0,1,1,1,0,1,1,0]","location_rts":"[993,569,467,575,588,714,798,573,643]","trial_type":"two-door-navigation","trial_index":11,"time_elapsed":175362,"internal_node_id":"0.0-2.0-9.0"},{"group":"hexagon_tri","room_assignment":["blue","yellow","red","grey","green","purple"],"door_color_assignment":["black","white"],"door_generator_assignment":[1,0],"goal":3,"start":2,"action_noise":0,"location_history":"[2,1,3]","action_history":"[0,0]","door_history":"[1,1]","location_rts":"[1156,476]","trial_type":"two-door-navigation","trial_index":12,"time_elapsed":183144,"internal_node_id":"0.0-2.0-10.0"},{"group":"hexagon_tri","room_assignment":["blue","yellow","red","grey","green","purple"],"door_color_assignment":["black","white"],"door_generator_assignment":[1,0],"goal":0,"start":3,"action_noise":0,"location_history":"[3,4,2,3,2,1,3,4,0]","action_history":"[1,1,1,0,0,0,1,0]","door_history":"[0,0,0,1,1,1,0,1]","location_rts":"[1103,467,481,611,646,548,1123,523]","trial_type":"two-door-navigation","trial_index":13,"time_elapsed":201010,"internal_node_id":"0.0-2.0-11.0"},{"group":"hexagon_tri","room_assignment":["blue","yellow","red","grey","green","purple"],"door_color_assignment":["black","white"],"door_generator_assignment":[1,0],"goal":2,"start":0,"action_noise":0,"location_history":"[0,5,4,0,1,5,0,5,4,0,1,5,4,0,1,5,0,5,4,0,5,0,1,3,2]","action_history":"[0,0,0,1,1,1,0,0,0,1,1,0,0,1,1,1,0,0,0,0,1,1,0,0]","door_history":"[1,1,1,0,0,0,1,1,1,0,0,1,1,0,0,0,1,1,1,1,0,0,1,1]","location_rts":"[1013,500,735,463,1023,995,487,470,539,577,709,1239,604,601,521,748,458,385,452,725,742,851,1016,608]","trial_type":"two-door-navigation","trial_index":14,"time_elapsed":246625,"internal_node_id":"0.0-2.0-12.0"},{"group":"hexagon_tri","room_assignment":["blue","yellow","red","grey","green","purple"],"door_color_assignment":["black","white"],"door_generator_assignment":[1,0],"goal":5,"start":2,"action_noise":0,"location_history":"[2,1,3,4,2,3,2,1,5]","action_history":"[0,0,1,1,1,0,0,1]","door_history":"[1,1,0,0,0,1,1,0]","location_rts":"[1181,446,767,606,551,4736,453,632]","trial_type":"two-door-navigation","trial_index":15,"time_elapsed":268682,"internal_node_id":"0.0-2.0-13.0"},{"group":"hexagon_tri","room_assignment":["blue","yellow","red","grey","green","purple"],"door_color_assignment":["black","white"],"door_generator_assignment":[1,0],"goal":4,"start":5,"action_noise":0,"location_history":"[5,4]","action_history":"[0]","door_history":"[1]","location_rts":"[4538]","trial_type":"two-door-navigation","trial_index":16,"time_elapsed":278257,"internal_node_id":"0.0-2.0-14.0"},{"group":"hexagon_tri","room_assignment":["blue","yellow","red","grey","green","purple"],"door_color_assignment":["black","white"],"door_generator_assignment":[1,0],"goal":3,"start":4,"action_noise":0,"location_history":"[4,0,5,4,0,5,4,2,3]","action_history":"[0,0,0,0,0,0,1,1]","door_history":"[1,1,1,1,1,1,0,0]","location_rts":"[991,441,382,442,503,533,572,439]","trial_type":"two-door-navigation","trial_index":17,"time_elapsed":295049,"internal_node_id":"0.0-2.0-15.0"},{"group":"hexagon_tri","room_assignment":["blue","yellow","red","grey","green","purple"],"door_color_assignment":["black","white"],"door_generator_assignment":[1,0],"goal":1,"start":3,"action_noise":0,"location_history":"[3,2,1]","action_history":"[0,0]","door_history":"[1,1]","location_rts":"[1228,513]","trial_type":"two-door-navigation","trial_index":18,"time_elapsed":302872,"internal_node_id":"0.0-2.0-16.0"},{"group":"hexagon_tri","room_assignment":["blue","yellow","red","grey","green","purple"],"door_color_assignment":["black","white"],"door_generator_assignment":[1,0],"goal":5,"start":1,"action_noise":0,"location_history":"[1,3,2,1,3,4,2,1,3,4,2,3,4,2,1,5]","action_history":"[0,0,0,0,1,1,0,0,1,1,1,1,1,0,1]","door_history":"[1,1,1,1,0,0,1,1,0,0,0,0,0,1,0]","location_rts":"[787,877,470,486,686,616,882,722,1051,311,727,972,559,424,1461]","trial_type":"two-door-navigation","trial_index":19,"time_elapsed":333716,"internal_node_id":"0.0-2.0-17.0"},{"group":"hexagon_tri","room_assignment":["blue","yellow","red","grey","green","purple"],"door_color_assignment":["black","white"],"door_generator_assignment":[1,0],"goal":4,"start":5,"action_noise":0,"location_history":"[5,0,1,5,0,5,4]","action_history":"[1,1,1,1,0,0]","door_history":"[0,0,0,0,1,1]","location_rts":"[1184,519,487,787,832,476]","trial_type":"two-door-navigation","trial_index":20,"time_elapsed":348302,"internal_node_id":"0.0-2.0-18.0"},{"group":"hexagon_tri","room_assignment":["blue","yellow","red","grey","green","purple"],"door_color_assignment":["black","white"],"door_generator_assignment":[1,0],"goal":0,"start":4,"action_noise":0,"location_history":"[4,0]","action_history":"[0]","door_history":"[1]","location_rts":"[779]","trial_type":"two-door-navigation","trial_index":21,"time_elapsed":355566,"internal_node_id":"0.0-2.0-19.0"},{"group":"hexagon_tri","room_assignment":["blue","yellow","red","grey","green","purple"],"door_color_assignment":["black","white"],"door_generator_assignment":[1,0],"goal":1,"start":0,"action_noise":0,"location_history":"[0,5,4,0,5,0,1]","action_history":"[0,0,0,0,1,1]","door_history":"[1,1,1,1,0,0]","location_rts":"[2585,412,407,429,625,502]","trial_type":"two-door-navigation","trial_index":22,"time_elapsed":372912,"internal_node_id":"0.0-2.0-20.0"},{"group":"hexagon_tri","room_assignment":["blue","yellow","red","grey","green","purple"],"door_color_assignment":["black","white"],"door_generator_assignment":[1,0],"goal":3,"start":1,"action_noise":0,"location_history":"[1,3]","action_history":"[0]","door_history":"[1]","location_rts":"[1046]","trial_type":"two-door-navigation","trial_index":23,"time_elapsed":379016,"internal_node_id":"0.0-2.0-21.0"},{"group":"hexagon_tri","room_assignment":["blue","yellow","red","grey","green","purple"],"door_color_assignment":["black","white"],"door_generator_assignment":[1,0],"goal":2,"start":3,"action_noise":0,"location_history":"[3,4,2]","action_history":"[1,1]","door_history":"[0,0]","location_rts":"[1230,474]","trial_type":"two-door-navigation","trial_index":24,"time_elapsed":386901,"internal_node_id":"0.0-2.0-22.0"},{"group":"hexagon_tri","room_assignment":["blue","yellow","red","grey","green","purple"],"door_color_assignment":["black","white"],"door_generator_assignment":[1,0],"goal":0,"start":2,"action_noise":0,"location_history":"[2,3,4,2,3,2,1,3,2,3,2,1,5,0]","action_history":"[1,1,1,1,0,0,0,0,1,0,0,1,1]","door_history":"[0,0,0,0,1,1,1,1,0,1,1,0,0]","location_rts":"[1186,968,506,622,483,474,478,516,469,1362,855,1504,1368]","trial_type":"two-door-navigation","trial_index":25,"time_elapsed":415431,"internal_node_id":"0.0-2.0-23.0"},{"group":"hexagon_tri","room_assignment":["blue","yellow","red","grey","green","purple"],"door_color_assignment":["black","white"],"door_generator_assignment":[1,0],"goal":3,"start":0,"action_noise":0,"location_history":"[0,1,5,0,1,5,4,0,5,4,0,5,0,1,5,4,0,5,0,1,5,0,1,5,0,1,3]","action_history":"[1,1,1,1,1,0,0,0,0,0,0,1,1,1,0,0,0,1,1,1,1,1,1,1,1,0]","door_history":"[0,0,0,0,0,1,1,1,1,1,1,0,0,0,1,1,1,0,0,0,0,0,0,0,0,1]","location_rts":"[1667,1545,1660,1819,703,716,454,519,598,480,479,887,1263,815,422,409,1141,689,336,452,539,458,798,1379,551,501]","trial_type":"two-door-navigation","trial_index":26,"time_elapsed":468005,"internal_node_id":"0.0-2.0-24.0"},{"group":"hexagon_tri","room_assignment":["blue","yellow","red","grey","green","purple"],"door_color_assignment":["black","white"],"door_generator_assignment":[1,0],"goal":1,"start":3,"action_noise":0,"location_history":"[3,4,2,3,4,0,5,4,0,1]","action_history":"[1,1,1,1,0,0,0,0,1]","door_history":"[0,0,0,0,1,1,1,1,0]","location_rts":"[1559,405,481,1014,445,458,464,1278,543]","trial_type":"two-door-navigation","trial_index":27,"time_elapsed":488202,"internal_node_id":"0.0-2.0-25.0"},{"group":"hexagon_tri","room_assignment":["blue","yellow","red","grey","green","purple"],"door_color_assignment":["black","white"],"door_generator_assignment":[1,0],"goal":2,"start":1,"action_noise":0,"location_history":"[1,5,0,1,5,4,0,5,4,2]","action_history":"[1,1,1,1,0,0,0,0,1]","door_history":"[0,0,0,0,1,1,1,1,0]","location_rts":"[1370,443,1206,882,877,563,953,1256,848]","trial_type":"two-door-navigation","trial_index":28,"time_elapsed":510300,"internal_node_id":"0.0-2.0-26.0"},{"group":"hexagon_tri","room_assignment":["blue","yellow","red","grey","green","purple"],"door_color_assignment":["black","white"],"door_generator_assignment":[1,0],"goal":5,"start":2,"action_noise":0,"location_history":"[2,3,4,2,3,2,1,3,2,3,4,0,5]","action_history":"[1,1,1,1,0,0,0,0,1,1,0,0]","door_history":"[0,0,0,0,1,1,1,1,0,0,1,1]","location_rts":"[2116,524,507,722,602,455,835,926,1798,1456,1607,309]","trial_type":"two-door-navigation","trial_index":29,"time_elapsed":538749,"internal_node_id":"0.0-2.0-27.0"},{"group":"hexagon_tri","room_assignment":["blue","yellow","red","grey","green","purple"],"door_color_assignment":["black","white"],"door_generator_assignment":[1,0],"goal":4,"start":5,"action_noise":0,"location_history":"[5,0,1,5,4]","action_history":"[1,1,1,0]","door_history":"[0,0,0,1]","location_rts":"[1164,637,1165,1331]","trial_type":"two-door-navigation","trial_index":30,"time_elapsed":551245,"internal_node_id":"0.0-2.0-28.0"},{"group":"hexagon_tri","room_assignment":["blue","yellow","red","grey","green","purple"],"door_color_assignment":["black","white"],"door_generator_assignment":[1,0],"goal":5,"start":4,"action_noise":0,"location_history":"[4,0,5]","action_history":"[0,0]","door_history":"[1,1]","location_rts":"[1710,1005]","trial_type":"two-door-navigation","trial_index":31,"time_elapsed":560090,"internal_node_id":"0.0-2.0-29.0"},{"group":"hexagon_tri","room_assignment":["blue","yellow","red","grey","green","purple"],"door_color_assignment":["black","white"],"door_generator_assignment":[1,0],"goal":3,"start":5,"action_noise":0,"location_history":"[5,0,1,5,0,1,5,4,0,5,4,2,3]","action_history":"[1,1,1,1,1,1,0,0,0,0,1,1]","door_history":"[0,0,0,0,0,0,1,1,1,1,0,0]","location_rts":"[1497,555,882,2312,602,551,1120,456,433,623,1223,701]","trial_type":"two-door-navigation","trial_index":32,"time_elapsed":587659,"internal_node_id":"0.0-2.0-30.0"},{"group":"hexagon_tri","room_assignment":["blue","yellow","red","grey","green","purple"],"door_color_assignment":["black","white"],"door_generator_assignment":[1,0],"goal":0,"start":3,"action_noise":0,"location_history":"[3,4,0]","action_history":"[1,0]","door_history":"[0,1]","location_rts":"[1428,1264]","trial_type":"two-door-navigation","trial_index":33,"time_elapsed":596419,"internal_node_id":"0.0-2.0-31.0"},{"group":"hexagon_tri","room_assignment":["blue","yellow","red","grey","green","purple"],"door_color_assignment":["black","white"],"door_generator_assignment":[1,0],"goal":4,"start":0,"action_noise":0,"location_history":"[0,5,4]","action_history":"[0,0]","door_history":"[1,1]","location_rts":"[1562,1067]","trial_type":"two-door-navigation","trial_index":34,"time_elapsed":605215,"internal_node_id":"0.0-2.0-32.0"},{"group":"hexagon_tri","room_assignment":["blue","yellow","red","grey","green","purple"],"door_color_assignment":["black","white"],"door_generator_assignment":[1,0],"goal":1,"start":4,"action_noise":0,"location_history":"[4,2,3,4,0,5,4,0,5,4,2,3,4,0,5,4,0,1]","action_history":"[1,1,1,0,0,0,0,0,0,1,1,1,0,0,0,0,1]","door_history":"[0,0,0,1,1,1,1,1,1,0,0,0,1,1,1,1,0]","location_rts":"[3164,674,777,572,500,572,734,2780,936,441,539,590,1120,851,735,1155,818]","trial_type":"two-door-navigation","trial_index":35,"time_elapsed":643929,"internal_node_id":"0.0-2.0-33.0"},{"group":"hexagon_tri","room_assignment":["blue","yellow","red","grey","green","purple"],"door_color_assignment":["black","white"],"door_generator_assignment":[1,0],"goal":2,"start":1,"action_noise":0,"location_history":"[1,3,2]","action_history":"[0,0]","door_history":"[1,1]","location_rts":"[1797,447]","trial_type":"two-door-navigation","trial_index":36,"time_elapsed":652257,"internal_node_id":"0.0-2.0-34.0"},{"group":"hexagon_tri","room_assignment":["blue","yellow","red","grey","green","purple"],"door_color_assignment":["black","white"],"door_generator_assignment":[1,0],"goal":0,"start":2,"action_noise":0,"location_history":"[2,3,4,2,3,2,1,3,2,3,4,2,3,4,2,1,3,2,1,5,0]","action_history":"[1,1,1,1,0,0,0,0,1,1,1,1,1,1,0,0,0,0,1,1]","door_history":"[0,0,0,0,1,1,1,1,0,0,0,0,0,0,1,1,1,1,0,0]","location_rts":"[1320,898,767,692,611,615,921,1210,687,751,718,1141,842,1752,683,715,707,425,1068,1474]","trial_type":"two-door-navigation","trial_index":37,"time_elapsed":695131,"internal_node_id":"0.0-2.0-35.0"},{"group":"hexagon_tri","room_assignment":["blue","yellow","red","grey","green","purple"],"door_color_assignment":["black","white"],"door_generator_assignment":[1,0],"goal":5,"start":0,"action_noise":0,"location_history":"[0,5]","action_history":"[0]","door_history":"[1]","location_rts":"[2852]","trial_type":"two-door-navigation","trial_index":38,"time_elapsed":703073,"internal_node_id":"0.0-2.0-36.0"},{"group":"hexagon_tri","room_assignment":["blue","yellow","red","grey","green","purple"],"door_color_assignment":["black","white"],"door_generator_assignment":[1,0],"goal":2,"start":5,"action_noise":0,"location_history":"[5,4,0,5,4,0,1,5,4,0,5,4,0,1,5,4,0,5,4,0,1,5,0,5,4,2]","action_history":"[0,0,0,0,0,1,1,0,0,0,0,0,1,1,0,0,0,0,0,1,1,1,0,0,1]","door_history":"[1,1,1,1,1,0,0,1,1,1,1,1,0,0,1,1,1,1,1,0,0,0,1,1,0]","location_rts":"[1425,460,505,1094,682,1908,693,1120,1025,978,691,807,1098,589,1227,1355,467,475,1202,925,597,1050,953,1221,1428]","trial_type":"two-door-navigation","trial_index":39,"time_elapsed":757309,"internal_node_id":"0.0-2.0-37.0"},{"group":"hexagon_tri","room_assignment":["blue","yellow","red","grey","green","purple"],"door_color_assignment":["black","white"],"door_generator_assignment":[1,0],"goal":1,"start":2,"action_noise":0,"location_history":"[2,1]","action_history":"[0]","door_history":"[1]","location_rts":"[1135]","trial_type":"two-door-navigation","trial_index":40,"time_elapsed":763512,"internal_node_id":"0.0-2.0-38.0"},{"group":"hexagon_tri","room_assignment":["blue","yellow","red","grey","green","purple"],"door_color_assignment":["black","white"],"door_generator_assignment":[1,0],"goal":4,"start":1,"action_noise":0,"location_history":"[1,5,4]","action_history":"[1,0]","door_history":"[0,1]","location_rts":"[1921,866]","trial_type":"two-door-navigation","trial_index":41,"time_elapsed":772469,"internal_node_id":"0.0-2.0-39.0"},{"group":"hexagon_tri","room_assignment":["blue","yellow","red","grey","green","purple"],"door_color_assignment":["black","white"],"door_generator_assignment":[1,0],"goal":3,"start":4,"action_noise":0,"location_history":"[4,2,3]","action_history":"[1,1]","door_history":"[0,0]","location_rts":"[2641,544]","trial_type":"two-door-navigation","trial_index":42,"time_elapsed":781804,"internal_node_id":"0.0-2.0-40.0"},{"group":"hexagon_tri","room_assignment":["blue","yellow","red","grey","green","purple"],"door_color_assignment":["black","white"],"door_generator_assignment":[1,0],"goal":5,"start":3,"action_noise":0,"location_history":"[3,4,2,3,2,3,2,1,5]","action_history":"[1,1,1,0,1,0,0,1]","door_history":"[0,0,0,1,0,1,1,0]","location_rts":"[2275,527,627,655,1103,941,319,2198]","trial_type":"two-door-navigation","trial_index":43,"time_elapsed":803002,"internal_node_id":"0.0-2.0-41.0"},{"group":"hexagon_tri","room_assignment":["blue","yellow","red","grey","green","purple"],"door_color_assignment":["black","white"],"door_generator_assignment":[1,0],"goal":3,"start":5,"action_noise":0,"location_history":"[5,4,0,1,5,4,0,5,4,2,3]","action_history":"[0,0,1,1,0,0,0,0,1,1]","door_history":"[1,1,0,0,1,1,1,1,0,0]","location_rts":"[2157,593,1796,572,1349,529,1356,1032,529,889]","trial_type":"two-door-navigation","trial_index":44,"time_elapsed":828155,"internal_node_id":"0.0-2.0-42.0"},{"group":"hexagon_tri","room_assignment":["blue","yellow","red","grey","green","purple"],"door_color_assignment":["black","white"],"door_generator_assignment":[1,0],"goal":0,"start":3,"action_noise":0,"location_history":"[3,4,0]","action_history":"[1,0]","door_history":"[0,1]","location_rts":"[3091,933]","trial_type":"two-door-navigation","trial_index":45,"time_elapsed":838403,"internal_node_id":"0.0-2.0-43.0"},{"group":"hexagon_tri","room_assignment":["blue","yellow","red","grey","green","purple"],"door_color_assignment":["black","white"],"door_generator_assignment":[1,0],"goal":2,"start":0,"action_noise":0,"location_history":"[0,5,4,2]","action_history":"[0,0,1]","door_history":"[1,1,0]","location_rts":"[1720,1020,1207]","trial_type":"two-door-navigation","trial_index":46,"time_elapsed":849449,"internal_node_id":"0.0-2.0-44.0"},{"group":"hexagon_tri","room_assignment":["blue","yellow","red","grey","green","purple"],"door_color_assignment":["black","white"],"door_generator_assignment":[1,0],"goal":4,"start":2,"action_noise":0,"location_history":"[2,1,3,4]","action_history":"[0,0,1]","door_history":"[1,1,0]","location_rts":"[1449,825,1023]","trial_type":"two-door-navigation","trial_index":47,"time_elapsed":859894,"internal_node_id":"0.0-2.0-45.0"},{"group":"hexagon_tri","room_assignment":["blue","yellow","red","grey","green","purple"],"door_color_assignment":["black","white"],"door_generator_assignment":[1,0],"goal":1,"start":4,"action_noise":0,"location_history":"[4,0,5,4,2,3,2,1]","action_history":"[0,0,0,1,1,0,0]","door_history":"[1,1,1,0,0,1,1]","location_rts":"[1381,984,1086,1106,1317,780,436]","trial_type":"two-door-navigation","trial_index":48,"time_elapsed":878393,"internal_node_id":"0.0-2.0-46.0"},{"group":"hexagon_tri","room_assignment":["blue","yellow","red","grey","green","purple"],"door_color_assignment":["black","white"],"door_generator_assignment":[1,0],"goal":4,"start":1,"action_noise":0,"location_history":"[1,3,4]","action_history":"[0,1]","door_history":"[1,0]","location_rts":"[1484,1103]","trial_type":"two-door-navigation","trial_index":49,"time_elapsed":887073,"internal_node_id":"0.0-2.0-47.0"},{"group":"hexagon_tri","room_assignment":["blue","yellow","red","grey","green","purple"],"door_color_assignment":["black","white"],"door_generator_assignment":[1,0],"goal":3,"start":4,"action_noise":0,"location_history":"[4,0,1,5,4,2,3]","action_history":"[0,1,1,0,1,1]","door_history":"[1,0,0,1,0,0]","location_rts":"[1950,1114,769,1009,1151,703]","trial_type":"two-door-navigation","trial_index":50,"time_elapsed":903965,"internal_node_id":"0.0-2.0-48.0"},{"group":"hexagon_tri","room_assignment":["blue","yellow","red","grey","green","purple"],"door_color_assignment":["black","white"],"door_generator_assignment":[1,0],"goal":5,"start":3,"action_noise":0,"location_history":"[3,4,0,5]","action_history":"[1,0,0]","door_history":"[0,1,1]","location_rts":"[1910,931,1647]","trial_type":"two-door-navigation","trial_index":51,"time_elapsed":915543,"internal_node_id":"0.0-2.0-49.0"},{"view_history":"[{\"page_index\":0,\"viewing_time\":1884}]","rt":1886,"trial_type":"instructions","trial_index":52,"time_elapsed":918431,"internal_node_id":"0.0-3.0"},{"view_history":"[{\"page_index\":0,\"viewing_time\":2134},{\"page_index\":1,\"viewing_time\":6206}]","rt":8340,"trial_type":"instructions","trial_index":53,"time_elapsed":927771,"internal_node_id":"0.0-4.0"},{"group":"hexagon_tri","fractal_assignment":["../images/cyn_red.png","../images/org_blu.png","../images/gry_blk.png","../images/pnk_blu.png","../images/blu_wht.png","../images/ylw_slt.png"],"mutagen_generator_assignment":[1,0],"goal":4,"start":0,"action_noise":0,"location_history":"[0,1,3,2,1,5,4]","action_history":"[1,0,0,0,1,0]","mutagen_history":"[0,1,1,1,0,1]","location_rts":"[3652,2406,1872,796,911,813]","trial_type":"fractal-mutation","trial_index":54,"time_elapsed":948696,"internal_node_id":"0.0-5.0-0.0"},{"group":"hexagon_tri","fractal_assignment":["../images/cyn_red.png","../images/org_blu.png","../images/gry_blk.png","../images/pnk_blu.png","../images/blu_wht.png","../images/ylw_slt.png"],"mutagen_generator_assignment":[1,0],"goal":3,"start":4,"action_noise":0,"location_history":"[4,0,5,4,0,5,0,5,4,2,1,3]","action_history":"[0,0,0,0,0,1,0,0,1,0,0]","mutagen_history":"[1,1,1,1,1,0,1,1,0,1,1]","location_rts":"[1607,788,535,945,605,447,522,456,861,658,417]","trial_type":"fractal-mutation","trial_index":55,"time_elapsed":972443,"internal_node_id":"0.0-5.0-1.0"},{"group":"hexagon_tri","fractal_assignment":["../images/cyn_red.png","../images/org_blu.png","../images/gry_blk.png","../images/pnk_blu.png","../images/blu_wht.png","../images/ylw_slt.png"],"mutagen_generator_assignment":[1,0],"goal":5,"start":3,"action_noise":0,"location_history":"[3,2,3,2,1,3,2,3,2,1,5]","action_history":"[0,1,0,0,0,0,1,0,0,1]","mutagen_history":"[1,0,1,1,1,1,0,1,1,0]","location_rts":"[1502,823,686,686,709,996,556,599,430,675]","trial_type":"fractal-mutation","trial_index":56,"time_elapsed":994821,"internal_node_id":"0.0-5.0-2.0"},{"group":"hexagon_tri","fractal_assignment":["../images/cyn_red.png","../images/org_blu.png","../images/gry_blk.png","../images/pnk_blu.png","../images/blu_wht.png","../images/ylw_slt.png"],"mutagen_generator_assignment":[1,0],"goal":2,"start":5,"action_noise":0,"location_history":"[5,4,0,5,4,0,5,0,5,4,0,5,0,5,4,0,1,3,2]","action_history":"[0,0,0,0,0,0,1,0,0,0,0,1,0,0,0,1,0,0]","mutagen_history":"[1,1,1,1,1,1,0,1,1,1,1,0,1,1,1,0,1,1]","location_rts":"[1413,422,441,378,510,419,407,473,397,440,362,455,714,376,352,717,569,631]","trial_type":"fractal-mutation","trial_index":57,"time_elapsed":1027941,"internal_node_id":"0.0-5.0-3.0"},{"group":"hexagon_tri","fractal_assignment":["../images/cyn_red.png","../images/org_blu.png","../images/gry_blk.png","../images/pnk_blu.png","../images/blu_wht.png","../images/ylw_slt.png"],"mutagen_generator_assignment":[1,0],"goal":1,"start":2,"action_noise":0,"location_history":"[2,3,2,1]","action_history":"[1,0,0]","mutagen_history":"[0,1,1]","location_rts":"[2163,687,337]","trial_type":"fractal-mutation","trial_index":58,"time_elapsed":1038378,"internal_node_id":"0.0-5.0-4.0"},{"group":"hexagon_tri","fractal_assignment":["../images/cyn_red.png","../images/org_blu.png","../images/gry_blk.png","../images/pnk_blu.png","../images/blu_wht.png","../images/ylw_slt.png"],"mutagen_generator_assignment":[1,0],"goal":4,"start":1,"action_noise":0,"location_history":"[1,3,2,1,5,4]","action_history":"[0,0,0,1,0]","mutagen_history":"[1,1,1,0,1]","location_rts":"[2260,321,390,431,389]","trial_type":"fractal-mutation","trial_index":59,"time_elapsed":1051566,"internal_node_id":"0.0-5.0-5.0"},{"group":"hexagon_tri","fractal_assignment":["../images/cyn_red.png","../images/org_blu.png","../images/gry_blk.png","../images/pnk_blu.png","../images/blu_wht.png","../images/ylw_slt.png"],"mutagen_generator_assignment":[1,0],"goal":1,"start":4,"action_noise":0,"location_history":"[4,0,5,4,2,3,2,1]","action_history":"[0,0,0,1,1,0,0]","mutagen_history":"[1,1,1,0,0,1,1]","location_rts":"[1191,487,612,636,1354,671,483]","trial_type":"fractal-mutation","trial_index":60,"time_elapsed":1068487,"internal_node_id":"0.0-5.0-6.0"},{"group":"hexagon_tri","fractal_assignment":["../images/cyn_red.png","../images/org_blu.png","../images/gry_blk.png","../images/pnk_blu.png","../images/blu_wht.png","../images/ylw_slt.png"],"mutagen_generator_assignment":[1,0],"goal":5,"start":1,"action_noise":0,"location_history":"[1,3,2,1,3,2,1,3,4,0,5]","action_history":"[0,0,0,0,0,0,0,1,0,0]","mutagen_history":"[1,1,1,1,1,1,1,0,1,1]","location_rts":"[963,688,348,407,358,403,415,571,656,305]","trial_type":"fractal-mutation","trial_index":61,"time_elapsed":1088461,"internal_node_id":"0.0-5.0-7.0"},{"group":"hexagon_tri","fractal_assignment":["../images/cyn_red.png","../images/org_blu.png","../images/gry_blk.png","../images/pnk_blu.png","../images/blu_wht.png","../images/ylw_slt.png"],"mutagen_generator_assignment":[1,0],"goal":0,"start":5,"action_noise":0,"location_history":"[5,4,0]","action_history":"[0,0]","mutagen_history":"[1,1]","location_rts":"[1093,338]","trial_type":"fractal-mutation","trial_index":62,"time_elapsed":1096104,"internal_node_id":"0.0-5.0-8.0"},{"group":"hexagon_tri","fractal_assignment":["../images/cyn_red.png","../images/org_blu.png","../images/gry_blk.png","../images/pnk_blu.png","../images/blu_wht.png","../images/ylw_slt.png"],"mutagen_generator_assignment":[1,0],"goal":2,"start":0,"action_noise":0,"location_history":"[0,5,4,0,5,4,2]","action_history":"[0,0,0,0,0,1]","mutagen_history":"[1,1,1,1,1,0]","location_rts":"[1690,354,355,338,427,461]","trial_type":"fractal-mutation","trial_index":63,"time_elapsed":1110354,"internal_node_id":"0.0-5.0-9.0"},{"group":"hexagon_tri","fractal_assignment":["../images/cyn_red.png","../images/org_blu.png","../images/gry_blk.png","../images/pnk_blu.png","../images/blu_wht.png","../images/ylw_slt.png"],"mutagen_generator_assignment":[1,0],"goal":3,"start":2,"action_noise":0,"location_history":"[2,3]","action_history":"[1]","mutagen_history":"[0]","location_rts":"[1988]","trial_type":"fractal-mutation","trial_index":64,"time_elapsed":1117398,"internal_node_id":"0.0-5.0-10.0"},{"group":"hexagon_tri","fractal_assignment":["../images/cyn_red.png","../images/org_blu.png","../images/gry_blk.png","../images/pnk_blu.png","../images/blu_wht.png","../images/ylw_slt.png"],"mutagen_generator_assignment":[1,0],"goal":0,"start":3,"action_noise":0,"location_history":"[3,2,1,3,2,3,2,3,4,2,1,3,2,3,4,0]","action_history":"[0,0,0,0,1,0,1,1,1,0,0,0,1,1,0]","mutagen_history":"[1,1,1,1,0,1,0,0,0,1,1,1,0,0,1]","location_rts":"[1864,358,434,357,419,365,506,535,763,594,802,1122,447,736,1213]","trial_type":"fractal-mutation","trial_index":65,"time_elapsed":1148275,"internal_node_id":"0.0-5.0-11.0"},{"group":"hexagon_tri","fractal_assignment":["../images/cyn_red.png","../images/org_blu.png","../images/gry_blk.png","../images/pnk_blu.png","../images/blu_wht.png","../images/ylw_slt.png"],"mutagen_generator_assignment":[1,0],"goal":2,"start":0,"action_noise":0,"location_history":"[0,5,4,0,5,0,1,3,2]","action_history":"[0,0,0,0,1,1,0,0]","mutagen_history":"[1,1,1,1,0,0,1,1]","location_rts":"[1225,413,366,353,326,1354,1001,393]","trial_type":"fractal-mutation","trial_index":66,"time_elapsed":1166371,"internal_node_id":"0.0-5.0-12.0"},{"group":"hexagon_tri","fractal_assignment":["../images/cyn_red.png","../images/org_blu.png","../images/gry_blk.png","../images/pnk_blu.png","../images/blu_wht.png","../images/ylw_slt.png"],"mutagen_generator_assignment":[1,0],"goal":5,"start":2,"action_noise":0,"location_history":"[2,3,4,2,1,3,2,1,5]","action_history":"[1,1,1,0,0,0,0,1]","mutagen_history":"[0,0,0,1,1,1,1,0]","location_rts":"[1983,599,585,460,320,285,421,343]","trial_type":"fractal-mutation","trial_index":67,"time_elapsed":1184004,"internal_node_id":"0.0-5.0-13.0"},{"group":"hexagon_tri","fractal_assignment":["../images/cyn_red.png","../images/org_blu.png","../images/gry_blk.png","../images/pnk_blu.png","../images/blu_wht.png","../images/ylw_slt.png"],"mutagen_generator_assignment":[1,0],"goal":4,"start":5,"action_noise":0,"location_history":"[5,4]","action_history":"[0]","mutagen_history":"[1]","location_rts":"[920]","trial_type":"fractal-mutation","trial_index":68,"time_elapsed":1189996,"internal_node_id":"0.0-5.0-14.0"},{"group":"hexagon_tri","fractal_assignment":["../images/cyn_red.png","../images/org_blu.png","../images/gry_blk.png","../images/pnk_blu.png","../images/blu_wht.png","../images/ylw_slt.png"],"mutagen_generator_assignment":[1,0],"goal":3,"start":4,"action_noise":0,"location_history":"[4,2,3]","action_history":"[1,1]","mutagen_history":"[0,0]","location_rts":"[1119,682]","trial_type":"fractal-mutation","trial_index":69,"time_elapsed":1197897,"internal_node_id":"0.0-5.0-15.0"},{"group":"hexagon_tri","fractal_assignment":["../images/cyn_red.png","../images/org_blu.png","../images/gry_blk.png","../images/pnk_blu.png","../images/blu_wht.png","../images/ylw_slt.png"],"mutagen_generator_assignment":[1,0],"goal":1,"start":3,"action_noise":0,"location_history":"[3,2,1]","action_history":"[0,0]","mutagen_history":"[1,1]","location_rts":"[1634,396]","trial_type":"fractal-mutation","trial_index":70,"time_elapsed":1206093,"internal_node_id":"0.0-5.0-16.0"},{"group":"hexagon_tri","fractal_assignment":["../images/cyn_red.png","../images/org_blu.png","../images/gry_blk.png","../images/pnk_blu.png","../images/blu_wht.png","../images/ylw_slt.png"],"mutagen_generator_assignment":[1,0],"goal":5,"start":1,"action_noise":0,"location_history":"[1,3,2,3,4,0,5]","action_history":"[0,0,1,1,0,0]","mutagen_history":"[1,1,0,0,1,1]","location_rts":"[3601,716,230,939,409,353]","trial_type":"fractal-mutation","trial_index":71,"time_elapsed":1223954,"internal_node_id":"0.0-5.0-17.0"},{"group":"hexagon_tri","fractal_assignment":["../images/cyn_red.png","../images/org_blu.png","../images/gry_blk.png","../images/pnk_blu.png","../images/blu_wht.png","../images/ylw_slt.png"],"mutagen_generator_assignment":[1,0],"goal":4,"start":5,"action_noise":0,"location_history":"[5,4]","action_history":"[0]","mutagen_history":"[1]","location_rts":"[1100]","trial_type":"fractal-mutation","trial_index":72,"time_elapsed":1230214,"internal_node_id":"0.0-5.0-18.0"},{"group":"hexagon_tri","fractal_assignment":["../images/cyn_red.png","../images/org_blu.png","../images/gry_blk.png","../images/pnk_blu.png","../images/blu_wht.png","../images/ylw_slt.png"],"mutagen_generator_assignment":[1,0],"goal":0,"start":4,"action_noise":0,"location_history":"[4,0]","action_history":"[0]","mutagen_history":"[1]","location_rts":"[983]","trial_type":"fractal-mutation","trial_index":73,"time_elapsed":1236374,"internal_node_id":"0.0-5.0-19.0"},{"group":"hexagon_tri","fractal_assignment":["../images/cyn_red.png","../images/org_blu.png","../images/gry_blk.png","../images/pnk_blu.png","../images/blu_wht.png","../images/ylw_slt.png"],"mutagen_generator_assignment":[1,0],"goal":1,"start":0,"action_noise":0,"location_history":"[0,1]","action_history":"[1]","mutagen_history":"[0]","location_rts":"[1962]","trial_type":"fractal-mutation","trial_index":74,"time_elapsed":1243401,"internal_node_id":"0.0-5.0-20.0"},{"group":"hexagon_tri","fractal_assignment":["../images/cyn_red.png","../images/org_blu.png","../images/gry_blk.png","../images/pnk_blu.png","../images/blu_wht.png","../images/ylw_slt.png"],"mutagen_generator_assignment":[1,0],"goal":3,"start":1,"action_noise":0,"location_history":"[1,5,0,1,5,4,0,5,0,1,3]","action_history":"[1,1,1,1,0,0,0,1,1,0]","mutagen_history":"[0,0,0,0,1,1,1,0,0,1]","location_rts":"[1053,1212,487,506,550,417,374,604,678,856]","trial_type":"fractal-mutation","trial_index":75,"time_elapsed":1264795,"internal_node_id":"0.0-5.0-21.0"},{"group":"hexagon_tri","fractal_assignment":["../images/cyn_red.png","../images/org_blu.png","../images/gry_blk.png","../images/pnk_blu.png","../images/blu_wht.png","../images/ylw_slt.png"],"mutagen_generator_assignment":[1,0],"goal":2,"start":3,"action_noise":0,"location_history":"[3,2]","action_history":"[0]","mutagen_history":"[1]","location_rts":"[1194]","trial_type":"fractal-mutation","trial_index":76,"time_elapsed":1271059,"internal_node_id":"0.0-5.0-22.0"},{"group":"hexagon_tri","fractal_assignment":["../images/cyn_red.png","../images/org_blu.png","../images/gry_blk.png","../images/pnk_blu.png","../images/blu_wht.png","../images/ylw_slt.png"],"mutagen_generator_assignment":[1,0],"goal":0,"start":2,"action_noise":0,"location_history":"[2,3,4,2,1,5,0]","action_history":"[1,1,1,0,1,1]","mutagen_history":"[0,0,0,1,0,0]","location_rts":"[1283,512,379,857,569,864]","trial_type":"fractal-mutation","trial_index":77,"time_elapsed":1285996,"internal_node_id":"0.0-5.0-23.0"},{"group":"hexagon_tri","fractal_assignment":["../images/cyn_red.png","../images/org_blu.png","../images/gry_blk.png","../images/pnk_blu.png","../images/blu_wht.png","../images/ylw_slt.png"],"mutagen_generator_assignment":[1,0],"goal":3,"start":0,"action_noise":0,"location_history":"[0,1,5,0,5,4,2,1,3]","action_history":"[1,1,1,0,0,1,0,0]","mutagen_history":"[0,0,0,1,1,0,1,1]","location_rts":"[1502,532,579,562,370,1098,441,396]","trial_type":"fractal-mutation","trial_index":78,"time_elapsed":1304160,"internal_node_id":"0.0-5.0-24.0"},{"group":"hexagon_tri","fractal_assignment":["../images/cyn_red.png","../images/org_blu.png","../images/gry_blk.png","../images/pnk_blu.png","../images/blu_wht.png","../images/ylw_slt.png"],"mutagen_generator_assignment":[1,0],"goal":1,"start":3,"action_noise":0,"location_history":"[3,4,2,3,2,1]","action_history":"[1,1,1,0,0]","mutagen_history":"[0,0,0,1,1]","location_rts":"[941,487,403,641,571]","trial_type":"fractal-mutation","trial_index":79,"time_elapsed":1316585,"internal_node_id":"0.0-5.0-25.0"},{"group":"hexagon_tri","fractal_assignment":["../images/cyn_red.png","../images/org_blu.png","../images/gry_blk.png","../images/pnk_blu.png","../images/blu_wht.png","../images/ylw_slt.png"],"mutagen_generator_assignment":[1,0],"goal":2,"start":1,"action_noise":0,"location_history":"[1,5,0,1,3,2]","action_history":"[1,1,1,0,0]","mutagen_history":"[0,0,0,1,1]","location_rts":"[1278,435,776,382,315]","trial_type":"fractal-mutation","trial_index":80,"time_elapsed":1329211,"internal_node_id":"0.0-5.0-26.0"},{"group":"hexagon_tri","fractal_assignment":["../images/cyn_red.png","../images/org_blu.png","../images/gry_blk.png","../images/pnk_blu.png","../images/blu_wht.png","../images/ylw_slt.png"],"mutagen_generator_assignment":[1,0],"goal":5,"start":2,"action_noise":0,"location_history":"[2,3,4,2,1,3,2,1,3,4,2,1,3,2,1,5]","action_history":"[1,1,1,0,0,0,0,0,1,1,0,0,0,0,1]","mutagen_history":"[0,0,0,1,1,1,1,1,0,0,1,1,1,1,0]","location_rts":"[1189,409,412,305,412,392,625,430,480,603,533,392,653,639,470]","trial_type":"fractal-mutation","trial_index":81,"time_elapsed":1357296,"internal_node_id":"0.0-5.0-27.0"},{"group":"hexagon_tri","fractal_assignment":["../images/cyn_red.png","../images/org_blu.png","../images/gry_blk.png","../images/pnk_blu.png","../images/blu_wht.png","../images/ylw_slt.png"],"mutagen_generator_assignment":[1,0],"goal":4,"start":5,"action_noise":0,"location_history":"[5,4]","action_history":"[0]","mutagen_history":"[1]","location_rts":"[1110]","trial_type":"fractal-mutation","trial_index":82,"time_elapsed":1363521,"internal_node_id":"0.0-5.0-28.0"},{"group":"hexagon_tri","fractal_assignment":["../images/cyn_red.png","../images/org_blu.png","../images/gry_blk.png","../images/pnk_blu.png","../images/blu_wht.png","../images/ylw_slt.png"],"mutagen_generator_assignment":[1,0],"goal":5,"start":4,"action_noise":0,"location_history":"[4,2,1,3,2,1,3,2,1,5]","action_history":"[1,0,0,0,0,0,0,0,1]","mutagen_history":"[0,1,1,1,1,1,1,1,0]","location_rts":"[1525,494,711,346,311,368,340,335,350]","trial_type":"fractal-mutation","trial_index":83,"time_elapsed":1382041,"internal_node_id":"0.0-5.0-29.0"},{"group":"hexagon_tri","fractal_assignment":["../images/cyn_red.png","../images/org_blu.png","../images/gry_blk.png","../images/pnk_blu.png","../images/blu_wht.png","../images/ylw_slt.png"],"mutagen_generator_assignment":[1,0],"goal":3,"start":5,"action_noise":0,"location_history":"[5,0,1,5,0,5,4,0,5,0,1,3]","action_history":"[1,1,1,1,0,0,0,0,1,1,0]","mutagen_history":"[0,0,0,0,1,1,1,1,0,0,1]","location_rts":"[1163,439,538,592,440,304,340,378,307,1024,476]","trial_type":"fractal-mutation","trial_index":84,"time_elapsed":1403815,"internal_node_id":"0.0-5.0-30.0"},{"group":"hexagon_tri","fractal_assignment":["../images/cyn_red.png","../images/org_blu.png","../images/gry_blk.png","../images/pnk_blu.png","../images/blu_wht.png","../images/ylw_slt.png"],"mutagen_generator_assignment":[1,0],"goal":0,"start":3,"action_noise":0,"location_history":"[3,2,1,5,0]","action_history":"[0,0,1,1]","mutagen_history":"[1,1,0,0]","location_rts":"[1227,358,646,466]","trial_type":"fractal-mutation","trial_index":85,"time_elapsed":1414884,"internal_node_id":"0.0-5.0-31.0"},{"group":"hexagon_tri","fractal_assignment":["../images/cyn_red.png","../images/org_blu.png","../images/gry_blk.png","../images/pnk_blu.png","../images/blu_wht.png","../images/ylw_slt.png"],"mutagen_generator_assignment":[1,0],"goal":4,"start":0,"action_noise":0,"location_history":"[0,5,4]","action_history":"[0,0]","mutagen_history":"[1,1]","location_rts":"[1374,430]","trial_type":"fractal-mutation","trial_index":86,"time_elapsed":1422908,"internal_node_id":"0.0-5.0-32.0"},{"group":"hexagon_tri","fractal_assignment":["../images/cyn_red.png","../images/org_blu.png","../images/gry_blk.png","../images/pnk_blu.png","../images/blu_wht.png","../images/ylw_slt.png"],"mutagen_generator_assignment":[1,0],"goal":1,"start":4,"action_noise":0,"location_history":"[4,2,3,4,0,5,4,0,1]","action_history":"[1,1,1,0,0,0,0,1]","mutagen_history":"[0,0,0,1,1,1,1,0]","location_rts":"[1115,541,474,648,300,344,306,567]","trial_type":"fractal-mutation","trial_index":87,"time_elapsed":1439763,"internal_node_id":"0.0-5.0-33.0"},{"group":"hexagon_tri","fractal_assignment":["../images/cyn_red.png","../images/org_blu.png","../images/gry_blk.png","../images/pnk_blu.png","../images/blu_wht.png","../images/ylw_slt.png"],"mutagen_generator_assignment":[1,0],"goal":2,"start":1,"action_noise":0,"location_history":"[1,3,2]","action_history":"[0,0]","mutagen_history":"[1,1]","location_rts":"[1044,333]","trial_type":"fractal-mutation","trial_index":88,"time_elapsed":1447365,"internal_node_id":"0.0-5.0-34.0"},{"group":"hexagon_tri","fractal_assignment":["../images/cyn_red.png","../images/org_blu.png","../images/gry_blk.png","../images/pnk_blu.png","../images/blu_wht.png","../images/ylw_slt.png"],"mutagen_generator_assignment":[1,0],"goal":0,"start":2,"action_noise":0,"location_history":"[2,3,4,2,3,2,1,5,4,0]","action_history":"[1,1,1,1,0,0,1,0,0]","mutagen_history":"[0,0,0,0,1,1,0,1,1]","location_rts":"[1032,910,531,603,549,468,725,555,461]","trial_type":"fractal-mutation","trial_index":89,"time_elapsed":1466974,"internal_node_id":"0.0-5.0-35.0"},{"group":"hexagon_tri","fractal_assignment":["../images/cyn_red.png","../images/org_blu.png","../images/gry_blk.png","../images/pnk_blu.png","../images/blu_wht.png","../images/ylw_slt.png"],"mutagen_generator_assignment":[1,0],"goal":5,"start":0,"action_noise":0,"location_history":"[0,1,3,2,1,3,4,0,5]","action_history":"[1,0,0,0,0,1,0,0]","mutagen_history":"[0,1,1,1,1,0,1,1]","location_rts":"[1257,441,303,405,366,769,727,369]","trial_type":"fractal-mutation","trial_index":90,"time_elapsed":1484157,"internal_node_id":"0.0-5.0-36.0"},{"group":"hexagon_tri","fractal_assignment":["../images/cyn_red.png","../images/org_blu.png","../images/gry_blk.png","../images/pnk_blu.png","../images/blu_wht.png","../images/ylw_slt.png"],"mutagen_generator_assignment":[1,0],"goal":2,"start":5,"action_noise":0,"location_history":"[5,4,0,5,0,5,4,0,5,0,1,3,2]","action_history":"[0,0,0,1,0,0,0,0,1,1,0,0]","mutagen_history":"[1,1,1,0,1,1,1,1,0,0,1,1]","location_rts":"[878,392,714,567,530,371,493,419,360,994,646,354]","trial_type":"fractal-mutation","trial_index":91,"time_elapsed":1507853,"internal_node_id":"0.0-5.0-37.0"},{"group":"hexagon_tri","fractal_assignment":["../images/cyn_red.png","../images/org_blu.png","../images/gry_blk.png","../images/pnk_blu.png","../images/blu_wht.png","../images/ylw_slt.png"],"mutagen_generator_assignment":[1,0],"goal":1,"start":2,"action_noise":0,"location_history":"[2,1]","action_history":"[0]","mutagen_history":"[1]","location_rts":"[814]","trial_type":"fractal-mutation","trial_index":92,"time_elapsed":1513735,"internal_node_id":"0.0-5.0-38.0"},{"group":"hexagon_tri","fractal_assignment":["../images/cyn_red.png","../images/org_blu.png","../images/gry_blk.png","../images/pnk_blu.png","../images/blu_wht.png","../images/ylw_slt.png"],"mutagen_generator_assignment":[1,0],"goal":4,"start":1,"action_noise":0,"location_history":"[1,3,2,1,3,4]","action_history":"[0,0,0,0,1]","mutagen_history":"[1,1,1,1,0]","location_rts":"[740,359,509,346,410]","trial_type":"fractal-mutation","trial_index":93,"time_elapsed":1525469,"internal_node_id":"0.0-5.0-39.0"},{"group":"hexagon_tri","fractal_assignment":["../images/cyn_red.png","../images/org_blu.png","../images/gry_blk.png","../images/pnk_blu.png","../images/blu_wht.png","../images/ylw_slt.png"],"mutagen_generator_assignment":[1,0],"goal":3,"start":4,"action_noise":0,"location_history":"[4,2,3]","action_history":"[1,1]","mutagen_history":"[0,0]","location_rts":"[6735,465]","trial_type":"fractal-mutation","trial_index":94,"time_elapsed":1538871,"internal_node_id":"0.0-5.0-40.0"},{"group":"hexagon_tri","fractal_assignment":["../images/cyn_red.png","../images/org_blu.png","../images/gry_blk.png","../images/pnk_blu.png","../images/blu_wht.png","../images/ylw_slt.png"],"mutagen_generator_assignment":[1,0],"goal":5,"start":3,"action_noise":0,"location_history":"[3,2,1,3,2,3,2,1,5]","action_history":"[0,0,0,0,1,0,0,1]","mutagen_history":"[1,1,1,1,0,1,1,0]","location_rts":"[810,319,313,347,502,992,456,784]","trial_type":"fractal-mutation","trial_index":95,"time_elapsed":1555943,"internal_node_id":"0.0-5.0-41.0"},{"group":"hexagon_tri","fractal_assignment":["../images/cyn_red.png","../images/org_blu.png","../images/gry_blk.png","../images/pnk_blu.png","../images/blu_wht.png","../images/ylw_slt.png"],"mutagen_generator_assignment":[1,0],"goal":3,"start":5,"action_noise":0,"location_history":"[5,4,0,5,4,2,1,3]","action_history":"[0,0,0,0,1,0,0]","mutagen_history":"[1,1,1,1,0,1,1]","location_rts":"[936,413,370,339,614,639,396]","trial_type":"fractal-mutation","trial_index":96,"time_elapsed":1571330,"internal_node_id":"0.0-5.0-42.0"},{"group":"hexagon_tri","fractal_assignment":["../images/cyn_red.png","../images/org_blu.png","../images/gry_blk.png","../images/pnk_blu.png","../images/blu_wht.png","../images/ylw_slt.png"],"mutagen_generator_assignment":[1,0],"goal":0,"start":3,"action_noise":0,"location_history":"[3,4,2,3,2,1,3,2,3,4,0]","action_history":"[1,1,1,0,0,0,0,1,1,0]","mutagen_history":"[0,0,0,1,1,1,1,0,0,1]","location_rts":"[2136,698,532,591,341,350,362,442,792,848]","trial_type":"fractal-mutation","trial_index":97,"time_elapsed":1593027,"internal_node_id":"0.0-5.0-43.0"},{"group":"hexagon_tri","fractal_assignment":["../images/cyn_red.png","../images/org_blu.png","../images/gry_blk.png","../images/pnk_blu.png","../images/blu_wht.png","../images/ylw_slt.png"],"mutagen_generator_assignment":[1,0],"goal":2,"start":0,"action_noise":0,"location_history":"[0,5,4,0,5,0,5,4,2]","action_history":"[0,0,0,0,1,0,0,1]","mutagen_history":"[1,1,1,1,0,1,1,0]","location_rts":"[1638,369,354,405,205,556,488,784]","trial_type":"fractal-mutation","trial_index":98,"time_elapsed":1610409,"internal_node_id":"0.0-5.0-44.0"},{"group":"hexagon_tri","fractal_assignment":["../images/cyn_red.png","../images/org_blu.png","../images/gry_blk.png","../images/pnk_blu.png","../images/blu_wht.png","../images/ylw_slt.png"],"mutagen_generator_assignment":[1,0],"goal":4,"start":2,"action_noise":0,"location_history":"[2,1,3,2,1,5,4]","action_history":"[0,0,0,0,1,0]","mutagen_history":"[1,1,1,1,0,1]","location_rts":"[920,328,368,451,288,425]","trial_type":"fractal-mutation","trial_index":99,"time_elapsed":1623693,"internal_node_id":"0.0-5.0-45.0"},{"group":"hexagon_tri","fractal_assignment":["../images/cyn_red.png","../images/org_blu.png","../images/gry_blk.png","../images/pnk_blu.png","../images/blu_wht.png","../images/ylw_slt.png"],"mutagen_generator_assignment":[1,0],"goal":1,"start":4,"action_noise":0,"location_history":"[4,2,1]","action_history":"[1,0]","mutagen_history":"[0,1]","location_rts":"[1577,581]","trial_type":"fractal-mutation","trial_index":100,"time_elapsed":1631978,"internal_node_id":"0.0-5.0-46.0"},{"group":"hexagon_tri","fractal_assignment":["../images/cyn_red.png","../images/org_blu.png","../images/gry_blk.png","../images/pnk_blu.png","../images/blu_wht.png","../images/ylw_slt.png"],"mutagen_generator_assignment":[1,0],"goal":4,"start":1,"action_noise":0,"location_history":"[1,3,2,1,5,4]","action_history":"[0,0,0,1,0]","mutagen_history":"[1,1,1,0,1]","location_rts":"[1222,699,742,578,458]","trial_type":"fractal-mutation","trial_index":101,"time_elapsed":1645040,"internal_node_id":"0.0-5.0-47.0"},{"group":"hexagon_tri","fractal_assignment":["../images/cyn_red.png","../images/org_blu.png","../images/gry_blk.png","../images/pnk_blu.png","../images/blu_wht.png","../images/ylw_slt.png"],"mutagen_generator_assignment":[1,0],"goal":3,"start":4,"action_noise":0,"location_history":"[4,0,5,0,5,4,2,3]","action_history":"[0,0,1,0,0,1,1]","mutagen_history":"[1,1,0,1,1,0,0]","location_rts":"[1075,488,378,513,368,934,765]","trial_type":"fractal-mutation","trial_index":102,"time_elapsed":1661124,"internal_node_id":"0.0-5.0-48.0"},{"group":"hexagon_tri","fractal_assignment":["../images/cyn_red.png","../images/org_blu.png","../images/gry_blk.png","../images/pnk_blu.png","../images/blu_wht.png","../images/ylw_slt.png"],"mutagen_generator_assignment":[1,0],"goal":5,"start":3,"action_noise":0,"location_history":"[3,2,1,5]","action_history":"[0,0,1]","mutagen_history":"[1,1,0]","location_rts":"[725,222,563]","trial_type":"fractal-mutation","trial_index":103,"time_elapsed":1669841,"internal_node_id":"0.0-5.0-49.0"},{"view_history":"[{\"page_index\":0,\"viewing_time\":4628}]","rt":4629,"trial_type":"instructions","trial_index":104,"time_elapsed":1675471,"internal_node_id":"0.0-6.0"},{"rt":1927,"responses":"{\"Q0\":\"\"}","trial_type":"survey-text","trial_index":105,"time_elapsed":1678408,"internal_node_id":"0.0-7.0"}]