[{"view_history":"[{\"page_index\":0,\"viewing_time\":23410},{\"page_index\":1,\"viewing_time\":44172},{\"page_index\":2,\"viewing_time\":14729}]","rt":82311,"trial_type":"instructions","trial_index":0,"time_elapsed":82312,"internal_node_id":"0.0-0.0"},{"view_history":"[{\"page_index\":0,\"viewing_time\":1474},{\"page_index\":1,\"viewing_time\":14877}]","rt":16351,"trial_type":"instructions","trial_index":1,"time_elapsed":99664,"internal_node_id":"0.0-1.0"},{"group":"hexagon_tri","room_assignment":["purple","grey","yellow","green","blue","red"],"door_color_assignment":["white","black"],"door_generator_assignment":[0,1],"goal":4,"start":0,"action_noise":0,"location_history":"[0,1,5,0,5,4]","action_history":"[1,1,1,0,0]","door_history":"[1,1,1,0,0]","location_rts":"[3352,1490,2039,823,1067]","trial_type":"two-door-navigation","trial_index":2,"time_elapsed":117545,"internal_node_id":"0.0-2.0-0.0"},{"group":"hexagon_tri","room_assignment":["purple","grey","yellow","green","blue","red"],"door_color_assignment":["white","black"],"door_generator_assignment":[0,1],"goal":3,"start":4,"action_noise":0,"location_history":"[4,0,1,5,4,2,3]","action_history":"[0,1,1,0,1,1]","door_history":"[0,1,1,0,1,1]","location_rts":"[1601,372,988,516,465,779]","trial_type":"two-door-navigation","trial_index":3,"time_elapsed":132384,"internal_node_id":"0.0-2.0-1.0"},{"group":"hexagon_tri","room_assignment":["purple","grey","yellow","green","blue","red"],"door_color_assignment":["white","black"],"door_generator_assignment":[0,1],"goal":5,"start":3,"action_noise":0,"location_history":"[3,2,1,3,2,1,3,2,3,4,2,3,4,2,1,5]","action_history":"[0,0,0,0,0,0,0,1,1,1,1,1,1,0,1]","door_history":"[0,0,0,0,0,0,0,1,1,1,1,1,1,0,1]","location_rts":"[1021,258,215,292,275,292,258,289,287,297,344,693,611,822,288]","trial_type":"two-door-navigation","trial_index":4,"time_elapsed":157923,"internal_node_id":"0.0-2.0-2.0"},{"group":"hexagon_tri","room_assignment":["purple","grey","yellow","green","blue","red"],"door_color_assignment":["white","black"],"door_generator_assignment":[0,1],"goal":2,"start":5,"action_noise":0,"location_history":"[5,4,2]","action_history":"[0,1]","door_history":"[0,1]","location_rts":"[844,201]","trial_type":"two-door-navigation","trial_index":5,"time_elapsed":165008,"internal_node_id":"0.0-2.0-3.0"},{"group":"hexagon_tri","room_assignment":["purple","grey","yellow","green","blue","red"],"door_color_assignment":["white","black"],"door_generator_assignment":[0,1],"goal":1,"start":2,"action_noise":0,"location_history":"[2,1]","action_history":"[0]","door_history":"[0]","location_rts":"[997]","trial_type":"two-door-navigation","trial_index":6,"time_elapsed":171020,"internal_node_id":"0.0-2.0-4.0"},{"group":"hexagon_tri","room_assignment":["purple","grey","yellow","green","blue","red"],"door_color_assignment":["white","black"],"door_generator_assignment":[0,1],"goal":4,"start":1,"action_noise":0,"location_history":"[1,5,4]","action_history":"[1,0]","door_history":"[1,0]","location_rts":"[1513,806]","trial_type":"two-door-navigation","trial_index":7,"time_elapsed":179368,"internal_node_id":"0.0-2.0-5.0"},{"group":"hexagon_tri","room_assignment":["purple","grey","yellow","green","blue","red"],"door_color_assignment":["white","black"],"door_generator_assignment":[0,1],"goal":1,"start":4,"action_noise":0,"location_history":"[4,0,5,0,1]","action_history":"[0,0,1,1]","door_history":"[0,0,1,1]","location_rts":"[921,245,478,522]","trial_type":"two-door-navigation","trial_index":8,"time_elapsed":189600,"internal_node_id":"0.0-2.0-6.0"},{"group":"hexagon_tri","room_assignment":["purple","grey","yellow","green","blue","red"],"door_color_assignment":["white","black"],"door_generator_assignment":[0,1],"goal":5,"start":1,"action_noise":0,"location_history":"[1,3,2,1,3,4,0,1,5]","action_history":"[0,0,0,0,1,0,1,1]","door_history":"[0,0,0,0,1,0,1,1]","location_rts":"[1104,532,518,470,746,502,888,370]","trial_type":"two-door-navigation","trial_index":9,"time_elapsed":206862,"internal_node_id":"0.0-2.0-7.0"},{"group":"hexagon_tri","room_assignment":["purple","grey","yellow","green","blue","red"],"door_color_assignment":["white","black"],"door_generator_assignment":[0,1],"goal":0,"start":5,"action_noise":0,"location_history":"[5,4,0]","action_history":"[0,0]","door_history":"[0,0]","location_rts":"[777,1189]","trial_type":"two-door-navigation","trial_index":10,"time_elapsed":214863,"internal_node_id":"0.0-2.0-8.0"},{"group":"hexagon_tri","room_assignment":["purple","grey","yellow","green","blue","red"],"door_color_assignment":["white","black"],"door_generator_assignment":[0,1],"goal":2,"start":0,"action_noise":0,"location_history":"[0,1,3,2]","action_history":"[1,0,0]","door_history":"[1,0,0]","location_rts":"[857,670,396]","trial_type":"two-door-navigation","trial_index":11,"time_elapsed":223828,"internal_node_id":"0.0-2.0-9.0"},{"group":"hexagon_tri","room_assignment":["purple","grey","yellow","green","blue","red"],"door_color_assignment":["white","black"],"door_generator_assignment":[0,1],"goal":3,"start":2,"action_noise":0,"location_history":"[2,1,3]","action_history":"[0,0]","door_history":"[0,0]","location_rts":"[1026,455]","trial_type":"two-door-navigation","trial_index":12,"time_elapsed":231333,"internal_node_id":"0.0-2.0-10.0"},{"group":"hexagon_tri","room_assignment":["purple","grey","yellow","green","blue","red"],"door_color_assignment":["white","black"],"door_generator_assignment":[0,1],"goal":0,"start":3,"action_noise":0,"location_history":"[3,4,2,1,3,2,3,4,0]","action_history":"[1,1,0,0,0,1,1,0]","door_history":"[1,1,0,0,0,1,1,0]","location_rts":"[886,502,1289,803,1269,910,507,1316]","trial_type":"two-door-navigation","trial_index":13,"time_elapsed":250937,"internal_node_id":"0.0-2.0-11.0"},{"group":"hexagon_tri","room_assignment":["purple","grey","yellow","green","blue","red"],"door_color_assignment":["white","black"],"door_generator_assignment":[0,1],"goal":2,"start":0,"action_noise":0,"location_history":"[0,1,3,4,0,5,4,2]","action_history":"[1,0,1,0,0,0,1]","door_history":"[1,0,1,0,0,0,1]","location_rts":"[1153,868,667,1144,1418,727,853]","trial_type":"two-door-navigation","trial_index":14,"time_elapsed":268872,"internal_node_id":"0.0-2.0-12.0"},{"group":"hexagon_tri","room_assignment":["purple","grey","yellow","green","blue","red"],"door_color_assignment":["white","black"],"door_generator_assignment":[0,1],"goal":5,"start":2,"action_noise":0,"location_history":"[2,1,3,2,3,4,2,3,4,0,5]","action_history":"[0,0,0,1,1,1,1,1,0,0]","door_history":"[0,0,0,1,1,1,1,1,0,0]","location_rts":"[2561,457,442,1160,448,479,412,413,399,373]","trial_type":"two-door-navigation","trial_index":15,"time_elapsed":290158,"internal_node_id":"0.0-2.0-13.0"},{"group":"hexagon_tri","room_assignment":["purple","grey","yellow","green","blue","red"],"door_color_assignment":["white","black"],"door_generator_assignment":[0,1],"goal":4,"start":5,"action_noise":0,"location_history":"[5,4]","action_history":"[0]","door_history":"[0]","location_rts":"[1484]","trial_type":"two-door-navigation","trial_index":16,"time_elapsed":296659,"internal_node_id":"0.0-2.0-14.0"},{"group":"hexagon_tri","room_assignment":["purple","grey","yellow","green","blue","red"],"door_color_assignment":["white","black"],"door_generator_assignment":[0,1],"goal":3,"start":4,"action_noise":0,"location_history":"[4,0,5,4,2,3]","action_history":"[0,0,0,1,1]","door_history":"[0,0,0,1,1]","location_rts":"[1037,858,508,936,446]","trial_type":"two-door-navigation","trial_index":17,"time_elapsed":309527,"internal_node_id":"0.0-2.0-15.0"},{"group":"hexagon_tri","room_assignment":["purple","grey","yellow","green","blue","red"],"door_color_assignment":["white","black"],"door_generator_assignment":[0,1],"goal":1,"start":3,"action_noise":0,"location_history":"[3,2,1]","action_history":"[0,0]","door_history":"[0,0]","location_rts":"[1446,428]","trial_type":"two-door-navigation","trial_index":18,"time_elapsed":317443,"internal_node_id":"0.0-2.0-16.0"},{"group":"hexagon_tri","room_assignment":["purple","grey","yellow","green","blue","red"],"door_color_assignment":["white","black"],"door_generator_assignment":[0,1],"goal":5,"start":1,"action_noise":0,"location_history":"[1,3,4,2,3,4,0,5]","action_history":"[0,1,1,1,1,0,0]","door_history":"[0,1,1,1,1,0,0]","location_rts":"[1156,923,638,1063,1307,599,431]","trial_type":"two-door-navigation","trial_index":19,"time_elapsed":334683,"internal_node_id":"0.0-2.0-17.0"},{"group":"hexagon_tri","room_assignment":["purple","grey","yellow","green","blue","red"],"door_color_assignment":["white","black"],"door_generator_assignment":[0,1],"goal":4,"start":5,"action_noise":0,"location_history":"[5,0,5,4]","action_history":"[1,0,0]","door_history":"[1,0,0]","location_rts":"[1087,1015,1489]","trial_type":"two-door-navigation","trial_index":20,"time_elapsed":345323,"internal_node_id":"0.0-2.0-18.0"},{"group":"hexagon_tri","room_assignment":["purple","grey","yellow","green","blue","red"],"door_color_assignment":["white","black"],"door_generator_assignment":[0,1],"goal":0,"start":4,"action_noise":0,"location_history":"[4,2,1,3,4,2,1,3,2,3,4,0]","action_history":"[1,0,0,1,1,0,0,0,1,1,0]","door_history":"[1,0,0,1,1,0,0,0,1,1,0]","location_rts":"[1304,747,1017,857,1003,362,385,383,730,557,836]","trial_type":"two-door-navigation","trial_index":21,"time_elapsed":368682,"internal_node_id":"0.0-2.0-19.0"},{"group":"hexagon_tri","room_assignment":["purple","grey","yellow","green","blue","red"],"door_color_assignment":["white","black"],"door_generator_assignment":[0,1],"goal":1,"start":0,"action_noise":0,"location_history":"[0,1]","action_history":"[1]","door_history":"[1]","location_rts":"[3242]","trial_type":"two-door-navigation","trial_index":22,"time_elapsed":376947,"internal_node_id":"0.0-2.0-20.0"},{"group":"hexagon_tri","room_assignment":["purple","grey","yellow","green","blue","red"],"door_color_assignment":["white","black"],"door_generator_assignment":[0,1],"goal":3,"start":1,"action_noise":0,"location_history":"[1,3]","action_history":"[0]","door_history":"[0]","location_rts":"[1722]","trial_type":"two-door-navigation","trial_index":23,"time_elapsed":383690,"internal_node_id":"0.0-2.0-21.0"},{"group":"hexagon_tri","room_assignment":["purple","grey","yellow","green","blue","red"],"door_color_assignment":["white","black"],"door_generator_assignment":[0,1],"goal":2,"start":3,"action_noise":0,"location_history":"[3,4,0,5,0,1,5,0,5,4,0,5,4,0,1,5,4,2]","action_history":"[1,0,0,1,1,1,1,0,0,0,0,0,0,1,1,0,1]","door_history":"[1,0,0,1,1,1,1,0,0,0,0,0,0,1,1,0,1]","location_rts":"[1247,668,850,758,861,561,552,816,417,364,330,417,382,682,288,922,853]","trial_type":"two-door-navigation","trial_index":24,"time_elapsed":415953,"internal_node_id":"0.0-2.0-22.0"},{"group":"hexagon_tri","room_assignment":["purple","grey","yellow","green","blue","red"],"door_color_assignment":["white","black"],"door_generator_assignment":[0,1],"goal":0,"start":2,"action_noise":0,"location_history":"[2,3,2,1,3,2,1,3,2,3,4,0]","action_history":"[1,0,0,0,0,0,0,0,1,1,0]","door_history":"[1,0,0,0,0,0,0,0,1,1,0]","location_rts":"[1671,1172,569,862,1183,1336,628,743,465,434,1013]","trial_type":"two-door-navigation","trial_index":25,"time_elapsed":441257,"internal_node_id":"0.0-2.0-23.0"},{"group":"hexagon_tri","room_assignment":["purple","grey","yellow","green","blue","red"],"door_color_assignment":["white","black"],"door_generator_assignment":[0,1],"goal":3,"start":0,"action_noise":0,"location_history":"[0,1,3]","action_history":"[1,0]","door_history":"[1,0]","location_rts":"[1516,1135]","trial_type":"two-door-navigation","trial_index":26,"time_elapsed":449939,"internal_node_id":"0.0-2.0-24.0"},{"group":"hexagon_tri","room_assignment":["purple","grey","yellow","green","blue","red"],"door_color_assignment":["white","black"],"door_generator_assignment":[0,1],"goal":1,"start":3,"action_noise":0,"location_history":"[3,2,1]","action_history":"[0,0]","door_history":"[0,0]","location_rts":"[1579,1574]","trial_type":"two-door-navigation","trial_index":27,"time_elapsed":459124,"internal_node_id":"0.0-2.0-25.0"},{"group":"hexagon_tri","room_assignment":["purple","grey","yellow","green","blue","red"],"door_color_assignment":["white","black"],"door_generator_assignment":[0,1],"goal":2,"start":1,"action_noise":0,"location_history":"[1,3,2]","action_history":"[0,0]","door_history":"[0,0]","location_rts":"[1121,2009]","trial_type":"two-door-navigation","trial_index":28,"time_elapsed":468290,"internal_node_id":"0.0-2.0-26.0"},{"group":"hexagon_tri","room_assignment":["purple","grey","yellow","green","blue","red"],"door_color_assignment":["white","black"],"door_generator_assignment":[0,1],"goal":5,"start":2,"action_noise":0,"location_history":"[2,3,2,3,4,0,5]","action_history":"[1,0,1,1,0,0]","door_history":"[1,0,1,1,0,0]","location_rts":"[1742,1349,1179,532,2116,1319]","trial_type":"two-door-navigation","trial_index":29,"time_elapsed":486637,"internal_node_id":"0.0-2.0-27.0"},{"group":"hexagon_tri","room_assignment":["purple","grey","yellow","green","blue","red"],"door_color_assignment":["white","black"],"door_generator_assignment":[0,1],"goal":4,"start":5,"action_noise":0,"location_history":"[5,0,5,0,1,3,2,1,3,2,3,4]","action_history":"[1,0,1,1,0,0,0,0,0,1,1]","door_history":"[1,0,1,1,0,0,0,0,0,1,1]","location_rts":"[1119,4458,406,398,1032,1524,404,419,277,401,342]","trial_type":"two-door-navigation","trial_index":30,"time_elapsed":512607,"internal_node_id":"0.0-2.0-28.0"},{"group":"hexagon_tri","room_assignment":["purple","grey","yellow","green","blue","red"],"door_color_assignment":["white","black"],"door_generator_assignment":[0,1],"goal":5,"start":4,"action_noise":0,"location_history":"[4,2,1,3,2,1,5]","action_history":"[1,0,0,0,0,1]","door_history":"[1,0,0,0,0,1]","location_rts":"[1422,2283,671,434,396,574]","trial_type":"two-door-navigation","trial_index":31,"time_elapsed":528509,"internal_node_id":"0.0-2.0-29.0"},{"group":"hexagon_tri","room_assignment":["purple","grey","yellow","green","blue","red"],"door_color_assignment":["white","black"],"door_generator_assignment":[0,1],"goal":3,"start":5,"action_noise":0,"location_history":"[5,0,1,5,0,1,3]","action_history":"[1,1,1,1,1,0]","door_history":"[1,1,1,1,1,0]","location_rts":"[2250,1017,1096,758,921,721]","trial_type":"two-door-navigation","trial_index":32,"time_elapsed":545361,"internal_node_id":"0.0-2.0-30.0"},{"group":"hexagon_tri","room_assignment":["purple","grey","yellow","green","blue","red"],"door_color_assignment":["white","black"],"door_generator_assignment":[0,1],"goal":0,"start":3,"action_noise":0,"location_history":"[3,2,1,5,4,2,3,4,2,1,3,2,1,3,4,2,1,3,2,1,3,2,1,3,4,0]","action_history":"[0,0,1,0,1,1,1,1,0,0,0,0,0,1,1,0,0,0,0,0,0,0,0,1,0]","door_history":"[0,0,1,0,1,1,1,1,0,0,0,0,0,1,1,0,0,0,0,0,0,0,0,1,0]","location_rts":"[2457,836,639,940,1089,436,559,659,669,315,454,360,554,299,568,309,259,355,274,349,420,1238,1973,1001,1788]","trial_type":"two-door-navigation","trial_index":33,"time_elapsed":593611,"internal_node_id":"0.0-2.0-31.0"},{"group":"hexagon_tri","room_assignment":["purple","grey","yellow","green","blue","red"],"door_color_assignment":["white","black"],"door_generator_assignment":[0,1],"goal":4,"start":0,"action_noise":0,"location_history":"[0,5,0,1,5,4]","action_history":"[0,1,1,1,0]","door_history":"[0,1,1,1,0]","location_rts":"[3610,558,593,709,648]","trial_type":"two-door-navigation","trial_index":34,"time_elapsed":608820,"internal_node_id":"0.0-2.0-32.0"},{"group":"hexagon_tri","room_assignment":["purple","grey","yellow","green","blue","red"],"door_color_assignment":["white","black"],"door_generator_assignment":[0,1],"goal":1,"start":4,"action_noise":0,"location_history":"[4,2,3,2,3,4,0,1]","action_history":"[1,1,0,1,1,0,1]","door_history":"[1,1,0,1,1,0,1]","location_rts":"[1987,983,633,936,519,927,467]","trial_type":"two-door-navigation","trial_index":35,"time_elapsed":626405,"internal_node_id":"0.0-2.0-33.0"},{"group":"hexagon_tri","room_assignment":["purple","grey","yellow","green","blue","red"],"door_color_assignment":["white","black"],"door_generator_assignment":[0,1],"goal":2,"start":1,"action_noise":0,"location_history":"[1,5,4,0,1,5,4,0,5,4,0,5,0,1,3,2]","action_history":"[1,0,0,1,1,0,0,0,0,0,0,1,1,0,0]","door_history":"[1,0,0,1,1,0,0,0,0,0,0,1,1,0,0]","location_rts":"[3047,938,424,507,298,371,347,802,297,367,734,1527,1387,975,658]","trial_type":"two-door-navigation","trial_index":36,"time_elapsed":658345,"internal_node_id":"0.0-2.0-34.0"},{"group":"hexagon_tri","room_assignment":["purple","grey","yellow","green","blue","red"],"door_color_assignment":["white","black"],"door_generator_assignment":[0,1],"goal":0,"start":2,"action_noise":0,"location_history":"[2,1,5,4,0]","action_history":"[0,1,0,0]","door_history":"[0,1,0,0]","location_rts":"[4308,1314,2152,1193]","trial_type":"two-door-navigation","trial_index":37,"time_elapsed":675378,"internal_node_id":"0.0-2.0-35.0"},{"group":"hexagon_tri","room_assignment":["purple","grey","yellow","green","blue","red"],"door_color_assignment":["white","black"],"door_generator_assignment":[0,1],"goal":5,"start":0,"action_noise":0,"location_history":"[0,5]","action_history":"[0]","door_history":"[0]","location_rts":"[2405]","trial_type":"two-door-navigation","trial_index":38,"time_elapsed":682799,"internal_node_id":"0.0-2.0-36.0"},{"group":"hexagon_tri","room_assignment":["purple","grey","yellow","green","blue","red"],"door_color_assignment":["white","black"],"door_generator_assignment":[0,1],"goal":2,"start":5,"action_noise":0,"location_history":"[5,4,0,1,3,2]","action_history":"[0,0,1,0,0]","door_history":"[0,0,1,0,0]","location_rts":"[4224,1443,2827,2573,890]","trial_type":"two-door-navigation","trial_index":39,"time_elapsed":703851,"internal_node_id":"0.0-2.0-37.0"},{"group":"hexagon_tri","room_assignment":["purple","grey","yellow","green","blue","red"],"door_color_assignment":["white","black"],"door_generator_assignment":[0,1],"goal":1,"start":2,"action_noise":0,"location_history":"[2,1]","action_history":"[0]","door_history":"[0]","location_rts":"[2632]","trial_type":"two-door-navigation","trial_index":40,"time_elapsed":711502,"internal_node_id":"0.0-2.0-38.0"},{"group":"hexagon_tri","room_assignment":["purple","grey","yellow","green","blue","red"],"door_color_assignment":["white","black"],"door_generator_assignment":[0,1],"goal":4,"start":1,"action_noise":0,"location_history":"[1,3,2,1,5,4]","action_history":"[0,0,0,1,0]","door_history":"[0,0,0,1,0]","location_rts":"[2724,782,957,1398,820]","trial_type":"two-door-navigation","trial_index":41,"time_elapsed":727275,"internal_node_id":"0.0-2.0-39.0"},{"group":"hexagon_tri","room_assignment":["purple","grey","yellow","green","blue","red"],"door_color_assignment":["white","black"],"door_generator_assignment":[0,1],"goal":3,"start":4,"action_noise":0,"location_history":"[4,0,5,4,2,1,3]","action_history":"[0,0,0,1,0,0]","door_history":"[0,0,0,1,0,0]","location_rts":"[1781,1154,1562,827,1472,2908]","trial_type":"two-door-navigation","trial_index":42,"time_elapsed":747079,"internal_node_id":"0.0-2.0-40.0"},{"group":"hexagon_tri","room_assignment":["purple","grey","yellow","green","blue","red"],"door_color_assignment":["white","black"],"door_generator_assignment":[0,1],"goal":5,"start":3,"action_noise":0,"location_history":"[3,2,3,4,0,1,5]","action_history":"[0,1,1,0,1,1]","door_history":"[0,1,1,0,1,1]","location_rts":"[1950,885,626,2294,1517,1161]","trial_type":"two-door-navigation","trial_index":43,"time_elapsed":765620,"internal_node_id":"0.0-2.0-41.0"},{"group":"hexagon_tri","room_assignment":["purple","grey","yellow","green","blue","red"],"door_color_assignment":["white","black"],"door_generator_assignment":[0,1],"goal":3,"start":5,"action_noise":0,"location_history":"[5,0,5,4,0,5,0,5,4,0,1,5,0,1,5,4,0,5,4,0,5,4,0,5,0,1,3]","action_history":"[1,0,0,0,0,1,0,0,0,1,1,1,1,1,0,0,0,0,0,0,0,0,0,1,1,0]","door_history":"[1,0,0,0,0,1,0,0,0,1,1,1,1,1,0,0,0,0,0,0,0,0,0,1,1,0]","location_rts":"[1319,810,647,533,638,447,511,745,672,89,282,74,448,757,505,353,282,272,267,365,321,357,383,605,490,1210]","trial_type":"two-door-navigation","trial_index":44,"time_elapsed":809464,"internal_node_id":"0.0-2.0-42.0"},{"group":"hexagon_tri","room_assignment":["purple","grey","yellow","green","blue","red"],"door_color_assignment":["white","black"],"door_generator_assignment":[0,1],"goal":0,"start":3,"action_noise":0,"location_history":"[3,4,0]","action_history":"[1,0]","door_history":"[1,0]","location_rts":"[6590,1000]","trial_type":"two-door-navigation","trial_index":45,"time_elapsed":823086,"internal_node_id":"0.0-2.0-43.0"},{"group":"hexagon_tri","room_assignment":["purple","grey","yellow","green","blue","red"],"door_color_assignment":["white","black"],"door_generator_assignment":[0,1],"goal":2,"start":0,"action_noise":0,"location_history":"[0,5,0,1,3,4,2]","action_history":"[0,1,1,0,1,1]","door_history":"[0,1,1,0,1,1]","location_rts":"[1271,1188,1076,2389,1111,1240]","trial_type":"two-door-navigation","trial_index":46,"time_elapsed":841474,"internal_node_id":"0.0-2.0-44.0"},{"group":"hexagon_tri","room_assignment":["purple","grey","yellow","green","blue","red"],"door_color_assignment":["white","black"],"door_generator_assignment":[0,1],"goal":4,"start":2,"action_noise":0,"location_history":"[2,3,2,1,3,2,3,4]","action_history":"[1,0,0,0,0,1,1]","door_history":"[1,0,0,0,0,1,1]","location_rts":"[1549,1038,542,398,575,659,600]","trial_type":"two-door-navigation","trial_index":47,"time_elapsed":857957,"internal_node_id":"0.0-2.0-45.0"},{"group":"hexagon_tri","room_assignment":["purple","grey","yellow","green","blue","red"],"door_color_assignment":["white","black"],"door_generator_assignment":[0,1],"goal":1,"start":4,"action_noise":0,"location_history":"[4,2,3,2,1]","action_history":"[1,1,0,0]","door_history":"[1,1,0,0]","location_rts":"[1738,925,947,780]","trial_type":"two-door-navigation","trial_index":48,"time_elapsed":870417,"internal_node_id":"0.0-2.0-46.0"},{"group":"hexagon_tri","room_assignment":["purple","grey","yellow","green","blue","red"],"door_color_assignment":["white","black"],"door_generator_assignment":[0,1],"goal":4,"start":1,"action_noise":0,"location_history":"[1,3,2,3,4]","action_history":"[0,0,1,1]","door_history":"[0,0,1,1]","location_rts":"[934,525,562,531]","trial_type":"two-door-navigation","trial_index":49,"time_elapsed":881036,"internal_node_id":"0.0-2.0-47.0"},{"group":"hexagon_tri","room_assignment":["purple","grey","yellow","green","blue","red"],"door_color_assignment":["white","black"],"door_generator_assignment":[0,1],"goal":3,"start":4,"action_noise":0,"location_history":"[4,2,1,5,4,0,1,3]","action_history":"[1,0,1,0,0,1,0]","door_history":"[1,0,1,0,0,1,0]","location_rts":"[1483,2663,671,321,813,504,934]","trial_type":"two-door-navigation","trial_index":50,"time_elapsed":899532,"internal_node_id":"0.0-2.0-48.0"},{"group":"hexagon_tri","room_assignment":["purple","grey","yellow","green","blue","red"],"door_color_assignment":["white","black"],"door_generator_assignment":[0,1],"goal":5,"start":3,"action_noise":0,"location_history":"[3,2,3,4,0,1,5]","action_history":"[0,1,1,0,1,1]","door_history":"[0,1,1,0,1,1]","location_rts":"[1997,863,951,944,513,412]","trial_type":"two-door-navigation","trial_index":51,"time_elapsed":915318,"internal_node_id":"0.0-2.0-49.0"},{"view_history":"[{\"page_index\":0,\"viewing_time\":2308}]","rt":2309,"trial_type":"instructions","trial_index":52,"time_elapsed":918627,"internal_node_id":"0.0-3.0"},{"view_history":"[{\"page_index\":0,\"viewing_time\":2150},{\"page_index\":1,\"viewing_time\":289375}]","rt":291525,"trial_type":"instructions","trial_index":53,"time_elapsed":1211151,"internal_node_id":"0.0-4.0"},{"group":"hexagon_bi","fractal_assignment":["../images/gry_blk.png","../images/pnk_blu.png","../images/org_blu.png","../images/cyn_red.png","../images/blu_wht.png","../images/ylw_slt.png"],"mutagen_generator_assignment":[0,1],"goal":4,"start":0,"action_noise":0,"location_history":"[0,5,0,1,0,1,2,1,2,1,0,1,0,1,2,3,4]","action_history":"[0,0,1,1,1,0,0,0,0,1,1,1,1,0,1,0]","mutagen_history":"[0,0,1,1,1,0,0,0,0,1,1,1,1,0,1,0]","location_rts":"[5463,1668,1787,1078,184,1057,2404,1011,832,1541,1344,603,853,914,772,777]","trial_type":"fractal-mutation","trial_index":54,"time_elapsed":1253978,"internal_node_id":"0.0-5.0-0.0"},{"group":"hexagon_bi","fractal_assignment":["../images/gry_blk.png","../images/pnk_blu.png","../images/org_blu.png","../images/cyn_red.png","../images/blu_wht.png","../images/ylw_slt.png"],"mutagen_generator_assignment":[0,1],"goal":3,"start":4,"action_noise":0,"location_history":"[4,5,0,5,4,3]","action_history":"[1,0,0,1,0]","mutagen_history":"[1,0,0,1,0]","location_rts":"[4403,343,240,570,2179]","trial_type":"fractal-mutation","trial_index":55,"time_elapsed":1270895,"internal_node_id":"0.0-5.0-1.0"},{"group":"hexagon_bi","fractal_assignment":["../images/gry_blk.png","../images/pnk_blu.png","../images/org_blu.png","../images/cyn_red.png","../images/blu_wht.png","../images/ylw_slt.png"],"mutagen_generator_assignment":[0,1],"goal":5,"start":3,"action_noise":0,"location_history":"[3,2,3,4,3,4,3,4,5]","action_history":"[1,1,0,0,0,0,0,1]","mutagen_history":"[1,1,0,0,0,0,0,1]","location_rts":"[2951,501,946,417,526,458,439,495]","trial_type":"fractal-mutation","trial_index":56,"time_elapsed":1289851,"internal_node_id":"0.0-5.0-2.0"},{"group":"hexagon_bi","fractal_assignment":["../images/gry_blk.png","../images/pnk_blu.png","../images/org_blu.png","../images/cyn_red.png","../images/blu_wht.png","../images/ylw_slt.png"],"mutagen_generator_assignment":[0,1],"goal":2,"start":5,"action_noise":0,"location_history":"[5,0,5,0,5,4,5,4,5,4,3,4,3,2]","action_history":"[0,0,0,0,1,1,1,1,1,0,0,0,1]","mutagen_history":"[0,0,0,0,1,1,1,1,1,0,0,0,1]","location_rts":"[1406,695,495,645,532,524,494,572,535,597,368,13816,1010]","trial_type":"fractal-mutation","trial_index":57,"time_elapsed":1328890,"internal_node_id":"0.0-5.0-3.0"},{"group":"hexagon_bi","fractal_assignment":["../images/gry_blk.png","../images/pnk_blu.png","../images/org_blu.png","../images/cyn_red.png","../images/blu_wht.png","../images/ylw_slt.png"],"mutagen_generator_assignment":[0,1],"goal":1,"start":2,"action_noise":0,"location_history":"[2,1]","action_history":"[0]","mutagen_history":"[0]","location_rts":"[1097]","trial_type":"fractal-mutation","trial_index":58,"time_elapsed":1335020,"internal_node_id":"0.0-5.0-4.0"},{"group":"hexagon_bi","fractal_assignment":["../images/gry_blk.png","../images/pnk_blu.png","../images/org_blu.png","../images/cyn_red.png","../images/blu_wht.png","../images/ylw_slt.png"],"mutagen_generator_assignment":[0,1],"goal":4,"start":1,"action_noise":0,"location_history":"[1,0,1,2,1,2,1,0,1,0,1,0,5,4]","action_history":"[1,1,0,0,0,0,1,1,1,1,1,0,1]","mutagen_history":"[1,1,0,0,0,0,1,1,1,1,1,0,1]","location_rts":"[1969,897,802,406,498,403,368,338,397,393,571,456,568]","trial_type":"fractal-mutation","trial_index":59,"time_elapsed":1360457,"internal_node_id":"0.0-5.0-5.0"},{"group":"hexagon_bi","fractal_assignment":["../images/gry_blk.png","../images/pnk_blu.png","../images/org_blu.png","../images/cyn_red.png","../images/blu_wht.png","../images/ylw_slt.png"],"mutagen_generator_assignment":[0,1],"goal":1,"start":4,"action_noise":0,"location_history":"[4,3,2,3,4,3,4,3,2,1]","action_history":"[0,1,1,0,0,0,0,1,0]","mutagen_history":"[0,1,1,0,0,0,0,1,0]","location_rts":"[2300,18028,683,551,776,395,452,434,647]","trial_type":"fractal-mutation","trial_index":60,"time_elapsed":1397976,"internal_node_id":"0.0-5.0-6.0"},{"group":"hexagon_bi","fractal_assignment":["../images/gry_blk.png","../images/pnk_blu.png","../images/org_blu.png","../images/cyn_red.png","../images/blu_wht.png","../images/ylw_slt.png"],"mutagen_generator_assignment":[0,1],"goal":5,"start":1,"action_noise":0,"location_history":"[1,0,5]","action_history":"[1,0]","mutagen_history":"[1,0]","location_rts":"[877,425]","trial_type":"fractal-mutation","trial_index":61,"time_elapsed":1405335,"internal_node_id":"0.0-5.0-7.0"},{"group":"hexagon_bi","fractal_assignment":["../images/gry_blk.png","../images/pnk_blu.png","../images/org_blu.png","../images/cyn_red.png","../images/blu_wht.png","../images/ylw_slt.png"],"mutagen_generator_assignment":[0,1],"goal":0,"start":5,"action_noise":0,"location_history":"[5,4,5,4,3,4,3,4,3,2,3,2,1,2,1,0]","action_history":"[1,1,1,0,0,0,0,0,1,1,1,0,0,0,1]","mutagen_history":"[1,1,1,0,0,0,0,0,1,1,1,0,0,0,1]","location_rts":"[7115,854,452,643,621,532,488,424,498,491,501,525,439,437,361]","trial_type":"fractal-mutation","trial_index":62,"time_elapsed":1439114,"internal_node_id":"0.0-5.0-8.0"},{"group":"hexagon_bi","fractal_assignment":["../images/gry_blk.png","../images/pnk_blu.png","../images/org_blu.png","../images/cyn_red.png","../images/blu_wht.png","../images/ylw_slt.png"],"mutagen_generator_assignment":[0,1],"goal":2,"start":0,"action_noise":0,"location_history":"[0,1,0,1,0,5,0,5,4,5,4,5,4,3,2]","action_history":"[1,1,1,1,0,0,0,1,1,1,1,1,0,1]","mutagen_history":"[1,1,1,1,0,0,0,1,1,1,1,1,0,1]","location_rts":"[1161,980,922,241,195,445,1551,534,385,383,410,622,398,602]","trial_type":"fractal-mutation","trial_index":63,"time_elapsed":1466358,"internal_node_id":"0.0-5.0-9.0"},{"group":"hexagon_bi","fractal_assignment":["../images/gry_blk.png","../images/pnk_blu.png","../images/org_blu.png","../images/cyn_red.png","../images/blu_wht.png","../images/ylw_slt.png"],"mutagen_generator_assignment":[0,1],"goal":3,"start":2,"action_noise":0,"location_history":"[2,1,2,1,0,1,0,1,2,1,0,5,4,3]","action_history":"[0,0,0,1,1,1,1,0,0,1,0,1,0]","mutagen_history":"[0,0,0,1,1,1,1,0,0,1,0,1,0]","location_rts":"[941,546,989,352,419,413,523,519,428,420,632,578,811]","trial_type":"fractal-mutation","trial_index":64,"time_elapsed":1491298,"internal_node_id":"0.0-5.0-10.0"},{"group":"hexagon_bi","fractal_assignment":["../images/gry_blk.png","../images/pnk_blu.png","../images/org_blu.png","../images/cyn_red.png","../images/blu_wht.png","../images/ylw_slt.png"],"mutagen_generator_assignment":[0,1],"goal":0,"start":3,"action_noise":0,"location_history":"[3,2,3,4,5,0]","action_history":"[1,1,0,1,0]","mutagen_history":"[1,1,0,1,0]","location_rts":"[1000,625,984,783,608]","trial_type":"fractal-mutation","trial_index":65,"time_elapsed":1504438,"internal_node_id":"0.0-5.0-11.0"},{"group":"hexagon_bi","fractal_assignment":["../images/gry_blk.png","../images/pnk_blu.png","../images/org_blu.png","../images/cyn_red.png","../images/blu_wht.png","../images/ylw_slt.png"],"mutagen_generator_assignment":[0,1],"goal":2,"start":0,"action_noise":0,"location_history":"[0,1,2]","action_history":"[1,0]","mutagen_history":"[1,0]","location_rts":"[326,517]","trial_type":"fractal-mutation","trial_index":66,"time_elapsed":1511335,"internal_node_id":"0.0-5.0-12.0"},{"group":"hexagon_bi","fractal_assignment":["../images/gry_blk.png","../images/pnk_blu.png","../images/org_blu.png","../images/cyn_red.png","../images/blu_wht.png","../images/ylw_slt.png"],"mutagen_generator_assignment":[0,1],"goal":5,"start":2,"action_noise":0,"location_history":"[2,1,2,3,4,3,4,5]","action_history":"[0,0,1,0,0,0,1]","mutagen_history":"[0,0,1,0,0,0,1]","location_rts":"[196,554,445,486,352,484,229]","trial_type":"fractal-mutation","trial_index":67,"time_elapsed":1525265,"internal_node_id":"0.0-5.0-13.0"},{"group":"hexagon_bi","fractal_assignment":["../images/gry_blk.png","../images/pnk_blu.png","../images/org_blu.png","../images/cyn_red.png","../images/blu_wht.png","../images/ylw_slt.png"],"mutagen_generator_assignment":[0,1],"goal":4,"start":5,"action_noise":0,"location_history":"[5,0,1,0,5,0,5,4]","action_history":"[0,1,1,0,0,0,1]","mutagen_history":"[0,1,1,0,0,0,1]","location_rts":"[232,500,933,361,560,332,520]","trial_type":"fractal-mutation","trial_index":68,"time_elapsed":1539909,"internal_node_id":"0.0-5.0-14.0"},{"group":"hexagon_bi","fractal_assignment":["../images/gry_blk.png","../images/pnk_blu.png","../images/org_blu.png","../images/cyn_red.png","../images/blu_wht.png","../images/ylw_slt.png"],"mutagen_generator_assignment":[0,1],"goal":3,"start":4,"action_noise":0,"location_history":"[4,3]","action_history":"[0]","mutagen_history":"[0]","location_rts":"[199]","trial_type":"fractal-mutation","trial_index":69,"time_elapsed":1545135,"internal_node_id":"0.0-5.0-15.0"},{"group":"hexagon_bi","fractal_assignment":["../images/gry_blk.png","../images/pnk_blu.png","../images/org_blu.png","../images/cyn_red.png","../images/blu_wht.png","../images/ylw_slt.png"],"mutagen_generator_assignment":[0,1],"goal":1,"start":3,"action_noise":0,"location_history":"[3,4,5,4,3,4,5,4,5,4,3,2,3,2,1]","action_history":"[0,1,1,0,0,1,1,1,1,0,1,1,1,0]","mutagen_history":"[0,1,1,0,0,1,1,1,1,0,1,1,1,0]","location_rts":"[630,714,621,497,355,419,388,410,382,734,399,459,448,214]","trial_type":"fractal-mutation","trial_index":70,"time_elapsed":1570217,"internal_node_id":"0.0-5.0-16.0"},{"group":"hexagon_bi","fractal_assignment":["../images/gry_blk.png","../images/pnk_blu.png","../images/org_blu.png","../images/cyn_red.png","../images/blu_wht.png","../images/ylw_slt.png"],"mutagen_generator_assignment":[0,1],"goal":5,"start":1,"action_noise":0,"location_history":"[1,0,5]","action_history":"[1,0]","mutagen_history":"[1,0]","location_rts":"[234,433]","trial_type":"fractal-mutation","trial_index":71,"time_elapsed":1576957,"internal_node_id":"0.0-5.0-17.0"},{"group":"hexagon_bi","fractal_assignment":["../images/gry_blk.png","../images/pnk_blu.png","../images/org_blu.png","../images/cyn_red.png","../images/blu_wht.png","../images/ylw_slt.png"],"mutagen_generator_assignment":[0,1],"goal":4,"start":5,"action_noise":0,"location_history":"[5,0,1,0,5,0,5,0,1,2,3,2,3,2,3,4]","action_history":"[0,1,1,0,0,0,0,1,0,1,1,1,1,1,0]","mutagen_history":"[0,1,1,0,0,0,0,1,0,1,1,1,1,1,0]","location_rts":"[460,272,316,312,172,376,454,277,756,304,261,373,469,338,523]","trial_type":"fractal-mutation","trial_index":72,"time_elapsed":1602091,"internal_node_id":"0.0-5.0-18.0"},{"group":"hexagon_bi","fractal_assignment":["../images/gry_blk.png","../images/pnk_blu.png","../images/org_blu.png","../images/cyn_red.png","../images/blu_wht.png","../images/ylw_slt.png"],"mutagen_generator_assignment":[0,1],"goal":0,"start":4,"action_noise":0,"location_history":"[4,5,4,5,0]","action_history":"[1,1,1,0]","mutagen_history":"[1,1,1,0]","location_rts":"[882,366,554,322]","trial_type":"fractal-mutation","trial_index":73,"time_elapsed":1612337,"internal_node_id":"0.0-5.0-19.0"},{"group":"hexagon_bi","fractal_assignment":["../images/gry_blk.png","../images/pnk_blu.png","../images/org_blu.png","../images/cyn_red.png","../images/blu_wht.png","../images/ylw_slt.png"],"mutagen_generator_assignment":[0,1],"goal":1,"start":0,"action_noise":0,"location_history":"[0,5,0,5,4,3,4,3,4,5,4,5,4,5,4,3,4,3,4,5,4,5,0,5,0,5,4,5,0,1]","action_history":"[0,0,0,1,0,0,0,0,1,1,1,1,1,1,0,0,0,0,1,1,1,0,0,0,0,1,1,0,1]","mutagen_history":"[0,0,0,1,0,0,0,0,1,1,1,1,1,1,0,0,0,0,1,1,1,0,0,0,0,1,1,0,1]","location_rts":"[593,325,427,202,795,381,418,357,239,102,344,320,554,800,427,426,390,549,1039,437,560,447,325,371,674,378,429,150,122]","trial_type":"fractal-mutation","trial_index":74,"time_elapsed":1658745,"internal_node_id":"0.0-5.0-20.0"},{"group":"hexagon_bi","fractal_assignment":["../images/gry_blk.png","../images/pnk_blu.png","../images/org_blu.png","../images/cyn_red.png","../images/blu_wht.png","../images/ylw_slt.png"],"mutagen_generator_assignment":[0,1],"goal":3,"start":1,"action_noise":0,"location_history":"[1,2,1,0,1,2,1,0,1,0,5,0,5,0,1,0,1,2,3]","action_history":"[0,0,1,1,0,0,1,1,1,0,0,0,0,1,1,1,0,1]","mutagen_history":"[0,0,1,1,0,0,1,1,1,0,0,0,0,1,1,1,0,1]","location_rts":"[869,909,730,353,557,582,419,444,445,985,530,629,248,603,264,396,883,202]","trial_type":"fractal-mutation","trial_index":75,"time_elapsed":1691298,"internal_node_id":"0.0-5.0-21.0"},{"group":"hexagon_bi","fractal_assignment":["../images/gry_blk.png","../images/pnk_blu.png","../images/org_blu.png","../images/cyn_red.png","../images/blu_wht.png","../images/ylw_slt.png"],"mutagen_generator_assignment":[0,1],"goal":2,"start":3,"action_noise":0,"location_history":"[3,4,3,4,3,2]","action_history":"[0,0,0,0,1]","mutagen_history":"[0,0,0,0,1]","location_rts":"[1177,440,1322,631,194]","trial_type":"fractal-mutation","trial_index":76,"time_elapsed":1704191,"internal_node_id":"0.0-5.0-22.0"},{"group":"hexagon_bi","fractal_assignment":["../images/gry_blk.png","../images/pnk_blu.png","../images/org_blu.png","../images/cyn_red.png","../images/blu_wht.png","../images/ylw_slt.png"],"mutagen_generator_assignment":[0,1],"goal":0,"start":2,"action_noise":0,"location_history":"[2,3,2,3,4,3,2,3,2,3,2,1,0]","action_history":"[1,1,1,0,0,1,1,1,1,1,0,1]","mutagen_history":"[1,1,1,0,0,1,1,1,1,1,0,1]","location_rts":"[1019,487,379,583,538,442,102,149,263,374,592,1013]","trial_type":"fractal-mutation","trial_index":77,"time_elapsed":1726514,"internal_node_id":"0.0-5.0-23.0"},{"group":"hexagon_bi","fractal_assignment":["../images/gry_blk.png","../images/pnk_blu.png","../images/org_blu.png","../images/cyn_red.png","../images/blu_wht.png","../images/ylw_slt.png"],"mutagen_generator_assignment":[0,1],"goal":3,"start":0,"action_noise":0,"location_history":"[0,1,2,1,0,1,0,1,0,1,0,1,2,1,0,1,0,1,2,3]","action_history":"[1,0,0,1,1,1,1,1,1,1,1,0,0,1,1,1,1,0,1]","mutagen_history":"[1,0,0,1,1,1,1,1,1,1,1,0,0,1,1,1,1,0,1]","location_rts":"[885,900,473,422,125,150,351,374,375,457,463,504,227,346,120,48,324,448,143]","trial_type":"fractal-mutation","trial_index":78,"time_elapsed":1757218,"internal_node_id":"0.0-5.0-24.0"},{"group":"hexagon_bi","fractal_assignment":["../images/gry_blk.png","../images/pnk_blu.png","../images/org_blu.png","../images/cyn_red.png","../images/blu_wht.png","../images/ylw_slt.png"],"mutagen_generator_assignment":[0,1],"goal":1,"start":3,"action_noise":0,"location_history":"[3,4,3,2,3,2,1]","action_history":"[0,0,1,1,1,0]","mutagen_history":"[0,0,1,1,1,0]","location_rts":"[2807,481,1036,522,1595,286]","trial_type":"fractal-mutation","trial_index":79,"time_elapsed":1774135,"internal_node_id":"0.0-5.0-25.0"},{"group":"hexagon_bi","fractal_assignment":["../images/gry_blk.png","../images/pnk_blu.png","../images/org_blu.png","../images/cyn_red.png","../images/blu_wht.png","../images/ylw_slt.png"],"mutagen_generator_assignment":[0,1],"goal":2,"start":1,"action_noise":0,"location_history":"[1,0,5,0,1,0,5,0,5,4,3,4,5,0,5,4,5,0,1,2]","action_history":"[1,0,0,1,1,0,0,0,1,0,0,1,0,0,1,1,0,1,0]","mutagen_history":"[1,0,0,1,1,0,0,0,1,0,0,1,0,0,1,1,0,1,0]","location_rts":"[1198,755,443,656,986,488,446,826,532,641,738,562,534,671,452,87,586,774,546]","trial_type":"fractal-mutation","trial_index":80,"time_elapsed":1809632,"internal_node_id":"0.0-5.0-26.0"},{"group":"hexagon_bi","fractal_assignment":["../images/gry_blk.png","../images/pnk_blu.png","../images/org_blu.png","../images/cyn_red.png","../images/blu_wht.png","../images/ylw_slt.png"],"mutagen_generator_assignment":[0,1],"goal":5,"start":2,"action_noise":0,"location_history":"[2,3,4,3,4,3,4,3,2,3,4,3,2,1,2,1,2,1,2,3,2,3,2,3,2,3,4,3,4,5]","action_history":"[1,0,0,0,0,0,0,1,1,0,0,1,0,0,0,0,0,0,1,1,1,1,1,1,1,0,0,0,1]","mutagen_history":"[1,0,0,0,0,0,0,1,1,0,0,1,0,0,0,0,0,0,1,1,1,1,1,1,1,0,0,0,1]","location_rts":"[1070,702,493,474,437,472,376,788,1811,643,392,827,1533,2061,363,1227,1851,872,520,558,702,428,394,561,674,384,302,418,625]","trial_type":"fractal-mutation","trial_index":81,"time_elapsed":1865365,"internal_node_id":"0.0-5.0-27.0"},{"group":"hexagon_bi","fractal_assignment":["../images/gry_blk.png","../images/pnk_blu.png","../images/org_blu.png","../images/cyn_red.png","../images/blu_wht.png","../images/ylw_slt.png"],"mutagen_generator_assignment":[0,1],"goal":4,"start":5,"action_noise":0,"location_history":"[5,0,5,0,5,0,5,4]","action_history":"[0,0,0,0,0,0,1]","mutagen_history":"[0,0,0,0,0,0,1]","location_rts":"[1178,502,1801,246,871,406,1013]","trial_type":"fractal-mutation","trial_index":82,"time_elapsed":1882570,"internal_node_id":"0.0-5.0-28.0"},{"group":"hexagon_bi","fractal_assignment":["../images/gry_blk.png","../images/pnk_blu.png","../images/org_blu.png","../images/cyn_red.png","../images/blu_wht.png","../images/ylw_slt.png"],"mutagen_generator_assignment":[0,1],"goal":5,"start":4,"action_noise":0,"location_history":"[4,5]","action_history":"[1]","mutagen_history":"[1]","location_rts":"[1013]","trial_type":"fractal-mutation","trial_index":83,"time_elapsed":1888621,"internal_node_id":"0.0-5.0-29.0"},{"group":"hexagon_bi","fractal_assignment":["../images/gry_blk.png","../images/pnk_blu.png","../images/org_blu.png","../images/cyn_red.png","../images/blu_wht.png","../images/ylw_slt.png"],"mutagen_generator_assignment":[0,1],"goal":3,"start":5,"action_noise":0,"location_history":"[5,0,5,4,5,4,3]","action_history":"[0,0,1,1,1,0]","mutagen_history":"[0,0,1,1,1,0]","location_rts":"[1031,837,793,573,671,567]","trial_type":"fractal-mutation","trial_index":84,"time_elapsed":1903278,"internal_node_id":"0.0-5.0-30.0"},{"group":"hexagon_bi","fractal_assignment":["../images/gry_blk.png","../images/pnk_blu.png","../images/org_blu.png","../images/cyn_red.png","../images/blu_wht.png","../images/ylw_slt.png"],"mutagen_generator_assignment":[0,1],"goal":0,"start":3,"action_noise":0,"location_history":"[3,2,3,4,3,4,5,0]","action_history":"[1,1,0,0,0,1,0]","mutagen_history":"[1,1,0,0,0,1,0]","location_rts":"[2194,858,1036,456,514,628,724]","trial_type":"fractal-mutation","trial_index":85,"time_elapsed":1920882,"internal_node_id":"0.0-5.0-31.0"},{"group":"hexagon_bi","fractal_assignment":["../images/gry_blk.png","../images/pnk_blu.png","../images/org_blu.png","../images/cyn_red.png","../images/blu_wht.png","../images/ylw_slt.png"],"mutagen_generator_assignment":[0,1],"goal":4,"start":0,"action_noise":0,"location_history":"[0,1,2,3,2,1,2,1,0,5,0,1,0,1,0,5,0,1,0,1,2,1,2,1,2,3,4]","action_history":"[1,0,1,1,0,0,0,1,0,0,1,1,1,1,0,0,1,1,1,0,0,0,0,0,1,0]","mutagen_history":"[1,0,1,1,0,0,0,1,0,0,1,1,1,1,0,0,1,1,1,0,0,0,0,0,1,0]","location_rts":"[1228,945,1410,1139,426,439,455,759,455,498,488,652,470,689,143,166,614,471,514,708,371,144,348,824,448,997]","trial_type":"fractal-mutation","trial_index":86,"time_elapsed":1967336,"internal_node_id":"0.0-5.0-32.0"},{"group":"hexagon_bi","fractal_assignment":["../images/gry_blk.png","../images/pnk_blu.png","../images/org_blu.png","../images/cyn_red.png","../images/blu_wht.png","../images/ylw_slt.png"],"mutagen_generator_assignment":[0,1],"goal":1,"start":4,"action_noise":0,"location_history":"[4,5,0,1]","action_history":"[1,0,1]","mutagen_history":"[1,0,1]","location_rts":"[1275,3608,822]","trial_type":"fractal-mutation","trial_index":87,"time_elapsed":1980115,"internal_node_id":"0.0-5.0-33.0"},{"group":"hexagon_bi","fractal_assignment":["../images/gry_blk.png","../images/pnk_blu.png","../images/org_blu.png","../images/cyn_red.png","../images/blu_wht.png","../images/ylw_slt.png"],"mutagen_generator_assignment":[0,1],"goal":2,"start":1,"action_noise":0,"location_history":"[1,2]","action_history":"[0]","mutagen_history":"[0]","location_rts":"[1332]","trial_type":"fractal-mutation","trial_index":88,"time_elapsed":1986474,"internal_node_id":"0.0-5.0-34.0"},{"group":"hexagon_bi","fractal_assignment":["../images/gry_blk.png","../images/pnk_blu.png","../images/org_blu.png","../images/cyn_red.png","../images/blu_wht.png","../images/ylw_slt.png"],"mutagen_generator_assignment":[0,1],"goal":0,"start":2,"action_noise":0,"location_history":"[2,3,2,1,2,1,0]","action_history":"[1,1,0,0,0,1]","mutagen_history":"[1,1,0,0,0,1]","location_rts":"[1224,1343,657,593,506,1023]","trial_type":"fractal-mutation","trial_index":89,"time_elapsed":2001988,"internal_node_id":"0.0-5.0-35.0"},{"group":"hexagon_bi","fractal_assignment":["../images/gry_blk.png","../images/pnk_blu.png","../images/org_blu.png","../images/cyn_red.png","../images/blu_wht.png","../images/ylw_slt.png"],"mutagen_generator_assignment":[0,1],"goal":5,"start":0,"action_noise":0,"location_history":"[0,1,0,1,2,1,2,1,2,3,4,5]","action_history":"[1,1,1,0,0,0,0,0,1,0,1]","mutagen_history":"[1,1,1,0,0,0,0,0,1,0,1]","location_rts":"[24848,723,595,1035,506,2187,669,741,559,792,721]","trial_type":"fractal-mutation","trial_index":90,"time_elapsed":2050691,"internal_node_id":"0.0-5.0-36.0"},{"group":"hexagon_bi","fractal_assignment":["../images/gry_blk.png","../images/pnk_blu.png","../images/org_blu.png","../images/cyn_red.png","../images/blu_wht.png","../images/ylw_slt.png"],"mutagen_generator_assignment":[0,1],"goal":2,"start":5,"action_noise":0,"location_history":"[5,0,5,4,3,2]","action_history":"[0,0,1,0,1]","mutagen_history":"[0,0,1,0,1]","location_rts":"[945,696,519,676,718]","trial_type":"fractal-mutation","trial_index":91,"time_elapsed":2063406,"internal_node_id":"0.0-5.0-37.0"},{"group":"hexagon_bi","fractal_assignment":["../images/gry_blk.png","../images/pnk_blu.png","../images/org_blu.png","../images/cyn_red.png","../images/blu_wht.png","../images/ylw_slt.png"],"mutagen_generator_assignment":[0,1],"goal":1,"start":2,"action_noise":0,"location_history":"[2,1]","action_history":"[0]","mutagen_history":"[0]","location_rts":"[842]","trial_type":"fractal-mutation","trial_index":92,"time_elapsed":2069278,"internal_node_id":"0.0-5.0-38.0"},{"group":"hexagon_bi","fractal_assignment":["../images/gry_blk.png","../images/pnk_blu.png","../images/org_blu.png","../images/cyn_red.png","../images/blu_wht.png","../images/ylw_slt.png"],"mutagen_generator_assignment":[0,1],"goal":4,"start":1,"action_noise":0,"location_history":"[1,2,3,4]","action_history":"[0,1,0]","mutagen_history":"[0,1,0]","location_rts":"[1414,981,740]","trial_type":"fractal-mutation","trial_index":93,"time_elapsed":2079498,"internal_node_id":"0.0-5.0-39.0"},{"group":"hexagon_bi","fractal_assignment":["../images/gry_blk.png","../images/pnk_blu.png","../images/org_blu.png","../images/cyn_red.png","../images/blu_wht.png","../images/ylw_slt.png"],"mutagen_generator_assignment":[0,1],"goal":3,"start":4,"action_noise":0,"location_history":"[4,5,0,5,0,5,4,3]","action_history":"[1,0,0,0,0,1,0]","mutagen_history":"[1,0,0,0,0,1,0]","location_rts":"[991,925,564,742,365,83,466]","trial_type":"fractal-mutation","trial_index":94,"time_elapsed":2094829,"internal_node_id":"0.0-5.0-40.0"},{"group":"hexagon_bi","fractal_assignment":["../images/gry_blk.png","../images/pnk_blu.png","../images/org_blu.png","../images/cyn_red.png","../images/blu_wht.png","../images/ylw_slt.png"],"mutagen_generator_assignment":[0,1],"goal":5,"start":3,"action_noise":0,"location_history":"[3,2,3,4,5]","action_history":"[1,1,0,1]","mutagen_history":"[1,1,0,1]","location_rts":"[962,765,755,1395]","trial_type":"fractal-mutation","trial_index":95,"time_elapsed":2106805,"internal_node_id":"0.0-5.0-41.0"},{"group":"hexagon_bi","fractal_assignment":["../images/gry_blk.png","../images/pnk_blu.png","../images/org_blu.png","../images/cyn_red.png","../images/blu_wht.png","../images/ylw_slt.png"],"mutagen_generator_assignment":[0,1],"goal":3,"start":5,"action_noise":0,"location_history":"[5,0,5,4,3]","action_history":"[0,0,1,0]","mutagen_history":"[0,0,1,0]","location_rts":"[741,683,1728,1151]","trial_type":"fractal-mutation","trial_index":96,"time_elapsed":2119208,"internal_node_id":"0.0-5.0-42.0"},{"group":"hexagon_bi","fractal_assignment":["../images/gry_blk.png","../images/pnk_blu.png","../images/org_blu.png","../images/cyn_red.png","../images/blu_wht.png","../images/ylw_slt.png"],"mutagen_generator_assignment":[0,1],"goal":0,"start":3,"action_noise":0,"location_history":"[3,2,3,2,1,0]","action_history":"[1,1,1,0,1]","mutagen_history":"[1,1,1,0,1]","location_rts":"[1623,673,952,417,693]","trial_type":"fractal-mutation","trial_index":97,"time_elapsed":2132729,"internal_node_id":"0.0-5.0-43.0"},{"group":"hexagon_bi","fractal_assignment":["../images/gry_blk.png","../images/pnk_blu.png","../images/org_blu.png","../images/cyn_red.png","../images/blu_wht.png","../images/ylw_slt.png"],"mutagen_generator_assignment":[0,1],"goal":2,"start":0,"action_noise":0,"location_history":"[0,5,4,5,0,5,0,1,2]","action_history":"[0,1,1,0,0,0,1,0]","mutagen_history":"[0,1,1,0,0,0,1,0]","location_rts":"[547,676,470,458,433,405,489,871]","trial_type":"fractal-mutation","trial_index":98,"time_elapsed":2149303,"internal_node_id":"0.0-5.0-44.0"},{"group":"hexagon_bi","fractal_assignment":["../images/gry_blk.png","../images/pnk_blu.png","../images/org_blu.png","../images/cyn_red.png","../images/blu_wht.png","../images/ylw_slt.png"],"mutagen_generator_assignment":[0,1],"goal":4,"start":2,"action_noise":0,"location_history":"[2,1,2,1,0,1,0,1,2,1,0,1,0,1,0,5,4]","action_history":"[0,0,0,1,1,1,1,0,0,1,1,1,1,1,0,1]","mutagen_history":"[0,0,0,1,1,1,1,0,0,1,1,1,1,1,0,1]","location_rts":"[546,915,488,711,465,509,419,730,346,536,403,420,338,467,776,648]","trial_type":"fractal-mutation","trial_index":99,"time_elapsed":2178495,"internal_node_id":"0.0-5.0-45.0"},{"group":"hexagon_bi","fractal_assignment":["../images/gry_blk.png","../images/pnk_blu.png","../images/org_blu.png","../images/cyn_red.png","../images/blu_wht.png","../images/ylw_slt.png"],"mutagen_generator_assignment":[0,1],"goal":1,"start":4,"action_noise":0,"location_history":"[4,3,4,5,4,3,4,3,4,5,0,1]","action_history":"[0,0,1,1,0,0,0,0,1,0,1]","mutagen_history":"[0,0,1,1,0,0,0,0,1,0,1]","location_rts":"[78,492,1097,444,423,352,596,741,376,561,337]","trial_type":"fractal-mutation","trial_index":100,"time_elapsed":2199290,"internal_node_id":"0.0-5.0-46.0"},{"group":"hexagon_bi","fractal_assignment":["../images/gry_blk.png","../images/pnk_blu.png","../images/org_blu.png","../images/cyn_red.png","../images/blu_wht.png","../images/ylw_slt.png"],"mutagen_generator_assignment":[0,1],"goal":4,"start":1,"action_noise":0,"location_history":"[1,0,5,0,1,0,5,4]","action_history":"[1,0,0,1,1,0,1]","mutagen_history":"[1,0,0,1,1,0,1]","location_rts":"[1014,502,442,927,723,574,1066]","trial_type":"fractal-mutation","trial_index":101,"time_elapsed":2215735,"internal_node_id":"0.0-5.0-47.0"},{"group":"hexagon_bi","fractal_assignment":["../images/gry_blk.png","../images/pnk_blu.png","../images/org_blu.png","../images/cyn_red.png","../images/blu_wht.png","../images/ylw_slt.png"],"mutagen_generator_assignment":[0,1],"goal":3,"start":4,"action_noise":0,"location_history":"[4,3]","action_history":"[0]","mutagen_history":"[0]","location_rts":"[520]","trial_type":"fractal-mutation","trial_index":102,"time_elapsed":2221285,"internal_node_id":"0.0-5.0-48.0"},{"group":"hexagon_bi","fractal_assignment":["../images/gry_blk.png","../images/pnk_blu.png","../images/org_blu.png","../images/cyn_red.png","../images/blu_wht.png","../images/ylw_slt.png"],"mutagen_generator_assignment":[0,1],"goal":5,"start":3,"action_noise":0,"location_history":"[3,2,3,4,5]","action_history":"[1,1,0,1]","mutagen_history":"[1,1,0,1]","location_rts":"[883,981,1561,188]","trial_type":"fractal-mutation","trial_index":103,"time_elapsed":2233011,"internal_node_id":"0.0-5.0-49.0"},{"view_history":"[{\"page_index\":0,\"viewing_time\":9001}]","rt":9001,"trial_type":"instructions","trial_index":104,"time_elapsed":2243014,"internal_node_id":"0.0-6.0"},{"rt":1612,"responses":"{\"Q0\":\"\"}","trial_type":"survey-text","trial_index":105,"time_elapsed":2245632,"internal_node_id":"0.0-7.0"}]