[{"view_history":"[{\"page_index\":0,\"viewing_time\":5187},{\"page_index\":1,\"viewing_time\":15039},{\"page_index\":2,\"viewing_time\":14072}]","rt":34298,"trial_type":"instructions","trial_index":0,"time_elapsed":34299,"internal_node_id":"0.0-0.0"},{"view_history":"[{\"page_index\":0,\"viewing_time\":1165},{\"page_index\":1,\"viewing_time\":10399}]","rt":11564,"trial_type":"instructions","trial_index":1,"time_elapsed":46865,"internal_node_id":"0.0-1.0"},{"group":"hexagon_bi","room_assignment":["yellow","purple","red","blue","green","grey"],"door_color_assignment":["white","black"],"door_generator_assignment":[1,0],"goal":4,"start":0,"action_noise":0,"location_history":"[0,1,0,1,2,1,2,1,2,3,4]","action_history":"[1,1,1,0,0,0,0,0,1,0]","door_history":"[0,0,0,1,1,1,1,1,0,1]","location_rts":"[5890,1033,974,744,959,1796,674,1801,716,1937]","trial_type":"two-door-navigation","trial_index":2,"time_elapsed":77853,"internal_node_id":"0.0-2.0-0.0"},{"group":"hexagon_bi","room_assignment":["yellow","purple","red","blue","green","grey"],"door_color_assignment":["white","black"],"door_generator_assignment":[1,0],"goal":3,"start":4,"action_noise":0,"location_history":"[4,5,0,5,4,3]","action_history":"[1,0,0,1,0]","door_history":"[0,1,1,0,1]","location_rts":"[2419,1822,720,1389,1838]","trial_type":"two-door-navigation","trial_index":3,"time_elapsed":95287,"internal_node_id":"0.0-2.0-1.0"},{"group":"hexagon_bi","room_assignment":["yellow","purple","red","blue","green","grey"],"door_color_assignment":["white","black"],"door_generator_assignment":[1,0],"goal":5,"start":3,"action_noise":0,"location_history":"[3,4,5]","action_history":"[0,1]","door_history":"[1,0]","location_rts":"[1414,1159]","trial_type":"two-door-navigation","trial_index":4,"time_elapsed":103954,"internal_node_id":"0.0-2.0-2.0"},{"group":"hexagon_bi","room_assignment":["yellow","purple","red","blue","green","grey"],"door_color_assignment":["white","black"],"door_generator_assignment":[1,0],"goal":2,"start":5,"action_noise":0,"location_history":"[5,4,5,4,3,4,3,2]","action_history":"[1,1,1,0,0,0,1]","door_history":"[0,0,0,1,1,1,0]","location_rts":"[2013,940,2186,381,657,1764,759]","trial_type":"two-door-navigation","trial_index":5,"time_elapsed":123952,"internal_node_id":"0.0-2.0-3.0"},{"group":"hexagon_bi","room_assignment":["yellow","purple","red","blue","green","grey"],"door_color_assignment":["white","black"],"door_generator_assignment":[1,0],"goal":1,"start":2,"action_noise":0,"location_history":"[2,3,2,1]","action_history":"[1,1,0]","door_history":"[0,0,1]","location_rts":"[4047,986,806]","trial_type":"two-door-navigation","trial_index":6,"time_elapsed":136969,"internal_node_id":"0.0-2.0-4.0"},{"group":"hexagon_bi","room_assignment":["yellow","purple","red","blue","green","grey"],"door_color_assignment":["white","black"],"door_generator_assignment":[1,0],"goal":4,"start":1,"action_noise":0,"location_history":"[1,0,5,0,1,0,5,0,1,0,5,0,1,0,1,0,5,4]","action_history":"[1,0,0,1,1,0,0,1,1,0,0,1,1,1,1,0,1]","door_history":"[0,1,1,0,0,1,1,0,0,1,1,0,0,0,0,1,0]","location_rts":"[2715,1156,701,1875,584,823,592,853,1014,2645,3358,1883,747,668,442,861,1617]","trial_type":"two-door-navigation","trial_index":7,"time_elapsed":181201,"internal_node_id":"0.0-2.0-5.0"},{"group":"hexagon_bi","room_assignment":["yellow","purple","red","blue","green","grey"],"door_color_assignment":["white","black"],"door_generator_assignment":[1,0],"goal":1,"start":4,"action_noise":0,"location_history":"[4,5,4,3,4,5,4,5,0,1]","action_history":"[1,1,0,0,1,1,1,0,1]","door_history":"[0,0,1,1,0,0,0,1,0]","location_rts":"[2427,570,380,1040,1003,819,837,728,803]","trial_type":"two-door-navigation","trial_index":8,"time_elapsed":203189,"internal_node_id":"0.0-2.0-6.0"},{"group":"hexagon_bi","room_assignment":["yellow","purple","red","blue","green","grey"],"door_color_assignment":["white","black"],"door_generator_assignment":[1,0],"goal":5,"start":1,"action_noise":0,"location_history":"[1,2,3,2,3,4,3,2,3,2,1,0,5]","action_history":"[0,1,1,1,0,0,1,1,1,0,1,0]","door_history":"[1,0,0,0,1,1,0,0,0,1,0,1]","location_rts":"[3520,1120,841,622,693,812,1035,636,465,1119,1466,1192]","trial_type":"two-door-navigation","trial_index":9,"time_elapsed":233182,"internal_node_id":"0.0-2.0-7.0"},{"group":"hexagon_bi","room_assignment":["yellow","purple","red","blue","green","grey"],"door_color_assignment":["white","black"],"door_generator_assignment":[1,0],"goal":0,"start":5,"action_noise":0,"location_history":"[5,4,3,4,5,4,3,4,5,4,3,2,1,0]","action_history":"[1,0,0,1,1,0,0,1,1,0,1,0,1]","door_history":"[0,1,1,0,0,1,1,0,0,1,0,1,0]","location_rts":"[5394,1785,682,841,639,1400,1845,853,666,802,1326,2286,840]","trial_type":"two-door-navigation","trial_index":10,"time_elapsed":270101,"internal_node_id":"0.0-2.0-8.0"},{"group":"hexagon_bi","room_assignment":["yellow","purple","red","blue","green","grey"],"door_color_assignment":["white","black"],"door_generator_assignment":[1,0],"goal":2,"start":0,"action_noise":0,"location_history":"[0,1,2]","action_history":"[1,0]","door_history":"[0,1]","location_rts":"[3714,1164]","trial_type":"two-door-navigation","trial_index":11,"time_elapsed":281079,"internal_node_id":"0.0-2.0-9.0"},{"group":"hexagon_bi","room_assignment":["yellow","purple","red","blue","green","grey"],"door_color_assignment":["white","black"],"door_generator_assignment":[1,0],"goal":3,"start":2,"action_noise":0,"location_history":"[2,3]","action_history":"[1]","door_history":"[0]","location_rts":"[2928]","trial_type":"two-door-navigation","trial_index":12,"time_elapsed":289058,"internal_node_id":"0.0-2.0-10.0"},{"group":"hexagon_bi","room_assignment":["yellow","purple","red","blue","green","grey"],"door_color_assignment":["white","black"],"door_generator_assignment":[1,0],"goal":0,"start":3,"action_noise":0,"location_history":"[3,2,1,0]","action_history":"[1,0,1]","door_history":"[0,1,0]","location_rts":"[44891,938,1163]","trial_type":"two-door-navigation","trial_index":13,"time_elapsed":343119,"internal_node_id":"0.0-2.0-11.0"},{"group":"hexagon_bi","room_assignment":["yellow","purple","red","blue","green","grey"],"door_color_assignment":["white","black"],"door_generator_assignment":[1,0],"goal":2,"start":0,"action_noise":0,"location_history":"[0,5,0,1,2]","action_history":"[0,0,1,0]","door_history":"[1,1,0,1]","location_rts":"[5927,1569,833,1287]","trial_type":"two-door-navigation","trial_index":14,"time_elapsed":360838,"internal_node_id":"0.0-2.0-12.0"},{"group":"hexagon_bi","room_assignment":["yellow","purple","red","blue","green","grey"],"door_color_assignment":["white","black"],"door_generator_assignment":[1,0],"goal":5,"start":2,"action_noise":0,"location_history":"[2,1,0,1,2,3,4,5]","action_history":"[0,1,1,0,1,0,1]","door_history":"[1,0,0,1,0,1,0]","location_rts":"[1063,1234,724,1178,1333,1521,1242]","trial_type":"two-door-navigation","trial_index":15,"time_elapsed":380287,"internal_node_id":"0.0-2.0-13.0"},{"group":"hexagon_bi","room_assignment":["yellow","purple","red","blue","green","grey"],"door_color_assignment":["white","black"],"door_generator_assignment":[1,0],"goal":4,"start":5,"action_noise":0,"location_history":"[5,0,1,2,3,4]","action_history":"[0,1,0,1,0]","door_history":"[1,0,1,0,1]","location_rts":"[2391,1244,675,959,953]","trial_type":"two-door-navigation","trial_index":16,"time_elapsed":395610,"internal_node_id":"0.0-2.0-14.0"},{"group":"hexagon_bi","room_assignment":["yellow","purple","red","blue","green","grey"],"door_color_assignment":["white","black"],"door_generator_assignment":[1,0],"goal":3,"start":4,"action_noise":0,"location_history":"[4,3]","action_history":"[0]","door_history":"[1]","location_rts":"[2427]","trial_type":"two-door-navigation","trial_index":17,"time_elapsed":403062,"internal_node_id":"0.0-2.0-15.0"},{"group":"hexagon_bi","room_assignment":["yellow","purple","red","blue","green","grey"],"door_color_assignment":["white","black"],"door_generator_assignment":[1,0],"goal":1,"start":3,"action_noise":0,"location_history":"[3,2,1]","action_history":"[1,0]","door_history":"[0,1]","location_rts":"[2288,1780]","trial_type":"two-door-navigation","trial_index":18,"time_elapsed":413175,"internal_node_id":"0.0-2.0-16.0"},{"group":"hexagon_bi","room_assignment":["yellow","purple","red","blue","green","grey"],"door_color_assignment":["white","black"],"door_generator_assignment":[1,0],"goal":5,"start":1,"action_noise":0,"location_history":"[1,0,5]","action_history":"[1,0]","door_history":"[0,1]","location_rts":"[2469,1163]","trial_type":"two-door-navigation","trial_index":19,"time_elapsed":422853,"internal_node_id":"0.0-2.0-17.0"},{"group":"hexagon_bi","room_assignment":["yellow","purple","red","blue","green","grey"],"door_color_assignment":["white","black"],"door_generator_assignment":[1,0],"goal":4,"start":5,"action_noise":0,"location_history":"[5,0,1,2,3,4]","action_history":"[0,1,0,1,0]","door_history":"[1,0,1,0,1]","location_rts":"[2304,1210,448,858,699]","trial_type":"two-door-navigation","trial_index":20,"time_elapsed":437485,"internal_node_id":"0.0-2.0-18.0"},{"group":"hexagon_bi","room_assignment":["yellow","purple","red","blue","green","grey"],"door_color_assignment":["white","black"],"door_generator_assignment":[1,0],"goal":0,"start":4,"action_noise":0,"location_history":"[4,5,4,3,2,1,0]","action_history":"[1,1,0,1,0,1]","door_history":"[0,0,1,0,1,0]","location_rts":"[2080,832,573,1621,685,674]","trial_type":"two-door-navigation","trial_index":21,"time_elapsed":454077,"internal_node_id":"0.0-2.0-19.0"},{"group":"hexagon_bi","room_assignment":["yellow","purple","red","blue","green","grey"],"door_color_assignment":["white","black"],"door_generator_assignment":[1,0],"goal":1,"start":0,"action_noise":0,"location_history":"[0,1]","action_history":"[1]","door_history":"[0]","location_rts":"[2689]","trial_type":"two-door-navigation","trial_index":22,"time_elapsed":461793,"internal_node_id":"0.0-2.0-20.0"},{"group":"hexagon_bi","room_assignment":["yellow","purple","red","blue","green","grey"],"door_color_assignment":["white","black"],"door_generator_assignment":[1,0],"goal":3,"start":1,"action_noise":0,"location_history":"[1,2,3]","action_history":"[0,1]","door_history":"[1,0]","location_rts":"[2090,1971]","trial_type":"two-door-navigation","trial_index":23,"time_elapsed":471903,"internal_node_id":"0.0-2.0-21.0"},{"group":"hexagon_bi","room_assignment":["yellow","purple","red","blue","green","grey"],"door_color_assignment":["white","black"],"door_generator_assignment":[1,0],"goal":2,"start":3,"action_noise":0,"location_history":"[3,4,5,0,1,2]","action_history":"[0,1,0,1,0]","door_history":"[1,0,1,0,1]","location_rts":"[1222,1068,926,684,1068]","trial_type":"two-door-navigation","trial_index":24,"time_elapsed":485973,"internal_node_id":"0.0-2.0-22.0"},{"group":"hexagon_bi","room_assignment":["yellow","purple","red","blue","green","grey"],"door_color_assignment":["white","black"],"door_generator_assignment":[1,0],"goal":0,"start":2,"action_noise":0,"location_history":"[2,1,2,1,0]","action_history":"[0,0,0,1]","door_history":"[1,1,1,0]","location_rts":"[2967,601,435,299]","trial_type":"two-door-navigation","trial_index":25,"time_elapsed":498405,"internal_node_id":"0.0-2.0-23.0"},{"group":"hexagon_bi","room_assignment":["yellow","purple","red","blue","green","grey"],"door_color_assignment":["white","black"],"door_generator_assignment":[1,0],"goal":3,"start":0,"action_noise":0,"location_history":"[0,1,0,5,4,3]","action_history":"[1,1,0,1,0]","door_history":"[0,0,1,0,1]","location_rts":"[3056,838,772,1227,463]","trial_type":"two-door-navigation","trial_index":26,"time_elapsed":513864,"internal_node_id":"0.0-2.0-24.0"},{"group":"hexagon_bi","room_assignment":["yellow","purple","red","blue","green","grey"],"door_color_assignment":["white","black"],"door_generator_assignment":[1,0],"goal":1,"start":3,"action_noise":0,"location_history":"[3,2,1]","action_history":"[1,0]","door_history":"[0,1]","location_rts":"[3372,1273]","trial_type":"two-door-navigation","trial_index":27,"time_elapsed":524556,"internal_node_id":"0.0-2.0-25.0"},{"group":"hexagon_bi","room_assignment":["yellow","purple","red","blue","green","grey"],"door_color_assignment":["white","black"],"door_generator_assignment":[1,0],"goal":2,"start":1,"action_noise":0,"location_history":"[1,2]","action_history":"[0]","door_history":"[1]","location_rts":"[1886]","trial_type":"two-door-navigation","trial_index":28,"time_elapsed":531472,"internal_node_id":"0.0-2.0-26.0"},{"group":"hexagon_bi","room_assignment":["yellow","purple","red","blue","green","grey"],"door_color_assignment":["white","black"],"door_generator_assignment":[1,0],"goal":5,"start":2,"action_noise":0,"location_history":"[2,3,4,5]","action_history":"[1,0,1]","door_history":"[0,1,0]","location_rts":"[3340,1162,1442]","trial_type":"two-door-navigation","trial_index":29,"time_elapsed":544485,"internal_node_id":"0.0-2.0-27.0"},{"group":"hexagon_bi","room_assignment":["yellow","purple","red","blue","green","grey"],"door_color_assignment":["white","black"],"door_generator_assignment":[1,0],"goal":4,"start":5,"action_noise":0,"location_history":"[5,0,1,2,3,4]","action_history":"[0,1,0,1,0]","door_history":"[1,0,1,0,1]","location_rts":"[3094,927,555,1421,723]","trial_type":"two-door-navigation","trial_index":30,"time_elapsed":560313,"internal_node_id":"0.0-2.0-28.0"},{"group":"hexagon_bi","room_assignment":["yellow","purple","red","blue","green","grey"],"door_color_assignment":["white","black"],"door_generator_assignment":[1,0],"goal":5,"start":4,"action_noise":0,"location_history":"[4,5]","action_history":"[1]","door_history":"[0]","location_rts":"[3587]","trial_type":"two-door-navigation","trial_index":31,"time_elapsed":568942,"internal_node_id":"0.0-2.0-29.0"},{"group":"hexagon_bi","room_assignment":["yellow","purple","red","blue","green","grey"],"door_color_assignment":["white","black"],"door_generator_assignment":[1,0],"goal":3,"start":5,"action_noise":0,"location_history":"[5,0,1,2,3]","action_history":"[0,1,0,1]","door_history":"[1,0,1,0]","location_rts":"[2095,1131,420,940]","trial_type":"two-door-navigation","trial_index":32,"time_elapsed":581615,"internal_node_id":"0.0-2.0-30.0"},{"group":"hexagon_bi","room_assignment":["yellow","purple","red","blue","green","grey"],"door_color_assignment":["white","black"],"door_generator_assignment":[1,0],"goal":0,"start":3,"action_noise":0,"location_history":"[3,2,1,0]","action_history":"[1,0,1]","door_history":"[0,1,0]","location_rts":"[3494,1176,978]","trial_type":"two-door-navigation","trial_index":33,"time_elapsed":594335,"internal_node_id":"0.0-2.0-31.0"},{"group":"hexagon_bi","room_assignment":["yellow","purple","red","blue","green","grey"],"door_color_assignment":["white","black"],"door_generator_assignment":[1,0],"goal":4,"start":0,"action_noise":0,"location_history":"[0,5,4]","action_history":"[0,1]","door_history":"[1,0]","location_rts":"[2973,905]","trial_type":"two-door-navigation","trial_index":34,"time_elapsed":604260,"internal_node_id":"0.0-2.0-32.0"},{"group":"hexagon_bi","room_assignment":["yellow","purple","red","blue","green","grey"],"door_color_assignment":["white","black"],"door_generator_assignment":[1,0],"goal":1,"start":4,"action_noise":0,"location_history":"[4,3,2,1]","action_history":"[0,1,0]","door_history":"[1,0,1]","location_rts":"[1449,740,633]","trial_type":"two-door-navigation","trial_index":35,"time_elapsed":614143,"internal_node_id":"0.0-2.0-33.0"},{"group":"hexagon_bi","room_assignment":["yellow","purple","red","blue","green","grey"],"door_color_assignment":["white","black"],"door_generator_assignment":[1,0],"goal":2,"start":1,"action_noise":0,"location_history":"[1,2]","action_history":"[0]","door_history":"[1]","location_rts":"[3412]","trial_type":"two-door-navigation","trial_index":36,"time_elapsed":622579,"internal_node_id":"0.0-2.0-34.0"},{"group":"hexagon_bi","room_assignment":["yellow","purple","red","blue","green","grey"],"door_color_assignment":["white","black"],"door_generator_assignment":[1,0],"goal":0,"start":2,"action_noise":0,"location_history":"[2,3,4,5,0]","action_history":"[1,0,1,0]","door_history":"[0,1,0,1]","location_rts":"[1543,757,1135,493]","trial_type":"two-door-navigation","trial_index":37,"time_elapsed":634588,"internal_node_id":"0.0-2.0-35.0"},{"group":"hexagon_bi","room_assignment":["yellow","purple","red","blue","green","grey"],"door_color_assignment":["white","black"],"door_generator_assignment":[1,0],"goal":5,"start":0,"action_noise":0,"location_history":"[0,5]","action_history":"[0]","door_history":"[1]","location_rts":"[4479]","trial_type":"two-door-navigation","trial_index":38,"time_elapsed":644095,"internal_node_id":"0.0-2.0-36.0"},{"group":"hexagon_bi","room_assignment":["yellow","purple","red","blue","green","grey"],"door_color_assignment":["white","black"],"door_generator_assignment":[1,0],"goal":2,"start":5,"action_noise":0,"location_history":"[5,0,1,2]","action_history":"[0,1,0]","door_history":"[1,0,1]","location_rts":"[2387,625,425]","trial_type":"two-door-navigation","trial_index":39,"time_elapsed":654602,"internal_node_id":"0.0-2.0-37.0"},{"group":"hexagon_bi","room_assignment":["yellow","purple","red","blue","green","grey"],"door_color_assignment":["white","black"],"door_generator_assignment":[1,0],"goal":1,"start":2,"action_noise":0,"location_history":"[2,3,4,3,4,5,0,1]","action_history":"[1,0,0,0,1,0,1]","door_history":"[0,1,1,1,0,1,0]","location_rts":"[2169,1007,546,435,718,691,951]","trial_type":"two-door-navigation","trial_index":40,"time_elapsed":672262,"internal_node_id":"0.0-2.0-38.0"},{"group":"hexagon_bi","room_assignment":["yellow","purple","red","blue","green","grey"],"door_color_assignment":["white","black"],"door_generator_assignment":[1,0],"goal":4,"start":1,"action_noise":0,"location_history":"[1,2,3,4]","action_history":"[0,1,0]","door_history":"[1,0,1]","location_rts":"[1708,899,459]","trial_type":"two-door-navigation","trial_index":41,"time_elapsed":682396,"internal_node_id":"0.0-2.0-39.0"},{"group":"hexagon_bi","room_assignment":["yellow","purple","red","blue","green","grey"],"door_color_assignment":["white","black"],"door_generator_assignment":[1,0],"goal":3,"start":4,"action_noise":0,"location_history":"[4,5,0,5,4,3]","action_history":"[1,0,0,1,0]","door_history":"[0,1,1,0,1]","location_rts":"[2679,1234,982,670,1596]","trial_type":"two-door-navigation","trial_index":42,"time_elapsed":698660,"internal_node_id":"0.0-2.0-40.0"},{"group":"hexagon_bi","room_assignment":["yellow","purple","red","blue","green","grey"],"door_color_assignment":["white","black"],"door_generator_assignment":[1,0],"goal":5,"start":3,"action_noise":0,"location_history":"[3,2,1,0,5]","action_history":"[1,0,1,0]","door_history":"[0,1,0,1]","location_rts":"[2592,1027,2038,649]","trial_type":"two-door-navigation","trial_index":43,"time_elapsed":713053,"internal_node_id":"0.0-2.0-41.0"},{"group":"hexagon_bi","room_assignment":["yellow","purple","red","blue","green","grey"],"door_color_assignment":["white","black"],"door_generator_assignment":[1,0],"goal":3,"start":5,"action_noise":0,"location_history":"[5,0,1,2,3]","action_history":"[0,1,0,1]","door_history":"[1,0,1,0]","location_rts":"[1904,854,691,692]","trial_type":"two-door-navigation","trial_index":44,"time_elapsed":725278,"internal_node_id":"0.0-2.0-42.0"},{"group":"hexagon_bi","room_assignment":["yellow","purple","red","blue","green","grey"],"door_color_assignment":["white","black"],"door_generator_assignment":[1,0],"goal":0,"start":3,"action_noise":0,"location_history":"[3,4,5,0]","action_history":"[0,1,0]","door_history":"[1,0,1]","location_rts":"[1726,626,732]","trial_type":"two-door-navigation","trial_index":45,"time_elapsed":735433,"internal_node_id":"0.0-2.0-43.0"},{"group":"hexagon_bi","room_assignment":["yellow","purple","red","blue","green","grey"],"door_color_assignment":["white","black"],"door_generator_assignment":[1,0],"goal":2,"start":0,"action_noise":0,"location_history":"[0,1,2]","action_history":"[1,0]","door_history":"[0,1]","location_rts":"[2394,846]","trial_type":"two-door-navigation","trial_index":46,"time_elapsed":744717,"internal_node_id":"0.0-2.0-44.0"},{"group":"hexagon_bi","room_assignment":["yellow","purple","red","blue","green","grey"],"door_color_assignment":["white","black"],"door_generator_assignment":[1,0],"goal":4,"start":2,"action_noise":0,"location_history":"[2,1,0,5,4]","action_history":"[0,1,0,1]","door_history":"[1,0,1,0]","location_rts":"[2045,587,404,740]","trial_type":"two-door-navigation","trial_index":47,"time_elapsed":756578,"internal_node_id":"0.0-2.0-45.0"},{"group":"hexagon_bi","room_assignment":["yellow","purple","red","blue","green","grey"],"door_color_assignment":["white","black"],"door_generator_assignment":[1,0],"goal":1,"start":4,"action_noise":0,"location_history":"[4,5,0,1]","action_history":"[1,0,1]","door_history":"[0,1,0]","location_rts":"[2856,1596,700]","trial_type":"two-door-navigation","trial_index":48,"time_elapsed":768796,"internal_node_id":"0.0-2.0-46.0"},{"group":"hexagon_bi","room_assignment":["yellow","purple","red","blue","green","grey"],"door_color_assignment":["white","black"],"door_generator_assignment":[1,0],"goal":4,"start":1,"action_noise":0,"location_history":"[1,2,3,4]","action_history":"[0,1,0]","door_history":"[1,0,1]","location_rts":"[3359,858,637]","trial_type":"two-door-navigation","trial_index":49,"time_elapsed":780719,"internal_node_id":"0.0-2.0-47.0"},{"group":"hexagon_bi","room_assignment":["yellow","purple","red","blue","green","grey"],"door_color_assignment":["white","black"],"door_generator_assignment":[1,0],"goal":3,"start":4,"action_noise":0,"location_history":"[4,5,0,1,2,3]","action_history":"[1,0,1,0,1]","door_history":"[0,1,0,1,0]","location_rts":"[2348,898,831,1000,1147]","trial_type":"two-door-navigation","trial_index":50,"time_elapsed":796054,"internal_node_id":"0.0-2.0-48.0"},{"group":"hexagon_bi","room_assignment":["yellow","purple","red","blue","green","grey"],"door_color_assignment":["white","black"],"door_generator_assignment":[1,0],"goal":5,"start":3,"action_noise":0,"location_history":"[3,2,1,0,5]","action_history":"[1,0,1,0]","door_history":"[0,1,0,1]","location_rts":"[2820,712,741,617]","trial_type":"two-door-navigation","trial_index":51,"time_elapsed":809022,"internal_node_id":"0.0-2.0-49.0"},{"view_history":"[{\"page_index\":0,\"viewing_time\":1428}]","rt":1429,"trial_type":"instructions","trial_index":52,"time_elapsed":811452,"internal_node_id":"0.0-3.0"},{"view_history":"[{\"page_index\":0,\"viewing_time\":1863},{\"page_index\":1,\"viewing_time\":16504}]","rt":18367,"trial_type":"instructions","trial_index":53,"time_elapsed":830819,"internal_node_id":"0.0-4.0"},{"group":"hexagon_bi","fractal_assignment":["../images/blu_wht.png","../images/org_blu.png","../images/pnk_blu.png","../images/ylw_slt.png","../images/cyn_red.png","../images/gry_blk.png"],"mutagen_generator_assignment":[1,0],"goal":4,"start":0,"action_noise":0,"location_history":"[0,1,2,3,2,3,2,3,4]","action_history":"[1,0,1,1,1,1,1,0]","mutagen_history":"[0,1,0,0,0,0,0,1]","location_rts":"[5460,2224,1359,812,952,800,566,774]","trial_type":"fractal-mutation","trial_index":54,"time_elapsed":856128,"internal_node_id":"0.0-5.0-0.0"},{"group":"hexagon_bi","fractal_assignment":["../images/blu_wht.png","../images/org_blu.png","../images/pnk_blu.png","../images/ylw_slt.png","../images/cyn_red.png","../images/gry_blk.png"],"mutagen_generator_assignment":[1,0],"goal":3,"start":4,"action_noise":0,"location_history":"[4,5,4,5,0,5,4,5,4,5,0,5,0,5,0,1,0,5,0,5,0,5,4,5,0,5,4,5,0,5,0,5,0,1,0,1,2,1,0,5,0,5,0,5,0,1,0,5,0,1,2,1,2,1,2,3]","action_history":"[1,1,1,0,0,1,1,1,1,0,0,0,0,0,1,1,0,0,0,0,0,1,1,0,0,1,1,0,0,0,0,0,1,1,1,0,0,1,0,0,0,0,0,0,1,1,0,0,1,0,0,0,0,0,1]","mutagen_history":"[0,0,0,1,1,0,0,0,0,1,1,1,1,1,0,0,1,1,1,1,1,0,0,1,1,0,0,1,1,1,1,1,0,0,0,1,1,0,1,1,1,1,1,1,0,0,1,1,0,1,1,1,1,1,0]","location_rts":"[2056,1287,1008,705,856,997,623,663,602,528,542,433,524,545,931,1575,664,605,860,2235,811,514,1056,546,808,700,626,587,614,450,411,398,729,430,1162,1166,1876,1708,640,565,458,535,495,468,557,878,641,853,515,900,658,743,606,720,380]","trial_type":"fractal-mutation","trial_index":55,"time_elapsed":961086,"internal_node_id":"0.0-5.0-1.0"},{"group":"hexagon_bi","fractal_assignment":["../images/blu_wht.png","../images/org_blu.png","../images/pnk_blu.png","../images/ylw_slt.png","../images/cyn_red.png","../images/gry_blk.png"],"mutagen_generator_assignment":[1,0],"goal":5,"start":3,"action_noise":0,"location_history":"[3,4,3,2,1,0,5]","action_history":"[0,0,1,0,1,0]","mutagen_history":"[1,1,0,1,0,1]","location_rts":"[5584,1335,652,935,965,767]","trial_type":"fractal-mutation","trial_index":56,"time_elapsed":981608,"internal_node_id":"0.0-5.0-2.0"},{"group":"hexagon_bi","fractal_assignment":["../images/blu_wht.png","../images/org_blu.png","../images/pnk_blu.png","../images/ylw_slt.png","../images/cyn_red.png","../images/gry_blk.png"],"mutagen_generator_assignment":[1,0],"goal":2,"start":5,"action_noise":0,"location_history":"[5,4,5,0,5,4,5,0,1,2]","action_history":"[1,1,0,0,1,1,0,1,0]","mutagen_history":"[0,0,1,1,0,0,1,0,1]","location_rts":"[1348,1298,696,643,615,784,419,574,683]","trial_type":"fractal-mutation","trial_index":57,"time_elapsed":1002058,"internal_node_id":"0.0-5.0-3.0"},{"group":"hexagon_bi","fractal_assignment":["../images/blu_wht.png","../images/org_blu.png","../images/pnk_blu.png","../images/ylw_slt.png","../images/cyn_red.png","../images/gry_blk.png"],"mutagen_generator_assignment":[1,0],"goal":1,"start":2,"action_noise":0,"location_history":"[2,3,4,3,2,3,2,1]","action_history":"[1,0,0,1,1,1,0]","mutagen_history":"[0,1,1,0,0,0,1]","location_rts":"[1607,642,704,1032,719,857,706]","trial_type":"fractal-mutation","trial_index":58,"time_elapsed":1019606,"internal_node_id":"0.0-5.0-4.0"},{"group":"hexagon_bi","fractal_assignment":["../images/blu_wht.png","../images/org_blu.png","../images/pnk_blu.png","../images/ylw_slt.png","../images/cyn_red.png","../images/gry_blk.png"],"mutagen_generator_assignment":[1,0],"goal":4,"start":1,"action_noise":0,"location_history":"[1,0,5,4]","action_history":"[1,0,1]","mutagen_history":"[0,1,0]","location_rts":"[1558,633,600]","trial_type":"fractal-mutation","trial_index":59,"time_elapsed":1029528,"internal_node_id":"0.0-5.0-5.0"},{"group":"hexagon_bi","fractal_assignment":["../images/blu_wht.png","../images/org_blu.png","../images/pnk_blu.png","../images/ylw_slt.png","../images/cyn_red.png","../images/gry_blk.png"],"mutagen_generator_assignment":[1,0],"goal":1,"start":4,"action_noise":0,"location_history":"[4,5,0,5,4,5,0,1]","action_history":"[1,0,0,1,1,0,1]","mutagen_history":"[0,1,1,0,0,1,0]","location_rts":"[1399,540,458,1679,1296,1109,593]","trial_type":"fractal-mutation","trial_index":60,"time_elapsed":1047890,"internal_node_id":"0.0-5.0-6.0"},{"group":"hexagon_bi","fractal_assignment":["../images/blu_wht.png","../images/org_blu.png","../images/pnk_blu.png","../images/ylw_slt.png","../images/cyn_red.png","../images/gry_blk.png"],"mutagen_generator_assignment":[1,0],"goal":5,"start":1,"action_noise":0,"location_history":"[1,2,3,2,3,4,3,4,5]","action_history":"[0,1,1,1,0,0,0,1]","mutagen_history":"[1,0,0,0,1,1,1,0]","location_rts":"[709,1334,661,635,821,707,634,864]","trial_type":"fractal-mutation","trial_index":61,"time_elapsed":1066574,"internal_node_id":"0.0-5.0-7.0"},{"group":"hexagon_bi","fractal_assignment":["../images/blu_wht.png","../images/org_blu.png","../images/pnk_blu.png","../images/ylw_slt.png","../images/cyn_red.png","../images/gry_blk.png"],"mutagen_generator_assignment":[1,0],"goal":0,"start":5,"action_noise":0,"location_history":"[5,0]","action_history":"[0]","mutagen_history":"[1]","location_rts":"[1712]","trial_type":"fractal-mutation","trial_index":62,"time_elapsed":1073339,"internal_node_id":"0.0-5.0-8.0"},{"group":"hexagon_bi","fractal_assignment":["../images/blu_wht.png","../images/org_blu.png","../images/pnk_blu.png","../images/ylw_slt.png","../images/cyn_red.png","../images/gry_blk.png"],"mutagen_generator_assignment":[1,0],"goal":2,"start":0,"action_noise":0,"location_history":"[0,5,4,5,0,5,0,5,4,3,4,5,0,1,2]","action_history":"[0,1,1,0,0,0,0,1,0,0,1,0,1,0]","mutagen_history":"[1,0,0,1,1,1,1,0,1,1,0,1,0,1]","location_rts":"[1059,560,867,654,698,549,657,540,971,742,670,531,1075,912]","trial_type":"fractal-mutation","trial_index":63,"time_elapsed":1102440,"internal_node_id":"0.0-5.0-9.0"},{"group":"hexagon_bi","fractal_assignment":["../images/blu_wht.png","../images/org_blu.png","../images/pnk_blu.png","../images/ylw_slt.png","../images/cyn_red.png","../images/gry_blk.png"],"mutagen_generator_assignment":[1,0],"goal":3,"start":2,"action_noise":0,"location_history":"[2,3]","action_history":"[1]","mutagen_history":"[0]","location_rts":"[1398]","trial_type":"fractal-mutation","trial_index":64,"time_elapsed":1108876,"internal_node_id":"0.0-5.0-10.0"},{"group":"hexagon_bi","fractal_assignment":["../images/blu_wht.png","../images/org_blu.png","../images/pnk_blu.png","../images/ylw_slt.png","../images/cyn_red.png","../images/gry_blk.png"],"mutagen_generator_assignment":[1,0],"goal":0,"start":3,"action_noise":0,"location_history":"[3,4,3,2,3,4,3,4,5,4,3,2,1,2,1,0]","action_history":"[0,0,1,1,0,0,0,1,1,0,1,0,0,0,1]","mutagen_history":"[1,1,0,0,1,1,1,0,0,1,0,1,1,1,0]","location_rts":"[1685,884,886,871,970,645,863,502,686,770,906,955,1012,1022,580]","trial_type":"fractal-mutation","trial_index":65,"time_elapsed":1141767,"internal_node_id":"0.0-5.0-11.0"},{"group":"hexagon_bi","fractal_assignment":["../images/blu_wht.png","../images/org_blu.png","../images/pnk_blu.png","../images/ylw_slt.png","../images/cyn_red.png","../images/gry_blk.png"],"mutagen_generator_assignment":[1,0],"goal":2,"start":0,"action_noise":0,"location_history":"[0,1,2]","action_history":"[1,0]","mutagen_history":"[0,1]","location_rts":"[1631,690]","trial_type":"fractal-mutation","trial_index":66,"time_elapsed":1150175,"internal_node_id":"0.0-5.0-12.0"},{"group":"hexagon_bi","fractal_assignment":["../images/blu_wht.png","../images/org_blu.png","../images/pnk_blu.png","../images/ylw_slt.png","../images/cyn_red.png","../images/gry_blk.png"],"mutagen_generator_assignment":[1,0],"goal":5,"start":2,"action_noise":0,"location_history":"[2,1,0,1,2,3,4,5]","action_history":"[0,1,1,0,1,0,1]","mutagen_history":"[1,0,0,1,0,1,0]","location_rts":"[1288,470,549,582,844,873,766]","trial_type":"fractal-mutation","trial_index":67,"time_elapsed":1166842,"internal_node_id":"0.0-5.0-13.0"},{"group":"hexagon_bi","fractal_assignment":["../images/blu_wht.png","../images/org_blu.png","../images/pnk_blu.png","../images/ylw_slt.png","../images/cyn_red.png","../images/gry_blk.png"],"mutagen_generator_assignment":[1,0],"goal":4,"start":5,"action_noise":0,"location_history":"[5,4]","action_history":"[1]","mutagen_history":"[0]","location_rts":"[1964]","trial_type":"fractal-mutation","trial_index":68,"time_elapsed":1173880,"internal_node_id":"0.0-5.0-14.0"},{"group":"hexagon_bi","fractal_assignment":["../images/blu_wht.png","../images/org_blu.png","../images/pnk_blu.png","../images/ylw_slt.png","../images/cyn_red.png","../images/gry_blk.png"],"mutagen_generator_assignment":[1,0],"goal":3,"start":4,"action_noise":0,"location_history":"[4,3]","action_history":"[0]","mutagen_history":"[1]","location_rts":"[1943]","trial_type":"fractal-mutation","trial_index":69,"time_elapsed":1180867,"internal_node_id":"0.0-5.0-15.0"},{"group":"hexagon_bi","fractal_assignment":["../images/blu_wht.png","../images/org_blu.png","../images/pnk_blu.png","../images/ylw_slt.png","../images/cyn_red.png","../images/gry_blk.png"],"mutagen_generator_assignment":[1,0],"goal":1,"start":3,"action_noise":0,"location_history":"[3,2,1]","action_history":"[1,0]","mutagen_history":"[0,1]","location_rts":"[1698,871]","trial_type":"fractal-mutation","trial_index":70,"time_elapsed":1189525,"internal_node_id":"0.0-5.0-16.0"},{"group":"hexagon_bi","fractal_assignment":["../images/blu_wht.png","../images/org_blu.png","../images/pnk_blu.png","../images/ylw_slt.png","../images/cyn_red.png","../images/gry_blk.png"],"mutagen_generator_assignment":[1,0],"goal":5,"start":1,"action_noise":0,"location_history":"[1,2,3,2,1,2,1,0,1,2,3,4,5]","action_history":"[0,1,1,0,0,0,1,1,0,1,0,1]","mutagen_history":"[1,0,0,1,1,1,0,0,1,0,1,0]","location_rts":"[964,1348,499,704,702,829,320,1023,817,1021,1000,1692]","trial_type":"fractal-mutation","trial_index":71,"time_elapsed":1216939,"internal_node_id":"0.0-5.0-17.0"},{"group":"hexagon_bi","fractal_assignment":["../images/blu_wht.png","../images/org_blu.png","../images/pnk_blu.png","../images/ylw_slt.png","../images/cyn_red.png","../images/gry_blk.png"],"mutagen_generator_assignment":[1,0],"goal":4,"start":5,"action_noise":0,"location_history":"[5,4]","action_history":"[1]","mutagen_history":"[0]","location_rts":"[2180]","trial_type":"fractal-mutation","trial_index":72,"time_elapsed":1224162,"internal_node_id":"0.0-5.0-18.0"},{"group":"hexagon_bi","fractal_assignment":["../images/blu_wht.png","../images/org_blu.png","../images/pnk_blu.png","../images/ylw_slt.png","../images/cyn_red.png","../images/gry_blk.png"],"mutagen_generator_assignment":[1,0],"goal":0,"start":4,"action_noise":0,"location_history":"[4,3,2,1,2,1,0]","action_history":"[0,1,0,0,0,1]","mutagen_history":"[1,0,1,1,1,0]","location_rts":"[1791,623,595,827,604,761]","trial_type":"fractal-mutation","trial_index":73,"time_elapsed":1239607,"internal_node_id":"0.0-5.0-19.0"},{"group":"hexagon_bi","fractal_assignment":["../images/blu_wht.png","../images/org_blu.png","../images/pnk_blu.png","../images/ylw_slt.png","../images/cyn_red.png","../images/gry_blk.png"],"mutagen_generator_assignment":[1,0],"goal":1,"start":0,"action_noise":0,"location_history":"[0,1]","action_history":"[1]","mutagen_history":"[0]","location_rts":"[1724]","trial_type":"fractal-mutation","trial_index":74,"time_elapsed":1246386,"internal_node_id":"0.0-5.0-20.0"},{"group":"hexagon_bi","fractal_assignment":["../images/blu_wht.png","../images/org_blu.png","../images/pnk_blu.png","../images/ylw_slt.png","../images/cyn_red.png","../images/gry_blk.png"],"mutagen_generator_assignment":[1,0],"goal":3,"start":1,"action_noise":0,"location_history":"[1,2,3]","action_history":"[0,1]","mutagen_history":"[1,0]","location_rts":"[1342,564]","trial_type":"fractal-mutation","trial_index":75,"time_elapsed":1254383,"internal_node_id":"0.0-5.0-21.0"},{"group":"hexagon_bi","fractal_assignment":["../images/blu_wht.png","../images/org_blu.png","../images/pnk_blu.png","../images/ylw_slt.png","../images/cyn_red.png","../images/gry_blk.png"],"mutagen_generator_assignment":[1,0],"goal":2,"start":3,"action_noise":0,"location_history":"[3,4,5,0,5,4,5,0,5,4,5,0,1,2]","action_history":"[0,1,0,0,1,1,0,0,1,1,0,1,0]","mutagen_history":"[1,0,1,1,0,0,1,1,0,0,1,0,1]","location_rts":"[1291,1133,402,1068,524,1081,640,890,623,387,1072,1900,1196]","trial_type":"fractal-mutation","trial_index":76,"time_elapsed":1284167,"internal_node_id":"0.0-5.0-22.0"},{"group":"hexagon_bi","fractal_assignment":["../images/blu_wht.png","../images/org_blu.png","../images/pnk_blu.png","../images/ylw_slt.png","../images/cyn_red.png","../images/gry_blk.png"],"mutagen_generator_assignment":[1,0],"goal":0,"start":2,"action_noise":0,"location_history":"[2,3,4,5,4,5,0]","action_history":"[1,0,1,1,1,0]","mutagen_history":"[0,1,0,0,0,1]","location_rts":"[1444,1118,1742,876,460,259]","trial_type":"fractal-mutation","trial_index":77,"time_elapsed":1300313,"internal_node_id":"0.0-5.0-23.0"},{"group":"hexagon_bi","fractal_assignment":["../images/blu_wht.png","../images/org_blu.png","../images/pnk_blu.png","../images/ylw_slt.png","../images/cyn_red.png","../images/gry_blk.png"],"mutagen_generator_assignment":[1,0],"goal":3,"start":0,"action_noise":0,"location_history":"[0,5,4,3]","action_history":"[0,1,0]","mutagen_history":"[1,0,1]","location_rts":"[965,519,904]","trial_type":"fractal-mutation","trial_index":78,"time_elapsed":1309829,"internal_node_id":"0.0-5.0-24.0"},{"group":"hexagon_bi","fractal_assignment":["../images/blu_wht.png","../images/org_blu.png","../images/pnk_blu.png","../images/ylw_slt.png","../images/cyn_red.png","../images/gry_blk.png"],"mutagen_generator_assignment":[1,0],"goal":1,"start":3,"action_noise":0,"location_history":"[3,2,1]","action_history":"[1,0]","mutagen_history":"[0,1]","location_rts":"[2020,792]","trial_type":"fractal-mutation","trial_index":79,"time_elapsed":1318729,"internal_node_id":"0.0-5.0-25.0"},{"group":"hexagon_bi","fractal_assignment":["../images/blu_wht.png","../images/org_blu.png","../images/pnk_blu.png","../images/ylw_slt.png","../images/cyn_red.png","../images/gry_blk.png"],"mutagen_generator_assignment":[1,0],"goal":2,"start":1,"action_noise":0,"location_history":"[1,2]","action_history":"[0]","mutagen_history":"[1]","location_rts":"[1269]","trial_type":"fractal-mutation","trial_index":80,"time_elapsed":1325057,"internal_node_id":"0.0-5.0-26.0"},{"group":"hexagon_bi","fractal_assignment":["../images/blu_wht.png","../images/org_blu.png","../images/pnk_blu.png","../images/ylw_slt.png","../images/cyn_red.png","../images/gry_blk.png"],"mutagen_generator_assignment":[1,0],"goal":5,"start":2,"action_noise":0,"location_history":"[2,3,4,5]","action_history":"[1,0,1]","mutagen_history":"[0,1,0]","location_rts":"[1397,544,1170]","trial_type":"fractal-mutation","trial_index":81,"time_elapsed":1335291,"internal_node_id":"0.0-5.0-27.0"},{"group":"hexagon_bi","fractal_assignment":["../images/blu_wht.png","../images/org_blu.png","../images/pnk_blu.png","../images/ylw_slt.png","../images/cyn_red.png","../images/gry_blk.png"],"mutagen_generator_assignment":[1,0],"goal":4,"start":5,"action_noise":0,"location_history":"[5,0,5,4]","action_history":"[0,0,1]","mutagen_history":"[1,1,0]","location_rts":"[1527,1586,404]","trial_type":"fractal-mutation","trial_index":82,"time_elapsed":1345956,"internal_node_id":"0.0-5.0-28.0"},{"group":"hexagon_bi","fractal_assignment":["../images/blu_wht.png","../images/org_blu.png","../images/pnk_blu.png","../images/ylw_slt.png","../images/cyn_red.png","../images/gry_blk.png"],"mutagen_generator_assignment":[1,0],"goal":5,"start":4,"action_noise":0,"location_history":"[4,5]","action_history":"[1]","mutagen_history":"[0]","location_rts":"[2233]","trial_type":"fractal-mutation","trial_index":83,"time_elapsed":1353227,"internal_node_id":"0.0-5.0-29.0"},{"group":"hexagon_bi","fractal_assignment":["../images/blu_wht.png","../images/org_blu.png","../images/pnk_blu.png","../images/ylw_slt.png","../images/cyn_red.png","../images/gry_blk.png"],"mutagen_generator_assignment":[1,0],"goal":3,"start":5,"action_noise":0,"location_history":"[5,0,5,0,1,2,3]","action_history":"[0,0,0,1,0,1]","mutagen_history":"[1,1,1,0,1,0]","location_rts":"[1638,984,425,307,657,1751]","trial_type":"fractal-mutation","trial_index":84,"time_elapsed":1369247,"internal_node_id":"0.0-5.0-30.0"},{"group":"hexagon_bi","fractal_assignment":["../images/blu_wht.png","../images/org_blu.png","../images/pnk_blu.png","../images/ylw_slt.png","../images/cyn_red.png","../images/gry_blk.png"],"mutagen_generator_assignment":[1,0],"goal":0,"start":3,"action_noise":0,"location_history":"[3,4,5,4,3,4,5,4,5,0]","action_history":"[0,1,1,0,0,1,1,1,0]","mutagen_history":"[1,0,0,1,1,0,0,0,1]","location_rts":"[2015,1124,965,635,835,953,532,4102,31]","trial_type":"fractal-mutation","trial_index":85,"time_elapsed":1393848,"internal_node_id":"0.0-5.0-31.0"},{"group":"hexagon_bi","fractal_assignment":["../images/blu_wht.png","../images/org_blu.png","../images/pnk_blu.png","../images/ylw_slt.png","../images/cyn_red.png","../images/gry_blk.png"],"mutagen_generator_assignment":[1,0],"goal":4,"start":0,"action_noise":0,"location_history":"[0,1,2,1,0,1,2,1,2,3,4]","action_history":"[1,0,0,1,1,0,0,0,1,0]","mutagen_history":"[0,1,1,0,0,1,1,1,0,1]","location_rts":"[1975,706,898,698,866,1598,632,952,491,948]","trial_type":"fractal-mutation","trial_index":86,"time_elapsed":1418051,"internal_node_id":"0.0-5.0-32.0"},{"group":"hexagon_bi","fractal_assignment":["../images/blu_wht.png","../images/org_blu.png","../images/pnk_blu.png","../images/ylw_slt.png","../images/cyn_red.png","../images/gry_blk.png"],"mutagen_generator_assignment":[1,0],"goal":1,"start":4,"action_noise":0,"location_history":"[4,5,0,5,4,5,0,1]","action_history":"[1,0,0,1,1,0,1]","mutagen_history":"[0,1,1,0,0,1,0]","location_rts":"[1478,711,759,464,1392,414,1024]","trial_type":"fractal-mutation","trial_index":87,"time_elapsed":1435547,"internal_node_id":"0.0-5.0-33.0"},{"group":"hexagon_bi","fractal_assignment":["../images/blu_wht.png","../images/org_blu.png","../images/pnk_blu.png","../images/ylw_slt.png","../images/cyn_red.png","../images/gry_blk.png"],"mutagen_generator_assignment":[1,0],"goal":2,"start":1,"action_noise":0,"location_history":"[1,2]","action_history":"[0]","mutagen_history":"[1]","location_rts":"[1248]","trial_type":"fractal-mutation","trial_index":88,"time_elapsed":1441868,"internal_node_id":"0.0-5.0-34.0"},{"group":"hexagon_bi","fractal_assignment":["../images/blu_wht.png","../images/org_blu.png","../images/pnk_blu.png","../images/ylw_slt.png","../images/cyn_red.png","../images/gry_blk.png"],"mutagen_generator_assignment":[1,0],"goal":0,"start":2,"action_noise":0,"location_history":"[2,3,4,5,0]","action_history":"[1,0,1,0]","mutagen_history":"[0,1,0,1]","location_rts":"[803,758,966,839]","trial_type":"fractal-mutation","trial_index":89,"time_elapsed":1453393,"internal_node_id":"0.0-5.0-35.0"},{"group":"hexagon_bi","fractal_assignment":["../images/blu_wht.png","../images/org_blu.png","../images/pnk_blu.png","../images/ylw_slt.png","../images/cyn_red.png","../images/gry_blk.png"],"mutagen_generator_assignment":[1,0],"goal":5,"start":0,"action_noise":0,"location_history":"[0,1,2,1,0,5]","action_history":"[1,0,0,1,0]","mutagen_history":"[0,1,1,0,1]","location_rts":"[1983,621,829,599,1133]","trial_type":"fractal-mutation","trial_index":90,"time_elapsed":1467791,"internal_node_id":"0.0-5.0-36.0"},{"group":"hexagon_bi","fractal_assignment":["../images/blu_wht.png","../images/org_blu.png","../images/pnk_blu.png","../images/ylw_slt.png","../images/cyn_red.png","../images/gry_blk.png"],"mutagen_generator_assignment":[1,0],"goal":2,"start":5,"action_noise":0,"location_history":"[5,4,3,2]","action_history":"[1,0,1]","mutagen_history":"[0,1,0]","location_rts":"[1772,814,630]","trial_type":"fractal-mutation","trial_index":91,"time_elapsed":1478116,"internal_node_id":"0.0-5.0-37.0"},{"group":"hexagon_bi","fractal_assignment":["../images/blu_wht.png","../images/org_blu.png","../images/pnk_blu.png","../images/ylw_slt.png","../images/cyn_red.png","../images/gry_blk.png"],"mutagen_generator_assignment":[1,0],"goal":1,"start":2,"action_noise":0,"location_history":"[2,1]","action_history":"[0]","mutagen_history":"[1]","location_rts":"[1982]","trial_type":"fractal-mutation","trial_index":92,"time_elapsed":1485143,"internal_node_id":"0.0-5.0-38.0"},{"group":"hexagon_bi","fractal_assignment":["../images/blu_wht.png","../images/org_blu.png","../images/pnk_blu.png","../images/ylw_slt.png","../images/cyn_red.png","../images/gry_blk.png"],"mutagen_generator_assignment":[1,0],"goal":4,"start":1,"action_noise":0,"location_history":"[1,0,5,4]","action_history":"[1,0,1]","mutagen_history":"[0,1,0]","location_rts":"[1031,503,449]","trial_type":"fractal-mutation","trial_index":93,"time_elapsed":1494248,"internal_node_id":"0.0-5.0-39.0"},{"group":"hexagon_bi","fractal_assignment":["../images/blu_wht.png","../images/org_blu.png","../images/pnk_blu.png","../images/ylw_slt.png","../images/cyn_red.png","../images/gry_blk.png"],"mutagen_generator_assignment":[1,0],"goal":3,"start":4,"action_noise":0,"location_history":"[4,3]","action_history":"[0]","mutagen_history":"[1]","location_rts":"[1081]","trial_type":"fractal-mutation","trial_index":94,"time_elapsed":1500380,"internal_node_id":"0.0-5.0-40.0"},{"group":"hexagon_bi","fractal_assignment":["../images/blu_wht.png","../images/org_blu.png","../images/pnk_blu.png","../images/ylw_slt.png","../images/cyn_red.png","../images/gry_blk.png"],"mutagen_generator_assignment":[1,0],"goal":5,"start":3,"action_noise":0,"location_history":"[3,2,1,0,5]","action_history":"[1,0,1,0]","mutagen_history":"[0,1,0,1]","location_rts":"[1538,528,599,622]","trial_type":"fractal-mutation","trial_index":95,"time_elapsed":1511842,"internal_node_id":"0.0-5.0-41.0"},{"group":"hexagon_bi","fractal_assignment":["../images/blu_wht.png","../images/org_blu.png","../images/pnk_blu.png","../images/ylw_slt.png","../images/cyn_red.png","../images/gry_blk.png"],"mutagen_generator_assignment":[1,0],"goal":3,"start":5,"action_noise":0,"location_history":"[5,4,3]","action_history":"[1,0]","mutagen_history":"[0,1]","location_rts":"[1407,515]","trial_type":"fractal-mutation","trial_index":96,"time_elapsed":1519863,"internal_node_id":"0.0-5.0-42.0"},{"group":"hexagon_bi","fractal_assignment":["../images/blu_wht.png","../images/org_blu.png","../images/pnk_blu.png","../images/ylw_slt.png","../images/cyn_red.png","../images/gry_blk.png"],"mutagen_generator_assignment":[1,0],"goal":0,"start":3,"action_noise":0,"location_history":"[3,4,5,0]","action_history":"[0,1,0]","mutagen_history":"[1,0,1]","location_rts":"[1402,497,546]","trial_type":"fractal-mutation","trial_index":97,"time_elapsed":1529444,"internal_node_id":"0.0-5.0-43.0"},{"group":"hexagon_bi","fractal_assignment":["../images/blu_wht.png","../images/org_blu.png","../images/pnk_blu.png","../images/ylw_slt.png","../images/cyn_red.png","../images/gry_blk.png"],"mutagen_generator_assignment":[1,0],"goal":2,"start":0,"action_noise":0,"location_history":"[0,5,4,3,2]","action_history":"[0,1,0,1]","mutagen_history":"[1,0,1,0]","location_rts":"[921,548,483,1086]","trial_type":"fractal-mutation","trial_index":98,"time_elapsed":1540667,"internal_node_id":"0.0-5.0-44.0"},{"group":"hexagon_bi","fractal_assignment":["../images/blu_wht.png","../images/org_blu.png","../images/pnk_blu.png","../images/ylw_slt.png","../images/cyn_red.png","../images/gry_blk.png"],"mutagen_generator_assignment":[1,0],"goal":4,"start":2,"action_noise":0,"location_history":"[2,3,4]","action_history":"[1,0]","mutagen_history":"[0,1]","location_rts":"[1274,550]","trial_type":"fractal-mutation","trial_index":99,"time_elapsed":1548581,"internal_node_id":"0.0-5.0-45.0"},{"group":"hexagon_bi","fractal_assignment":["../images/blu_wht.png","../images/org_blu.png","../images/pnk_blu.png","../images/ylw_slt.png","../images/cyn_red.png","../images/gry_blk.png"],"mutagen_generator_assignment":[1,0],"goal":1,"start":4,"action_noise":0,"location_history":"[4,3,2,1]","action_history":"[0,1,0]","mutagen_history":"[1,0,1]","location_rts":"[1138,481,567]","trial_type":"fractal-mutation","trial_index":100,"time_elapsed":1557908,"internal_node_id":"0.0-5.0-46.0"},{"group":"hexagon_bi","fractal_assignment":["../images/blu_wht.png","../images/org_blu.png","../images/pnk_blu.png","../images/ylw_slt.png","../images/cyn_red.png","../images/gry_blk.png"],"mutagen_generator_assignment":[1,0],"goal":4,"start":1,"action_noise":0,"location_history":"[1,0,5,4]","action_history":"[1,0,1]","mutagen_history":"[0,1,0]","location_rts":"[923,474,440]","trial_type":"fractal-mutation","trial_index":101,"time_elapsed":1566877,"internal_node_id":"0.0-5.0-47.0"},{"group":"hexagon_bi","fractal_assignment":["../images/blu_wht.png","../images/org_blu.png","../images/pnk_blu.png","../images/ylw_slt.png","../images/cyn_red.png","../images/gry_blk.png"],"mutagen_generator_assignment":[1,0],"goal":3,"start":4,"action_noise":0,"location_history":"[4,3]","action_history":"[0]","mutagen_history":"[1]","location_rts":"[1342]","trial_type":"fractal-mutation","trial_index":102,"time_elapsed":1573268,"internal_node_id":"0.0-5.0-48.0"},{"group":"hexagon_bi","fractal_assignment":["../images/blu_wht.png","../images/org_blu.png","../images/pnk_blu.png","../images/ylw_slt.png","../images/cyn_red.png","../images/gry_blk.png"],"mutagen_generator_assignment":[1,0],"goal":5,"start":3,"action_noise":0,"location_history":"[3,2,1,0,5]","action_history":"[1,0,1,0]","mutagen_history":"[0,1,0,1]","location_rts":"[1365,468,430,394]","trial_type":"fractal-mutation","trial_index":103,"time_elapsed":1584103,"internal_node_id":"0.0-5.0-49.0"},{"view_history":"[{\"page_index\":0,\"viewing_time\":8838}]","rt":8838,"trial_type":"instructions","trial_index":104,"time_elapsed":1593941,"internal_node_id":"0.0-6.0"},{"rt":1924,"responses":"{\"Q0\":\"\"}","trial_type":"survey-text","trial_index":105,"time_elapsed":1596872,"internal_node_id":"0.0-7.0"}]