[{"view_history":"[{\"page_index\":0,\"viewing_time\":5098},{\"page_index\":1,\"viewing_time\":8896},{\"page_index\":2,\"viewing_time\":24251}]","rt":38246,"trial_type":"instructions","trial_index":0,"time_elapsed":38248,"internal_node_id":"0.0-0.0"},{"view_history":"[{\"page_index\":0,\"viewing_time\":1650},{\"page_index\":1,\"viewing_time\":10755}]","rt":12406,"trial_type":"instructions","trial_index":1,"time_elapsed":51660,"internal_node_id":"0.0-1.0"},{"group":"hexagon_tri","room_assignment":["yellow","red","purple","blue","grey","green"],"door_color_assignment":["white","black"],"door_generator_assignment":[0,1],"goal":4,"start":0,"action_noise":0,"location_history":"[0,5,0,1,3,2,3,2,1,3,2,1,5,4]","action_history":"[0,1,1,0,0,1,0,0,0,0,0,1,0]","door_history":"[0,1,1,0,0,1,0,0,0,0,0,1,0]","location_rts":"[3227,956,730,900,824,603,440,606,523,900,681,282,1349]","trial_type":"two-door-navigation","trial_index":2,"time_elapsed":81889,"internal_node_id":"0.0-2.0-0.0"},{"group":"hexagon_tri","room_assignment":["yellow","red","purple","blue","grey","green"],"door_color_assignment":["white","black"],"door_generator_assignment":[0,1],"goal":3,"start":4,"action_noise":0,"location_history":"[4,0,1,3]","action_history":"[0,1,0]","door_history":"[0,1,0]","location_rts":"[2265,513,522]","trial_type":"two-door-navigation","trial_index":3,"time_elapsed":92360,"internal_node_id":"0.0-2.0-1.0"},{"group":"hexagon_tri","room_assignment":["yellow","red","purple","blue","grey","green"],"door_color_assignment":["white","black"],"door_generator_assignment":[0,1],"goal":5,"start":3,"action_noise":0,"location_history":"[3,2,3,4,0,5]","action_history":"[0,1,1,0,0]","door_history":"[0,1,1,0,0]","location_rts":"[8778,700,606,720,539]","trial_type":"two-door-navigation","trial_index":4,"time_elapsed":114384,"internal_node_id":"0.0-2.0-2.0"},{"group":"hexagon_tri","room_assignment":["yellow","red","purple","blue","grey","green"],"door_color_assignment":["white","black"],"door_generator_assignment":[0,1],"goal":2,"start":5,"action_noise":0,"location_history":"[5,0,1,3,2]","action_history":"[1,1,0,0]","door_history":"[1,1,0,0]","location_rts":"[1555,803,898,513]","trial_type":"two-door-navigation","trial_index":5,"time_elapsed":126361,"internal_node_id":"0.0-2.0-3.0"},{"group":"hexagon_tri","room_assignment":["yellow","red","purple","blue","grey","green"],"door_color_assignment":["white","black"],"door_generator_assignment":[0,1],"goal":1,"start":2,"action_noise":0,"location_history":"[2,3,4,0,5,4,0,1]","action_history":"[1,1,0,0,0,0,1]","door_history":"[1,1,0,0,0,0,1]","location_rts":"[1531,330,977,570,493,458,424]","trial_type":"two-door-navigation","trial_index":6,"time_elapsed":142599,"internal_node_id":"0.0-2.0-4.0"},{"group":"hexagon_tri","room_assignment":["yellow","red","purple","blue","grey","green"],"door_color_assignment":["white","black"],"door_generator_assignment":[0,1],"goal":4,"start":1,"action_noise":0,"location_history":"[1,3,2,1,3,2,3,2,1,5,4]","action_history":"[0,0,0,0,0,1,0,0,1,0]","door_history":"[0,0,0,0,0,1,0,0,1,0]","location_rts":"[1913,282,310,331,514,661,534,448,613,690]","trial_type":"two-door-navigation","trial_index":7,"time_elapsed":163800,"internal_node_id":"0.0-2.0-5.0"},{"group":"hexagon_tri","room_assignment":["yellow","red","purple","blue","grey","green"],"door_color_assignment":["white","black"],"door_generator_assignment":[0,1],"goal":1,"start":4,"action_noise":0,"location_history":"[4,2,3,4,0,5,4,2,1]","action_history":"[1,1,1,0,0,0,1,0]","door_history":"[1,1,1,0,0,0,1,0]","location_rts":"[2658,663,685,821,371,447,605,544]","trial_type":"two-door-navigation","trial_index":8,"time_elapsed":183360,"internal_node_id":"0.0-2.0-6.0"},{"group":"hexagon_tri","room_assignment":["yellow","red","purple","blue","grey","green"],"door_color_assignment":["white","black"],"door_generator_assignment":[0,1],"goal":5,"start":1,"action_noise":0,"location_history":"[1,5]","action_history":"[1]","door_history":"[1]","location_rts":"[1396]","trial_type":"two-door-navigation","trial_index":9,"time_elapsed":189815,"internal_node_id":"0.0-2.0-7.0"},{"group":"hexagon_tri","room_assignment":["yellow","red","purple","blue","grey","green"],"door_color_assignment":["white","black"],"door_generator_assignment":[0,1],"goal":0,"start":5,"action_noise":0,"location_history":"[5,0]","action_history":"[1]","door_history":"[1]","location_rts":"[1686]","trial_type":"two-door-navigation","trial_index":10,"time_elapsed":196796,"internal_node_id":"0.0-2.0-8.0"},{"group":"hexagon_tri","room_assignment":["yellow","red","purple","blue","grey","green"],"door_color_assignment":["white","black"],"door_generator_assignment":[0,1],"goal":2,"start":0,"action_noise":0,"location_history":"[0,5,4,2]","action_history":"[0,0,1]","door_history":"[0,0,1]","location_rts":"[1485,530,1133]","trial_type":"two-door-navigation","trial_index":11,"time_elapsed":207140,"internal_node_id":"0.0-2.0-9.0"},{"group":"hexagon_tri","room_assignment":["yellow","red","purple","blue","grey","green"],"door_color_assignment":["white","black"],"door_generator_assignment":[0,1],"goal":3,"start":2,"action_noise":0,"location_history":"[2,3]","action_history":"[1]","door_history":"[1]","location_rts":"[849]","trial_type":"two-door-navigation","trial_index":12,"time_elapsed":213059,"internal_node_id":"0.0-2.0-10.0"},{"group":"hexagon_tri","room_assignment":["yellow","red","purple","blue","grey","green"],"door_color_assignment":["white","black"],"door_generator_assignment":[0,1],"goal":0,"start":3,"action_noise":0,"location_history":"[3,2,1,3,4,0]","action_history":"[0,0,0,1,0]","door_history":"[0,0,0,1,0]","location_rts":"[1418,436,418,917,398]","trial_type":"two-door-navigation","trial_index":13,"time_elapsed":226280,"internal_node_id":"0.0-2.0-11.0"},{"group":"hexagon_tri","room_assignment":["yellow","red","purple","blue","grey","green"],"door_color_assignment":["white","black"],"door_generator_assignment":[0,1],"goal":2,"start":0,"action_noise":0,"location_history":"[0,1,3,2]","action_history":"[1,0,0]","door_history":"[1,0,0]","location_rts":"[1279,625,460]","trial_type":"two-door-navigation","trial_index":14,"time_elapsed":235991,"internal_node_id":"0.0-2.0-12.0"},{"group":"hexagon_tri","room_assignment":["yellow","red","purple","blue","grey","green"],"door_color_assignment":["white","black"],"door_generator_assignment":[0,1],"goal":5,"start":2,"action_noise":0,"location_history":"[2,1,5]","action_history":"[0,1]","door_history":"[0,1]","location_rts":"[1369,657]","trial_type":"two-door-navigation","trial_index":15,"time_elapsed":244175,"internal_node_id":"0.0-2.0-13.0"},{"group":"hexagon_tri","room_assignment":["yellow","red","purple","blue","grey","green"],"door_color_assignment":["white","black"],"door_generator_assignment":[0,1],"goal":4,"start":5,"action_noise":0,"location_history":"[5,0,5,4]","action_history":"[1,0,0]","door_history":"[1,0,0]","location_rts":"[1656,444,740]","trial_type":"two-door-navigation","trial_index":16,"time_elapsed":254222,"internal_node_id":"0.0-2.0-14.0"},{"group":"hexagon_tri","room_assignment":["yellow","red","purple","blue","grey","green"],"door_color_assignment":["white","black"],"door_generator_assignment":[0,1],"goal":3,"start":4,"action_noise":0,"location_history":"[4,2,1,3]","action_history":"[1,0,0]","door_history":"[1,0,0]","location_rts":"[1266,1089,446]","trial_type":"two-door-navigation","trial_index":17,"time_elapsed":264478,"internal_node_id":"0.0-2.0-15.0"},{"group":"hexagon_tri","room_assignment":["yellow","red","purple","blue","grey","green"],"door_color_assignment":["white","black"],"door_generator_assignment":[0,1],"goal":1,"start":3,"action_noise":0,"location_history":"[3,4,0,5,4,2,1]","action_history":"[1,0,0,0,1,0]","door_history":"[1,0,0,0,1,0]","location_rts":"[1930,723,394,753,690,790]","trial_type":"two-door-navigation","trial_index":18,"time_elapsed":280139,"internal_node_id":"0.0-2.0-16.0"},{"group":"hexagon_tri","room_assignment":["yellow","red","purple","blue","grey","green"],"door_color_assignment":["white","black"],"door_generator_assignment":[0,1],"goal":5,"start":1,"action_noise":0,"location_history":"[1,3,4,2,1,3,2,3,4,2,1,3,4,0,5]","action_history":"[0,1,1,0,0,0,1,1,1,0,0,1,0,0]","door_history":"[0,1,1,0,0,0,1,1,1,0,0,1,0,0]","location_rts":"[3215,634,589,546,380,453,565,1440,574,950,1076,545,539,603]","trial_type":"two-door-navigation","trial_index":19,"time_elapsed":311428,"internal_node_id":"0.0-2.0-17.0"},{"group":"hexagon_tri","room_assignment":["yellow","red","purple","blue","grey","green"],"door_color_assignment":["white","black"],"door_generator_assignment":[0,1],"goal":4,"start":5,"action_noise":0,"location_history":"[5,4]","action_history":"[0]","door_history":"[0]","location_rts":"[2084]","trial_type":"two-door-navigation","trial_index":20,"time_elapsed":318591,"internal_node_id":"0.0-2.0-18.0"},{"group":"hexagon_tri","room_assignment":["yellow","red","purple","blue","grey","green"],"door_color_assignment":["white","black"],"door_generator_assignment":[0,1],"goal":0,"start":4,"action_noise":0,"location_history":"[4,0]","action_history":"[0]","door_history":"[0]","location_rts":"[1914]","trial_type":"two-door-navigation","trial_index":21,"time_elapsed":325572,"internal_node_id":"0.0-2.0-19.0"},{"group":"hexagon_tri","room_assignment":["yellow","red","purple","blue","grey","green"],"door_color_assignment":["white","black"],"door_generator_assignment":[0,1],"goal":1,"start":0,"action_noise":0,"location_history":"[0,1]","action_history":"[1]","door_history":"[1]","location_rts":"[1671]","trial_type":"two-door-navigation","trial_index":22,"time_elapsed":332585,"internal_node_id":"0.0-2.0-20.0"},{"group":"hexagon_tri","room_assignment":["yellow","red","purple","blue","grey","green"],"door_color_assignment":["white","black"],"door_generator_assignment":[0,1],"goal":3,"start":1,"action_noise":0,"location_history":"[1,3]","action_history":"[0]","door_history":"[0]","location_rts":"[3509]","trial_type":"two-door-navigation","trial_index":23,"time_elapsed":341175,"internal_node_id":"0.0-2.0-21.0"},{"group":"hexagon_tri","room_assignment":["yellow","red","purple","blue","grey","green"],"door_color_assignment":["white","black"],"door_generator_assignment":[0,1],"goal":2,"start":3,"action_noise":0,"location_history":"[3,4,0,5,4,0,1,3,2]","action_history":"[1,0,0,0,0,1,0,0]","door_history":"[1,0,0,0,0,1,0,0]","location_rts":"[1800,628,463,368,483,747,360,377]","trial_type":"two-door-navigation","trial_index":24,"time_elapsed":359226,"internal_node_id":"0.0-2.0-22.0"},{"group":"hexagon_tri","room_assignment":["yellow","red","purple","blue","grey","green"],"door_color_assignment":["white","black"],"door_generator_assignment":[0,1],"goal":0,"start":2,"action_noise":0,"location_history":"[2,1,5,4,0]","action_history":"[0,1,0,0]","door_history":"[0,1,0,0]","location_rts":"[934,650,342,374]","trial_type":"two-door-navigation","trial_index":25,"time_elapsed":370055,"internal_node_id":"0.0-2.0-23.0"},{"group":"hexagon_tri","room_assignment":["yellow","red","purple","blue","grey","green"],"door_color_assignment":["white","black"],"door_generator_assignment":[0,1],"goal":3,"start":0,"action_noise":0,"location_history":"[0,1,5,4,0,5,4,2,1,3]","action_history":"[1,1,0,0,0,0,1,0,0]","door_history":"[1,1,0,0,0,0,1,0,0]","location_rts":"[925,418,1183,701,342,936,344,264,362]","trial_type":"two-door-navigation","trial_index":26,"time_elapsed":389350,"internal_node_id":"0.0-2.0-24.0"},{"group":"hexagon_tri","room_assignment":["yellow","red","purple","blue","grey","green"],"door_color_assignment":["white","black"],"door_generator_assignment":[0,1],"goal":1,"start":3,"action_noise":0,"location_history":"[3,2,1]","action_history":"[0,0]","door_history":"[0,0]","location_rts":"[1352,426]","trial_type":"two-door-navigation","trial_index":27,"time_elapsed":397272,"internal_node_id":"0.0-2.0-25.0"},{"group":"hexagon_tri","room_assignment":["yellow","red","purple","blue","grey","green"],"door_color_assignment":["white","black"],"door_generator_assignment":[0,1],"goal":2,"start":1,"action_noise":0,"location_history":"[1,5,4,0,5,0,5,4,0,5,0,5,4,2]","action_history":"[1,0,0,0,1,0,0,0,0,1,0,0,1]","door_history":"[1,0,0,0,1,0,0,0,0,1,0,0,1]","location_rts":"[1530,578,856,412,345,208,297,368,357,242,250,533,543]","trial_type":"two-door-navigation","trial_index":28,"time_elapsed":421978,"internal_node_id":"0.0-2.0-26.0"},{"group":"hexagon_tri","room_assignment":["yellow","red","purple","blue","grey","green"],"door_color_assignment":["white","black"],"door_generator_assignment":[0,1],"goal":5,"start":2,"action_noise":0,"location_history":"[2,3,2,3,4,2,1,3,2,1,5]","action_history":"[1,0,1,1,1,0,0,0,0,1]","door_history":"[1,0,1,1,1,0,0,0,0,1]","location_rts":"[1742,759,922,535,400,352,386,482,401,373]","trial_type":"two-door-navigation","trial_index":29,"time_elapsed":443513,"internal_node_id":"0.0-2.0-27.0"},{"group":"hexagon_tri","room_assignment":["yellow","red","purple","blue","grey","green"],"door_color_assignment":["white","black"],"door_generator_assignment":[0,1],"goal":4,"start":5,"action_noise":0,"location_history":"[5,0,5,4]","action_history":"[1,0,0]","door_history":"[1,0,0]","location_rts":"[2161,839,458]","trial_type":"two-door-navigation","trial_index":30,"time_elapsed":454193,"internal_node_id":"0.0-2.0-28.0"},{"group":"hexagon_tri","room_assignment":["yellow","red","purple","blue","grey","green"],"door_color_assignment":["white","black"],"door_generator_assignment":[0,1],"goal":5,"start":4,"action_noise":0,"location_history":"[4,2,1,3,2,3,2,1,3,2,3,2,3,4,2,3,2,1,3,4,0,5]","action_history":"[1,0,0,0,1,0,0,0,0,1,0,1,1,1,1,0,0,0,1,0,0]","door_history":"[1,0,0,0,1,0,0,0,0,1,0,1,1,1,1,0,0,0,1,0,0]","location_rts":"[834,537,398,447,298,254,351,400,416,863,395,551,336,776,657,673,381,363,683,344,943]","trial_type":"two-door-navigation","trial_index":31,"time_elapsed":492389,"internal_node_id":"0.0-2.0-29.0"},{"group":"hexagon_tri","room_assignment":["yellow","red","purple","blue","grey","green"],"door_color_assignment":["white","black"],"door_generator_assignment":[0,1],"goal":3,"start":5,"action_noise":0,"location_history":"[5,0,5,4,0,5,0,1,5,0,1,3]","action_history":"[1,0,0,0,0,1,1,1,1,1,0]","door_history":"[1,0,0,0,0,1,1,1,1,1,0]","location_rts":"[1645,738,353,477,482,457,295,492,532,368,635]","trial_type":"two-door-navigation","trial_index":32,"time_elapsed":514755,"internal_node_id":"0.0-2.0-30.0"},{"group":"hexagon_tri","room_assignment":["yellow","red","purple","blue","grey","green"],"door_color_assignment":["white","black"],"door_generator_assignment":[0,1],"goal":0,"start":3,"action_noise":0,"location_history":"[3,2,3,4,0]","action_history":"[0,1,1,0]","door_history":"[0,1,1,0]","location_rts":"[2045,617,1663,539]","trial_type":"two-door-navigation","trial_index":33,"time_elapsed":527843,"internal_node_id":"0.0-2.0-31.0"},{"group":"hexagon_tri","room_assignment":["yellow","red","purple","blue","grey","green"],"door_color_assignment":["white","black"],"door_generator_assignment":[0,1],"goal":4,"start":0,"action_noise":0,"location_history":"[0,5,0,1,5,4]","action_history":"[0,1,1,1,0]","door_history":"[0,1,1,1,0]","location_rts":"[1417,897,1129,1401,397]","trial_type":"two-door-navigation","trial_index":34,"time_elapsed":542635,"internal_node_id":"0.0-2.0-32.0"},{"group":"hexagon_tri","room_assignment":["yellow","red","purple","blue","grey","green"],"door_color_assignment":["white","black"],"door_generator_assignment":[0,1],"goal":1,"start":4,"action_noise":0,"location_history":"[4,2,3,2,3,4,0,5,4,0,1]","action_history":"[1,1,0,1,1,0,0,0,0,1]","door_history":"[1,1,0,1,1,0,0,0,0,1]","location_rts":"[1545,452,717,1357,441,754,610,724,557,492]","trial_type":"two-door-navigation","trial_index":35,"time_elapsed":565252,"internal_node_id":"0.0-2.0-33.0"},{"group":"hexagon_tri","room_assignment":["yellow","red","purple","blue","grey","green"],"door_color_assignment":["white","black"],"door_generator_assignment":[0,1],"goal":2,"start":1,"action_noise":0,"location_history":"[1,5,0,5,4,2]","action_history":"[1,1,0,0,1]","door_history":"[1,1,0,0,1]","location_rts":"[1209,558,358,432,399]","trial_type":"two-door-navigation","trial_index":36,"time_elapsed":577776,"internal_node_id":"0.0-2.0-34.0"},{"group":"hexagon_tri","room_assignment":["yellow","red","purple","blue","grey","green"],"door_color_assignment":["white","black"],"door_generator_assignment":[0,1],"goal":0,"start":2,"action_noise":0,"location_history":"[2,1,3,2,3,2,1,5,0]","action_history":"[0,0,0,1,0,0,1,1]","door_history":"[0,0,0,1,0,0,1,1]","location_rts":"[894,391,1007,849,318,397,317,374]","trial_type":"two-door-navigation","trial_index":37,"time_elapsed":595036,"internal_node_id":"0.0-2.0-35.0"},{"group":"hexagon_tri","room_assignment":["yellow","red","purple","blue","grey","green"],"door_color_assignment":["white","black"],"door_generator_assignment":[0,1],"goal":5,"start":0,"action_noise":0,"location_history":"[0,1,3,4,2,3,2,3,4,2,1,3,2,3,4,0,5]","action_history":"[1,0,1,1,1,0,1,1,1,0,0,0,1,1,0,0]","door_history":"[1,0,1,1,1,0,1,1,1,0,0,0,1,1,0,0]","location_rts":"[1112,877,655,259,465,695,794,241,1148,353,230,793,1151,812,364,793]","trial_type":"two-door-navigation","trial_index":38,"time_elapsed":627175,"internal_node_id":"0.0-2.0-36.0"},{"group":"hexagon_tri","room_assignment":["yellow","red","purple","blue","grey","green"],"door_color_assignment":["white","black"],"door_generator_assignment":[0,1],"goal":2,"start":5,"action_noise":0,"location_history":"[5,4,2]","action_history":"[0,1]","door_history":"[0,1]","location_rts":"[861,467]","trial_type":"two-door-navigation","trial_index":39,"time_elapsed":634645,"internal_node_id":"0.0-2.0-37.0"},{"group":"hexagon_tri","room_assignment":["yellow","red","purple","blue","grey","green"],"door_color_assignment":["white","black"],"door_generator_assignment":[0,1],"goal":1,"start":2,"action_noise":0,"location_history":"[2,3,2,3,4,0,5,0,5,4,2,3,4,0,5,4,0,1]","action_history":"[1,0,1,1,0,0,1,0,0,1,1,1,0,0,0,0,1]","door_history":"[1,0,1,1,0,0,1,0,0,1,1,1,0,0,0,0,1]","location_rts":"[948,475,599,310,639,49,1064,606,260,398,371,640,642,239,254,845,712]","trial_type":"two-door-navigation","trial_index":40,"time_elapsed":666452,"internal_node_id":"0.0-2.0-38.0"},{"group":"hexagon_tri","room_assignment":["yellow","red","purple","blue","grey","green"],"door_color_assignment":["white","black"],"door_generator_assignment":[0,1],"goal":4,"start":1,"action_noise":0,"location_history":"[1,5,4]","action_history":"[1,0]","door_history":"[1,0]","location_rts":"[2223,480]","trial_type":"two-door-navigation","trial_index":41,"time_elapsed":675303,"internal_node_id":"0.0-2.0-39.0"},{"group":"hexagon_tri","room_assignment":["yellow","red","purple","blue","grey","green"],"door_color_assignment":["white","black"],"door_generator_assignment":[0,1],"goal":3,"start":4,"action_noise":0,"location_history":"[4,2,1,5,4,2,3]","action_history":"[1,0,1,0,1,1]","door_history":"[1,0,1,0,1,1]","location_rts":"[289,987,1299,658,788,373]","trial_type":"two-door-navigation","trial_index":42,"time_elapsed":690333,"internal_node_id":"0.0-2.0-40.0"},{"group":"hexagon_tri","room_assignment":["yellow","red","purple","blue","grey","green"],"door_color_assignment":["white","black"],"door_generator_assignment":[0,1],"goal":5,"start":3,"action_noise":0,"location_history":"[3,4,0,5]","action_history":"[1,0,0]","door_history":"[1,0,0]","location_rts":"[285,554,332]","trial_type":"two-door-navigation","trial_index":43,"time_elapsed":698723,"internal_node_id":"0.0-2.0-41.0"},{"group":"hexagon_tri","room_assignment":["yellow","red","purple","blue","grey","green"],"door_color_assignment":["white","black"],"door_generator_assignment":[0,1],"goal":3,"start":5,"action_noise":0,"location_history":"[5,4,2,1,5,0,5,0,1,3]","action_history":"[0,1,0,1,1,0,1,1,0]","door_history":"[0,1,0,1,1,0,1,1,0]","location_rts":"[560,861,580,577,516,636,5542,5969,932]","trial_type":"two-door-navigation","trial_index":44,"time_elapsed":728504,"internal_node_id":"0.0-2.0-42.0"},{"group":"hexagon_tri","room_assignment":["yellow","red","purple","blue","grey","green"],"door_color_assignment":["white","black"],"door_generator_assignment":[0,1],"goal":0,"start":3,"action_noise":0,"location_history":"[3,4,0]","action_history":"[1,0]","door_history":"[1,0]","location_rts":"[1405,425]","trial_type":"two-door-navigation","trial_index":45,"time_elapsed":736461,"internal_node_id":"0.0-2.0-43.0"},{"group":"hexagon_tri","room_assignment":["yellow","red","purple","blue","grey","green"],"door_color_assignment":["white","black"],"door_generator_assignment":[0,1],"goal":2,"start":0,"action_noise":0,"location_history":"[0,1,3,2]","action_history":"[1,0,0]","door_history":"[1,0,0]","location_rts":"[1569,436,822]","trial_type":"two-door-navigation","trial_index":46,"time_elapsed":746503,"internal_node_id":"0.0-2.0-44.0"},{"group":"hexagon_tri","room_assignment":["yellow","red","purple","blue","grey","green"],"door_color_assignment":["white","black"],"door_generator_assignment":[0,1],"goal":4,"start":2,"action_noise":0,"location_history":"[2,3,2,1,3,4]","action_history":"[1,0,0,0,1]","door_history":"[1,0,0,0,1]","location_rts":"[1433,367,257,340,408]","trial_type":"two-door-navigation","trial_index":47,"time_elapsed":758899,"internal_node_id":"0.0-2.0-45.0"},{"group":"hexagon_tri","room_assignment":["yellow","red","purple","blue","grey","green"],"door_color_assignment":["white","black"],"door_generator_assignment":[0,1],"goal":1,"start":4,"action_noise":0,"location_history":"[4,2,3,2,1]","action_history":"[1,1,0,0]","door_history":"[1,1,0,0]","location_rts":"[1343,444,513,249]","trial_type":"two-door-navigation","trial_index":48,"time_elapsed":769884,"internal_node_id":"0.0-2.0-46.0"},{"group":"hexagon_tri","room_assignment":["yellow","red","purple","blue","grey","green"],"door_color_assignment":["white","black"],"door_generator_assignment":[0,1],"goal":4,"start":1,"action_noise":0,"location_history":"[1,5,0,1,5,4]","action_history":"[1,1,1,1,0]","door_history":"[1,1,1,1,0]","location_rts":"[1124,393,368,416,309]","trial_type":"two-door-navigation","trial_index":49,"time_elapsed":782105,"internal_node_id":"0.0-2.0-47.0"},{"group":"hexagon_tri","room_assignment":["yellow","red","purple","blue","grey","green"],"door_color_assignment":["white","black"],"door_generator_assignment":[0,1],"goal":3,"start":4,"action_noise":0,"location_history":"[4,2,1,3]","action_history":"[1,0,0]","door_history":"[1,0,0]","location_rts":"[978,615,442]","trial_type":"two-door-navigation","trial_index":50,"time_elapsed":791376,"internal_node_id":"0.0-2.0-48.0"},{"group":"hexagon_tri","room_assignment":["yellow","red","purple","blue","grey","green"],"door_color_assignment":["white","black"],"door_generator_assignment":[0,1],"goal":5,"start":3,"action_noise":0,"location_history":"[3,4,0,5]","action_history":"[1,0,0]","door_history":"[1,0,0]","location_rts":"[679,482,343]","trial_type":"two-door-navigation","trial_index":51,"time_elapsed":800115,"internal_node_id":"0.0-2.0-49.0"},{"view_history":"[{\"page_index\":0,\"viewing_time\":2261}]","rt":2261,"trial_type":"instructions","trial_index":52,"time_elapsed":803381,"internal_node_id":"0.0-3.0"},{"view_history":"[{\"page_index\":0,\"viewing_time\":1335},{\"page_index\":1,\"viewing_time\":14499}]","rt":15835,"trial_type":"instructions","trial_index":53,"time_elapsed":820217,"internal_node_id":"0.0-4.0"},{"group":"hexagon_bi","fractal_assignment":["../images/pnk_blu.png","../images/org_blu.png","../images/blu_wht.png","../images/cyn_red.png","../images/gry_blk.png","../images/ylw_slt.png"],"mutagen_generator_assignment":[0,1],"goal":4,"start":0,"action_noise":0,"location_history":"[0,5,4]","action_history":"[0,1]","mutagen_history":"[0,1]","location_rts":"[4426,1886]","trial_type":"fractal-mutation","trial_index":54,"time_elapsed":832712,"internal_node_id":"0.0-5.0-0.0"},{"group":"hexagon_bi","fractal_assignment":["../images/pnk_blu.png","../images/org_blu.png","../images/blu_wht.png","../images/cyn_red.png","../images/gry_blk.png","../images/ylw_slt.png"],"mutagen_generator_assignment":[0,1],"goal":3,"start":4,"action_noise":0,"location_history":"[4,3]","action_history":"[0]","mutagen_history":"[0]","location_rts":"[627]","trial_type":"fractal-mutation","trial_index":55,"time_elapsed":838431,"internal_node_id":"0.0-5.0-1.0"},{"group":"hexagon_bi","fractal_assignment":["../images/pnk_blu.png","../images/org_blu.png","../images/blu_wht.png","../images/cyn_red.png","../images/gry_blk.png","../images/ylw_slt.png"],"mutagen_generator_assignment":[0,1],"goal":5,"start":3,"action_noise":0,"location_history":"[3,2,1,0,5]","action_history":"[1,0,1,0]","mutagen_history":"[1,0,1,0]","location_rts":"[570,1218,996,773]","trial_type":"fractal-mutation","trial_index":56,"time_elapsed":850330,"internal_node_id":"0.0-5.0-2.0"},{"group":"hexagon_bi","fractal_assignment":["../images/pnk_blu.png","../images/org_blu.png","../images/blu_wht.png","../images/cyn_red.png","../images/gry_blk.png","../images/ylw_slt.png"],"mutagen_generator_assignment":[0,1],"goal":2,"start":5,"action_noise":0,"location_history":"[5,4,3,2]","action_history":"[1,0,1]","mutagen_history":"[1,0,1]","location_rts":"[705,936,756]","trial_type":"fractal-mutation","trial_index":57,"time_elapsed":860287,"internal_node_id":"0.0-5.0-3.0"},{"group":"hexagon_bi","fractal_assignment":["../images/pnk_blu.png","../images/org_blu.png","../images/blu_wht.png","../images/cyn_red.png","../images/gry_blk.png","../images/ylw_slt.png"],"mutagen_generator_assignment":[0,1],"goal":1,"start":2,"action_noise":0,"location_history":"[2,3,4,5,4,3,4,5,0,5,0,1]","action_history":"[1,0,1,1,0,0,1,0,0,0,1]","mutagen_history":"[1,0,1,1,0,0,1,0,0,0,1]","location_rts":"[851,599,611,793,1004,600,781,859,867,473,701]","trial_type":"fractal-mutation","trial_index":58,"time_elapsed":884839,"internal_node_id":"0.0-5.0-4.0"},{"group":"hexagon_bi","fractal_assignment":["../images/pnk_blu.png","../images/org_blu.png","../images/blu_wht.png","../images/cyn_red.png","../images/gry_blk.png","../images/ylw_slt.png"],"mutagen_generator_assignment":[0,1],"goal":4,"start":1,"action_noise":0,"location_history":"[1,0,1,0,5,0,5,0,1,0,1,2,1,0,1,2,3,2,3,4]","action_history":"[1,1,1,0,0,0,0,1,1,1,0,0,1,1,0,1,1,1,0]","mutagen_history":"[1,1,1,0,0,0,0,1,1,1,0,0,1,1,0,1,1,1,0]","location_rts":"[663,736,344,350,377,375,458,357,445,462,406,520,397,403,538,449,366,424,362]","trial_type":"fractal-mutation","trial_index":59,"time_elapsed":918925,"internal_node_id":"0.0-5.0-5.0"},{"group":"hexagon_bi","fractal_assignment":["../images/pnk_blu.png","../images/org_blu.png","../images/blu_wht.png","../images/cyn_red.png","../images/gry_blk.png","../images/ylw_slt.png"],"mutagen_generator_assignment":[0,1],"goal":1,"start":4,"action_noise":0,"location_history":"[4,3,2,3,2,1]","action_history":"[0,1,1,1,0]","mutagen_history":"[0,1,1,1,0]","location_rts":"[365,580,344,426,500]","trial_type":"fractal-mutation","trial_index":60,"time_elapsed":930731,"internal_node_id":"0.0-5.0-6.0"},{"group":"hexagon_bi","fractal_assignment":["../images/pnk_blu.png","../images/org_blu.png","../images/blu_wht.png","../images/cyn_red.png","../images/gry_blk.png","../images/ylw_slt.png"],"mutagen_generator_assignment":[0,1],"goal":5,"start":1,"action_noise":0,"location_history":"[1,0,5]","action_history":"[1,0]","mutagen_history":"[1,0]","location_rts":"[256,558]","trial_type":"fractal-mutation","trial_index":61,"time_elapsed":937721,"internal_node_id":"0.0-5.0-7.0"},{"group":"hexagon_bi","fractal_assignment":["../images/pnk_blu.png","../images/org_blu.png","../images/blu_wht.png","../images/cyn_red.png","../images/gry_blk.png","../images/ylw_slt.png"],"mutagen_generator_assignment":[0,1],"goal":0,"start":5,"action_noise":0,"location_history":"[5,0]","action_history":"[0]","mutagen_history":"[0]","location_rts":"[125]","trial_type":"fractal-mutation","trial_index":62,"time_elapsed":942947,"internal_node_id":"0.0-5.0-8.0"},{"group":"hexagon_bi","fractal_assignment":["../images/pnk_blu.png","../images/org_blu.png","../images/blu_wht.png","../images/cyn_red.png","../images/gry_blk.png","../images/ylw_slt.png"],"mutagen_generator_assignment":[0,1],"goal":2,"start":0,"action_noise":0,"location_history":"[0,5,4,3,2]","action_history":"[0,1,0,1]","mutagen_history":"[0,1,0,1]","location_rts":"[343,342,377,469]","trial_type":"fractal-mutation","trial_index":63,"time_elapsed":953090,"internal_node_id":"0.0-5.0-9.0"},{"group":"hexagon_bi","fractal_assignment":["../images/pnk_blu.png","../images/org_blu.png","../images/blu_wht.png","../images/cyn_red.png","../images/gry_blk.png","../images/ylw_slt.png"],"mutagen_generator_assignment":[0,1],"goal":3,"start":2,"action_noise":0,"location_history":"[2,3]","action_history":"[1]","mutagen_history":"[1]","location_rts":"[364]","trial_type":"fractal-mutation","trial_index":64,"time_elapsed":958540,"internal_node_id":"0.0-5.0-10.0"},{"group":"hexagon_bi","fractal_assignment":["../images/pnk_blu.png","../images/org_blu.png","../images/blu_wht.png","../images/cyn_red.png","../images/gry_blk.png","../images/ylw_slt.png"],"mutagen_generator_assignment":[0,1],"goal":0,"start":3,"action_noise":0,"location_history":"[3,2,1,0]","action_history":"[1,0,1]","mutagen_history":"[1,0,1]","location_rts":"[323,584,500]","trial_type":"fractal-mutation","trial_index":65,"time_elapsed":967496,"internal_node_id":"0.0-5.0-11.0"},{"group":"hexagon_bi","fractal_assignment":["../images/pnk_blu.png","../images/org_blu.png","../images/blu_wht.png","../images/cyn_red.png","../images/gry_blk.png","../images/ylw_slt.png"],"mutagen_generator_assignment":[0,1],"goal":2,"start":0,"action_noise":0,"location_history":"[0,1,2]","action_history":"[1,0]","mutagen_history":"[1,0]","location_rts":"[482,742]","trial_type":"fractal-mutation","trial_index":66,"time_elapsed":975123,"internal_node_id":"0.0-5.0-12.0"},{"group":"hexagon_bi","fractal_assignment":["../images/pnk_blu.png","../images/org_blu.png","../images/blu_wht.png","../images/cyn_red.png","../images/gry_blk.png","../images/ylw_slt.png"],"mutagen_generator_assignment":[0,1],"goal":5,"start":2,"action_noise":0,"location_history":"[2,3,4,5]","action_history":"[1,0,1]","mutagen_history":"[1,0,1]","location_rts":"[351,762,771]","trial_type":"fractal-mutation","trial_index":67,"time_elapsed":984503,"internal_node_id":"0.0-5.0-13.0"},{"group":"hexagon_bi","fractal_assignment":["../images/pnk_blu.png","../images/org_blu.png","../images/blu_wht.png","../images/cyn_red.png","../images/gry_blk.png","../images/ylw_slt.png"],"mutagen_generator_assignment":[0,1],"goal":4,"start":5,"action_noise":0,"location_history":"[5,4]","action_history":"[1]","mutagen_history":"[1]","location_rts":"[636]","trial_type":"fractal-mutation","trial_index":68,"time_elapsed":990312,"internal_node_id":"0.0-5.0-14.0"},{"group":"hexagon_bi","fractal_assignment":["../images/pnk_blu.png","../images/org_blu.png","../images/blu_wht.png","../images/cyn_red.png","../images/gry_blk.png","../images/ylw_slt.png"],"mutagen_generator_assignment":[0,1],"goal":3,"start":4,"action_noise":0,"location_history":"[4,5,0,1,0,1,2,1,2,3]","action_history":"[1,0,1,1,1,0,0,0,1]","mutagen_history":"[1,0,1,1,1,0,0,0,1]","location_rts":"[1055,428,904,671,488,276,553,478,210]","trial_type":"fractal-mutation","trial_index":69,"time_elapsed":1009419,"internal_node_id":"0.0-5.0-15.0"},{"group":"hexagon_bi","fractal_assignment":["../images/pnk_blu.png","../images/org_blu.png","../images/blu_wht.png","../images/cyn_red.png","../images/gry_blk.png","../images/ylw_slt.png"],"mutagen_generator_assignment":[0,1],"goal":1,"start":3,"action_noise":0,"location_history":"[3,2,1]","action_history":"[1,0]","mutagen_history":"[1,0]","location_rts":"[282,535]","trial_type":"fractal-mutation","trial_index":70,"time_elapsed":1016406,"internal_node_id":"0.0-5.0-16.0"},{"group":"hexagon_bi","fractal_assignment":["../images/pnk_blu.png","../images/org_blu.png","../images/blu_wht.png","../images/cyn_red.png","../images/gry_blk.png","../images/ylw_slt.png"],"mutagen_generator_assignment":[0,1],"goal":5,"start":1,"action_noise":0,"location_history":"[1,0,5]","action_history":"[1,0]","mutagen_history":"[1,0]","location_rts":"[282,338]","trial_type":"fractal-mutation","trial_index":71,"time_elapsed":1023187,"internal_node_id":"0.0-5.0-17.0"},{"group":"hexagon_bi","fractal_assignment":["../images/pnk_blu.png","../images/org_blu.png","../images/blu_wht.png","../images/cyn_red.png","../images/gry_blk.png","../images/ylw_slt.png"],"mutagen_generator_assignment":[0,1],"goal":4,"start":5,"action_noise":0,"location_history":"[5,0,1,0,1,2,1,0,1,0,5,4]","action_history":"[0,1,1,1,0,0,1,1,1,0,1]","mutagen_history":"[0,1,1,1,0,0,1,1,1,0,1]","location_rts":"[8765,397,484,401,355,531,347,401,401,801,658]","trial_type":"fractal-mutation","trial_index":72,"time_elapsed":1052944,"internal_node_id":"0.0-5.0-18.0"},{"group":"hexagon_bi","fractal_assignment":["../images/pnk_blu.png","../images/org_blu.png","../images/blu_wht.png","../images/cyn_red.png","../images/gry_blk.png","../images/ylw_slt.png"],"mutagen_generator_assignment":[0,1],"goal":0,"start":4,"action_noise":0,"location_history":"[4,5,4,5,0]","action_history":"[1,1,1,0]","mutagen_history":"[1,1,1,0]","location_rts":"[735,408,433,295]","trial_type":"fractal-mutation","trial_index":73,"time_elapsed":1063468,"internal_node_id":"0.0-5.0-19.0"},{"group":"hexagon_bi","fractal_assignment":["../images/pnk_blu.png","../images/org_blu.png","../images/blu_wht.png","../images/cyn_red.png","../images/gry_blk.png","../images/ylw_slt.png"],"mutagen_generator_assignment":[0,1],"goal":1,"start":0,"action_noise":0,"location_history":"[0,5,4,5,4,3,2,3,4,3,4,5,4,3,2,3,2,1]","action_history":"[0,1,1,1,0,1,1,0,0,0,1,1,0,1,1,1,0]","mutagen_history":"[0,1,1,1,0,1,1,0,0,0,1,1,0,1,1,1,0]","location_rts":"[649,384,609,491,403,569,359,489,516,673,247,437,415,831,373,423,355]","trial_type":"fractal-mutation","trial_index":74,"time_elapsed":1094839,"internal_node_id":"0.0-5.0-20.0"},{"group":"hexagon_bi","fractal_assignment":["../images/pnk_blu.png","../images/org_blu.png","../images/blu_wht.png","../images/cyn_red.png","../images/gry_blk.png","../images/ylw_slt.png"],"mutagen_generator_assignment":[0,1],"goal":3,"start":1,"action_noise":0,"location_history":"[1,0,5,4,5,4,3]","action_history":"[1,0,1,1,1,0]","mutagen_history":"[1,0,1,1,1,0]","location_rts":"[141,350,426,486,478,391]","trial_type":"fractal-mutation","trial_index":75,"time_elapsed":1107927,"internal_node_id":"0.0-5.0-21.0"},{"group":"hexagon_bi","fractal_assignment":["../images/pnk_blu.png","../images/org_blu.png","../images/blu_wht.png","../images/cyn_red.png","../images/gry_blk.png","../images/ylw_slt.png"],"mutagen_generator_assignment":[0,1],"goal":2,"start":3,"action_noise":0,"location_history":"[3,4,5,4,3,2]","action_history":"[0,1,1,0,1]","mutagen_history":"[0,1,1,0,1]","location_rts":"[84,310,351,360,369]","trial_type":"fractal-mutation","trial_index":76,"time_elapsed":1119144,"internal_node_id":"0.0-5.0-22.0"},{"group":"hexagon_bi","fractal_assignment":["../images/pnk_blu.png","../images/org_blu.png","../images/blu_wht.png","../images/cyn_red.png","../images/gry_blk.png","../images/ylw_slt.png"],"mutagen_generator_assignment":[0,1],"goal":0,"start":2,"action_noise":0,"location_history":"[2,3,4,5,4,3,2,3,2,1,2,3,4,5,0]","action_history":"[1,0,1,1,0,1,1,1,0,0,1,0,1,0]","mutagen_history":"[1,0,1,1,0,1,1,1,0,0,1,0,1,0]","location_rts":"[282,428,399,396,416,383,659,582,507,501,556,583,471,726]","trial_type":"fractal-mutation","trial_index":77,"time_elapsed":1145892,"internal_node_id":"0.0-5.0-23.0"},{"group":"hexagon_bi","fractal_assignment":["../images/pnk_blu.png","../images/org_blu.png","../images/blu_wht.png","../images/cyn_red.png","../images/gry_blk.png","../images/ylw_slt.png"],"mutagen_generator_assignment":[0,1],"goal":3,"start":0,"action_noise":0,"location_history":"[0,5,4,5,0,5,4,5,0,1,0,1,0,5,4,3]","action_history":"[0,1,1,0,0,1,1,0,1,1,1,1,0,1,0]","mutagen_history":"[0,1,1,0,0,1,1,0,1,1,1,1,0,1,0]","location_rts":"[380,352,483,772,1014,306,324,152,145,326,458,493,184,366,1009]","trial_type":"fractal-mutation","trial_index":78,"time_elapsed":1173371,"internal_node_id":"0.0-5.0-24.0"},{"group":"hexagon_bi","fractal_assignment":["../images/pnk_blu.png","../images/org_blu.png","../images/blu_wht.png","../images/cyn_red.png","../images/gry_blk.png","../images/ylw_slt.png"],"mutagen_generator_assignment":[0,1],"goal":1,"start":3,"action_noise":0,"location_history":"[3,4,5,4,5,0,1]","action_history":"[0,1,1,1,0,1]","mutagen_history":"[0,1,1,1,0,1]","location_rts":"[294,244,384,288,420,250]","trial_type":"fractal-mutation","trial_index":79,"time_elapsed":1186026,"internal_node_id":"0.0-5.0-25.0"},{"group":"hexagon_bi","fractal_assignment":["../images/pnk_blu.png","../images/org_blu.png","../images/blu_wht.png","../images/cyn_red.png","../images/gry_blk.png","../images/ylw_slt.png"],"mutagen_generator_assignment":[0,1],"goal":2,"start":1,"action_noise":0,"location_history":"[1,0,5,4,5,0,1,0,1,2]","action_history":"[1,0,1,1,0,1,1,1,0]","mutagen_history":"[1,0,1,1,0,1,1,1,0]","location_rts":"[285,239,224,495,231,408,608,951,364]","trial_type":"fractal-mutation","trial_index":80,"time_elapsed":1203847,"internal_node_id":"0.0-5.0-26.0"},{"group":"hexagon_bi","fractal_assignment":["../images/pnk_blu.png","../images/org_blu.png","../images/blu_wht.png","../images/cyn_red.png","../images/gry_blk.png","../images/ylw_slt.png"],"mutagen_generator_assignment":[0,1],"goal":5,"start":2,"action_noise":0,"location_history":"[2,3,2,1,0,1,0,5]","action_history":"[1,1,0,1,1,1,0]","mutagen_history":"[1,1,0,1,1,1,0]","location_rts":"[679,383,368,402,322,828,398]","trial_type":"fractal-mutation","trial_index":81,"time_elapsed":1218860,"internal_node_id":"0.0-5.0-27.0"},{"group":"hexagon_bi","fractal_assignment":["../images/pnk_blu.png","../images/org_blu.png","../images/blu_wht.png","../images/cyn_red.png","../images/gry_blk.png","../images/ylw_slt.png"],"mutagen_generator_assignment":[0,1],"goal":4,"start":5,"action_noise":0,"location_history":"[5,4]","action_history":"[1]","mutagen_history":"[1]","location_rts":"[373]","trial_type":"fractal-mutation","trial_index":82,"time_elapsed":1224313,"internal_node_id":"0.0-5.0-28.0"},{"group":"hexagon_bi","fractal_assignment":["../images/pnk_blu.png","../images/org_blu.png","../images/blu_wht.png","../images/cyn_red.png","../images/gry_blk.png","../images/ylw_slt.png"],"mutagen_generator_assignment":[0,1],"goal":5,"start":4,"action_noise":0,"location_history":"[4,3,2,3,2,3,4,5]","action_history":"[0,1,1,1,1,0,1]","mutagen_history":"[0,1,1,1,1,0,1]","location_rts":"[696,516,327,295,3901,663,920]","trial_type":"fractal-mutation","trial_index":83,"time_elapsed":1243502,"internal_node_id":"0.0-5.0-29.0"},{"group":"hexagon_bi","fractal_assignment":["../images/pnk_blu.png","../images/org_blu.png","../images/blu_wht.png","../images/cyn_red.png","../images/gry_blk.png","../images/ylw_slt.png"],"mutagen_generator_assignment":[0,1],"goal":3,"start":5,"action_noise":0,"location_history":"[5,0,1,2,3]","action_history":"[0,1,0,1]","mutagen_history":"[0,1,0,1]","location_rts":"[1514,879,664,444]","trial_type":"fractal-mutation","trial_index":84,"time_elapsed":1255661,"internal_node_id":"0.0-5.0-30.0"},{"group":"hexagon_bi","fractal_assignment":["../images/pnk_blu.png","../images/org_blu.png","../images/blu_wht.png","../images/cyn_red.png","../images/gry_blk.png","../images/ylw_slt.png"],"mutagen_generator_assignment":[0,1],"goal":0,"start":3,"action_noise":0,"location_history":"[3,4,5,4,3,2,1,2,3,2,1,0]","action_history":"[0,1,1,0,1,0,0,1,1,0,1]","mutagen_history":"[0,1,1,0,1,0,0,1,1,0,1]","location_rts":"[1420,408,429,851,995,632,1031,771,825,1058,395]","trial_type":"fractal-mutation","trial_index":85,"time_elapsed":1280378,"internal_node_id":"0.0-5.0-31.0"},{"group":"hexagon_bi","fractal_assignment":["../images/pnk_blu.png","../images/org_blu.png","../images/blu_wht.png","../images/cyn_red.png","../images/gry_blk.png","../images/ylw_slt.png"],"mutagen_generator_assignment":[0,1],"goal":4,"start":0,"action_noise":0,"location_history":"[0,1,2,3,2,1,0,1,0,1,2,1,2,3,4]","action_history":"[1,0,1,1,0,1,1,1,1,0,0,0,1,0]","mutagen_history":"[1,0,1,1,0,1,1,1,1,0,0,0,1,0]","location_rts":"[460,264,226,744,838,66,316,436,1048,602,1004,710,448,362]","trial_type":"fractal-mutation","trial_index":86,"time_elapsed":1307737,"internal_node_id":"0.0-5.0-32.0"},{"group":"hexagon_bi","fractal_assignment":["../images/pnk_blu.png","../images/org_blu.png","../images/blu_wht.png","../images/cyn_red.png","../images/gry_blk.png","../images/ylw_slt.png"],"mutagen_generator_assignment":[0,1],"goal":1,"start":4,"action_noise":0,"location_history":"[4,5,0,1]","action_history":"[1,0,1]","mutagen_history":"[1,0,1]","location_rts":"[505,820,269]","trial_type":"fractal-mutation","trial_index":87,"time_elapsed":1316598,"internal_node_id":"0.0-5.0-33.0"},{"group":"hexagon_bi","fractal_assignment":["../images/pnk_blu.png","../images/org_blu.png","../images/blu_wht.png","../images/cyn_red.png","../images/gry_blk.png","../images/ylw_slt.png"],"mutagen_generator_assignment":[0,1],"goal":2,"start":1,"action_noise":0,"location_history":"[1,2]","action_history":"[0]","mutagen_history":"[0]","location_rts":"[261]","trial_type":"fractal-mutation","trial_index":88,"time_elapsed":1321933,"internal_node_id":"0.0-5.0-34.0"},{"group":"hexagon_bi","fractal_assignment":["../images/pnk_blu.png","../images/org_blu.png","../images/blu_wht.png","../images/cyn_red.png","../images/gry_blk.png","../images/ylw_slt.png"],"mutagen_generator_assignment":[0,1],"goal":0,"start":2,"action_noise":0,"location_history":"[2,1,0]","action_history":"[0,1]","mutagen_history":"[0,1]","location_rts":"[353,229]","trial_type":"fractal-mutation","trial_index":89,"time_elapsed":1328986,"internal_node_id":"0.0-5.0-35.0"},{"group":"hexagon_bi","fractal_assignment":["../images/pnk_blu.png","../images/org_blu.png","../images/blu_wht.png","../images/cyn_red.png","../images/gry_blk.png","../images/ylw_slt.png"],"mutagen_generator_assignment":[0,1],"goal":5,"start":0,"action_noise":0,"location_history":"[0,5]","action_history":"[0]","mutagen_history":"[0]","location_rts":"[417]","trial_type":"fractal-mutation","trial_index":90,"time_elapsed":1334802,"internal_node_id":"0.0-5.0-36.0"},{"group":"hexagon_bi","fractal_assignment":["../images/pnk_blu.png","../images/org_blu.png","../images/blu_wht.png","../images/cyn_red.png","../images/gry_blk.png","../images/ylw_slt.png"],"mutagen_generator_assignment":[0,1],"goal":2,"start":5,"action_noise":0,"location_history":"[5,4,3,2]","action_history":"[1,0,1]","mutagen_history":"[1,0,1]","location_rts":"[1592,522,401]","trial_type":"fractal-mutation","trial_index":91,"time_elapsed":1344559,"internal_node_id":"0.0-5.0-37.0"},{"group":"hexagon_bi","fractal_assignment":["../images/pnk_blu.png","../images/org_blu.png","../images/blu_wht.png","../images/cyn_red.png","../images/gry_blk.png","../images/ylw_slt.png"],"mutagen_generator_assignment":[0,1],"goal":1,"start":2,"action_noise":0,"location_history":"[2,3,4,5,4,3,4,5,4,3,4,5,4,3,2,3,2,1]","action_history":"[1,0,1,1,0,0,1,1,0,0,1,1,0,1,1,1,0]","mutagen_history":"[1,0,1,1,0,0,1,1,0,0,1,1,0,1,1,1,0]","location_rts":"[108,288,472,577,668,5764,619,514,645,369,350,537,663,975,398,514,309]","trial_type":"fractal-mutation","trial_index":92,"time_elapsed":1381652,"internal_node_id":"0.0-5.0-38.0"},{"group":"hexagon_bi","fractal_assignment":["../images/pnk_blu.png","../images/org_blu.png","../images/blu_wht.png","../images/cyn_red.png","../images/gry_blk.png","../images/ylw_slt.png"],"mutagen_generator_assignment":[0,1],"goal":4,"start":1,"action_noise":0,"location_history":"[1,2,3,2,1,0,1,2,1,0,1,0,5,4]","action_history":"[0,1,1,0,1,1,0,0,1,1,1,0,1]","mutagen_history":"[0,1,1,0,1,1,0,0,1,1,1,0,1]","location_rts":"[383,520,702,1151,527,537,522,811,374,684,887,1039,1146]","trial_type":"fractal-mutation","trial_index":93,"time_elapsed":1409820,"internal_node_id":"0.0-5.0-39.0"},{"group":"hexagon_bi","fractal_assignment":["../images/pnk_blu.png","../images/org_blu.png","../images/blu_wht.png","../images/cyn_red.png","../images/gry_blk.png","../images/ylw_slt.png"],"mutagen_generator_assignment":[0,1],"goal":3,"start":4,"action_noise":0,"location_history":"[4,3]","action_history":"[0]","mutagen_history":"[0]","location_rts":"[1599]","trial_type":"fractal-mutation","trial_index":94,"time_elapsed":1416832,"internal_node_id":"0.0-5.0-40.0"},{"group":"hexagon_bi","fractal_assignment":["../images/pnk_blu.png","../images/org_blu.png","../images/blu_wht.png","../images/cyn_red.png","../images/gry_blk.png","../images/ylw_slt.png"],"mutagen_generator_assignment":[0,1],"goal":5,"start":3,"action_noise":0,"location_history":"[3,4,5]","action_history":"[0,1]","mutagen_history":"[0,1]","location_rts":"[1927,1171]","trial_type":"fractal-mutation","trial_index":95,"time_elapsed":1426108,"internal_node_id":"0.0-5.0-41.0"},{"group":"hexagon_bi","fractal_assignment":["../images/pnk_blu.png","../images/org_blu.png","../images/blu_wht.png","../images/cyn_red.png","../images/gry_blk.png","../images/ylw_slt.png"],"mutagen_generator_assignment":[0,1],"goal":3,"start":5,"action_noise":0,"location_history":"[5,0,1,2,3]","action_history":"[0,1,0,1]","mutagen_history":"[0,1,0,1]","location_rts":"[2464,582,753,556]","trial_type":"fractal-mutation","trial_index":96,"time_elapsed":1439353,"internal_node_id":"0.0-5.0-42.0"},{"group":"hexagon_bi","fractal_assignment":["../images/pnk_blu.png","../images/org_blu.png","../images/blu_wht.png","../images/cyn_red.png","../images/gry_blk.png","../images/ylw_slt.png"],"mutagen_generator_assignment":[0,1],"goal":0,"start":3,"action_noise":0,"location_history":"[3,4,5,0]","action_history":"[0,1,0]","mutagen_history":"[0,1,0]","location_rts":"[1859,1080,605]","trial_type":"fractal-mutation","trial_index":97,"time_elapsed":1450159,"internal_node_id":"0.0-5.0-43.0"},{"group":"hexagon_bi","fractal_assignment":["../images/pnk_blu.png","../images/org_blu.png","../images/blu_wht.png","../images/cyn_red.png","../images/gry_blk.png","../images/ylw_slt.png"],"mutagen_generator_assignment":[0,1],"goal":2,"start":0,"action_noise":0,"location_history":"[0,1,0,5,4,3,2]","action_history":"[1,1,0,1,0,1]","mutagen_history":"[1,1,0,1,0,1]","location_rts":"[677,478,226,415,356,548]","trial_type":"fractal-mutation","trial_index":98,"time_elapsed":1463659,"internal_node_id":"0.0-5.0-44.0"},{"group":"hexagon_bi","fractal_assignment":["../images/pnk_blu.png","../images/org_blu.png","../images/blu_wht.png","../images/cyn_red.png","../images/gry_blk.png","../images/ylw_slt.png"],"mutagen_generator_assignment":[0,1],"goal":4,"start":2,"action_noise":0,"location_history":"[2,3,4]","action_history":"[1,0]","mutagen_history":"[1,0]","location_rts":"[479,464]","trial_type":"fractal-mutation","trial_index":99,"time_elapsed":1470781,"internal_node_id":"0.0-5.0-45.0"},{"group":"hexagon_bi","fractal_assignment":["../images/pnk_blu.png","../images/org_blu.png","../images/blu_wht.png","../images/cyn_red.png","../images/gry_blk.png","../images/ylw_slt.png"],"mutagen_generator_assignment":[0,1],"goal":1,"start":4,"action_noise":0,"location_history":"[4,5,0,1]","action_history":"[1,0,1]","mutagen_history":"[1,0,1]","location_rts":"[322,436,406]","trial_type":"fractal-mutation","trial_index":100,"time_elapsed":1479507,"internal_node_id":"0.0-5.0-46.0"},{"group":"hexagon_bi","fractal_assignment":["../images/pnk_blu.png","../images/org_blu.png","../images/blu_wht.png","../images/cyn_red.png","../images/gry_blk.png","../images/ylw_slt.png"],"mutagen_generator_assignment":[0,1],"goal":4,"start":1,"action_noise":0,"location_history":"[1,2,3,4]","action_history":"[0,1,0]","mutagen_history":"[0,1,0]","location_rts":"[1519,514,749]","trial_type":"fractal-mutation","trial_index":101,"time_elapsed":1489858,"internal_node_id":"0.0-5.0-47.0"},{"group":"hexagon_bi","fractal_assignment":["../images/pnk_blu.png","../images/org_blu.png","../images/blu_wht.png","../images/cyn_red.png","../images/gry_blk.png","../images/ylw_slt.png"],"mutagen_generator_assignment":[0,1],"goal":3,"start":4,"action_noise":0,"location_history":"[4,3]","action_history":"[0]","mutagen_history":"[0]","location_rts":"[1180]","trial_type":"fractal-mutation","trial_index":102,"time_elapsed":1496124,"internal_node_id":"0.0-5.0-48.0"},{"group":"hexagon_bi","fractal_assignment":["../images/pnk_blu.png","../images/org_blu.png","../images/blu_wht.png","../images/cyn_red.png","../images/gry_blk.png","../images/ylw_slt.png"],"mutagen_generator_assignment":[0,1],"goal":5,"start":3,"action_noise":0,"location_history":"[3,4,5]","action_history":"[0,1]","mutagen_history":"[0,1]","location_rts":"[2918,556]","trial_type":"fractal-mutation","trial_index":103,"time_elapsed":1505775,"internal_node_id":"0.0-5.0-49.0"},{"view_history":"[{\"page_index\":0,\"viewing_time\":9669}]","rt":9669,"trial_type":"instructions","trial_index":104,"time_elapsed":1516447,"internal_node_id":"0.0-6.0"},{"rt":11209,"responses":"{\"Q0\":\"No\"}","trial_type":"survey-text","trial_index":105,"time_elapsed":1528666,"internal_node_id":"0.0-7.0"}]