[{"view_history":"[{\"page_index\":0,\"viewing_time\":572615},{\"page_index\":1,\"viewing_time\":11686},{\"page_index\":2,\"viewing_time\":16519}]","rt":600824,"trial_type":"instructions","trial_index":0,"time_elapsed":600826,"internal_node_id":"0.0-0.0"},{"view_history":"[{\"page_index\":0,\"viewing_time\":3544},{\"page_index\":1,\"viewing_time\":38801}]","rt":42346,"trial_type":"instructions","trial_index":1,"time_elapsed":644176,"internal_node_id":"0.0-1.0"},{"group":"hexagon_tri","room_assignment":["purple","blue","yellow","grey","red","green"],"door_color_assignment":["white","black"],"door_generator_assignment":[1,0],"goal":4,"start":0,"action_noise":0,"location_history":"[0,1,3,2,1,5,0,1,3,4]","action_history":"[1,0,0,0,1,1,1,0,1]","door_history":"[0,1,1,1,0,0,0,1,0]","location_rts":"[27586,4291,1236,1147,1354,1226,1014,946,1358]","trial_type":"two-door-navigation","trial_index":2,"time_elapsed":697809,"internal_node_id":"0.0-2.0-0.0"},{"group":"hexagon_tri","room_assignment":["purple","blue","yellow","grey","red","green"],"door_color_assignment":["white","black"],"door_generator_assignment":[1,0],"goal":3,"start":4,"action_noise":0,"location_history":"[4,0,1,3]","action_history":"[0,1,0]","door_history":"[1,0,1]","location_rts":"[3016,1154,2150]","trial_type":"two-door-navigation","trial_index":3,"time_elapsed":711263,"internal_node_id":"0.0-2.0-1.0"},{"group":"hexagon_tri","room_assignment":["purple","blue","yellow","grey","red","green"],"door_color_assignment":["white","black"],"door_generator_assignment":[1,0],"goal":5,"start":3,"action_noise":0,"location_history":"[3,2,1,5]","action_history":"[0,0,1]","door_history":"[1,1,0]","location_rts":"[2829,3195,1552]","trial_type":"two-door-navigation","trial_index":4,"time_elapsed":725963,"internal_node_id":"0.0-2.0-2.0"},{"group":"hexagon_tri","room_assignment":["purple","blue","yellow","grey","red","green"],"door_color_assignment":["white","black"],"door_generator_assignment":[1,0],"goal":2,"start":5,"action_noise":0,"location_history":"[5,0,5,4,2]","action_history":"[1,0,0,1]","door_history":"[0,1,1,0]","location_rts":"[3068,580,684,1229]","trial_type":"two-door-navigation","trial_index":5,"time_elapsed":739666,"internal_node_id":"0.0-2.0-3.0"},{"group":"hexagon_tri","room_assignment":["purple","blue","yellow","grey","red","green"],"door_color_assignment":["white","black"],"door_generator_assignment":[1,0],"goal":1,"start":2,"action_noise":0,"location_history":"[2,3,2,3,2,1]","action_history":"[1,0,1,0,0]","door_history":"[0,1,0,1,1]","location_rts":"[1418,1081,887,1022,653]","trial_type":"two-door-navigation","trial_index":6,"time_elapsed":753916,"internal_node_id":"0.0-2.0-4.0"},{"group":"hexagon_tri","room_assignment":["purple","blue","yellow","grey","red","green"],"door_color_assignment":["white","black"],"door_generator_assignment":[1,0],"goal":4,"start":1,"action_noise":0,"location_history":"[1,3,4]","action_history":"[0,1]","door_history":"[1,0]","location_rts":"[4136,449]","trial_type":"two-door-navigation","trial_index":7,"time_elapsed":764587,"internal_node_id":"0.0-2.0-5.0"},{"group":"hexagon_tri","room_assignment":["purple","blue","yellow","grey","red","green"],"door_color_assignment":["white","black"],"door_generator_assignment":[1,0],"goal":1,"start":4,"action_noise":0,"location_history":"[4,0,1]","action_history":"[0,1]","door_history":"[1,0]","location_rts":"[1871,1123]","trial_type":"two-door-navigation","trial_index":8,"time_elapsed":773664,"internal_node_id":"0.0-2.0-6.0"},{"group":"hexagon_tri","room_assignment":["purple","blue","yellow","grey","red","green"],"door_color_assignment":["white","black"],"door_generator_assignment":[1,0],"goal":5,"start":1,"action_noise":0,"location_history":"[1,5]","action_history":"[1]","door_history":"[0]","location_rts":"[1955]","trial_type":"two-door-navigation","trial_index":9,"time_elapsed":780659,"internal_node_id":"0.0-2.0-7.0"},{"group":"hexagon_tri","room_assignment":["purple","blue","yellow","grey","red","green"],"door_color_assignment":["white","black"],"door_generator_assignment":[1,0],"goal":0,"start":5,"action_noise":0,"location_history":"[5,0]","action_history":"[1]","door_history":"[0]","location_rts":"[2238]","trial_type":"two-door-navigation","trial_index":10,"time_elapsed":787943,"internal_node_id":"0.0-2.0-8.0"},{"group":"hexagon_tri","room_assignment":["purple","blue","yellow","grey","red","green"],"door_color_assignment":["white","black"],"door_generator_assignment":[1,0],"goal":2,"start":0,"action_noise":0,"location_history":"[0,5,4,2]","action_history":"[0,0,1]","door_history":"[1,1,0]","location_rts":"[1924,669,605]","trial_type":"two-door-navigation","trial_index":11,"time_elapsed":798267,"internal_node_id":"0.0-2.0-9.0"},{"group":"hexagon_tri","room_assignment":["purple","blue","yellow","grey","red","green"],"door_color_assignment":["white","black"],"door_generator_assignment":[1,0],"goal":3,"start":2,"action_noise":0,"location_history":"[2,1,5,4,2,3]","action_history":"[0,1,0,1,1]","door_history":"[1,0,1,0,0]","location_rts":"[2503,866,974,884,555]","trial_type":"two-door-navigation","trial_index":12,"time_elapsed":813248,"internal_node_id":"0.0-2.0-10.0"},{"group":"hexagon_tri","room_assignment":["purple","blue","yellow","grey","red","green"],"door_color_assignment":["white","black"],"door_generator_assignment":[1,0],"goal":0,"start":3,"action_noise":0,"location_history":"[3,2,3,4,0]","action_history":"[0,1,1,0]","door_history":"[1,0,0,1]","location_rts":"[2405,849,942,1195]","trial_type":"two-door-navigation","trial_index":13,"time_elapsed":826792,"internal_node_id":"0.0-2.0-11.0"},{"group":"hexagon_tri","room_assignment":["purple","blue","yellow","grey","red","green"],"door_color_assignment":["white","black"],"door_generator_assignment":[1,0],"goal":2,"start":0,"action_noise":0,"location_history":"[0,5,0,1,3,2]","action_history":"[0,1,1,0,0]","door_history":"[1,0,0,1,1]","location_rts":"[1858,440,692,895,759]","trial_type":"two-door-navigation","trial_index":14,"time_elapsed":840606,"internal_node_id":"0.0-2.0-12.0"},{"group":"hexagon_tri","room_assignment":["purple","blue","yellow","grey","red","green"],"door_color_assignment":["white","black"],"door_generator_assignment":[1,0],"goal":5,"start":2,"action_noise":0,"location_history":"[2,1,5]","action_history":"[0,1]","door_history":"[1,0]","location_rts":"[2448,441]","trial_type":"two-door-navigation","trial_index":15,"time_elapsed":849581,"internal_node_id":"0.0-2.0-13.0"},{"group":"hexagon_tri","room_assignment":["purple","blue","yellow","grey","red","green"],"door_color_assignment":["white","black"],"door_generator_assignment":[1,0],"goal":4,"start":5,"action_noise":0,"location_history":"[5,0,5,4]","action_history":"[1,0,0]","door_history":"[0,1,1]","location_rts":"[1793,558,445]","trial_type":"two-door-navigation","trial_index":16,"time_elapsed":859484,"internal_node_id":"0.0-2.0-14.0"},{"group":"hexagon_tri","room_assignment":["purple","blue","yellow","grey","red","green"],"door_color_assignment":["white","black"],"door_generator_assignment":[1,0],"goal":3,"start":4,"action_noise":0,"location_history":"[4,0,1,3]","action_history":"[0,1,0]","door_history":"[1,0,1]","location_rts":"[1416,415,1265]","trial_type":"two-door-navigation","trial_index":17,"time_elapsed":869689,"internal_node_id":"0.0-2.0-15.0"},{"group":"hexagon_tri","room_assignment":["purple","blue","yellow","grey","red","green"],"door_color_assignment":["white","black"],"door_generator_assignment":[1,0],"goal":1,"start":3,"action_noise":0,"location_history":"[3,2,3,4,2,1]","action_history":"[0,1,1,1,0]","door_history":"[1,0,0,0,1]","location_rts":"[1755,632,1952,1100,392]","trial_type":"two-door-navigation","trial_index":18,"time_elapsed":884688,"internal_node_id":"0.0-2.0-16.0"},{"group":"hexagon_tri","room_assignment":["purple","blue","yellow","grey","red","green"],"door_color_assignment":["white","black"],"door_generator_assignment":[1,0],"goal":5,"start":1,"action_noise":0,"location_history":"[1,5]","action_history":"[1]","door_history":"[0]","location_rts":"[1184]","trial_type":"two-door-navigation","trial_index":19,"time_elapsed":890917,"internal_node_id":"0.0-2.0-17.0"},{"group":"hexagon_tri","room_assignment":["purple","blue","yellow","grey","red","green"],"door_color_assignment":["white","black"],"door_generator_assignment":[1,0],"goal":4,"start":5,"action_noise":0,"location_history":"[5,4]","action_history":"[0]","door_history":"[1]","location_rts":"[6057]","trial_type":"two-door-navigation","trial_index":20,"time_elapsed":902018,"internal_node_id":"0.0-2.0-18.0"},{"group":"hexagon_tri","room_assignment":["purple","blue","yellow","grey","red","green"],"door_color_assignment":["white","black"],"door_generator_assignment":[1,0],"goal":0,"start":4,"action_noise":0,"location_history":"[4,2,3,2,3,2,1,3,4,2,1,3,4,0]","action_history":"[1,1,0,1,0,0,0,1,1,0,0,1,0]","door_history":"[0,0,1,0,1,1,1,0,0,1,1,0,1]","location_rts":"[5050,982,986,859,880,495,565,871,529,808,416,988,959]","trial_type":"two-door-navigation","trial_index":21,"time_elapsed":933826,"internal_node_id":"0.0-2.0-19.0"},{"group":"hexagon_tri","room_assignment":["purple","blue","yellow","grey","red","green"],"door_color_assignment":["white","black"],"door_generator_assignment":[1,0],"goal":1,"start":0,"action_noise":0,"location_history":"[0,5,0,5,0,1]","action_history":"[0,1,0,1,1]","door_history":"[1,0,1,0,0]","location_rts":"[28348,13351,18128,8189,11395]","trial_type":"two-door-navigation","trial_index":22,"time_elapsed":1022412,"internal_node_id":"0.0-2.0-20.0"},{"group":"hexagon_tri","room_assignment":["purple","blue","yellow","grey","red","green"],"door_color_assignment":["white","black"],"door_generator_assignment":[1,0],"goal":3,"start":1,"action_noise":0,"location_history":"[1,3]","action_history":"[0]","door_history":"[1]","location_rts":"[16367]","trial_type":"two-door-navigation","trial_index":23,"time_elapsed":1043825,"internal_node_id":"0.0-2.0-21.0"},{"group":"hexagon_tri","room_assignment":["purple","blue","yellow","grey","red","green"],"door_color_assignment":["white","black"],"door_generator_assignment":[1,0],"goal":2,"start":3,"action_noise":0,"location_history":"[3,2]","action_history":"[0]","door_history":"[1]","location_rts":"[7235]","trial_type":"two-door-navigation","trial_index":24,"time_elapsed":1056111,"internal_node_id":"0.0-2.0-22.0"},{"group":"hexagon_tri","room_assignment":["purple","blue","yellow","grey","red","green"],"door_color_assignment":["white","black"],"door_generator_assignment":[1,0],"goal":0,"start":2,"action_noise":0,"location_history":"[2,1,5,0]","action_history":"[0,1,1]","door_history":"[1,0,0]","location_rts":"[6184,12969,13211]","trial_type":"two-door-navigation","trial_index":25,"time_elapsed":1095595,"internal_node_id":"0.0-2.0-23.0"},{"group":"hexagon_tri","room_assignment":["purple","blue","yellow","grey","red","green"],"door_color_assignment":["white","black"],"door_generator_assignment":[1,0],"goal":3,"start":0,"action_noise":0,"location_history":"[0,1,3]","action_history":"[1,0]","door_history":"[0,1]","location_rts":"[20511,22729]","trial_type":"two-door-navigation","trial_index":26,"time_elapsed":1144912,"internal_node_id":"0.0-2.0-24.0"},{"group":"hexagon_tri","room_assignment":["purple","blue","yellow","grey","red","green"],"door_color_assignment":["white","black"],"door_generator_assignment":[1,0],"goal":1,"start":3,"action_noise":0,"location_history":"[3,2,1]","action_history":"[0,0]","door_history":"[1,1]","location_rts":"[27445,1082]","trial_type":"two-door-navigation","trial_index":27,"time_elapsed":1179527,"internal_node_id":"0.0-2.0-25.0"},{"group":"hexagon_tri","room_assignment":["purple","blue","yellow","grey","red","green"],"door_color_assignment":["white","black"],"door_generator_assignment":[1,0],"goal":2,"start":1,"action_noise":0,"location_history":"[1,3,2]","action_history":"[0,0]","door_history":"[1,1]","location_rts":"[44365,9107]","trial_type":"two-door-navigation","trial_index":28,"time_elapsed":1239069,"internal_node_id":"0.0-2.0-26.0"},{"group":"hexagon_tri","room_assignment":["purple","blue","yellow","grey","red","green"],"door_color_assignment":["white","black"],"door_generator_assignment":[1,0],"goal":5,"start":2,"action_noise":0,"location_history":"[2,1,5]","action_history":"[0,1]","door_history":"[1,0]","location_rts":"[27661,385]","trial_type":"two-door-navigation","trial_index":29,"time_elapsed":1273194,"internal_node_id":"0.0-2.0-27.0"},{"group":"hexagon_tri","room_assignment":["purple","blue","yellow","grey","red","green"],"door_color_assignment":["white","black"],"door_generator_assignment":[1,0],"goal":4,"start":5,"action_noise":0,"location_history":"[5,4]","action_history":"[0]","door_history":"[1]","location_rts":"[23258]","trial_type":"two-door-navigation","trial_index":30,"time_elapsed":1301502,"internal_node_id":"0.0-2.0-28.0"},{"group":"hexagon_tri","room_assignment":["purple","blue","yellow","grey","red","green"],"door_color_assignment":["white","black"],"door_generator_assignment":[1,0],"goal":5,"start":4,"action_noise":0,"location_history":"[4,0,1,5]","action_history":"[0,1,1]","door_history":"[1,0,0]","location_rts":"[14423,9315,22276]","trial_type":"two-door-navigation","trial_index":31,"time_elapsed":1354634,"internal_node_id":"0.0-2.0-29.0"},{"group":"hexagon_tri","room_assignment":["purple","blue","yellow","grey","red","green"],"door_color_assignment":["white","black"],"door_generator_assignment":[1,0],"goal":3,"start":5,"action_noise":0,"location_history":"[5,4,0,1,3]","action_history":"[0,0,1,0]","door_history":"[1,1,0,1]","location_rts":"[43799,10586,17278,1433]","trial_type":"two-door-navigation","trial_index":32,"time_elapsed":1435886,"internal_node_id":"0.0-2.0-30.0"},{"group":"hexagon_tri","room_assignment":["purple","blue","yellow","grey","red","green"],"door_color_assignment":["white","black"],"door_generator_assignment":[1,0],"goal":0,"start":3,"action_noise":0,"location_history":"[3,4,0]","action_history":"[1,0]","door_history":"[0,1]","location_rts":"[44032,7285]","trial_type":"two-door-navigation","trial_index":33,"time_elapsed":1493283,"internal_node_id":"0.0-2.0-31.0"},{"group":"hexagon_tri","room_assignment":["purple","blue","yellow","grey","red","green"],"door_color_assignment":["white","black"],"door_generator_assignment":[1,0],"goal":4,"start":0,"action_noise":0,"location_history":"[0,5,4]","action_history":"[0,0]","door_history":"[1,1]","location_rts":"[23725,3557]","trial_type":"two-door-navigation","trial_index":34,"time_elapsed":1526666,"internal_node_id":"0.0-2.0-32.0"},{"group":"hexagon_tri","room_assignment":["purple","blue","yellow","grey","red","green"],"door_color_assignment":["white","black"],"door_generator_assignment":[1,0],"goal":1,"start":4,"action_noise":0,"location_history":"[4,2,1]","action_history":"[1,0]","door_history":"[0,1]","location_rts":"[31652,8525]","trial_type":"two-door-navigation","trial_index":35,"time_elapsed":1572922,"internal_node_id":"0.0-2.0-33.0"},{"group":"hexagon_tri","room_assignment":["purple","blue","yellow","grey","red","green"],"door_color_assignment":["white","black"],"door_generator_assignment":[1,0],"goal":2,"start":1,"action_noise":0,"location_history":"[1,3,2]","action_history":"[0,0]","door_history":"[1,1]","location_rts":"[31090,450]","trial_type":"two-door-navigation","trial_index":36,"time_elapsed":1610544,"internal_node_id":"0.0-2.0-34.0"},{"group":"hexagon_tri","room_assignment":["purple","blue","yellow","grey","red","green"],"door_color_assignment":["white","black"],"door_generator_assignment":[1,0],"goal":0,"start":2,"action_noise":0,"location_history":"[2,3,2,1,5,0]","action_history":"[1,0,0,1,1]","door_history":"[0,1,1,0,0]","location_rts":"[28284,54990,8874,7396,1386]","trial_type":"two-door-navigation","trial_index":37,"time_elapsed":1720657,"internal_node_id":"0.0-2.0-35.0"},{"group":"hexagon_tri","room_assignment":["purple","blue","yellow","grey","red","green"],"door_color_assignment":["white","black"],"door_generator_assignment":[1,0],"goal":5,"start":0,"action_noise":0,"location_history":"[0,5]","action_history":"[0]","door_history":"[1]","location_rts":"[12215]","trial_type":"two-door-navigation","trial_index":38,"time_elapsed":1737927,"internal_node_id":"0.0-2.0-36.0"},{"group":"hexagon_tri","room_assignment":["purple","blue","yellow","grey","red","green"],"door_color_assignment":["white","black"],"door_generator_assignment":[1,0],"goal":2,"start":5,"action_noise":0,"location_history":"[5,4,2]","action_history":"[0,1]","door_history":"[1,0]","location_rts":"[77673,2813]","trial_type":"two-door-navigation","trial_index":39,"time_elapsed":1824503,"internal_node_id":"0.0-2.0-37.0"},{"group":"hexagon_tri","room_assignment":["purple","blue","yellow","grey","red","green"],"door_color_assignment":["white","black"],"door_generator_assignment":[1,0],"goal":1,"start":2,"action_noise":0,"location_history":"[2,1]","action_history":"[0]","door_history":"[1]","location_rts":"[12469]","trial_type":"two-door-navigation","trial_index":40,"time_elapsed":1842018,"internal_node_id":"0.0-2.0-38.0"},{"group":"hexagon_tri","room_assignment":["purple","blue","yellow","grey","red","green"],"door_color_assignment":["white","black"],"door_generator_assignment":[1,0],"goal":4,"start":1,"action_noise":0,"location_history":"[1,5,0,5,4]","action_history":"[1,1,0,0]","door_history":"[0,0,1,1]","location_rts":"[25308,6357,26288,462]","trial_type":"two-door-navigation","trial_index":41,"time_elapsed":1908586,"internal_node_id":"0.0-2.0-39.0"},{"group":"hexagon_tri","room_assignment":["purple","blue","yellow","grey","red","green"],"door_color_assignment":["white","black"],"door_generator_assignment":[1,0],"goal":3,"start":4,"action_noise":0,"location_history":"[4,2,3]","action_history":"[1,1]","door_history":"[0,0]","location_rts":"[10050,301]","trial_type":"two-door-navigation","trial_index":42,"time_elapsed":1925015,"internal_node_id":"0.0-2.0-40.0"},{"group":"hexagon_tri","room_assignment":["purple","blue","yellow","grey","red","green"],"door_color_assignment":["white","black"],"door_generator_assignment":[1,0],"goal":5,"start":3,"action_noise":0,"location_history":"[3,4,0,5]","action_history":"[1,0,0]","door_history":"[0,1,1]","location_rts":"[42481,8847,567]","trial_type":"two-door-navigation","trial_index":43,"time_elapsed":1984039,"internal_node_id":"0.0-2.0-41.0"},{"group":"hexagon_tri","room_assignment":["purple","blue","yellow","grey","red","green"],"door_color_assignment":["white","black"],"door_generator_assignment":[1,0],"goal":3,"start":5,"action_noise":0,"location_history":"[5,0,1,3]","action_history":"[1,1,0]","door_history":"[0,0,1]","location_rts":"[75022,1373,1182]","trial_type":"two-door-navigation","trial_index":44,"time_elapsed":2068727,"internal_node_id":"0.0-2.0-42.0"},{"group":"hexagon_tri","room_assignment":["purple","blue","yellow","grey","red","green"],"door_color_assignment":["white","black"],"door_generator_assignment":[1,0],"goal":0,"start":3,"action_noise":0,"location_history":"[3,4,0]","action_history":"[1,0]","door_history":"[0,1]","location_rts":"[36367,1159]","trial_type":"two-door-navigation","trial_index":45,"time_elapsed":2112338,"internal_node_id":"0.0-2.0-43.0"},{"group":"hexagon_tri","room_assignment":["purple","blue","yellow","grey","red","green"],"door_color_assignment":["white","black"],"door_generator_assignment":[1,0],"goal":2,"start":0,"action_noise":0,"location_history":"[0,1,3,2]","action_history":"[1,0,0]","door_history":"[0,1,1]","location_rts":"[32398,6536,3065]","trial_type":"two-door-navigation","trial_index":46,"time_elapsed":2161454,"internal_node_id":"0.0-2.0-44.0"},{"group":"hexagon_tri","room_assignment":["purple","blue","yellow","grey","red","green"],"door_color_assignment":["white","black"],"door_generator_assignment":[1,0],"goal":4,"start":2,"action_noise":0,"location_history":"[2,3,2,3,4]","action_history":"[1,0,1,1]","door_history":"[0,1,0,0]","location_rts":"[29401,17158,16382,524]","trial_type":"two-door-navigation","trial_index":47,"time_elapsed":2233077,"internal_node_id":"0.0-2.0-45.0"},{"group":"hexagon_tri","room_assignment":["purple","blue","yellow","grey","red","green"],"door_color_assignment":["white","black"],"door_generator_assignment":[1,0],"goal":1,"start":4,"action_noise":0,"location_history":"[4,0,1]","action_history":"[0,1]","door_history":"[1,0]","location_rts":"[21803,408]","trial_type":"two-door-navigation","trial_index":48,"time_elapsed":2261365,"internal_node_id":"0.0-2.0-46.0"},{"group":"hexagon_tri","room_assignment":["purple","blue","yellow","grey","red","green"],"door_color_assignment":["white","black"],"door_generator_assignment":[1,0],"goal":4,"start":1,"action_noise":0,"location_history":"[1,3,4]","action_history":"[0,1]","door_history":"[1,0]","location_rts":"[28768,838]","trial_type":"two-door-navigation","trial_index":49,"time_elapsed":2297054,"internal_node_id":"0.0-2.0-47.0"},{"group":"hexagon_tri","room_assignment":["purple","blue","yellow","grey","red","green"],"door_color_assignment":["white","black"],"door_generator_assignment":[1,0],"goal":3,"start":4,"action_noise":0,"location_history":"[4,0,5,0,1,3]","action_history":"[0,0,1,1,0]","door_history":"[1,1,0,0,1]","location_rts":"[55907,3790,1902,12282,1770]","trial_type":"two-door-navigation","trial_index":50,"time_elapsed":2381877,"internal_node_id":"0.0-2.0-48.0"},{"group":"hexagon_tri","room_assignment":["purple","blue","yellow","grey","red","green"],"door_color_assignment":["white","black"],"door_generator_assignment":[1,0],"goal":5,"start":3,"action_noise":0,"location_history":"[3,2,1,5]","action_history":"[0,0,1]","door_history":"[1,1,0]","location_rts":"[38458,8306,712]","trial_type":"two-door-navigation","trial_index":51,"time_elapsed":2436464,"internal_node_id":"0.0-2.0-49.0"},{"view_history":"[{\"page_index\":0,\"viewing_time\":3029}]","rt":3030,"trial_type":"instructions","trial_index":52,"time_elapsed":2440494,"internal_node_id":"0.0-3.0"},{"view_history":"[{\"page_index\":0,\"viewing_time\":32281},{\"page_index\":1,\"viewing_time\":28867}]","rt":61149,"trial_type":"instructions","trial_index":53,"time_elapsed":2502645,"internal_node_id":"0.0-4.0"},{"group":"hexagon_tri","fractal_assignment":["../images/gry_blk.png","../images/blu_wht.png","../images/org_blu.png","../images/pnk_blu.png","../images/cyn_red.png","../images/ylw_slt.png"],"mutagen_generator_assignment":[0,1],"goal":4,"start":0,"action_noise":0,"location_history":"[0,5,0,1,3,2,1,5,0,1,5,0,5,0,5,0,1,3,4]","action_history":"[0,1,1,0,0,0,1,1,1,1,1,0,1,0,1,1,0,1]","mutagen_history":"[0,1,1,0,0,0,1,1,1,1,1,0,1,0,1,1,0,1]","location_rts":"[18763,4260,1639,3574,1632,879,1314,837,945,721,737,821,1226,701,597,679,635,1024]","trial_type":"fractal-mutation","trial_index":54,"time_elapsed":2567198,"internal_node_id":"0.0-5.0-0.0"},{"group":"hexagon_tri","fractal_assignment":["../images/gry_blk.png","../images/blu_wht.png","../images/org_blu.png","../images/pnk_blu.png","../images/cyn_red.png","../images/ylw_slt.png"],"mutagen_generator_assignment":[0,1],"goal":3,"start":4,"action_noise":0,"location_history":"[4,0,5,0,1,5,0,5,4,2,1,5,0,5,4,0,1,3]","action_history":"[0,0,1,1,1,1,0,0,1,0,1,1,0,0,0,1,0]","mutagen_history":"[0,0,1,1,1,1,0,0,1,0,1,1,0,0,0,1,0]","location_rts":"[4916,2422,990,767,870,666,620,627,573,1271,726,753,557,375,537,756,636]","trial_type":"fractal-mutation","trial_index":55,"time_elapsed":2607583,"internal_node_id":"0.0-5.0-1.0"},{"group":"hexagon_tri","fractal_assignment":["../images/gry_blk.png","../images/blu_wht.png","../images/org_blu.png","../images/pnk_blu.png","../images/cyn_red.png","../images/ylw_slt.png"],"mutagen_generator_assignment":[0,1],"goal":5,"start":3,"action_noise":0,"location_history":"[3,2,3,4,0,5]","action_history":"[0,1,1,0,0]","mutagen_history":"[0,1,1,0,0]","location_rts":"[6274,806,638,1147,1648]","trial_type":"fractal-mutation","trial_index":56,"time_elapsed":2627487,"internal_node_id":"0.0-5.0-2.0"},{"group":"hexagon_tri","fractal_assignment":["../images/gry_blk.png","../images/blu_wht.png","../images/org_blu.png","../images/pnk_blu.png","../images/cyn_red.png","../images/ylw_slt.png"],"mutagen_generator_assignment":[0,1],"goal":2,"start":5,"action_noise":0,"location_history":"[5,4,0,1,5,4,0,5,4,0,5,4,2]","action_history":"[0,0,1,1,0,0,0,0,0,0,0,1]","mutagen_history":"[0,0,1,1,0,0,0,0,0,0,0,1]","location_rts":"[15835,1147,592,660,494,649,504,517,589,566,601,359]","trial_type":"fractal-mutation","trial_index":57,"time_elapsed":2666820,"internal_node_id":"0.0-5.0-3.0"},{"group":"hexagon_tri","fractal_assignment":["../images/gry_blk.png","../images/blu_wht.png","../images/org_blu.png","../images/pnk_blu.png","../images/cyn_red.png","../images/ylw_slt.png"],"mutagen_generator_assignment":[0,1],"goal":1,"start":2,"action_noise":0,"location_history":"[2,1]","action_history":"[0]","mutagen_history":"[0]","location_rts":"[3569]","trial_type":"fractal-mutation","trial_index":58,"time_elapsed":2675493,"internal_node_id":"0.0-5.0-4.0"},{"group":"hexagon_tri","fractal_assignment":["../images/gry_blk.png","../images/blu_wht.png","../images/org_blu.png","../images/pnk_blu.png","../images/cyn_red.png","../images/ylw_slt.png"],"mutagen_generator_assignment":[0,1],"goal":4,"start":1,"action_noise":0,"location_history":"[1,3,2,1,3,2,1,5,4]","action_history":"[0,0,0,0,0,0,1,0]","mutagen_history":"[0,0,0,0,0,0,1,0]","location_rts":"[3344,653,611,592,921,737,564,418]","trial_type":"fractal-mutation","trial_index":59,"time_elapsed":2695917,"internal_node_id":"0.0-5.0-5.0"},{"group":"hexagon_tri","fractal_assignment":["../images/gry_blk.png","../images/blu_wht.png","../images/org_blu.png","../images/pnk_blu.png","../images/cyn_red.png","../images/ylw_slt.png"],"mutagen_generator_assignment":[0,1],"goal":1,"start":4,"action_noise":0,"location_history":"[4,2,1]","action_history":"[1,0]","mutagen_history":"[1,0]","location_rts":"[2814,491]","trial_type":"fractal-mutation","trial_index":60,"time_elapsed":2705390,"internal_node_id":"0.0-5.0-6.0"},{"group":"hexagon_tri","fractal_assignment":["../images/gry_blk.png","../images/blu_wht.png","../images/org_blu.png","../images/pnk_blu.png","../images/cyn_red.png","../images/ylw_slt.png"],"mutagen_generator_assignment":[0,1],"goal":5,"start":1,"action_noise":0,"location_history":"[1,3,4,2,3,2,1,3,2,1,3,4,2,1,5]","action_history":"[0,1,1,1,0,0,0,0,0,0,1,1,0,1]","mutagen_history":"[0,1,1,1,0,0,0,0,0,0,1,1,0,1]","location_rts":"[1639,797,477,555,639,598,570,548,753,581,452,492,504,460]","trial_type":"fractal-mutation","trial_index":61,"time_elapsed":2733478,"internal_node_id":"0.0-5.0-7.0"},{"group":"hexagon_tri","fractal_assignment":["../images/gry_blk.png","../images/blu_wht.png","../images/org_blu.png","../images/pnk_blu.png","../images/cyn_red.png","../images/ylw_slt.png"],"mutagen_generator_assignment":[0,1],"goal":0,"start":5,"action_noise":0,"location_history":"[5,0]","action_history":"[1]","mutagen_history":"[1]","location_rts":"[1231]","trial_type":"fractal-mutation","trial_index":62,"time_elapsed":2739798,"internal_node_id":"0.0-5.0-8.0"},{"group":"hexagon_tri","fractal_assignment":["../images/gry_blk.png","../images/blu_wht.png","../images/org_blu.png","../images/pnk_blu.png","../images/cyn_red.png","../images/ylw_slt.png"],"mutagen_generator_assignment":[0,1],"goal":2,"start":0,"action_noise":0,"location_history":"[0,1,3,4,0,5,0,5,4,2]","action_history":"[1,0,1,0,0,1,0,0,1]","mutagen_history":"[1,0,1,0,0,1,0,0,1]","location_rts":"[2196,692,551,486,473,531,496,801,541]","trial_type":"fractal-mutation","trial_index":63,"time_elapsed":2760256,"internal_node_id":"0.0-5.0-9.0"},{"group":"hexagon_tri","fractal_assignment":["../images/gry_blk.png","../images/blu_wht.png","../images/org_blu.png","../images/pnk_blu.png","../images/cyn_red.png","../images/ylw_slt.png"],"mutagen_generator_assignment":[0,1],"goal":3,"start":2,"action_noise":0,"location_history":"[2,1,5,0,5,4,2,3]","action_history":"[0,1,1,0,0,1,1]","mutagen_history":"[0,1,1,0,0,1,1]","location_rts":"[1360,682,559,427,615,449,547]","trial_type":"fractal-mutation","trial_index":64,"time_elapsed":2776364,"internal_node_id":"0.0-5.0-10.0"},{"group":"hexagon_tri","fractal_assignment":["../images/gry_blk.png","../images/blu_wht.png","../images/org_blu.png","../images/pnk_blu.png","../images/cyn_red.png","../images/ylw_slt.png"],"mutagen_generator_assignment":[0,1],"goal":0,"start":3,"action_noise":0,"location_history":"[3,2,1,3,4,2,3,2,3,2,1,5,0]","action_history":"[0,0,0,1,1,1,0,1,0,0,1,1]","mutagen_history":"[0,0,0,1,1,1,0,1,0,0,1,1]","location_rts":"[56060,13911,15050,17968,10449,7930,17967,10262,37681,32915,10651,3025]","trial_type":"fractal-mutation","trial_index":65,"time_elapsed":3027180,"internal_node_id":"0.0-5.0-11.0"},{"group":"hexagon_tri","fractal_assignment":["../images/gry_blk.png","../images/blu_wht.png","../images/org_blu.png","../images/pnk_blu.png","../images/cyn_red.png","../images/ylw_slt.png"],"mutagen_generator_assignment":[0,1],"goal":2,"start":0,"action_noise":0,"location_history":"[0,5,0,5,4,0,1,5,0,1,5,4,0,1,3,2]","action_history":"[0,1,0,0,0,1,1,1,1,1,0,0,1,0,0]","mutagen_history":"[0,1,0,0,0,1,1,1,1,1,0,0,1,0,0]","location_rts":"[12066,7336,5720,4767,6755,4389,6343,4492,6275,935,796,352,478,270,432]","trial_type":"fractal-mutation","trial_index":66,"time_elapsed":3108666,"internal_node_id":"0.0-5.0-12.0"},{"group":"hexagon_tri","fractal_assignment":["../images/gry_blk.png","../images/blu_wht.png","../images/org_blu.png","../images/pnk_blu.png","../images/cyn_red.png","../images/ylw_slt.png"],"mutagen_generator_assignment":[0,1],"goal":5,"start":2,"action_noise":0,"location_history":"[2,3,4,0,1,5]","action_history":"[1,1,0,1,1]","mutagen_history":"[1,1,0,1,1]","location_rts":"[13036,1516,5496,5276,3548]","trial_type":"fractal-mutation","trial_index":67,"time_elapsed":3146962,"internal_node_id":"0.0-5.0-13.0"},{"group":"hexagon_tri","fractal_assignment":["../images/gry_blk.png","../images/blu_wht.png","../images/org_blu.png","../images/pnk_blu.png","../images/cyn_red.png","../images/ylw_slt.png"],"mutagen_generator_assignment":[0,1],"goal":4,"start":5,"action_noise":0,"location_history":"[5,4]","action_history":"[0]","mutagen_history":"[0]","location_rts":"[3940]","trial_type":"fractal-mutation","trial_index":68,"time_elapsed":3155987,"internal_node_id":"0.0-5.0-14.0"},{"group":"hexagon_tri","fractal_assignment":["../images/gry_blk.png","../images/blu_wht.png","../images/org_blu.png","../images/pnk_blu.png","../images/cyn_red.png","../images/ylw_slt.png"],"mutagen_generator_assignment":[0,1],"goal":3,"start":4,"action_noise":0,"location_history":"[4,0,5,0,1,3]","action_history":"[0,0,1,1,0]","mutagen_history":"[0,0,1,1,0]","location_rts":"[15245,1708,19021,18083,7914]","trial_type":"fractal-mutation","trial_index":69,"time_elapsed":3227304,"internal_node_id":"0.0-5.0-15.0"},{"group":"hexagon_tri","fractal_assignment":["../images/gry_blk.png","../images/blu_wht.png","../images/org_blu.png","../images/pnk_blu.png","../images/cyn_red.png","../images/ylw_slt.png"],"mutagen_generator_assignment":[0,1],"goal":1,"start":3,"action_noise":0,"location_history":"[3,4,2,1]","action_history":"[1,1,0]","mutagen_history":"[1,1,0]","location_rts":"[12714,9674,5992]","trial_type":"fractal-mutation","trial_index":70,"time_elapsed":3262909,"internal_node_id":"0.0-5.0-16.0"},{"group":"hexagon_tri","fractal_assignment":["../images/gry_blk.png","../images/blu_wht.png","../images/org_blu.png","../images/pnk_blu.png","../images/cyn_red.png","../images/ylw_slt.png"],"mutagen_generator_assignment":[0,1],"goal":5,"start":1,"action_noise":0,"location_history":"[1,5]","action_history":"[1]","mutagen_history":"[1]","location_rts":"[8086]","trial_type":"fractal-mutation","trial_index":71,"time_elapsed":3276094,"internal_node_id":"0.0-5.0-17.0"},{"group":"hexagon_tri","fractal_assignment":["../images/gry_blk.png","../images/blu_wht.png","../images/org_blu.png","../images/pnk_blu.png","../images/cyn_red.png","../images/ylw_slt.png"],"mutagen_generator_assignment":[0,1],"goal":4,"start":5,"action_noise":0,"location_history":"[5,4]","action_history":"[0]","mutagen_history":"[0]","location_rts":"[27086]","trial_type":"fractal-mutation","trial_index":72,"time_elapsed":3308259,"internal_node_id":"0.0-5.0-18.0"},{"group":"hexagon_tri","fractal_assignment":["../images/gry_blk.png","../images/blu_wht.png","../images/org_blu.png","../images/pnk_blu.png","../images/cyn_red.png","../images/ylw_slt.png"],"mutagen_generator_assignment":[0,1],"goal":0,"start":4,"action_noise":0,"location_history":"[4,0]","action_history":"[0]","mutagen_history":"[0]","location_rts":"[2983]","trial_type":"fractal-mutation","trial_index":73,"time_elapsed":3316322,"internal_node_id":"0.0-5.0-19.0"},{"group":"hexagon_tri","fractal_assignment":["../images/gry_blk.png","../images/blu_wht.png","../images/org_blu.png","../images/pnk_blu.png","../images/cyn_red.png","../images/ylw_slt.png"],"mutagen_generator_assignment":[0,1],"goal":1,"start":0,"action_noise":0,"location_history":"[0,1]","action_history":"[1]","mutagen_history":"[1]","location_rts":"[2697]","trial_type":"fractal-mutation","trial_index":74,"time_elapsed":3324109,"internal_node_id":"0.0-5.0-20.0"},{"group":"hexagon_tri","fractal_assignment":["../images/gry_blk.png","../images/blu_wht.png","../images/org_blu.png","../images/pnk_blu.png","../images/cyn_red.png","../images/ylw_slt.png"],"mutagen_generator_assignment":[0,1],"goal":3,"start":1,"action_noise":0,"location_history":"[1,3]","action_history":"[0]","mutagen_history":"[0]","location_rts":"[12008]","trial_type":"fractal-mutation","trial_index":75,"time_elapsed":3341199,"internal_node_id":"0.0-5.0-21.0"},{"group":"hexagon_tri","fractal_assignment":["../images/gry_blk.png","../images/blu_wht.png","../images/org_blu.png","../images/pnk_blu.png","../images/cyn_red.png","../images/ylw_slt.png"],"mutagen_generator_assignment":[0,1],"goal":2,"start":3,"action_noise":0,"location_history":"[3,2]","action_history":"[0]","mutagen_history":"[0]","location_rts":"[5592]","trial_type":"fractal-mutation","trial_index":76,"time_elapsed":3351869,"internal_node_id":"0.0-5.0-22.0"},{"group":"hexagon_tri","fractal_assignment":["../images/gry_blk.png","../images/blu_wht.png","../images/org_blu.png","../images/pnk_blu.png","../images/cyn_red.png","../images/ylw_slt.png"],"mutagen_generator_assignment":[0,1],"goal":0,"start":2,"action_noise":0,"location_history":"[2,1,5,0]","action_history":"[0,1,1]","mutagen_history":"[0,1,1]","location_rts":"[56918,4274,532]","trial_type":"fractal-mutation","trial_index":77,"time_elapsed":3420842,"internal_node_id":"0.0-5.0-23.0"},{"group":"hexagon_tri","fractal_assignment":["../images/gry_blk.png","../images/blu_wht.png","../images/org_blu.png","../images/pnk_blu.png","../images/cyn_red.png","../images/ylw_slt.png"],"mutagen_generator_assignment":[0,1],"goal":3,"start":0,"action_noise":0,"location_history":"[0,1,3]","action_history":"[1,0]","mutagen_history":"[1,0]","location_rts":"[27735,2544]","trial_type":"fractal-mutation","trial_index":78,"time_elapsed":3457275,"internal_node_id":"0.0-5.0-24.0"},{"group":"hexagon_tri","fractal_assignment":["../images/gry_blk.png","../images/blu_wht.png","../images/org_blu.png","../images/pnk_blu.png","../images/cyn_red.png","../images/ylw_slt.png"],"mutagen_generator_assignment":[0,1],"goal":1,"start":3,"action_noise":0,"location_history":"[3,2,1]","action_history":"[0,0]","mutagen_history":"[0,0]","location_rts":"[46138,637]","trial_type":"fractal-mutation","trial_index":79,"time_elapsed":3510185,"internal_node_id":"0.0-5.0-25.0"},{"group":"hexagon_tri","fractal_assignment":["../images/gry_blk.png","../images/blu_wht.png","../images/org_blu.png","../images/pnk_blu.png","../images/cyn_red.png","../images/ylw_slt.png"],"mutagen_generator_assignment":[0,1],"goal":2,"start":1,"action_noise":0,"location_history":"[1,5,4,2]","action_history":"[1,0,1]","mutagen_history":"[1,0,1]","location_rts":"[23792,22625,2816]","trial_type":"fractal-mutation","trial_index":80,"time_elapsed":3566665,"internal_node_id":"0.0-5.0-26.0"},{"group":"hexagon_tri","fractal_assignment":["../images/gry_blk.png","../images/blu_wht.png","../images/org_blu.png","../images/pnk_blu.png","../images/cyn_red.png","../images/ylw_slt.png"],"mutagen_generator_assignment":[0,1],"goal":5,"start":2,"action_noise":0,"location_history":"[2,1,5]","action_history":"[0,1]","mutagen_history":"[0,1]","location_rts":"[28251,2430]","trial_type":"fractal-mutation","trial_index":81,"time_elapsed":3603522,"internal_node_id":"0.0-5.0-27.0"},{"group":"hexagon_tri","fractal_assignment":["../images/gry_blk.png","../images/blu_wht.png","../images/org_blu.png","../images/pnk_blu.png","../images/cyn_red.png","../images/ylw_slt.png"],"mutagen_generator_assignment":[0,1],"goal":4,"start":5,"action_noise":0,"location_history":"[5,4]","action_history":"[0]","mutagen_history":"[0]","location_rts":"[5289]","trial_type":"fractal-mutation","trial_index":82,"time_elapsed":3613889,"internal_node_id":"0.0-5.0-28.0"},{"group":"hexagon_tri","fractal_assignment":["../images/gry_blk.png","../images/blu_wht.png","../images/org_blu.png","../images/pnk_blu.png","../images/cyn_red.png","../images/ylw_slt.png"],"mutagen_generator_assignment":[0,1],"goal":5,"start":4,"action_noise":0,"location_history":"[4,0,5]","action_history":"[0,0]","mutagen_history":"[0,0]","location_rts":"[17014,521]","trial_type":"fractal-mutation","trial_index":83,"time_elapsed":3637591,"internal_node_id":"0.0-5.0-29.0"},{"group":"hexagon_tri","fractal_assignment":["../images/gry_blk.png","../images/blu_wht.png","../images/org_blu.png","../images/pnk_blu.png","../images/cyn_red.png","../images/ylw_slt.png"],"mutagen_generator_assignment":[0,1],"goal":3,"start":5,"action_noise":0,"location_history":"[5,0,1,3]","action_history":"[1,1,0]","mutagen_history":"[1,1,0]","location_rts":"[73098,1583,2354]","trial_type":"fractal-mutation","trial_index":84,"time_elapsed":3721876,"internal_node_id":"0.0-5.0-30.0"},{"group":"hexagon_tri","fractal_assignment":["../images/gry_blk.png","../images/blu_wht.png","../images/org_blu.png","../images/pnk_blu.png","../images/cyn_red.png","../images/ylw_slt.png"],"mutagen_generator_assignment":[0,1],"goal":0,"start":3,"action_noise":0,"location_history":"[3,4,0]","action_history":"[1,0]","mutagen_history":"[1,0]","location_rts":"[28527,2406]","trial_type":"fractal-mutation","trial_index":85,"time_elapsed":3758983,"internal_node_id":"0.0-5.0-31.0"},{"group":"hexagon_tri","fractal_assignment":["../images/gry_blk.png","../images/blu_wht.png","../images/org_blu.png","../images/pnk_blu.png","../images/cyn_red.png","../images/ylw_slt.png"],"mutagen_generator_assignment":[0,1],"goal":4,"start":0,"action_noise":0,"location_history":"[0,5,4]","action_history":"[0,0]","mutagen_history":"[0,0]","location_rts":"[22757,349]","trial_type":"fractal-mutation","trial_index":86,"time_elapsed":3788220,"internal_node_id":"0.0-5.0-32.0"},{"group":"hexagon_tri","fractal_assignment":["../images/gry_blk.png","../images/blu_wht.png","../images/org_blu.png","../images/pnk_blu.png","../images/cyn_red.png","../images/ylw_slt.png"],"mutagen_generator_assignment":[0,1],"goal":1,"start":4,"action_noise":0,"location_history":"[4,0,1]","action_history":"[0,1]","mutagen_history":"[0,1]","location_rts":"[8866,1267]","trial_type":"fractal-mutation","trial_index":87,"time_elapsed":3804515,"internal_node_id":"0.0-5.0-33.0"},{"group":"hexagon_tri","fractal_assignment":["../images/gry_blk.png","../images/blu_wht.png","../images/org_blu.png","../images/pnk_blu.png","../images/cyn_red.png","../images/ylw_slt.png"],"mutagen_generator_assignment":[0,1],"goal":2,"start":1,"action_noise":0,"location_history":"[1,3,2]","action_history":"[0,0]","mutagen_history":"[0,0]","location_rts":"[32150,4977]","trial_type":"fractal-mutation","trial_index":88,"time_elapsed":3847793,"internal_node_id":"0.0-5.0-34.0"},{"group":"hexagon_tri","fractal_assignment":["../images/gry_blk.png","../images/blu_wht.png","../images/org_blu.png","../images/pnk_blu.png","../images/cyn_red.png","../images/ylw_slt.png"],"mutagen_generator_assignment":[0,1],"goal":0,"start":2,"action_noise":0,"location_history":"[2,3,4,0]","action_history":"[1,1,0]","mutagen_history":"[1,1,0]","location_rts":"[76183,9485,2758]","trial_type":"fractal-mutation","trial_index":89,"time_elapsed":3943462,"internal_node_id":"0.0-5.0-35.0"},{"group":"hexagon_tri","fractal_assignment":["../images/gry_blk.png","../images/blu_wht.png","../images/org_blu.png","../images/pnk_blu.png","../images/cyn_red.png","../images/ylw_slt.png"],"mutagen_generator_assignment":[0,1],"goal":5,"start":0,"action_noise":0,"location_history":"[0,5]","action_history":"[0]","mutagen_history":"[0]","location_rts":"[8235]","trial_type":"fractal-mutation","trial_index":90,"time_elapsed":3956777,"internal_node_id":"0.0-5.0-36.0"},{"group":"hexagon_tri","fractal_assignment":["../images/gry_blk.png","../images/blu_wht.png","../images/org_blu.png","../images/pnk_blu.png","../images/cyn_red.png","../images/ylw_slt.png"],"mutagen_generator_assignment":[0,1],"goal":2,"start":5,"action_noise":0,"location_history":"[5,4,2]","action_history":"[0,1]","mutagen_history":"[0,1]","location_rts":"[29069,2699]","trial_type":"fractal-mutation","trial_index":91,"time_elapsed":3994733,"internal_node_id":"0.0-5.0-37.0"},{"group":"hexagon_tri","fractal_assignment":["../images/gry_blk.png","../images/blu_wht.png","../images/org_blu.png","../images/pnk_blu.png","../images/cyn_red.png","../images/ylw_slt.png"],"mutagen_generator_assignment":[0,1],"goal":1,"start":2,"action_noise":0,"location_history":"[2,1]","action_history":"[0]","mutagen_history":"[0]","location_rts":"[5439]","trial_type":"fractal-mutation","trial_index":92,"time_elapsed":4005262,"internal_node_id":"0.0-5.0-38.0"},{"group":"hexagon_tri","fractal_assignment":["../images/gry_blk.png","../images/blu_wht.png","../images/org_blu.png","../images/pnk_blu.png","../images/cyn_red.png","../images/ylw_slt.png"],"mutagen_generator_assignment":[0,1],"goal":4,"start":1,"action_noise":0,"location_history":"[1,5,4]","action_history":"[1,0]","mutagen_history":"[1,0]","location_rts":"[17199,4381]","trial_type":"fractal-mutation","trial_index":93,"time_elapsed":4033003,"internal_node_id":"0.0-5.0-39.0"},{"group":"hexagon_tri","fractal_assignment":["../images/gry_blk.png","../images/blu_wht.png","../images/org_blu.png","../images/pnk_blu.png","../images/cyn_red.png","../images/ylw_slt.png"],"mutagen_generator_assignment":[0,1],"goal":3,"start":4,"action_noise":0,"location_history":"[4,2,3]","action_history":"[1,1]","mutagen_history":"[1,1]","location_rts":"[22795,2359]","trial_type":"fractal-mutation","trial_index":94,"time_elapsed":4064328,"internal_node_id":"0.0-5.0-40.0"},{"group":"hexagon_tri","fractal_assignment":["../images/gry_blk.png","../images/blu_wht.png","../images/org_blu.png","../images/pnk_blu.png","../images/cyn_red.png","../images/ylw_slt.png"],"mutagen_generator_assignment":[0,1],"goal":5,"start":3,"action_noise":0,"location_history":"[3,4,0,5]","action_history":"[1,0,0]","mutagen_history":"[1,0,0]","location_rts":"[53640,56537,2785]","trial_type":"fractal-mutation","trial_index":95,"time_elapsed":4184528,"internal_node_id":"0.0-5.0-41.0"},{"group":"hexagon_tri","fractal_assignment":["../images/gry_blk.png","../images/blu_wht.png","../images/org_blu.png","../images/pnk_blu.png","../images/cyn_red.png","../images/ylw_slt.png"],"mutagen_generator_assignment":[0,1],"goal":3,"start":5,"action_noise":0,"location_history":"[5,0,1,3]","action_history":"[1,1,0]","mutagen_history":"[1,1,0]","location_rts":"[51669,6137,3266]","trial_type":"fractal-mutation","trial_index":96,"time_elapsed":4252850,"internal_node_id":"0.0-5.0-42.0"},{"group":"hexagon_tri","fractal_assignment":["../images/gry_blk.png","../images/blu_wht.png","../images/org_blu.png","../images/pnk_blu.png","../images/cyn_red.png","../images/ylw_slt.png"],"mutagen_generator_assignment":[0,1],"goal":0,"start":3,"action_noise":0,"location_history":"[3,4,0]","action_history":"[1,0]","mutagen_history":"[1,0]","location_rts":"[24433,1712]","trial_type":"fractal-mutation","trial_index":97,"time_elapsed":4285156,"internal_node_id":"0.0-5.0-43.0"},{"group":"hexagon_tri","fractal_assignment":["../images/gry_blk.png","../images/blu_wht.png","../images/org_blu.png","../images/pnk_blu.png","../images/cyn_red.png","../images/ylw_slt.png"],"mutagen_generator_assignment":[0,1],"goal":2,"start":0,"action_noise":0,"location_history":"[0,5,4,0,1,5,4,2]","action_history":"[0,0,0,1,1,0,1]","mutagen_history":"[0,0,0,1,1,0,1]","location_rts":"[29461,1163,3851,15085,21350,11910,4149]","trial_type":"fractal-mutation","trial_index":98,"time_elapsed":4383632,"internal_node_id":"0.0-5.0-44.0"},{"group":"hexagon_tri","fractal_assignment":["../images/gry_blk.png","../images/blu_wht.png","../images/org_blu.png","../images/pnk_blu.png","../images/cyn_red.png","../images/ylw_slt.png"],"mutagen_generator_assignment":[0,1],"goal":4,"start":2,"action_noise":0,"location_history":"[2,3,4]","action_history":"[1,1]","mutagen_history":"[1,1]","location_rts":"[19192,4026]","trial_type":"fractal-mutation","trial_index":99,"time_elapsed":4413039,"internal_node_id":"0.0-5.0-45.0"},{"group":"hexagon_tri","fractal_assignment":["../images/gry_blk.png","../images/blu_wht.png","../images/org_blu.png","../images/pnk_blu.png","../images/cyn_red.png","../images/ylw_slt.png"],"mutagen_generator_assignment":[0,1],"goal":1,"start":4,"action_noise":0,"location_history":"[4,0,1]","action_history":"[0,1]","mutagen_history":"[0,1]","location_rts":"[8110,684]","trial_type":"fractal-mutation","trial_index":100,"time_elapsed":4427993,"internal_node_id":"0.0-5.0-46.0"},{"group":"hexagon_tri","fractal_assignment":["../images/gry_blk.png","../images/blu_wht.png","../images/org_blu.png","../images/pnk_blu.png","../images/cyn_red.png","../images/ylw_slt.png"],"mutagen_generator_assignment":[0,1],"goal":4,"start":1,"action_noise":0,"location_history":"[1,3,4]","action_history":"[0,1]","mutagen_history":"[0,1]","location_rts":"[16755,4170]","trial_type":"fractal-mutation","trial_index":101,"time_elapsed":4455090,"internal_node_id":"0.0-5.0-47.0"},{"group":"hexagon_tri","fractal_assignment":["../images/gry_blk.png","../images/blu_wht.png","../images/org_blu.png","../images/pnk_blu.png","../images/cyn_red.png","../images/ylw_slt.png"],"mutagen_generator_assignment":[0,1],"goal":3,"start":4,"action_noise":0,"location_history":"[4,2,3]","action_history":"[1,1]","mutagen_history":"[1,1]","location_rts":"[38021,2022]","trial_type":"fractal-mutation","trial_index":102,"time_elapsed":4501327,"internal_node_id":"0.0-5.0-48.0"},{"group":"hexagon_tri","fractal_assignment":["../images/gry_blk.png","../images/blu_wht.png","../images/org_blu.png","../images/pnk_blu.png","../images/cyn_red.png","../images/ylw_slt.png"],"mutagen_generator_assignment":[0,1],"goal":5,"start":3,"action_noise":0,"location_history":"[3,2,1,5]","action_history":"[0,0,1]","mutagen_history":"[0,0,1]","location_rts":"[41184,5383,1209]","trial_type":"fractal-mutation","trial_index":103,"time_elapsed":4556338,"internal_node_id":"0.0-5.0-49.0"},{"view_history":"[{\"page_index\":0,\"viewing_time\":25326}]","rt":25328,"trial_type":"instructions","trial_index":104,"time_elapsed":4582669,"internal_node_id":"0.0-6.0"},{"rt":10055,"responses":"{\"Q0\":\"It was challenging but fun!\"}","trial_type":"survey-text","trial_index":105,"time_elapsed":4593746,"internal_node_id":"0.0-7.0"}]