[{"view_history":"[{\"page_index\":0,\"viewing_time\":71616},{\"page_index\":1,\"viewing_time\":14880},{\"page_index\":2,\"viewing_time\":19754}]","rt":106251,"trial_type":"instructions","trial_index":0,"time_elapsed":106251,"internal_node_id":"0.0-0.0"},{"view_history":"[{\"page_index\":0,\"viewing_time\":2712},{\"page_index\":1,\"viewing_time\":31018}]","rt":33730,"trial_type":"instructions","trial_index":1,"time_elapsed":140983,"internal_node_id":"0.0-1.0"},{"group":"hexagon_bi","room_assignment":["grey","blue","purple","yellow","red","green"],"door_color_assignment":["white","black"],"door_generator_assignment":[1,0],"goal":4,"start":0,"action_noise":0,"location_history":"[0,5,0,5,4]","action_history":"[0,0,0,1]","door_history":"[1,1,1,0]","location_rts":"[2581,3664,10919,1158]","trial_type":"two-door-navigation","trial_index":2,"time_elapsed":167422,"internal_node_id":"0.0-2.0-0.0"},{"group":"hexagon_bi","room_assignment":["grey","blue","purple","yellow","red","green"],"door_color_assignment":["white","black"],"door_generator_assignment":[1,0],"goal":3,"start":4,"action_noise":0,"location_history":"[4,5,4,3]","action_history":"[1,1,0]","door_history":"[0,0,1]","location_rts":"[4511,1939,867]","trial_type":"two-door-navigation","trial_index":3,"time_elapsed":181795,"internal_node_id":"0.0-2.0-1.0"},{"group":"hexagon_bi","room_assignment":["grey","blue","purple","yellow","red","green"],"door_color_assignment":["white","black"],"door_generator_assignment":[1,0],"goal":5,"start":3,"action_noise":0,"location_history":"[3,4,3,2,3,4,3,2,1,2,3,4,3,4,5]","action_history":"[0,0,1,1,0,0,1,0,0,1,0,0,0,1]","door_history":"[1,1,0,0,1,1,0,1,1,0,1,1,1,0]","location_rts":"[2656,1294,792,761,959,741,1956,1014,1558,1233,1178,859,3024,523]","trial_type":"two-door-navigation","trial_index":4,"time_elapsed":218593,"internal_node_id":"0.0-2.0-2.0"},{"group":"hexagon_bi","room_assignment":["grey","blue","purple","yellow","red","green"],"door_color_assignment":["white","black"],"door_generator_assignment":[1,0],"goal":2,"start":5,"action_noise":0,"location_history":"[5,0,1,2]","action_history":"[0,1,0]","door_history":"[1,0,1]","location_rts":"[5427,1123,1029]","trial_type":"two-door-navigation","trial_index":5,"time_elapsed":233229,"internal_node_id":"0.0-2.0-3.0"},{"group":"hexagon_bi","room_assignment":["grey","blue","purple","yellow","red","green"],"door_color_assignment":["white","black"],"door_generator_assignment":[1,0],"goal":1,"start":2,"action_noise":0,"location_history":"[2,1]","action_history":"[0]","door_history":"[1]","location_rts":"[31474]","trial_type":"two-door-navigation","trial_index":6,"time_elapsed":269726,"internal_node_id":"0.0-2.0-4.0"},{"group":"hexagon_bi","room_assignment":["grey","blue","purple","yellow","red","green"],"door_color_assignment":["white","black"],"door_generator_assignment":[1,0],"goal":4,"start":1,"action_noise":0,"location_history":"[1,0,1,2,3,4]","action_history":"[1,1,0,1,0]","door_history":"[0,0,1,0,1]","location_rts":"[13002,8383,13183,5426,17526]","trial_type":"two-door-navigation","trial_index":7,"time_elapsed":336331,"internal_node_id":"0.0-2.0-5.0"},{"group":"hexagon_bi","room_assignment":["grey","blue","purple","yellow","red","green"],"door_color_assignment":["white","black"],"door_generator_assignment":[1,0],"goal":1,"start":4,"action_noise":0,"location_history":"[4,5,0,1]","action_history":"[1,0,1]","door_history":"[0,1,0]","location_rts":"[12961,19320,12456]","trial_type":"two-door-navigation","trial_index":8,"time_elapsed":388142,"internal_node_id":"0.0-2.0-6.0"},{"group":"hexagon_bi","room_assignment":["grey","blue","purple","yellow","red","green"],"door_color_assignment":["white","black"],"door_generator_assignment":[1,0],"goal":5,"start":1,"action_noise":0,"location_history":"[1,2,3,2,1,2,3,4,5]","action_history":"[0,1,1,0,0,1,0,1]","door_history":"[1,0,0,1,1,0,1,0]","location_rts":"[8344,12927,7593,17314,5090,1452,10768,928]","trial_type":"two-door-navigation","trial_index":9,"time_elapsed":464763,"internal_node_id":"0.0-2.0-7.0"},{"group":"hexagon_bi","room_assignment":["grey","blue","purple","yellow","red","green"],"door_color_assignment":["white","black"],"door_generator_assignment":[1,0],"goal":0,"start":5,"action_noise":0,"location_history":"[5,0]","action_history":"[0]","door_history":"[1]","location_rts":"[5831]","trial_type":"two-door-navigation","trial_index":10,"time_elapsed":475623,"internal_node_id":"0.0-2.0-8.0"},{"group":"hexagon_bi","room_assignment":["grey","blue","purple","yellow","red","green"],"door_color_assignment":["white","black"],"door_generator_assignment":[1,0],"goal":2,"start":0,"action_noise":0,"location_history":"[0,5,4,3,2]","action_history":"[0,1,0,1]","door_history":"[1,0,1,0]","location_rts":"[10151,6804,9584,7969]","trial_type":"two-door-navigation","trial_index":11,"time_elapsed":518223,"internal_node_id":"0.0-2.0-9.0"},{"group":"hexagon_bi","room_assignment":["grey","blue","purple","yellow","red","green"],"door_color_assignment":["white","black"],"door_generator_assignment":[1,0],"goal":3,"start":2,"action_noise":0,"location_history":"[2,3]","action_history":"[1]","door_history":"[0]","location_rts":"[3710]","trial_type":"two-door-navigation","trial_index":12,"time_elapsed":526983,"internal_node_id":"0.0-2.0-10.0"},{"group":"hexagon_bi","room_assignment":["grey","blue","purple","yellow","red","green"],"door_color_assignment":["white","black"],"door_generator_assignment":[1,0],"goal":0,"start":3,"action_noise":0,"location_history":"[3,2,3,4,5,0]","action_history":"[1,1,0,1,0]","door_history":"[0,0,1,0,1]","location_rts":"[21319,1163,621,21910,2917]","trial_type":"two-door-navigation","trial_index":13,"time_elapsed":584034,"internal_node_id":"0.0-2.0-11.0"},{"group":"hexagon_bi","room_assignment":["grey","blue","purple","yellow","red","green"],"door_color_assignment":["white","black"],"door_generator_assignment":[1,0],"goal":2,"start":0,"action_noise":0,"location_history":"[0,5,4,3,2]","action_history":"[0,1,0,1]","door_history":"[1,0,1,0]","location_rts":"[4819,34993,9742,1336]","trial_type":"two-door-navigation","trial_index":14,"time_elapsed":643035,"internal_node_id":"0.0-2.0-12.0"},{"group":"hexagon_bi","room_assignment":["grey","blue","purple","yellow","red","green"],"door_color_assignment":["white","black"],"door_generator_assignment":[1,0],"goal":5,"start":2,"action_noise":0,"location_history":"[2,1,2,1,0,5]","action_history":"[0,0,0,1,0]","door_history":"[1,1,1,0,1]","location_rts":"[39216,1564,30909,9763,1734]","trial_type":"two-door-navigation","trial_index":15,"time_elapsed":735322,"internal_node_id":"0.0-2.0-13.0"},{"group":"hexagon_bi","room_assignment":["grey","blue","purple","yellow","red","green"],"door_color_assignment":["white","black"],"door_generator_assignment":[1,0],"goal":4,"start":5,"action_noise":0,"location_history":"[5,4]","action_history":"[1]","door_history":"[0]","location_rts":"[6752]","trial_type":"two-door-navigation","trial_index":16,"time_elapsed":747095,"internal_node_id":"0.0-2.0-14.0"},{"group":"hexagon_bi","room_assignment":["grey","blue","purple","yellow","red","green"],"door_color_assignment":["white","black"],"door_generator_assignment":[1,0],"goal":3,"start":4,"action_noise":0,"location_history":"[4,3]","action_history":"[0]","door_history":"[1]","location_rts":"[5360]","trial_type":"two-door-navigation","trial_index":17,"time_elapsed":757473,"internal_node_id":"0.0-2.0-15.0"},{"group":"hexagon_bi","room_assignment":["grey","blue","purple","yellow","red","green"],"door_color_assignment":["white","black"],"door_generator_assignment":[1,0],"goal":1,"start":3,"action_noise":0,"location_history":"[3,2,1]","action_history":"[1,0]","door_history":"[0,1]","location_rts":"[18995,2455]","trial_type":"two-door-navigation","trial_index":18,"time_elapsed":784958,"internal_node_id":"0.0-2.0-16.0"},{"group":"hexagon_bi","room_assignment":["grey","blue","purple","yellow","red","green"],"door_color_assignment":["white","black"],"door_generator_assignment":[1,0],"goal":5,"start":1,"action_noise":0,"location_history":"[1,0,5]","action_history":"[1,0]","door_history":"[0,1]","location_rts":"[14905,1156]","trial_type":"two-door-navigation","trial_index":19,"time_elapsed":807057,"internal_node_id":"0.0-2.0-17.0"},{"group":"hexagon_bi","room_assignment":["grey","blue","purple","yellow","red","green"],"door_color_assignment":["white","black"],"door_generator_assignment":[1,0],"goal":4,"start":5,"action_noise":0,"location_history":"[5,4]","action_history":"[1]","door_history":"[0]","location_rts":"[8025]","trial_type":"two-door-navigation","trial_index":20,"time_elapsed":820107,"internal_node_id":"0.0-2.0-18.0"},{"group":"hexagon_bi","room_assignment":["grey","blue","purple","yellow","red","green"],"door_color_assignment":["white","black"],"door_generator_assignment":[1,0],"goal":0,"start":4,"action_noise":0,"location_history":"[4,5,0]","action_history":"[1,0]","door_history":"[0,1]","location_rts":"[14653,880]","trial_type":"two-door-navigation","trial_index":21,"time_elapsed":841682,"internal_node_id":"0.0-2.0-19.0"},{"group":"hexagon_bi","room_assignment":["grey","blue","purple","yellow","red","green"],"door_color_assignment":["white","black"],"door_generator_assignment":[1,0],"goal":1,"start":0,"action_noise":0,"location_history":"[0,1]","action_history":"[1]","door_history":"[0]","location_rts":"[11445]","trial_type":"two-door-navigation","trial_index":22,"time_elapsed":858147,"internal_node_id":"0.0-2.0-20.0"},{"group":"hexagon_bi","room_assignment":["grey","blue","purple","yellow","red","green"],"door_color_assignment":["white","black"],"door_generator_assignment":[1,0],"goal":3,"start":1,"action_noise":0,"location_history":"[1,2,3]","action_history":"[0,1]","door_history":"[1,0]","location_rts":"[11018,1188]","trial_type":"two-door-navigation","trial_index":23,"time_elapsed":876396,"internal_node_id":"0.0-2.0-21.0"},{"group":"hexagon_bi","room_assignment":["grey","blue","purple","yellow","red","green"],"door_color_assignment":["white","black"],"door_generator_assignment":[1,0],"goal":2,"start":3,"action_noise":0,"location_history":"[3,2]","action_history":"[1]","door_history":"[0]","location_rts":"[5802]","trial_type":"two-door-navigation","trial_index":24,"time_elapsed":887221,"internal_node_id":"0.0-2.0-22.0"},{"group":"hexagon_bi","room_assignment":["grey","blue","purple","yellow","red","green"],"door_color_assignment":["white","black"],"door_generator_assignment":[1,0],"goal":0,"start":2,"action_noise":0,"location_history":"[2,1,0]","action_history":"[0,1]","door_history":"[1,0]","location_rts":"[11175,2770]","trial_type":"two-door-navigation","trial_index":25,"time_elapsed":907204,"internal_node_id":"0.0-2.0-23.0"},{"group":"hexagon_bi","room_assignment":["grey","blue","purple","yellow","red","green"],"door_color_assignment":["white","black"],"door_generator_assignment":[1,0],"goal":3,"start":0,"action_noise":0,"location_history":"[0,1,0,5,4,3]","action_history":"[1,1,0,1,0]","door_history":"[0,0,1,0,1]","location_rts":"[29677,4136,36866,29740,4347]","trial_type":"two-door-navigation","trial_index":26,"time_elapsed":1021064,"internal_node_id":"0.0-2.0-24.0"},{"group":"hexagon_bi","room_assignment":["grey","blue","purple","yellow","red","green"],"door_color_assignment":["white","black"],"door_generator_assignment":[1,0],"goal":1,"start":3,"action_noise":0,"location_history":"[3,2,1]","action_history":"[1,0]","door_history":"[0,1]","location_rts":"[13305,2361]","trial_type":"two-door-navigation","trial_index":27,"time_elapsed":1042766,"internal_node_id":"0.0-2.0-25.0"},{"group":"hexagon_bi","room_assignment":["grey","blue","purple","yellow","red","green"],"door_color_assignment":["white","black"],"door_generator_assignment":[1,0],"goal":2,"start":1,"action_noise":0,"location_history":"[1,2]","action_history":"[0]","door_history":"[1]","location_rts":"[5275]","trial_type":"two-door-navigation","trial_index":28,"time_elapsed":1053067,"internal_node_id":"0.0-2.0-26.0"},{"group":"hexagon_bi","room_assignment":["grey","blue","purple","yellow","red","green"],"door_color_assignment":["white","black"],"door_generator_assignment":[1,0],"goal":5,"start":2,"action_noise":0,"location_history":"[2,1,0,5]","action_history":"[0,1,0]","door_history":"[1,0,1]","location_rts":"[30980,1946,1660]","trial_type":"two-door-navigation","trial_index":29,"time_elapsed":1094737,"internal_node_id":"0.0-2.0-27.0"},{"group":"hexagon_bi","room_assignment":["grey","blue","purple","yellow","red","green"],"door_color_assignment":["white","black"],"door_generator_assignment":[1,0],"goal":4,"start":5,"action_noise":0,"location_history":"[5,4]","action_history":"[1]","door_history":"[0]","location_rts":"[6324]","trial_type":"two-door-navigation","trial_index":30,"time_elapsed":1106086,"internal_node_id":"0.0-2.0-28.0"},{"group":"hexagon_bi","room_assignment":["grey","blue","purple","yellow","red","green"],"door_color_assignment":["white","black"],"door_generator_assignment":[1,0],"goal":5,"start":4,"action_noise":0,"location_history":"[4,5]","action_history":"[1]","door_history":"[0]","location_rts":"[4871]","trial_type":"two-door-navigation","trial_index":31,"time_elapsed":1115975,"internal_node_id":"0.0-2.0-29.0"},{"group":"hexagon_bi","room_assignment":["grey","blue","purple","yellow","red","green"],"door_color_assignment":["white","black"],"door_generator_assignment":[1,0],"goal":3,"start":5,"action_noise":0,"location_history":"[5,4,3]","action_history":"[1,0]","door_history":"[0,1]","location_rts":"[26340,906]","trial_type":"two-door-navigation","trial_index":32,"time_elapsed":1149272,"internal_node_id":"0.0-2.0-30.0"},{"group":"hexagon_bi","room_assignment":["grey","blue","purple","yellow","red","green"],"door_color_assignment":["white","black"],"door_generator_assignment":[1,0],"goal":0,"start":3,"action_noise":0,"location_history":"[3,4,5,0]","action_history":"[0,1,0]","door_history":"[1,0,1]","location_rts":"[28365,10659,1610]","trial_type":"two-door-navigation","trial_index":33,"time_elapsed":1196956,"internal_node_id":"0.0-2.0-31.0"},{"group":"hexagon_bi","room_assignment":["grey","blue","purple","yellow","red","green"],"door_color_assignment":["white","black"],"door_generator_assignment":[1,0],"goal":4,"start":0,"action_noise":0,"location_history":"[0,5,4]","action_history":"[0,1]","door_history":"[1,0]","location_rts":"[16690,4567]","trial_type":"two-door-navigation","trial_index":34,"time_elapsed":1224253,"internal_node_id":"0.0-2.0-32.0"},{"group":"hexagon_bi","room_assignment":["grey","blue","purple","yellow","red","green"],"door_color_assignment":["white","black"],"door_generator_assignment":[1,0],"goal":1,"start":4,"action_noise":0,"location_history":"[4,3,4,5,0,1]","action_history":"[0,0,1,0,1]","door_history":"[1,1,0,1,0]","location_rts":"[27333,1844,1224,19515,7760]","trial_type":"two-door-navigation","trial_index":35,"time_elapsed":1291016,"internal_node_id":"0.0-2.0-33.0"},{"group":"hexagon_bi","room_assignment":["grey","blue","purple","yellow","red","green"],"door_color_assignment":["white","black"],"door_generator_assignment":[1,0],"goal":2,"start":1,"action_noise":0,"location_history":"[1,2]","action_history":"[0]","door_history":"[1]","location_rts":"[5359]","trial_type":"two-door-navigation","trial_index":36,"time_elapsed":1301400,"internal_node_id":"0.0-2.0-34.0"},{"group":"hexagon_bi","room_assignment":["grey","blue","purple","yellow","red","green"],"door_color_assignment":["white","black"],"door_generator_assignment":[1,0],"goal":0,"start":2,"action_noise":0,"location_history":"[2,1,0]","action_history":"[0,1]","door_history":"[1,0]","location_rts":"[17076,3418]","trial_type":"two-door-navigation","trial_index":37,"time_elapsed":1327942,"internal_node_id":"0.0-2.0-35.0"},{"group":"hexagon_bi","room_assignment":["grey","blue","purple","yellow","red","green"],"door_color_assignment":["white","black"],"door_generator_assignment":[1,0],"goal":5,"start":0,"action_noise":0,"location_history":"[0,5]","action_history":"[0]","door_history":"[1]","location_rts":"[13634]","trial_type":"two-door-navigation","trial_index":38,"time_elapsed":1346596,"internal_node_id":"0.0-2.0-36.0"},{"group":"hexagon_bi","room_assignment":["grey","blue","purple","yellow","red","green"],"door_color_assignment":["white","black"],"door_generator_assignment":[1,0],"goal":2,"start":5,"action_noise":0,"location_history":"[5,4,3,2]","action_history":"[1,0,1]","door_history":"[0,1,0]","location_rts":"[39281,9307,4064]","trial_type":"two-door-navigation","trial_index":39,"time_elapsed":1406299,"internal_node_id":"0.0-2.0-37.0"},{"group":"hexagon_bi","room_assignment":["grey","blue","purple","yellow","red","green"],"door_color_assignment":["white","black"],"door_generator_assignment":[1,0],"goal":1,"start":2,"action_noise":0,"location_history":"[2,1]","action_history":"[0]","door_history":"[1]","location_rts":"[5177]","trial_type":"two-door-navigation","trial_index":40,"time_elapsed":1416498,"internal_node_id":"0.0-2.0-38.0"},{"group":"hexagon_bi","room_assignment":["grey","blue","purple","yellow","red","green"],"door_color_assignment":["white","black"],"door_generator_assignment":[1,0],"goal":4,"start":1,"action_noise":0,"location_history":"[1,2,3,4]","action_history":"[0,1,0]","door_history":"[1,0,1]","location_rts":"[26304,1785,3238]","trial_type":"two-door-navigation","trial_index":41,"time_elapsed":1454878,"internal_node_id":"0.0-2.0-39.0"},{"group":"hexagon_bi","room_assignment":["grey","blue","purple","yellow","red","green"],"door_color_assignment":["white","black"],"door_generator_assignment":[1,0],"goal":3,"start":4,"action_noise":0,"location_history":"[4,3]","action_history":"[0]","door_history":"[1]","location_rts":"[8839]","trial_type":"two-door-navigation","trial_index":42,"time_elapsed":1468732,"internal_node_id":"0.0-2.0-40.0"},{"group":"hexagon_bi","room_assignment":["grey","blue","purple","yellow","red","green"],"door_color_assignment":["white","black"],"door_generator_assignment":[1,0],"goal":5,"start":3,"action_noise":0,"location_history":"[3,4,5]","action_history":"[0,1]","door_history":"[1,0]","location_rts":"[25064,831]","trial_type":"two-door-navigation","trial_index":43,"time_elapsed":1500663,"internal_node_id":"0.0-2.0-41.0"},{"group":"hexagon_bi","room_assignment":["grey","blue","purple","yellow","red","green"],"door_color_assignment":["white","black"],"door_generator_assignment":[1,0],"goal":3,"start":5,"action_noise":0,"location_history":"[5,4,3]","action_history":"[1,0]","door_history":"[0,1]","location_rts":"[13511,4721]","trial_type":"two-door-navigation","trial_index":44,"time_elapsed":1524929,"internal_node_id":"0.0-2.0-42.0"},{"group":"hexagon_bi","room_assignment":["grey","blue","purple","yellow","red","green"],"door_color_assignment":["white","black"],"door_generator_assignment":[1,0],"goal":0,"start":3,"action_noise":0,"location_history":"[3,2,1,0]","action_history":"[1,0,1]","door_history":"[0,1,0]","location_rts":"[32017,7499,865]","trial_type":"two-door-navigation","trial_index":45,"time_elapsed":1573134,"internal_node_id":"0.0-2.0-43.0"},{"group":"hexagon_bi","room_assignment":["grey","blue","purple","yellow","red","green"],"door_color_assignment":["white","black"],"door_generator_assignment":[1,0],"goal":2,"start":0,"action_noise":0,"location_history":"[0,1,2]","action_history":"[1,0]","door_history":"[0,1]","location_rts":"[18841,2474]","trial_type":"two-door-navigation","trial_index":46,"time_elapsed":1600493,"internal_node_id":"0.0-2.0-44.0"},{"group":"hexagon_bi","room_assignment":["grey","blue","purple","yellow","red","green"],"door_color_assignment":["white","black"],"door_generator_assignment":[1,0],"goal":4,"start":2,"action_noise":0,"location_history":"[2,3,4]","action_history":"[1,0]","door_history":"[0,1]","location_rts":"[9628,1892]","trial_type":"two-door-navigation","trial_index":47,"time_elapsed":1618065,"internal_node_id":"0.0-2.0-45.0"},{"group":"hexagon_bi","room_assignment":["grey","blue","purple","yellow","red","green"],"door_color_assignment":["white","black"],"door_generator_assignment":[1,0],"goal":1,"start":4,"action_noise":0,"location_history":"[4,5,4,3,2,1]","action_history":"[1,1,0,1,0]","door_history":"[0,0,1,0,1]","location_rts":"[31835,7210,22381,14172,1739]","trial_type":"two-door-navigation","trial_index":48,"time_elapsed":1704502,"internal_node_id":"0.0-2.0-46.0"},{"group":"hexagon_bi","room_assignment":["grey","blue","purple","yellow","red","green"],"door_color_assignment":["white","black"],"door_generator_assignment":[1,0],"goal":4,"start":1,"action_noise":0,"location_history":"[1,2,3,2,3,4]","action_history":"[0,1,1,1,0]","door_history":"[1,0,0,0,1]","location_rts":"[25394,13594,3964,5697,3185]","trial_type":"two-door-navigation","trial_index":49,"time_elapsed":1765447,"internal_node_id":"0.0-2.0-47.0"},{"group":"hexagon_bi","room_assignment":["grey","blue","purple","yellow","red","green"],"door_color_assignment":["white","black"],"door_generator_assignment":[1,0],"goal":3,"start":4,"action_noise":0,"location_history":"[4,3]","action_history":"[0]","door_history":"[1]","location_rts":"[6940]","trial_type":"two-door-navigation","trial_index":50,"time_elapsed":1777406,"internal_node_id":"0.0-2.0-48.0"},{"group":"hexagon_bi","room_assignment":["grey","blue","purple","yellow","red","green"],"door_color_assignment":["white","black"],"door_generator_assignment":[1,0],"goal":5,"start":3,"action_noise":0,"location_history":"[3,4,5]","action_history":"[0,1]","door_history":"[1,0]","location_rts":"[13060,1887]","trial_type":"two-door-navigation","trial_index":51,"time_elapsed":1798382,"internal_node_id":"0.0-2.0-49.0"},{"view_history":"[{\"page_index\":0,\"viewing_time\":3943}]","rt":3943,"trial_type":"instructions","trial_index":52,"time_elapsed":1803326,"internal_node_id":"0.0-3.0"},{"view_history":"[{\"page_index\":0,\"viewing_time\":3300},{\"page_index\":1,\"viewing_time\":47975}]","rt":51275,"trial_type":"instructions","trial_index":53,"time_elapsed":1855602,"internal_node_id":"0.0-4.0"},{"group":"hexagon_tri","fractal_assignment":["../images/org_blu.png","../images/cyn_red.png","../images/gry_blk.png","../images/ylw_slt.png","../images/blu_wht.png","../images/pnk_blu.png"],"mutagen_generator_assignment":[1,0],"goal":4,"start":0,"action_noise":0,"location_history":"[0,1,3,2,1,5,0,1,3,2,3,2,1,3,4]","action_history":"[1,0,0,0,1,1,1,0,0,1,0,0,0,1]","mutagen_history":"[0,1,1,1,0,0,0,1,1,0,1,1,1,0]","location_rts":"[8124,4081,4131,1317,1772,1121,1223,3048,2625,1373,2395,1495,1202,1304]","trial_type":"fractal-mutation","trial_index":54,"time_elapsed":1909169,"internal_node_id":"0.0-5.0-0.0"},{"group":"hexagon_tri","fractal_assignment":["../images/org_blu.png","../images/cyn_red.png","../images/gry_blk.png","../images/ylw_slt.png","../images/blu_wht.png","../images/pnk_blu.png"],"mutagen_generator_assignment":[1,0],"goal":3,"start":4,"action_noise":0,"location_history":"[4,2,1,3]","action_history":"[1,0,0]","mutagen_history":"[0,1,1]","location_rts":"[4293,1788,664]","trial_type":"fractal-mutation","trial_index":55,"time_elapsed":1923003,"internal_node_id":"0.0-5.0-1.0"},{"group":"hexagon_tri","fractal_assignment":["../images/org_blu.png","../images/cyn_red.png","../images/gry_blk.png","../images/ylw_slt.png","../images/blu_wht.png","../images/pnk_blu.png"],"mutagen_generator_assignment":[1,0],"goal":5,"start":3,"action_noise":0,"location_history":"[3,4,2,3,4,0,5]","action_history":"[1,1,1,1,0,0]","mutagen_history":"[0,0,0,0,1,1]","location_rts":"[1881,1024,1376,1324,3239,757]","trial_type":"fractal-mutation","trial_index":56,"time_elapsed":1942743,"internal_node_id":"0.0-5.0-2.0"},{"group":"hexagon_tri","fractal_assignment":["../images/org_blu.png","../images/cyn_red.png","../images/gry_blk.png","../images/ylw_slt.png","../images/blu_wht.png","../images/pnk_blu.png"],"mutagen_generator_assignment":[1,0],"goal":2,"start":5,"action_noise":0,"location_history":"[5,0,1,5,4,0,5,4,0,5,0,1,5,0,1,5,4,2]","action_history":"[1,1,1,0,0,0,0,0,0,1,1,1,1,1,1,0,1]","mutagen_history":"[0,0,0,1,1,1,1,1,1,0,0,0,0,0,0,1,0]","location_rts":"[5092,1418,1066,2596,834,627,658,1034,838,1253,865,674,519,638,660,1620,872]","trial_type":"fractal-mutation","trial_index":57,"time_elapsed":1985398,"internal_node_id":"0.0-5.0-3.0"},{"group":"hexagon_tri","fractal_assignment":["../images/org_blu.png","../images/cyn_red.png","../images/gry_blk.png","../images/ylw_slt.png","../images/blu_wht.png","../images/pnk_blu.png"],"mutagen_generator_assignment":[1,0],"goal":1,"start":2,"action_noise":0,"location_history":"[2,1]","action_history":"[0]","mutagen_history":"[1]","location_rts":"[3583]","trial_type":"fractal-mutation","trial_index":58,"time_elapsed":1994013,"internal_node_id":"0.0-5.0-4.0"},{"group":"hexagon_tri","fractal_assignment":["../images/org_blu.png","../images/cyn_red.png","../images/gry_blk.png","../images/ylw_slt.png","../images/blu_wht.png","../images/pnk_blu.png"],"mutagen_generator_assignment":[1,0],"goal":4,"start":1,"action_noise":0,"location_history":"[1,5,0,1,3,2,1,3,2,3,2,3,2,1,5,0,5,4]","action_history":"[1,1,1,0,0,0,0,0,1,0,1,0,0,1,1,0,0]","mutagen_history":"[0,0,0,1,1,1,1,1,0,1,0,1,1,0,0,1,1]","location_rts":"[13625,856,1115,2665,806,1117,1058,1115,2557,2501,1310,793,1122,1265,710,1755,688]","trial_type":"fractal-mutation","trial_index":59,"time_elapsed":2050470,"internal_node_id":"0.0-5.0-5.0"},{"group":"hexagon_tri","fractal_assignment":["../images/org_blu.png","../images/cyn_red.png","../images/gry_blk.png","../images/ylw_slt.png","../images/blu_wht.png","../images/pnk_blu.png"],"mutagen_generator_assignment":[1,0],"goal":1,"start":4,"action_noise":0,"location_history":"[4,2,1]","action_history":"[1,0]","mutagen_history":"[0,1]","location_rts":"[5377,4325]","trial_type":"fractal-mutation","trial_index":60,"time_elapsed":2066226,"internal_node_id":"0.0-5.0-6.0"},{"group":"hexagon_tri","fractal_assignment":["../images/org_blu.png","../images/cyn_red.png","../images/gry_blk.png","../images/ylw_slt.png","../images/blu_wht.png","../images/pnk_blu.png"],"mutagen_generator_assignment":[1,0],"goal":5,"start":1,"action_noise":0,"location_history":"[1,5]","action_history":"[1]","mutagen_history":"[0]","location_rts":"[10764]","trial_type":"fractal-mutation","trial_index":61,"time_elapsed":2082017,"internal_node_id":"0.0-5.0-7.0"},{"group":"hexagon_tri","fractal_assignment":["../images/org_blu.png","../images/cyn_red.png","../images/gry_blk.png","../images/ylw_slt.png","../images/blu_wht.png","../images/pnk_blu.png"],"mutagen_generator_assignment":[1,0],"goal":0,"start":5,"action_noise":0,"location_history":"[5,0]","action_history":"[1]","mutagen_history":"[0]","location_rts":"[46998]","trial_type":"fractal-mutation","trial_index":62,"time_elapsed":2134045,"internal_node_id":"0.0-5.0-8.0"},{"group":"hexagon_tri","fractal_assignment":["../images/org_blu.png","../images/cyn_red.png","../images/gry_blk.png","../images/ylw_slt.png","../images/blu_wht.png","../images/pnk_blu.png"],"mutagen_generator_assignment":[1,0],"goal":2,"start":0,"action_noise":0,"location_history":"[0,5,4,0,1,5,4,0,5,0,5,0,1,3,2]","action_history":"[0,0,0,1,1,0,0,0,1,0,1,1,0,0]","mutagen_history":"[1,1,1,0,0,1,1,1,0,1,0,0,1,1]","location_rts":"[2551,605,645,2180,618,1227,775,638,1332,1201,667,1504,994,2119]","trial_type":"fractal-mutation","trial_index":63,"time_elapsed":2169503,"internal_node_id":"0.0-5.0-9.0"},{"group":"hexagon_tri","fractal_assignment":["../images/org_blu.png","../images/cyn_red.png","../images/gry_blk.png","../images/ylw_slt.png","../images/blu_wht.png","../images/pnk_blu.png"],"mutagen_generator_assignment":[1,0],"goal":3,"start":2,"action_noise":0,"location_history":"[2,3]","action_history":"[1]","mutagen_history":"[0]","location_rts":"[6264]","trial_type":"fractal-mutation","trial_index":64,"time_elapsed":2180797,"internal_node_id":"0.0-5.0-10.0"},{"group":"hexagon_tri","fractal_assignment":["../images/org_blu.png","../images/cyn_red.png","../images/gry_blk.png","../images/ylw_slt.png","../images/blu_wht.png","../images/pnk_blu.png"],"mutagen_generator_assignment":[1,0],"goal":0,"start":3,"action_noise":0,"location_history":"[3,4,2,1,3,2,3,4,2,1,3,2,3,4,2,3,2,1,3,2,1,5,0]","action_history":"[1,1,0,0,0,1,1,1,0,0,0,1,1,1,1,0,0,0,0,0,1,1]","mutagen_history":"[0,0,1,1,1,0,0,0,1,1,1,0,0,0,0,1,1,1,1,1,0,0]","location_rts":"[4622,776,1397,680,754,1515,551,694,1031,860,723,4479,830,606,902,1501,662,539,568,1107,1390,651]","trial_type":"fractal-mutation","trial_index":65,"time_elapsed":2234246,"internal_node_id":"0.0-5.0-11.0"},{"group":"hexagon_tri","fractal_assignment":["../images/org_blu.png","../images/cyn_red.png","../images/gry_blk.png","../images/ylw_slt.png","../images/blu_wht.png","../images/pnk_blu.png"],"mutagen_generator_assignment":[1,0],"goal":2,"start":0,"action_noise":0,"location_history":"[0,1,5,0,1,3,2]","action_history":"[1,1,1,1,0,0]","mutagen_history":"[0,0,0,0,1,1]","location_rts":"[17519,508,454,1048,1274,482]","trial_type":"fractal-mutation","trial_index":66,"time_elapsed":2265724,"internal_node_id":"0.0-5.0-12.0"},{"group":"hexagon_tri","fractal_assignment":["../images/org_blu.png","../images/cyn_red.png","../images/gry_blk.png","../images/ylw_slt.png","../images/blu_wht.png","../images/pnk_blu.png"],"mutagen_generator_assignment":[1,0],"goal":5,"start":2,"action_noise":0,"location_history":"[2,3,4,2,3,4,0,5]","action_history":"[1,1,1,1,1,0,0]","mutagen_history":"[0,0,0,0,0,1,1]","location_rts":"[2898,501,610,595,934,1367,2697]","trial_type":"fractal-mutation","trial_index":67,"time_elapsed":2286529,"internal_node_id":"0.0-5.0-13.0"},{"group":"hexagon_tri","fractal_assignment":["../images/org_blu.png","../images/cyn_red.png","../images/gry_blk.png","../images/ylw_slt.png","../images/blu_wht.png","../images/pnk_blu.png"],"mutagen_generator_assignment":[1,0],"goal":4,"start":5,"action_noise":0,"location_history":"[5,0,1,5,4]","action_history":"[1,1,1,0]","mutagen_history":"[0,0,0,1]","location_rts":"[4036,773,2122,1512]","trial_type":"fractal-mutation","trial_index":68,"time_elapsed":2303064,"internal_node_id":"0.0-5.0-14.0"},{"group":"hexagon_tri","fractal_assignment":["../images/org_blu.png","../images/cyn_red.png","../images/gry_blk.png","../images/ylw_slt.png","../images/blu_wht.png","../images/pnk_blu.png"],"mutagen_generator_assignment":[1,0],"goal":3,"start":4,"action_noise":0,"location_history":"[4,2,3]","action_history":"[1,1]","mutagen_history":"[0,0]","location_rts":"[2086,597]","trial_type":"fractal-mutation","trial_index":69,"time_elapsed":2311813,"internal_node_id":"0.0-5.0-15.0"},{"group":"hexagon_tri","fractal_assignment":["../images/org_blu.png","../images/cyn_red.png","../images/gry_blk.png","../images/ylw_slt.png","../images/blu_wht.png","../images/pnk_blu.png"],"mutagen_generator_assignment":[1,0],"goal":1,"start":3,"action_noise":0,"location_history":"[3,2,1]","action_history":"[0,0]","mutagen_history":"[1,1]","location_rts":"[3423,998]","trial_type":"fractal-mutation","trial_index":70,"time_elapsed":2322286,"internal_node_id":"0.0-5.0-16.0"},{"group":"hexagon_tri","fractal_assignment":["../images/org_blu.png","../images/cyn_red.png","../images/gry_blk.png","../images/ylw_slt.png","../images/blu_wht.png","../images/pnk_blu.png"],"mutagen_generator_assignment":[1,0],"goal":5,"start":1,"action_noise":0,"location_history":"[1,3,2,1,5]","action_history":"[0,0,0,1]","mutagen_history":"[1,1,1,0]","location_rts":"[2510,1399,723,1057]","trial_type":"fractal-mutation","trial_index":71,"time_elapsed":2336084,"internal_node_id":"0.0-5.0-17.0"},{"group":"hexagon_tri","fractal_assignment":["../images/org_blu.png","../images/cyn_red.png","../images/gry_blk.png","../images/ylw_slt.png","../images/blu_wht.png","../images/pnk_blu.png"],"mutagen_generator_assignment":[1,0],"goal":4,"start":5,"action_noise":0,"location_history":"[5,0,1,3,2,1,5,0,5,4]","action_history":"[1,1,0,0,0,1,1,0,0]","mutagen_history":"[0,0,1,1,1,0,0,1,1]","location_rts":"[3849,867,1305,1189,1442,1130,1451,1077,1214]","trial_type":"fractal-mutation","trial_index":72,"time_elapsed":2362817,"internal_node_id":"0.0-5.0-18.0"},{"group":"hexagon_tri","fractal_assignment":["../images/org_blu.png","../images/cyn_red.png","../images/gry_blk.png","../images/ylw_slt.png","../images/blu_wht.png","../images/pnk_blu.png"],"mutagen_generator_assignment":[1,0],"goal":0,"start":4,"action_noise":0,"location_history":"[4,2,3,4,0]","action_history":"[1,1,1,0]","mutagen_history":"[0,0,0,1]","location_rts":"[3667,539,630,1298]","trial_type":"fractal-mutation","trial_index":73,"time_elapsed":2377040,"internal_node_id":"0.0-5.0-19.0"},{"group":"hexagon_tri","fractal_assignment":["../images/org_blu.png","../images/cyn_red.png","../images/gry_blk.png","../images/ylw_slt.png","../images/blu_wht.png","../images/pnk_blu.png"],"mutagen_generator_assignment":[1,0],"goal":1,"start":0,"action_noise":0,"location_history":"[0,1]","action_history":"[1]","mutagen_history":"[0]","location_rts":"[2333]","trial_type":"fractal-mutation","trial_index":74,"time_elapsed":2384395,"internal_node_id":"0.0-5.0-20.0"},{"group":"hexagon_tri","fractal_assignment":["../images/org_blu.png","../images/cyn_red.png","../images/gry_blk.png","../images/ylw_slt.png","../images/blu_wht.png","../images/pnk_blu.png"],"mutagen_generator_assignment":[1,0],"goal":3,"start":1,"action_noise":0,"location_history":"[1,5,0,5,4,0,5,0,1,3]","action_history":"[1,1,0,0,0,0,1,1,0]","mutagen_history":"[0,0,1,1,1,1,0,0,1]","location_rts":"[2626,724,1069,625,551,969,1837,2967,1117]","trial_type":"fractal-mutation","trial_index":75,"time_elapsed":2410077,"internal_node_id":"0.0-5.0-21.0"},{"group":"hexagon_tri","fractal_assignment":["../images/org_blu.png","../images/cyn_red.png","../images/gry_blk.png","../images/ylw_slt.png","../images/blu_wht.png","../images/pnk_blu.png"],"mutagen_generator_assignment":[1,0],"goal":2,"start":3,"action_noise":0,"location_history":"[3,4,2]","action_history":"[1,1]","mutagen_history":"[0,0]","location_rts":"[2720,596]","trial_type":"fractal-mutation","trial_index":76,"time_elapsed":2419434,"internal_node_id":"0.0-5.0-22.0"},{"group":"hexagon_tri","fractal_assignment":["../images/org_blu.png","../images/cyn_red.png","../images/gry_blk.png","../images/ylw_slt.png","../images/blu_wht.png","../images/pnk_blu.png"],"mutagen_generator_assignment":[1,0],"goal":0,"start":2,"action_noise":0,"location_history":"[2,3,4,0]","action_history":"[1,1,0]","mutagen_history":"[0,0,1]","location_rts":"[1769,850,950]","trial_type":"fractal-mutation","trial_index":77,"time_elapsed":2430072,"internal_node_id":"0.0-5.0-23.0"},{"group":"hexagon_tri","fractal_assignment":["../images/org_blu.png","../images/cyn_red.png","../images/gry_blk.png","../images/ylw_slt.png","../images/blu_wht.png","../images/pnk_blu.png"],"mutagen_generator_assignment":[1,0],"goal":3,"start":0,"action_noise":0,"location_history":"[0,1,5,0,5,0,1,3]","action_history":"[1,1,1,0,1,1,0]","mutagen_history":"[0,0,0,1,0,0,1]","location_rts":"[867,512,517,1484,513,1940,560]","trial_type":"fractal-mutation","trial_index":78,"time_elapsed":2447621,"internal_node_id":"0.0-5.0-24.0"},{"group":"hexagon_tri","fractal_assignment":["../images/org_blu.png","../images/cyn_red.png","../images/gry_blk.png","../images/ylw_slt.png","../images/blu_wht.png","../images/pnk_blu.png"],"mutagen_generator_assignment":[1,0],"goal":1,"start":3,"action_noise":0,"location_history":"[3,4,2,3,4,0,5,4,2,1]","action_history":"[1,1,1,1,0,0,0,1,0]","mutagen_history":"[0,0,0,0,1,1,1,0,1]","location_rts":"[1767,611,673,928,688,1359,721,947,1000]","trial_type":"fractal-mutation","trial_index":79,"time_elapsed":2469539,"internal_node_id":"0.0-5.0-25.0"},{"group":"hexagon_tri","fractal_assignment":["../images/org_blu.png","../images/cyn_red.png","../images/gry_blk.png","../images/ylw_slt.png","../images/blu_wht.png","../images/pnk_blu.png"],"mutagen_generator_assignment":[1,0],"goal":2,"start":1,"action_noise":0,"location_history":"[1,5,0,5,0,1,5,4,0,1,5,4,0,5,4,2]","action_history":"[1,1,0,1,1,1,0,0,1,1,0,0,0,0,1]","mutagen_history":"[0,0,1,0,0,0,1,1,0,0,1,1,1,1,0]","location_rts":"[2097,643,1534,683,1148,1865,919,613,1115,1327,1019,581,647,1237,823]","trial_type":"fractal-mutation","trial_index":80,"time_elapsed":2505132,"internal_node_id":"0.0-5.0-26.0"},{"group":"hexagon_tri","fractal_assignment":["../images/org_blu.png","../images/cyn_red.png","../images/gry_blk.png","../images/ylw_slt.png","../images/blu_wht.png","../images/pnk_blu.png"],"mutagen_generator_assignment":[1,0],"goal":5,"start":2,"action_noise":0,"location_history":"[2,3,2,1,5]","action_history":"[1,0,0,1]","mutagen_history":"[0,1,1,0]","location_rts":"[1911,896,704,1764]","trial_type":"fractal-mutation","trial_index":81,"time_elapsed":2518508,"internal_node_id":"0.0-5.0-27.0"},{"group":"hexagon_tri","fractal_assignment":["../images/org_blu.png","../images/cyn_red.png","../images/gry_blk.png","../images/ylw_slt.png","../images/blu_wht.png","../images/pnk_blu.png"],"mutagen_generator_assignment":[1,0],"goal":4,"start":5,"action_noise":0,"location_history":"[5,4]","action_history":"[0]","mutagen_history":"[1]","location_rts":"[2714]","trial_type":"fractal-mutation","trial_index":82,"time_elapsed":2526245,"internal_node_id":"0.0-5.0-28.0"},{"group":"hexagon_tri","fractal_assignment":["../images/org_blu.png","../images/cyn_red.png","../images/gry_blk.png","../images/ylw_slt.png","../images/blu_wht.png","../images/pnk_blu.png"],"mutagen_generator_assignment":[1,0],"goal":5,"start":4,"action_noise":0,"location_history":"[4,0,1,5]","action_history":"[0,1,1]","mutagen_history":"[1,0,0]","location_rts":"[2951,621,713]","trial_type":"fractal-mutation","trial_index":83,"time_elapsed":2537604,"internal_node_id":"0.0-5.0-29.0"},{"group":"hexagon_tri","fractal_assignment":["../images/org_blu.png","../images/cyn_red.png","../images/gry_blk.png","../images/ylw_slt.png","../images/blu_wht.png","../images/pnk_blu.png"],"mutagen_generator_assignment":[1,0],"goal":3,"start":5,"action_noise":0,"location_history":"[5,4,2,3]","action_history":"[0,1,1]","mutagen_history":"[1,0,0]","location_rts":"[4001,2790,1209]","trial_type":"fractal-mutation","trial_index":84,"time_elapsed":2552678,"internal_node_id":"0.0-5.0-30.0"},{"group":"hexagon_tri","fractal_assignment":["../images/org_blu.png","../images/cyn_red.png","../images/gry_blk.png","../images/ylw_slt.png","../images/blu_wht.png","../images/pnk_blu.png"],"mutagen_generator_assignment":[1,0],"goal":0,"start":3,"action_noise":0,"location_history":"[3,2,3,4,0]","action_history":"[0,1,1,0]","mutagen_history":"[1,0,0,1]","location_rts":"[2564,783,738,890]","trial_type":"fractal-mutation","trial_index":85,"time_elapsed":2565748,"internal_node_id":"0.0-5.0-31.0"},{"group":"hexagon_tri","fractal_assignment":["../images/org_blu.png","../images/cyn_red.png","../images/gry_blk.png","../images/ylw_slt.png","../images/blu_wht.png","../images/pnk_blu.png"],"mutagen_generator_assignment":[1,0],"goal":4,"start":0,"action_noise":0,"location_history":"[0,5,0,5,4]","action_history":"[0,1,0,0]","mutagen_history":"[1,0,1,1]","location_rts":"[2521,1463,1712,1663]","trial_type":"fractal-mutation","trial_index":86,"time_elapsed":2581209,"internal_node_id":"0.0-5.0-32.0"},{"group":"hexagon_tri","fractal_assignment":["../images/org_blu.png","../images/cyn_red.png","../images/gry_blk.png","../images/ylw_slt.png","../images/blu_wht.png","../images/pnk_blu.png"],"mutagen_generator_assignment":[1,0],"goal":1,"start":4,"action_noise":0,"location_history":"[4,0,5,0,1]","action_history":"[0,0,1,1]","mutagen_history":"[1,1,0,0]","location_rts":"[2628,1509,3837,919]","trial_type":"fractal-mutation","trial_index":87,"time_elapsed":2598204,"internal_node_id":"0.0-5.0-33.0"},{"group":"hexagon_tri","fractal_assignment":["../images/org_blu.png","../images/cyn_red.png","../images/gry_blk.png","../images/ylw_slt.png","../images/blu_wht.png","../images/pnk_blu.png"],"mutagen_generator_assignment":[1,0],"goal":2,"start":1,"action_noise":0,"location_history":"[1,3,4,2]","action_history":"[0,1,1]","mutagen_history":"[1,0,0]","location_rts":"[3065,1126,663]","trial_type":"fractal-mutation","trial_index":88,"time_elapsed":2610131,"internal_node_id":"0.0-5.0-34.0"},{"group":"hexagon_tri","fractal_assignment":["../images/org_blu.png","../images/cyn_red.png","../images/gry_blk.png","../images/ylw_slt.png","../images/blu_wht.png","../images/pnk_blu.png"],"mutagen_generator_assignment":[1,0],"goal":0,"start":2,"action_noise":0,"location_history":"[2,1,5,0]","action_history":"[0,1,1]","mutagen_history":"[1,0,0]","location_rts":"[2297,737,1721]","trial_type":"fractal-mutation","trial_index":89,"time_elapsed":2621960,"internal_node_id":"0.0-5.0-35.0"},{"group":"hexagon_tri","fractal_assignment":["../images/org_blu.png","../images/cyn_red.png","../images/gry_blk.png","../images/ylw_slt.png","../images/blu_wht.png","../images/pnk_blu.png"],"mutagen_generator_assignment":[1,0],"goal":5,"start":0,"action_noise":0,"location_history":"[0,5]","action_history":"[0]","mutagen_history":"[1]","location_rts":"[1814]","trial_type":"fractal-mutation","trial_index":90,"time_elapsed":2628805,"internal_node_id":"0.0-5.0-36.0"},{"group":"hexagon_tri","fractal_assignment":["../images/org_blu.png","../images/cyn_red.png","../images/gry_blk.png","../images/ylw_slt.png","../images/blu_wht.png","../images/pnk_blu.png"],"mutagen_generator_assignment":[1,0],"goal":2,"start":5,"action_noise":0,"location_history":"[5,4,0,1,5,4,0,5,0,1,3,4,2]","action_history":"[0,0,1,1,0,0,0,1,1,0,1,1]","mutagen_history":"[1,1,0,0,1,1,1,0,0,1,0,0]","location_rts":"[1791,1466,784,801,836,792,2886,2340,1986,1258,711,1057]","trial_type":"fractal-mutation","trial_index":91,"time_elapsed":2661789,"internal_node_id":"0.0-5.0-37.0"},{"group":"hexagon_tri","fractal_assignment":["../images/org_blu.png","../images/cyn_red.png","../images/gry_blk.png","../images/ylw_slt.png","../images/blu_wht.png","../images/pnk_blu.png"],"mutagen_generator_assignment":[1,0],"goal":1,"start":2,"action_noise":0,"location_history":"[2,1]","action_history":"[0]","mutagen_history":"[1]","location_rts":"[1653]","trial_type":"fractal-mutation","trial_index":92,"time_elapsed":2668466,"internal_node_id":"0.0-5.0-38.0"},{"group":"hexagon_tri","fractal_assignment":["../images/org_blu.png","../images/cyn_red.png","../images/gry_blk.png","../images/ylw_slt.png","../images/blu_wht.png","../images/pnk_blu.png"],"mutagen_generator_assignment":[1,0],"goal":4,"start":1,"action_noise":0,"location_history":"[1,5,4]","action_history":"[1,0]","mutagen_history":"[0,1]","location_rts":"[2243,2743]","trial_type":"fractal-mutation","trial_index":93,"time_elapsed":2679504,"internal_node_id":"0.0-5.0-39.0"},{"group":"hexagon_tri","fractal_assignment":["../images/org_blu.png","../images/cyn_red.png","../images/gry_blk.png","../images/ylw_slt.png","../images/blu_wht.png","../images/pnk_blu.png"],"mutagen_generator_assignment":[1,0],"goal":3,"start":4,"action_noise":0,"location_history":"[4,2,1,5,4,0,1,5,0,5,4,0,5,4,2,3]","action_history":"[1,0,1,0,0,1,1,1,0,0,0,0,0,1,1]","mutagen_history":"[0,1,0,1,1,0,0,0,1,1,1,1,1,0,0]","location_rts":"[5189,847,687,1375,1104,1248,1297,765,883,560,1059,1241,960,483,1245]","trial_type":"fractal-mutation","trial_index":94,"time_elapsed":2717832,"internal_node_id":"0.0-5.0-40.0"},{"group":"hexagon_tri","fractal_assignment":["../images/org_blu.png","../images/cyn_red.png","../images/gry_blk.png","../images/ylw_slt.png","../images/blu_wht.png","../images/pnk_blu.png"],"mutagen_generator_assignment":[1,0],"goal":5,"start":3,"action_noise":0,"location_history":"[3,2,1,5]","action_history":"[0,0,1]","mutagen_history":"[1,1,0]","location_rts":"[3503,1006,746]","trial_type":"fractal-mutation","trial_index":95,"time_elapsed":2730171,"internal_node_id":"0.0-5.0-41.0"},{"group":"hexagon_tri","fractal_assignment":["../images/org_blu.png","../images/cyn_red.png","../images/gry_blk.png","../images/ylw_slt.png","../images/blu_wht.png","../images/pnk_blu.png"],"mutagen_generator_assignment":[1,0],"goal":3,"start":5,"action_noise":0,"location_history":"[5,0,5,4,2,3]","action_history":"[1,0,0,1,1]","mutagen_history":"[0,1,1,0,0]","location_rts":"[4338,808,1671,629,539]","trial_type":"fractal-mutation","trial_index":96,"time_elapsed":2747293,"internal_node_id":"0.0-5.0-42.0"},{"group":"hexagon_tri","fractal_assignment":["../images/org_blu.png","../images/cyn_red.png","../images/gry_blk.png","../images/ylw_slt.png","../images/blu_wht.png","../images/pnk_blu.png"],"mutagen_generator_assignment":[1,0],"goal":0,"start":3,"action_noise":0,"location_history":"[3,2,3,4,0]","action_history":"[0,1,1,0]","mutagen_history":"[1,0,0,1]","location_rts":"[3858,864,1129,733]","trial_type":"fractal-mutation","trial_index":97,"time_elapsed":2762001,"internal_node_id":"0.0-5.0-43.0"},{"group":"hexagon_tri","fractal_assignment":["../images/org_blu.png","../images/cyn_red.png","../images/gry_blk.png","../images/ylw_slt.png","../images/blu_wht.png","../images/pnk_blu.png"],"mutagen_generator_assignment":[1,0],"goal":2,"start":0,"action_noise":0,"location_history":"[0,1,5,0,5,4,2]","action_history":"[1,1,1,0,0,1]","mutagen_history":"[0,0,0,1,1,0]","location_rts":"[2252,1030,635,782,625,646]","trial_type":"fractal-mutation","trial_index":98,"time_elapsed":2778141,"internal_node_id":"0.0-5.0-44.0"},{"group":"hexagon_tri","fractal_assignment":["../images/org_blu.png","../images/cyn_red.png","../images/gry_blk.png","../images/ylw_slt.png","../images/blu_wht.png","../images/pnk_blu.png"],"mutagen_generator_assignment":[1,0],"goal":4,"start":2,"action_noise":0,"location_history":"[2,3,4]","action_history":"[1,1]","mutagen_history":"[0,0]","location_rts":"[1760,2184]","trial_type":"fractal-mutation","trial_index":99,"time_elapsed":2788140,"internal_node_id":"0.0-5.0-45.0"},{"group":"hexagon_tri","fractal_assignment":["../images/org_blu.png","../images/cyn_red.png","../images/gry_blk.png","../images/ylw_slt.png","../images/blu_wht.png","../images/pnk_blu.png"],"mutagen_generator_assignment":[1,0],"goal":1,"start":4,"action_noise":0,"location_history":"[4,0,5,0,5,0,1]","action_history":"[0,0,1,0,1,1]","mutagen_history":"[1,1,0,1,0,0]","location_rts":"[2625,733,602,1024,612,1115]","trial_type":"fractal-mutation","trial_index":100,"time_elapsed":2805005,"internal_node_id":"0.0-5.0-46.0"},{"group":"hexagon_tri","fractal_assignment":["../images/org_blu.png","../images/cyn_red.png","../images/gry_blk.png","../images/ylw_slt.png","../images/blu_wht.png","../images/pnk_blu.png"],"mutagen_generator_assignment":[1,0],"goal":4,"start":1,"action_noise":0,"location_history":"[1,3,2,3,4]","action_history":"[0,0,1,1]","mutagen_history":"[1,1,0,0]","location_rts":"[2406,961,1037,669]","trial_type":"fractal-mutation","trial_index":101,"time_elapsed":2818197,"internal_node_id":"0.0-5.0-47.0"},{"group":"hexagon_tri","fractal_assignment":["../images/org_blu.png","../images/cyn_red.png","../images/gry_blk.png","../images/ylw_slt.png","../images/blu_wht.png","../images/pnk_blu.png"],"mutagen_generator_assignment":[1,0],"goal":3,"start":4,"action_noise":0,"location_history":"[4,2,1,5,4,0,1,3]","action_history":"[1,0,1,0,0,1,0]","mutagen_history":"[0,1,0,1,1,0,1]","location_rts":"[1527,1117,599,586,783,816,1724]","trial_type":"fractal-mutation","trial_index":102,"time_elapsed":2836535,"internal_node_id":"0.0-5.0-48.0"},{"group":"hexagon_tri","fractal_assignment":["../images/org_blu.png","../images/cyn_red.png","../images/gry_blk.png","../images/ylw_slt.png","../images/blu_wht.png","../images/pnk_blu.png"],"mutagen_generator_assignment":[1,0],"goal":5,"start":3,"action_noise":0,"location_history":"[3,2,1,5]","action_history":"[0,0,1]","mutagen_history":"[1,1,0]","location_rts":"[2051,1013,1364]","trial_type":"fractal-mutation","trial_index":103,"time_elapsed":2848054,"internal_node_id":"0.0-5.0-49.0"},{"view_history":"[{\"page_index\":0,\"viewing_time\":5840}]","rt":5840,"trial_type":"instructions","trial_index":104,"time_elapsed":2854895,"internal_node_id":"0.0-6.0"},{"rt":6865,"responses":"{\"Q0\":\"no\"}","trial_type":"survey-text","trial_index":105,"time_elapsed":2862762,"internal_node_id":"0.0-7.0"}]