[{"view_history":"[{\"page_index\":0,\"viewing_time\":5443},{\"page_index\":1,\"viewing_time\":9583},{\"page_index\":2,\"viewing_time\":21734}]","rt":36762,"trial_type":"instructions","trial_index":0,"time_elapsed":36764,"internal_node_id":"0.0-0.0"},{"view_history":"[{\"page_index\":0,\"viewing_time\":1299},{\"page_index\":1,\"viewing_time\":92155}]","rt":93455,"trial_type":"instructions","trial_index":1,"time_elapsed":131222,"internal_node_id":"0.0-1.0"},{"group":"hexagon_tri","room_assignment":["red","yellow","grey","green","purple","blue"],"door_color_assignment":["black","white"],"door_generator_assignment":[0,1],"goal":4,"start":0,"action_noise":0,"location_history":"[0,1,5,0,1,5,0,5,0,5,4]","action_history":"[1,1,1,1,1,1,0,1,0,0]","door_history":"[1,1,1,1,1,1,0,1,0,0]","location_rts":"[3548,2052,618,846,344,267,974,776,291,323]","trial_type":"two-door-navigation","trial_index":2,"time_elapsed":155545,"internal_node_id":"0.0-2.0-0.0"},{"group":"hexagon_tri","room_assignment":["red","yellow","grey","green","purple","blue"],"door_color_assignment":["black","white"],"door_generator_assignment":[0,1],"goal":3,"start":4,"action_noise":0,"location_history":"[4,0,1,5,4,0,5,0,1,3]","action_history":"[0,1,1,0,0,0,1,1,0]","door_history":"[0,1,1,0,0,0,1,1,0]","location_rts":"[2038,394,547,330,313,433,563,352,330]","trial_type":"two-door-navigation","trial_index":3,"time_elapsed":174055,"internal_node_id":"0.0-2.0-1.0"},{"group":"hexagon_tri","room_assignment":["red","yellow","grey","green","purple","blue"],"door_color_assignment":["black","white"],"door_generator_assignment":[0,1],"goal":5,"start":3,"action_noise":0,"location_history":"[3,4,2,3,4,0,5]","action_history":"[1,1,1,1,0,0]","door_history":"[1,1,1,1,0,0]","location_rts":"[1855,443,358,430,738,346]","trial_type":"two-door-navigation","trial_index":4,"time_elapsed":188365,"internal_node_id":"0.0-2.0-2.0"},{"group":"hexagon_tri","room_assignment":["red","yellow","grey","green","purple","blue"],"door_color_assignment":["black","white"],"door_generator_assignment":[0,1],"goal":2,"start":5,"action_noise":0,"location_history":"[5,4,2]","action_history":"[0,1]","door_history":"[0,1]","location_rts":"[2507,402]","trial_type":"two-door-navigation","trial_index":5,"time_elapsed":197345,"internal_node_id":"0.0-2.0-3.0"},{"group":"hexagon_tri","room_assignment":["red","yellow","grey","green","purple","blue"],"door_color_assignment":["black","white"],"door_generator_assignment":[0,1],"goal":1,"start":2,"action_noise":0,"location_history":"[2,3,2,1]","action_history":"[1,0,0]","door_history":"[1,0,0]","location_rts":"[1986,420,976]","trial_type":"two-door-navigation","trial_index":6,"time_elapsed":207796,"internal_node_id":"0.0-2.0-4.0"},{"group":"hexagon_tri","room_assignment":["red","yellow","grey","green","purple","blue"],"door_color_assignment":["black","white"],"door_generator_assignment":[0,1],"goal":4,"start":1,"action_noise":0,"location_history":"[1,3,2,1,5,4]","action_history":"[0,0,0,1,0]","door_history":"[0,0,0,1,0]","location_rts":"[1715,781,707,507,244]","trial_type":"two-door-navigation","trial_index":7,"time_elapsed":220867,"internal_node_id":"0.0-2.0-5.0"},{"group":"hexagon_tri","room_assignment":["red","yellow","grey","green","purple","blue"],"door_color_assignment":["black","white"],"door_generator_assignment":[0,1],"goal":1,"start":4,"action_noise":0,"location_history":"[4,2,1]","action_history":"[1,0]","door_history":"[1,0]","location_rts":"[2854,1150]","trial_type":"two-door-navigation","trial_index":8,"time_elapsed":230928,"internal_node_id":"0.0-2.0-6.0"},{"group":"hexagon_tri","room_assignment":["red","yellow","grey","green","purple","blue"],"door_color_assignment":["black","white"],"door_generator_assignment":[0,1],"goal":5,"start":1,"action_noise":0,"location_history":"[1,5]","action_history":"[1]","door_history":"[1]","location_rts":"[3015]","trial_type":"two-door-navigation","trial_index":9,"time_elapsed":238978,"internal_node_id":"0.0-2.0-7.0"},{"group":"hexagon_tri","room_assignment":["red","yellow","grey","green","purple","blue"],"door_color_assignment":["black","white"],"door_generator_assignment":[0,1],"goal":0,"start":5,"action_noise":0,"location_history":"[5,0]","action_history":"[1]","door_history":"[1]","location_rts":"[481]","trial_type":"two-door-navigation","trial_index":10,"time_elapsed":244484,"internal_node_id":"0.0-2.0-8.0"},{"group":"hexagon_tri","room_assignment":["red","yellow","grey","green","purple","blue"],"door_color_assignment":["black","white"],"door_generator_assignment":[0,1],"goal":2,"start":0,"action_noise":0,"location_history":"[0,1,3,2]","action_history":"[1,0,0]","door_history":"[1,0,0]","location_rts":"[1349,612,378]","trial_type":"two-door-navigation","trial_index":11,"time_elapsed":253892,"internal_node_id":"0.0-2.0-9.0"},{"group":"hexagon_tri","room_assignment":["red","yellow","grey","green","purple","blue"],"door_color_assignment":["black","white"],"door_generator_assignment":[0,1],"goal":3,"start":2,"action_noise":0,"location_history":"[2,1,5,0,5,4,0,5,0,1,3]","action_history":"[0,1,1,0,0,0,0,1,1,0]","door_history":"[0,1,1,0,0,0,0,1,1,0]","location_rts":"[1264,822,475,460,752,757,332,287,339,1013]","trial_type":"two-door-navigation","trial_index":12,"time_elapsed":274638,"internal_node_id":"0.0-2.0-10.0"},{"group":"hexagon_tri","room_assignment":["red","yellow","grey","green","purple","blue"],"door_color_assignment":["black","white"],"door_generator_assignment":[0,1],"goal":0,"start":3,"action_noise":0,"location_history":"[3,4,2,1,5,0]","action_history":"[1,1,0,1,1]","door_history":"[1,1,0,1,1]","location_rts":"[1629,461,474,539,364]","trial_type":"two-door-navigation","trial_index":13,"time_elapsed":287248,"internal_node_id":"0.0-2.0-11.0"},{"group":"hexagon_tri","room_assignment":["red","yellow","grey","green","purple","blue"],"door_color_assignment":["black","white"],"door_generator_assignment":[0,1],"goal":2,"start":0,"action_noise":0,"location_history":"[0,5,4,2]","action_history":"[0,0,1]","door_history":"[0,0,1]","location_rts":"[1318,1174,462]","trial_type":"two-door-navigation","trial_index":14,"time_elapsed":297288,"internal_node_id":"0.0-2.0-12.0"},{"group":"hexagon_tri","room_assignment":["red","yellow","grey","green","purple","blue"],"door_color_assignment":["black","white"],"door_generator_assignment":[0,1],"goal":5,"start":2,"action_noise":0,"location_history":"[2,1,3,4,2,3,2,1,5]","action_history":"[0,0,1,1,1,0,0,1]","door_history":"[0,0,1,1,1,0,0,1]","location_rts":"[1601,574,428,313,365,284,531,509]","trial_type":"two-door-navigation","trial_index":15,"time_elapsed":314070,"internal_node_id":"0.0-2.0-13.0"},{"group":"hexagon_tri","room_assignment":["red","yellow","grey","green","purple","blue"],"door_color_assignment":["black","white"],"door_generator_assignment":[0,1],"goal":4,"start":5,"action_noise":0,"location_history":"[5,4]","action_history":"[0]","door_history":"[0]","location_rts":"[2281]","trial_type":"two-door-navigation","trial_index":16,"time_elapsed":321381,"internal_node_id":"0.0-2.0-14.0"},{"group":"hexagon_tri","room_assignment":["red","yellow","grey","green","purple","blue"],"door_color_assignment":["black","white"],"door_generator_assignment":[0,1],"goal":3,"start":4,"action_noise":0,"location_history":"[4,0,1,3]","action_history":"[0,1,0]","door_history":"[0,1,0]","location_rts":"[1640,946,772]","trial_type":"two-door-navigation","trial_index":17,"time_elapsed":331810,"internal_node_id":"0.0-2.0-15.0"},{"group":"hexagon_tri","room_assignment":["red","yellow","grey","green","purple","blue"],"door_color_assignment":["black","white"],"door_generator_assignment":[0,1],"goal":1,"start":3,"action_noise":0,"location_history":"[3,4,0,1]","action_history":"[1,0,1]","door_history":"[1,0,1]","location_rts":"[1599,867,350]","trial_type":"two-door-navigation","trial_index":18,"time_elapsed":341697,"internal_node_id":"0.0-2.0-16.0"},{"group":"hexagon_tri","room_assignment":["red","yellow","grey","green","purple","blue"],"door_color_assignment":["black","white"],"door_generator_assignment":[0,1],"goal":5,"start":1,"action_noise":0,"location_history":"[1,5]","action_history":"[1]","door_history":"[1]","location_rts":"[1154]","trial_type":"two-door-navigation","trial_index":19,"time_elapsed":347878,"internal_node_id":"0.0-2.0-17.0"},{"group":"hexagon_tri","room_assignment":["red","yellow","grey","green","purple","blue"],"door_color_assignment":["black","white"],"door_generator_assignment":[0,1],"goal":4,"start":5,"action_noise":0,"location_history":"[5,0,5,0,1,3,4]","action_history":"[1,0,1,1,0,1]","door_history":"[1,0,1,1,0,1]","location_rts":"[1760,532,431,492,222,378]","trial_type":"two-door-navigation","trial_index":20,"time_elapsed":361858,"internal_node_id":"0.0-2.0-18.0"},{"group":"hexagon_tri","room_assignment":["red","yellow","grey","green","purple","blue"],"door_color_assignment":["black","white"],"door_generator_assignment":[0,1],"goal":0,"start":4,"action_noise":0,"location_history":"[4,0]","action_history":"[0]","door_history":"[0]","location_rts":"[1410]","trial_type":"two-door-navigation","trial_index":21,"time_elapsed":368296,"internal_node_id":"0.0-2.0-19.0"},{"group":"hexagon_tri","room_assignment":["red","yellow","grey","green","purple","blue"],"door_color_assignment":["black","white"],"door_generator_assignment":[0,1],"goal":1,"start":0,"action_noise":0,"location_history":"[0,1]","action_history":"[1]","door_history":"[1]","location_rts":"[1237]","trial_type":"two-door-navigation","trial_index":22,"time_elapsed":374563,"internal_node_id":"0.0-2.0-20.0"},{"group":"hexagon_tri","room_assignment":["red","yellow","grey","green","purple","blue"],"door_color_assignment":["black","white"],"door_generator_assignment":[0,1],"goal":3,"start":1,"action_noise":0,"location_history":"[1,3]","action_history":"[0]","door_history":"[0]","location_rts":"[1239]","trial_type":"two-door-navigation","trial_index":23,"time_elapsed":380844,"internal_node_id":"0.0-2.0-21.0"},{"group":"hexagon_tri","room_assignment":["red","yellow","grey","green","purple","blue"],"door_color_assignment":["black","white"],"door_generator_assignment":[0,1],"goal":2,"start":3,"action_noise":0,"location_history":"[3,2]","action_history":"[0]","door_history":"[0]","location_rts":"[3827]","trial_type":"two-door-navigation","trial_index":24,"time_elapsed":389697,"internal_node_id":"0.0-2.0-22.0"},{"group":"hexagon_tri","room_assignment":["red","yellow","grey","green","purple","blue"],"door_color_assignment":["black","white"],"door_generator_assignment":[0,1],"goal":0,"start":2,"action_noise":0,"location_history":"[2,3,4,0]","action_history":"[1,1,0]","door_history":"[1,1,0]","location_rts":"[6054,454,386]","trial_type":"two-door-navigation","trial_index":25,"time_elapsed":403666,"internal_node_id":"0.0-2.0-23.0"},{"group":"hexagon_tri","room_assignment":["red","yellow","grey","green","purple","blue"],"door_color_assignment":["black","white"],"door_generator_assignment":[0,1],"goal":3,"start":0,"action_noise":0,"location_history":"[0,5,0,5,0,1,3]","action_history":"[0,1,0,1,1,0]","door_history":"[0,1,0,1,1,0]","location_rts":"[1177,856,414,383,319,361]","trial_type":"two-door-navigation","trial_index":26,"time_elapsed":417779,"internal_node_id":"0.0-2.0-24.0"},{"group":"hexagon_tri","room_assignment":["red","yellow","grey","green","purple","blue"],"door_color_assignment":["black","white"],"door_generator_assignment":[0,1],"goal":1,"start":3,"action_noise":0,"location_history":"[3,4,0,1]","action_history":"[1,0,1]","door_history":"[1,0,1]","location_rts":"[6266,821,640]","trial_type":"two-door-navigation","trial_index":27,"time_elapsed":433575,"internal_node_id":"0.0-2.0-25.0"},{"group":"hexagon_tri","room_assignment":["red","yellow","grey","green","purple","blue"],"door_color_assignment":["black","white"],"door_generator_assignment":[0,1],"goal":2,"start":1,"action_noise":0,"location_history":"[1,3,2]","action_history":"[0,0]","door_history":"[0,0]","location_rts":"[1631,491]","trial_type":"two-door-navigation","trial_index":28,"time_elapsed":441747,"internal_node_id":"0.0-2.0-26.0"},{"group":"hexagon_tri","room_assignment":["red","yellow","grey","green","purple","blue"],"door_color_assignment":["black","white"],"door_generator_assignment":[0,1],"goal":5,"start":2,"action_noise":0,"location_history":"[2,3,4,0,1,5]","action_history":"[1,1,0,1,1]","door_history":"[1,1,0,1,1]","location_rts":"[1899,392,711,307,359]","trial_type":"two-door-navigation","trial_index":29,"time_elapsed":454534,"internal_node_id":"0.0-2.0-27.0"},{"group":"hexagon_tri","room_assignment":["red","yellow","grey","green","purple","blue"],"door_color_assignment":["black","white"],"door_generator_assignment":[0,1],"goal":4,"start":5,"action_noise":0,"location_history":"[5,0,5,0,1,3,2,1,3,4]","action_history":"[1,0,1,1,0,0,0,0,1]","door_history":"[1,0,1,1,0,0,0,0,1]","location_rts":"[3366,295,437,180,222,2680,612,1528,289]","trial_type":"two-door-navigation","trial_index":30,"time_elapsed":477344,"internal_node_id":"0.0-2.0-28.0"},{"group":"hexagon_tri","room_assignment":["red","yellow","grey","green","purple","blue"],"door_color_assignment":["black","white"],"door_generator_assignment":[0,1],"goal":5,"start":4,"action_noise":0,"location_history":"[4,0,1,5]","action_history":"[0,1,1]","door_history":"[0,1,1]","location_rts":"[1782,621,357]","trial_type":"two-door-navigation","trial_index":31,"time_elapsed":487178,"internal_node_id":"0.0-2.0-29.0"},{"group":"hexagon_tri","room_assignment":["red","yellow","grey","green","purple","blue"],"door_color_assignment":["black","white"],"door_generator_assignment":[0,1],"goal":3,"start":5,"action_noise":0,"location_history":"[5,4,2,3]","action_history":"[0,1,1]","door_history":"[0,1,1]","location_rts":"[1820,700,371]","trial_type":"two-door-navigation","trial_index":32,"time_elapsed":497146,"internal_node_id":"0.0-2.0-30.0"},{"group":"hexagon_tri","room_assignment":["red","yellow","grey","green","purple","blue"],"door_color_assignment":["black","white"],"door_generator_assignment":[0,1],"goal":0,"start":3,"action_noise":0,"location_history":"[3,4,0]","action_history":"[1,0]","door_history":"[1,0]","location_rts":"[1252,908]","trial_type":"two-door-navigation","trial_index":33,"time_elapsed":505352,"internal_node_id":"0.0-2.0-31.0"},{"group":"hexagon_tri","room_assignment":["red","yellow","grey","green","purple","blue"],"door_color_assignment":["black","white"],"door_generator_assignment":[0,1],"goal":4,"start":0,"action_noise":0,"location_history":"[0,1,3,4]","action_history":"[1,0,1]","door_history":"[1,0,1]","location_rts":"[2396,770,455]","trial_type":"two-door-navigation","trial_index":34,"time_elapsed":516053,"internal_node_id":"0.0-2.0-32.0"},{"group":"hexagon_tri","room_assignment":["red","yellow","grey","green","purple","blue"],"door_color_assignment":["black","white"],"door_generator_assignment":[0,1],"goal":1,"start":4,"action_noise":0,"location_history":"[4,2,1]","action_history":"[1,0]","door_history":"[1,0]","location_rts":"[1475,1111]","trial_type":"two-door-navigation","trial_index":35,"time_elapsed":524783,"internal_node_id":"0.0-2.0-33.0"},{"group":"hexagon_tri","room_assignment":["red","yellow","grey","green","purple","blue"],"door_color_assignment":["black","white"],"door_generator_assignment":[0,1],"goal":2,"start":1,"action_noise":0,"location_history":"[1,3,2]","action_history":"[0,0]","door_history":"[0,0]","location_rts":"[1513,279]","trial_type":"two-door-navigation","trial_index":36,"time_elapsed":532783,"internal_node_id":"0.0-2.0-34.0"},{"group":"hexagon_tri","room_assignment":["red","yellow","grey","green","purple","blue"],"door_color_assignment":["black","white"],"door_generator_assignment":[0,1],"goal":0,"start":2,"action_noise":0,"location_history":"[2,3,4,0]","action_history":"[1,1,0]","door_history":"[1,1,0]","location_rts":"[37712,370,406]","trial_type":"two-door-navigation","trial_index":37,"time_elapsed":579791,"internal_node_id":"0.0-2.0-35.0"},{"group":"hexagon_tri","room_assignment":["red","yellow","grey","green","purple","blue"],"door_color_assignment":["black","white"],"door_generator_assignment":[0,1],"goal":5,"start":0,"action_noise":0,"location_history":"[0,1,5]","action_history":"[1,1]","door_history":"[1,1]","location_rts":"[33626,321]","trial_type":"two-door-navigation","trial_index":38,"time_elapsed":620779,"internal_node_id":"0.0-2.0-36.0"},{"group":"hexagon_tri","room_assignment":["red","yellow","grey","green","purple","blue"],"door_color_assignment":["black","white"],"door_generator_assignment":[0,1],"goal":2,"start":5,"action_noise":0,"location_history":"[5,0,5,4,0,5,0,5,0,1,3,2]","action_history":"[1,0,0,0,0,1,0,1,1,0,0]","door_history":"[1,0,0,0,0,1,0,1,1,0,0]","location_rts":"[1094,691,291,1588,557,233,315,768,195,351,1011]","trial_type":"two-door-navigation","trial_index":39,"time_elapsed":643787,"internal_node_id":"0.0-2.0-37.0"},{"group":"hexagon_tri","room_assignment":["red","yellow","grey","green","purple","blue"],"door_color_assignment":["black","white"],"door_generator_assignment":[0,1],"goal":1,"start":2,"action_noise":0,"location_history":"[2,3,2,3,4,0,1]","action_history":"[1,0,1,1,0,1]","door_history":"[1,0,1,1,0,1]","location_rts":"[16059,1397,443,252,905,915]","trial_type":"two-door-navigation","trial_index":40,"time_elapsed":675787,"internal_node_id":"0.0-2.0-38.0"},{"group":"hexagon_tri","room_assignment":["red","yellow","grey","green","purple","blue"],"door_color_assignment":["black","white"],"door_generator_assignment":[0,1],"goal":4,"start":1,"action_noise":0,"location_history":"[1,3,4]","action_history":"[0,1]","door_history":"[0,1]","location_rts":"[3337,45]","trial_type":"two-door-navigation","trial_index":41,"time_elapsed":685790,"internal_node_id":"0.0-2.0-39.0"},{"group":"hexagon_tri","room_assignment":["red","yellow","grey","green","purple","blue"],"door_color_assignment":["black","white"],"door_generator_assignment":[0,1],"goal":3,"start":4,"action_noise":0,"location_history":"[4,0,1,3]","action_history":"[0,1,0]","door_history":"[0,1,0]","location_rts":"[5217,468,460]","trial_type":"two-door-navigation","trial_index":42,"time_elapsed":700787,"internal_node_id":"0.0-2.0-40.0"},{"group":"hexagon_tri","room_assignment":["red","yellow","grey","green","purple","blue"],"door_color_assignment":["black","white"],"door_generator_assignment":[0,1],"goal":5,"start":3,"action_noise":0,"location_history":"[3,2,1,5]","action_history":"[0,0,1]","door_history":"[0,0,1]","location_rts":"[3112,713,386]","trial_type":"two-door-navigation","trial_index":43,"time_elapsed":713213,"internal_node_id":"0.0-2.0-41.0"},{"group":"hexagon_tri","room_assignment":["red","yellow","grey","green","purple","blue"],"door_color_assignment":["black","white"],"door_generator_assignment":[0,1],"goal":3,"start":5,"action_noise":0,"location_history":"[5,4,2,3]","action_history":"[0,1,1]","door_history":"[0,1,1]","location_rts":"[2104,885,583]","trial_type":"two-door-navigation","trial_index":44,"time_elapsed":724800,"internal_node_id":"0.0-2.0-42.0"},{"group":"hexagon_tri","room_assignment":["red","yellow","grey","green","purple","blue"],"door_color_assignment":["black","white"],"door_generator_assignment":[0,1],"goal":0,"start":3,"action_noise":0,"location_history":"[3,4,2,1,5,0]","action_history":"[1,1,0,1,1]","door_history":"[1,1,0,1,1]","location_rts":"[16443,427,375,568,391]","trial_type":"two-door-navigation","trial_index":45,"time_elapsed":753107,"internal_node_id":"0.0-2.0-43.0"},{"group":"hexagon_tri","room_assignment":["red","yellow","grey","green","purple","blue"],"door_color_assignment":["black","white"],"door_generator_assignment":[0,1],"goal":2,"start":0,"action_noise":0,"location_history":"[0,5,4,2]","action_history":"[0,0,1]","door_history":"[0,0,1]","location_rts":"[1167,744,409]","trial_type":"two-door-navigation","trial_index":46,"time_elapsed":762496,"internal_node_id":"0.0-2.0-44.0"},{"group":"hexagon_tri","room_assignment":["red","yellow","grey","green","purple","blue"],"door_color_assignment":["black","white"],"door_generator_assignment":[0,1],"goal":4,"start":2,"action_noise":0,"location_history":"[2,1,3,4]","action_history":"[0,0,1]","door_history":"[0,0,1]","location_rts":"[1511,1751,268]","trial_type":"two-door-navigation","trial_index":47,"time_elapsed":773098,"internal_node_id":"0.0-2.0-45.0"},{"group":"hexagon_tri","room_assignment":["red","yellow","grey","green","purple","blue"],"door_color_assignment":["black","white"],"door_generator_assignment":[0,1],"goal":1,"start":4,"action_noise":0,"location_history":"[4,2,1]","action_history":"[1,0]","door_history":"[1,0]","location_rts":"[2019,567]","trial_type":"two-door-navigation","trial_index":48,"time_elapsed":781735,"internal_node_id":"0.0-2.0-46.0"},{"group":"hexagon_tri","room_assignment":["red","yellow","grey","green","purple","blue"],"door_color_assignment":["black","white"],"door_generator_assignment":[0,1],"goal":4,"start":1,"action_noise":0,"location_history":"[1,3,4]","action_history":"[0,1]","door_history":"[0,1]","location_rts":"[1940,229]","trial_type":"two-door-navigation","trial_index":49,"time_elapsed":789953,"internal_node_id":"0.0-2.0-47.0"},{"group":"hexagon_tri","room_assignment":["red","yellow","grey","green","purple","blue"],"door_color_assignment":["black","white"],"door_generator_assignment":[0,1],"goal":3,"start":4,"action_noise":0,"location_history":"[4,2,3]","action_history":"[1,1]","door_history":"[1,1]","location_rts":"[1513,633]","trial_type":"two-door-navigation","trial_index":50,"time_elapsed":798149,"internal_node_id":"0.0-2.0-48.0"},{"group":"hexagon_tri","room_assignment":["red","yellow","grey","green","purple","blue"],"door_color_assignment":["black","white"],"door_generator_assignment":[0,1],"goal":5,"start":3,"action_noise":0,"location_history":"[3,2,3,4,0,1,5]","action_history":"[0,1,1,0,1,1]","door_history":"[0,1,1,0,1,1]","location_rts":"[1228,712,521,261,823,578]","trial_type":"two-door-navigation","trial_index":51,"time_elapsed":813301,"internal_node_id":"0.0-2.0-49.0"},{"view_history":"[{\"page_index\":0,\"viewing_time\":2104}]","rt":2104,"trial_type":"instructions","trial_index":52,"time_elapsed":816406,"internal_node_id":"0.0-3.0"},{"view_history":"[{\"page_index\":0,\"viewing_time\":1013},{\"page_index\":1,\"viewing_time\":204794}]","rt":205807,"trial_type":"instructions","trial_index":53,"time_elapsed":1023214,"internal_node_id":"0.0-4.0"},{"group":"hexagon_tri","fractal_assignment":["../images/ylw_slt.png","../images/blu_wht.png","../images/org_blu.png","../images/gry_blk.png","../images/pnk_blu.png","../images/cyn_red.png"],"mutagen_generator_assignment":[0,1],"goal":4,"start":0,"action_noise":0,"location_history":"[0,5,0,1,5,4]","action_history":"[0,1,1,1,0]","mutagen_history":"[0,1,1,1,0]","location_rts":"[481013,2220,666,507,804]","trial_type":"fractal-mutation","trial_index":54,"time_elapsed":1517651,"internal_node_id":"0.0-5.0-0.0"},{"group":"hexagon_tri","fractal_assignment":["../images/ylw_slt.png","../images/blu_wht.png","../images/org_blu.png","../images/gry_blk.png","../images/pnk_blu.png","../images/cyn_red.png"],"mutagen_generator_assignment":[0,1],"goal":3,"start":4,"action_noise":0,"location_history":"[4,0,5,4,0,5,0,5,4,2,3]","action_history":"[0,0,0,0,0,1,0,0,1,1]","mutagen_history":"[0,0,0,0,0,1,0,0,1,1]","location_rts":"[1340,441,477,458,551,691,912,580,220,210]","trial_type":"fractal-mutation","trial_index":55,"time_elapsed":1537906,"internal_node_id":"0.0-5.0-1.0"},{"group":"hexagon_tri","fractal_assignment":["../images/ylw_slt.png","../images/blu_wht.png","../images/org_blu.png","../images/gry_blk.png","../images/pnk_blu.png","../images/cyn_red.png"],"mutagen_generator_assignment":[0,1],"goal":5,"start":3,"action_noise":0,"location_history":"[3,2,1,3,4,0,5]","action_history":"[0,0,0,1,0,0]","mutagen_history":"[0,0,0,1,0,0]","location_rts":"[2007,861,623,665,882,952]","trial_type":"fractal-mutation","trial_index":56,"time_elapsed":1554079,"internal_node_id":"0.0-5.0-2.0"},{"group":"hexagon_tri","fractal_assignment":["../images/ylw_slt.png","../images/blu_wht.png","../images/org_blu.png","../images/gry_blk.png","../images/pnk_blu.png","../images/cyn_red.png"],"mutagen_generator_assignment":[0,1],"goal":2,"start":5,"action_noise":0,"location_history":"[5,0,5,4,2]","action_history":"[1,0,0,1]","mutagen_history":"[1,0,0,1]","location_rts":"[2640,1137,391,678]","trial_type":"fractal-mutation","trial_index":57,"time_elapsed":1567079,"internal_node_id":"0.0-5.0-3.0"},{"group":"hexagon_tri","fractal_assignment":["../images/ylw_slt.png","../images/blu_wht.png","../images/org_blu.png","../images/gry_blk.png","../images/pnk_blu.png","../images/cyn_red.png"],"mutagen_generator_assignment":[0,1],"goal":1,"start":2,"action_noise":0,"location_history":"[2,3,4,2,1]","action_history":"[1,1,1,0]","mutagen_history":"[1,1,1,0]","location_rts":"[3204,625,532,820]","trial_type":"fractal-mutation","trial_index":58,"time_elapsed":1580406,"internal_node_id":"0.0-5.0-4.0"},{"group":"hexagon_tri","fractal_assignment":["../images/ylw_slt.png","../images/blu_wht.png","../images/org_blu.png","../images/gry_blk.png","../images/pnk_blu.png","../images/cyn_red.png"],"mutagen_generator_assignment":[0,1],"goal":4,"start":1,"action_noise":0,"location_history":"[1,3,4]","action_history":"[0,1]","mutagen_history":"[0,1]","location_rts":"[1787,870]","trial_type":"fractal-mutation","trial_index":59,"time_elapsed":1589136,"internal_node_id":"0.0-5.0-5.0"},{"group":"hexagon_tri","fractal_assignment":["../images/ylw_slt.png","../images/blu_wht.png","../images/org_blu.png","../images/gry_blk.png","../images/pnk_blu.png","../images/cyn_red.png"],"mutagen_generator_assignment":[0,1],"goal":1,"start":4,"action_noise":0,"location_history":"[4,0,5,4,2,3,4,2,1]","action_history":"[0,0,0,1,1,1,1,0]","mutagen_history":"[0,0,0,1,1,1,1,0]","location_rts":"[2846,1168,1395,847,782,892,1054,911]","trial_type":"fractal-mutation","trial_index":60,"time_elapsed":1611297,"internal_node_id":"0.0-5.0-6.0"},{"group":"hexagon_tri","fractal_assignment":["../images/ylw_slt.png","../images/blu_wht.png","../images/org_blu.png","../images/gry_blk.png","../images/pnk_blu.png","../images/cyn_red.png"],"mutagen_generator_assignment":[0,1],"goal":5,"start":1,"action_noise":0,"location_history":"[1,5]","action_history":"[1]","mutagen_history":"[1]","location_rts":"[5096]","trial_type":"fractal-mutation","trial_index":61,"time_elapsed":1621434,"internal_node_id":"0.0-5.0-7.0"},{"group":"hexagon_tri","fractal_assignment":["../images/ylw_slt.png","../images/blu_wht.png","../images/org_blu.png","../images/gry_blk.png","../images/pnk_blu.png","../images/cyn_red.png"],"mutagen_generator_assignment":[0,1],"goal":0,"start":5,"action_noise":0,"location_history":"[5,4,0]","action_history":"[0,0]","mutagen_history":"[0,0]","location_rts":"[2843,303]","trial_type":"fractal-mutation","trial_index":62,"time_elapsed":1630647,"internal_node_id":"0.0-5.0-8.0"},{"group":"hexagon_tri","fractal_assignment":["../images/ylw_slt.png","../images/blu_wht.png","../images/org_blu.png","../images/gry_blk.png","../images/pnk_blu.png","../images/cyn_red.png"],"mutagen_generator_assignment":[0,1],"goal":2,"start":0,"action_noise":0,"location_history":"[0,5,0,5,4,2]","action_history":"[0,1,0,0,1]","mutagen_history":"[0,1,0,0,1]","location_rts":"[1465,814,725,157,279]","trial_type":"fractal-mutation","trial_index":63,"time_elapsed":1643244,"internal_node_id":"0.0-5.0-9.0"},{"group":"hexagon_tri","fractal_assignment":["../images/ylw_slt.png","../images/blu_wht.png","../images/org_blu.png","../images/gry_blk.png","../images/pnk_blu.png","../images/cyn_red.png"],"mutagen_generator_assignment":[0,1],"goal":3,"start":2,"action_noise":0,"location_history":"[2,3]","action_history":"[1]","mutagen_history":"[1]","location_rts":"[1676]","trial_type":"fractal-mutation","trial_index":64,"time_elapsed":1649964,"internal_node_id":"0.0-5.0-10.0"},{"group":"hexagon_tri","fractal_assignment":["../images/ylw_slt.png","../images/blu_wht.png","../images/org_blu.png","../images/gry_blk.png","../images/pnk_blu.png","../images/cyn_red.png"],"mutagen_generator_assignment":[0,1],"goal":0,"start":3,"action_noise":0,"location_history":"[3,4,2,1,3,4,2,3,4,0]","action_history":"[1,1,0,0,1,1,1,1,0]","mutagen_history":"[1,1,0,0,1,1,1,1,0]","location_rts":"[2345,1233,483,664,739,1253,1404,883,264]","trial_type":"fractal-mutation","trial_index":65,"time_elapsed":1672551,"internal_node_id":"0.0-5.0-11.0"},{"group":"hexagon_tri","fractal_assignment":["../images/ylw_slt.png","../images/blu_wht.png","../images/org_blu.png","../images/gry_blk.png","../images/pnk_blu.png","../images/cyn_red.png"],"mutagen_generator_assignment":[0,1],"goal":2,"start":0,"action_noise":0,"location_history":"[0,5,4,2]","action_history":"[0,0,1]","mutagen_history":"[0,0,1]","location_rts":"[1982,1745,274]","trial_type":"fractal-mutation","trial_index":66,"time_elapsed":1683659,"internal_node_id":"0.0-5.0-12.0"},{"group":"hexagon_tri","fractal_assignment":["../images/ylw_slt.png","../images/blu_wht.png","../images/org_blu.png","../images/gry_blk.png","../images/pnk_blu.png","../images/cyn_red.png"],"mutagen_generator_assignment":[0,1],"goal":5,"start":2,"action_noise":0,"location_history":"[2,1,3,4,2,1,3,4,2,3,2,1,5]","action_history":"[0,0,1,1,0,0,1,1,1,0,0,1]","mutagen_history":"[0,0,1,1,0,0,1,1,1,0,0,1]","location_rts":"[1420,857,1103,1276,1031,670,606,277,1338,678,917,991]","trial_type":"fractal-mutation","trial_index":67,"time_elapsed":1711379,"internal_node_id":"0.0-5.0-13.0"},{"group":"hexagon_tri","fractal_assignment":["../images/ylw_slt.png","../images/blu_wht.png","../images/org_blu.png","../images/gry_blk.png","../images/pnk_blu.png","../images/cyn_red.png"],"mutagen_generator_assignment":[0,1],"goal":4,"start":5,"action_noise":0,"location_history":"[5,4]","action_history":"[0]","mutagen_history":"[0]","location_rts":"[1756]","trial_type":"fractal-mutation","trial_index":68,"time_elapsed":1718165,"internal_node_id":"0.0-5.0-14.0"},{"group":"hexagon_tri","fractal_assignment":["../images/ylw_slt.png","../images/blu_wht.png","../images/org_blu.png","../images/gry_blk.png","../images/pnk_blu.png","../images/cyn_red.png"],"mutagen_generator_assignment":[0,1],"goal":3,"start":4,"action_noise":0,"location_history":"[4,2,3]","action_history":"[1,1]","mutagen_history":"[1,1]","location_rts":"[1753,897]","trial_type":"fractal-mutation","trial_index":69,"time_elapsed":1726899,"internal_node_id":"0.0-5.0-15.0"},{"group":"hexagon_tri","fractal_assignment":["../images/ylw_slt.png","../images/blu_wht.png","../images/org_blu.png","../images/gry_blk.png","../images/pnk_blu.png","../images/cyn_red.png"],"mutagen_generator_assignment":[0,1],"goal":1,"start":3,"action_noise":0,"location_history":"[3,2,1]","action_history":"[0,0]","mutagen_history":"[0,0]","location_rts":"[2301,1749]","trial_type":"fractal-mutation","trial_index":70,"time_elapsed":1737004,"internal_node_id":"0.0-5.0-16.0"},{"group":"hexagon_tri","fractal_assignment":["../images/ylw_slt.png","../images/blu_wht.png","../images/org_blu.png","../images/gry_blk.png","../images/pnk_blu.png","../images/cyn_red.png"],"mutagen_generator_assignment":[0,1],"goal":5,"start":1,"action_noise":0,"location_history":"[1,5]","action_history":"[1]","mutagen_history":"[1]","location_rts":"[2137]","trial_type":"fractal-mutation","trial_index":71,"time_elapsed":1744192,"internal_node_id":"0.0-5.0-17.0"},{"group":"hexagon_tri","fractal_assignment":["../images/ylw_slt.png","../images/blu_wht.png","../images/org_blu.png","../images/gry_blk.png","../images/pnk_blu.png","../images/cyn_red.png"],"mutagen_generator_assignment":[0,1],"goal":4,"start":5,"action_noise":0,"location_history":"[5,4]","action_history":"[0]","mutagen_history":"[0]","location_rts":"[2207]","trial_type":"fractal-mutation","trial_index":72,"time_elapsed":1751430,"internal_node_id":"0.0-5.0-18.0"},{"group":"hexagon_tri","fractal_assignment":["../images/ylw_slt.png","../images/blu_wht.png","../images/org_blu.png","../images/gry_blk.png","../images/pnk_blu.png","../images/cyn_red.png"],"mutagen_generator_assignment":[0,1],"goal":0,"start":4,"action_noise":0,"location_history":"[4,2,3,4,0]","action_history":"[1,1,1,0]","mutagen_history":"[1,1,1,0]","location_rts":"[1768,1237,1310,812]","trial_type":"fractal-mutation","trial_index":73,"time_elapsed":1764714,"internal_node_id":"0.0-5.0-19.0"},{"group":"hexagon_tri","fractal_assignment":["../images/ylw_slt.png","../images/blu_wht.png","../images/org_blu.png","../images/gry_blk.png","../images/pnk_blu.png","../images/cyn_red.png"],"mutagen_generator_assignment":[0,1],"goal":1,"start":0,"action_noise":0,"location_history":"[0,5,0,5,4,2,3,4,2,1]","action_history":"[0,1,0,0,1,1,1,1,0]","mutagen_history":"[0,1,0,0,1,1,1,1,0]","location_rts":"[2387,706,955,170,184,413,337,958,881]","trial_type":"fractal-mutation","trial_index":74,"time_elapsed":1784986,"internal_node_id":"0.0-5.0-20.0"},{"group":"hexagon_tri","fractal_assignment":["../images/ylw_slt.png","../images/blu_wht.png","../images/org_blu.png","../images/gry_blk.png","../images/pnk_blu.png","../images/cyn_red.png"],"mutagen_generator_assignment":[0,1],"goal":3,"start":1,"action_noise":0,"location_history":"[1,5,0,1,3]","action_history":"[1,1,1,0]","mutagen_history":"[1,1,1,0]","location_rts":"[2252,526,1082,859]","trial_type":"fractal-mutation","trial_index":75,"time_elapsed":1797875,"internal_node_id":"0.0-5.0-21.0"},{"group":"hexagon_tri","fractal_assignment":["../images/ylw_slt.png","../images/blu_wht.png","../images/org_blu.png","../images/gry_blk.png","../images/pnk_blu.png","../images/cyn_red.png"],"mutagen_generator_assignment":[0,1],"goal":2,"start":3,"action_noise":0,"location_history":"[3,2]","action_history":"[0]","mutagen_history":"[0]","location_rts":"[2291]","trial_type":"fractal-mutation","trial_index":76,"time_elapsed":1805197,"internal_node_id":"0.0-5.0-22.0"},{"group":"hexagon_tri","fractal_assignment":["../images/ylw_slt.png","../images/blu_wht.png","../images/org_blu.png","../images/gry_blk.png","../images/pnk_blu.png","../images/cyn_red.png"],"mutagen_generator_assignment":[0,1],"goal":0,"start":2,"action_noise":0,"location_history":"[2,1,3,2,3,4,0]","action_history":"[0,0,0,1,1,0]","mutagen_history":"[0,0,0,1,1,0]","location_rts":"[2091,1307,573,172,639,477]","trial_type":"fractal-mutation","trial_index":77,"time_elapsed":1820646,"internal_node_id":"0.0-5.0-23.0"},{"group":"hexagon_tri","fractal_assignment":["../images/ylw_slt.png","../images/blu_wht.png","../images/org_blu.png","../images/gry_blk.png","../images/pnk_blu.png","../images/cyn_red.png"],"mutagen_generator_assignment":[0,1],"goal":3,"start":0,"action_noise":0,"location_history":"[0,5,4,2,3]","action_history":"[0,0,1,1]","mutagen_history":"[0,0,1,1]","location_rts":"[1584,1107,425,695]","trial_type":"fractal-mutation","trial_index":78,"time_elapsed":1832600,"internal_node_id":"0.0-5.0-24.0"},{"group":"hexagon_tri","fractal_assignment":["../images/ylw_slt.png","../images/blu_wht.png","../images/org_blu.png","../images/gry_blk.png","../images/pnk_blu.png","../images/cyn_red.png"],"mutagen_generator_assignment":[0,1],"goal":1,"start":3,"action_noise":0,"location_history":"[3,2,1]","action_history":"[0,0]","mutagen_history":"[0,0]","location_rts":"[1812,4825]","trial_type":"fractal-mutation","trial_index":79,"time_elapsed":1845299,"internal_node_id":"0.0-5.0-25.0"},{"group":"hexagon_tri","fractal_assignment":["../images/ylw_slt.png","../images/blu_wht.png","../images/org_blu.png","../images/gry_blk.png","../images/pnk_blu.png","../images/cyn_red.png"],"mutagen_generator_assignment":[0,1],"goal":2,"start":1,"action_noise":0,"location_history":"[1,3,4,2]","action_history":"[0,1,1]","mutagen_history":"[0,1,1]","location_rts":"[2416,741,1884]","trial_type":"fractal-mutation","trial_index":80,"time_elapsed":1857448,"internal_node_id":"0.0-5.0-26.0"},{"group":"hexagon_tri","fractal_assignment":["../images/ylw_slt.png","../images/blu_wht.png","../images/org_blu.png","../images/gry_blk.png","../images/pnk_blu.png","../images/cyn_red.png"],"mutagen_generator_assignment":[0,1],"goal":5,"start":2,"action_noise":0,"location_history":"[2,3,2,1,5]","action_history":"[1,0,0,1]","mutagen_history":"[1,0,0,1]","location_rts":"[1885,2505,552,898]","trial_type":"fractal-mutation","trial_index":81,"time_elapsed":1871419,"internal_node_id":"0.0-5.0-27.0"},{"group":"hexagon_tri","fractal_assignment":["../images/ylw_slt.png","../images/blu_wht.png","../images/org_blu.png","../images/gry_blk.png","../images/pnk_blu.png","../images/cyn_red.png"],"mutagen_generator_assignment":[0,1],"goal":4,"start":5,"action_noise":0,"location_history":"[5,0,5,4]","action_history":"[1,0,0]","mutagen_history":"[1,0,0]","location_rts":"[5668,2745,523]","trial_type":"fractal-mutation","trial_index":82,"time_elapsed":1887455,"internal_node_id":"0.0-5.0-28.0"},{"group":"hexagon_tri","fractal_assignment":["../images/ylw_slt.png","../images/blu_wht.png","../images/org_blu.png","../images/gry_blk.png","../images/pnk_blu.png","../images/cyn_red.png"],"mutagen_generator_assignment":[0,1],"goal":5,"start":4,"action_noise":0,"location_history":"[4,0,5]","action_history":"[0,0]","mutagen_history":"[0,0]","location_rts":"[12390,933]","trial_type":"fractal-mutation","trial_index":83,"time_elapsed":1906839,"internal_node_id":"0.0-5.0-29.0"},{"group":"hexagon_tri","fractal_assignment":["../images/ylw_slt.png","../images/blu_wht.png","../images/org_blu.png","../images/gry_blk.png","../images/pnk_blu.png","../images/cyn_red.png"],"mutagen_generator_assignment":[0,1],"goal":3,"start":5,"action_noise":0,"location_history":"[5,4,2,3]","action_history":"[0,1,1]","mutagen_history":"[0,1,1]","location_rts":"[22958,2160,2284]","trial_type":"fractal-mutation","trial_index":84,"time_elapsed":1941369,"internal_node_id":"0.0-5.0-30.0"},{"group":"hexagon_tri","fractal_assignment":["../images/ylw_slt.png","../images/blu_wht.png","../images/org_blu.png","../images/gry_blk.png","../images/pnk_blu.png","../images/cyn_red.png"],"mutagen_generator_assignment":[0,1],"goal":0,"start":3,"action_noise":0,"location_history":"[3,2,1,3,4,2,3,4,0]","action_history":"[0,0,0,1,1,1,1,0]","mutagen_history":"[0,0,0,1,1,1,1,0]","location_rts":"[821,1281,1022,129,463,683,1120,985]","trial_type":"fractal-mutation","trial_index":85,"time_elapsed":1960132,"internal_node_id":"0.0-5.0-31.0"},{"group":"hexagon_tri","fractal_assignment":["../images/ylw_slt.png","../images/blu_wht.png","../images/org_blu.png","../images/gry_blk.png","../images/pnk_blu.png","../images/cyn_red.png"],"mutagen_generator_assignment":[0,1],"goal":4,"start":0,"action_noise":0,"location_history":"[0,5,4]","action_history":"[0,0]","mutagen_history":"[0,0]","location_rts":"[3122,1622]","trial_type":"fractal-mutation","trial_index":86,"time_elapsed":1970940,"internal_node_id":"0.0-5.0-32.0"},{"group":"hexagon_tri","fractal_assignment":["../images/ylw_slt.png","../images/blu_wht.png","../images/org_blu.png","../images/gry_blk.png","../images/pnk_blu.png","../images/cyn_red.png"],"mutagen_generator_assignment":[0,1],"goal":1,"start":4,"action_noise":0,"location_history":"[4,2,3,4,2,1]","action_history":"[1,1,1,1,0]","mutagen_history":"[1,1,1,1,0]","location_rts":"[2248,393,774,867,339]","trial_type":"fractal-mutation","trial_index":87,"time_elapsed":1984745,"internal_node_id":"0.0-5.0-33.0"},{"group":"hexagon_tri","fractal_assignment":["../images/ylw_slt.png","../images/blu_wht.png","../images/org_blu.png","../images/gry_blk.png","../images/pnk_blu.png","../images/cyn_red.png"],"mutagen_generator_assignment":[0,1],"goal":2,"start":1,"action_noise":0,"location_history":"[1,5,4,0,1,3,4,2]","action_history":"[1,0,0,1,0,1,1]","mutagen_history":"[1,0,0,1,0,1,1]","location_rts":"[996,730,711,3140,853,902,836]","trial_type":"fractal-mutation","trial_index":88,"time_elapsed":2004175,"internal_node_id":"0.0-5.0-34.0"},{"group":"hexagon_tri","fractal_assignment":["../images/ylw_slt.png","../images/blu_wht.png","../images/org_blu.png","../images/gry_blk.png","../images/pnk_blu.png","../images/cyn_red.png"],"mutagen_generator_assignment":[0,1],"goal":0,"start":2,"action_noise":0,"location_history":"[2,1,5,0]","action_history":"[0,1,1]","mutagen_history":"[0,1,1]","location_rts":"[7349,632,340]","trial_type":"fractal-mutation","trial_index":89,"time_elapsed":2019627,"internal_node_id":"0.0-5.0-35.0"},{"group":"hexagon_tri","fractal_assignment":["../images/ylw_slt.png","../images/blu_wht.png","../images/org_blu.png","../images/gry_blk.png","../images/pnk_blu.png","../images/cyn_red.png"],"mutagen_generator_assignment":[0,1],"goal":5,"start":0,"action_noise":0,"location_history":"[0,5]","action_history":"[0]","mutagen_history":"[0]","location_rts":"[1119]","trial_type":"fractal-mutation","trial_index":90,"time_elapsed":2025781,"internal_node_id":"0.0-5.0-36.0"},{"group":"hexagon_tri","fractal_assignment":["../images/ylw_slt.png","../images/blu_wht.png","../images/org_blu.png","../images/gry_blk.png","../images/pnk_blu.png","../images/cyn_red.png"],"mutagen_generator_assignment":[0,1],"goal":2,"start":5,"action_noise":0,"location_history":"[5,0,5,4,2]","action_history":"[1,0,0,1]","mutagen_history":"[1,0,0,1]","location_rts":"[3264,608,197,131]","trial_type":"fractal-mutation","trial_index":91,"time_elapsed":2038135,"internal_node_id":"0.0-5.0-37.0"},{"group":"hexagon_tri","fractal_assignment":["../images/ylw_slt.png","../images/blu_wht.png","../images/org_blu.png","../images/gry_blk.png","../images/pnk_blu.png","../images/cyn_red.png"],"mutagen_generator_assignment":[0,1],"goal":1,"start":2,"action_noise":0,"location_history":"[2,3,4,2,1]","action_history":"[1,1,1,0]","mutagen_history":"[1,1,1,0]","location_rts":"[1652,505,613,173]","trial_type":"fractal-mutation","trial_index":92,"time_elapsed":2049235,"internal_node_id":"0.0-5.0-38.0"},{"group":"hexagon_tri","fractal_assignment":["../images/ylw_slt.png","../images/blu_wht.png","../images/org_blu.png","../images/gry_blk.png","../images/pnk_blu.png","../images/cyn_red.png"],"mutagen_generator_assignment":[0,1],"goal":4,"start":1,"action_noise":0,"location_history":"[1,3,2,3,2,3,4]","action_history":"[0,0,1,0,1,1]","mutagen_history":"[0,0,1,0,1,1]","location_rts":"[3227,770,2190,281,1280,471]","trial_type":"fractal-mutation","trial_index":93,"time_elapsed":2067658,"internal_node_id":"0.0-5.0-39.0"},{"group":"hexagon_tri","fractal_assignment":["../images/ylw_slt.png","../images/blu_wht.png","../images/org_blu.png","../images/gry_blk.png","../images/pnk_blu.png","../images/cyn_red.png"],"mutagen_generator_assignment":[0,1],"goal":3,"start":4,"action_noise":0,"location_history":"[4,2,3]","action_history":"[1,1]","mutagen_history":"[1,1]","location_rts":"[3473,256]","trial_type":"fractal-mutation","trial_index":94,"time_elapsed":2077481,"internal_node_id":"0.0-5.0-40.0"},{"group":"hexagon_tri","fractal_assignment":["../images/ylw_slt.png","../images/blu_wht.png","../images/org_blu.png","../images/gry_blk.png","../images/pnk_blu.png","../images/cyn_red.png"],"mutagen_generator_assignment":[0,1],"goal":5,"start":3,"action_noise":0,"location_history":"[3,4,0,5]","action_history":"[1,0,0]","mutagen_history":"[1,0,0]","location_rts":"[8836,1394,453]","trial_type":"fractal-mutation","trial_index":95,"time_elapsed":2095249,"internal_node_id":"0.0-5.0-41.0"},{"group":"hexagon_tri","fractal_assignment":["../images/ylw_slt.png","../images/blu_wht.png","../images/org_blu.png","../images/gry_blk.png","../images/pnk_blu.png","../images/cyn_red.png"],"mutagen_generator_assignment":[0,1],"goal":3,"start":5,"action_noise":0,"location_history":"[5,4,2,3]","action_history":"[0,1,1]","mutagen_history":"[0,1,1]","location_rts":"[3136,253,637]","trial_type":"fractal-mutation","trial_index":96,"time_elapsed":2106994,"internal_node_id":"0.0-5.0-42.0"},{"group":"hexagon_tri","fractal_assignment":["../images/ylw_slt.png","../images/blu_wht.png","../images/org_blu.png","../images/gry_blk.png","../images/pnk_blu.png","../images/cyn_red.png"],"mutagen_generator_assignment":[0,1],"goal":0,"start":3,"action_noise":0,"location_history":"[3,2,3,4,0]","action_history":"[0,1,1,0]","mutagen_history":"[0,1,1,0]","location_rts":"[1561,706,684,1298]","trial_type":"fractal-mutation","trial_index":97,"time_elapsed":2119367,"internal_node_id":"0.0-5.0-43.0"},{"group":"hexagon_tri","fractal_assignment":["../images/ylw_slt.png","../images/blu_wht.png","../images/org_blu.png","../images/gry_blk.png","../images/pnk_blu.png","../images/cyn_red.png"],"mutagen_generator_assignment":[0,1],"goal":2,"start":0,"action_noise":0,"location_history":"[0,1,5,0,5,4,2]","action_history":"[1,1,1,0,0,1]","mutagen_history":"[1,1,1,0,0,1]","location_rts":"[1588,1821,1297,1107,784,135]","trial_type":"fractal-mutation","trial_index":98,"time_elapsed":2136313,"internal_node_id":"0.0-5.0-44.0"},{"group":"hexagon_tri","fractal_assignment":["../images/ylw_slt.png","../images/blu_wht.png","../images/org_blu.png","../images/gry_blk.png","../images/pnk_blu.png","../images/cyn_red.png"],"mutagen_generator_assignment":[0,1],"goal":4,"start":2,"action_noise":0,"location_history":"[2,3,4]","action_history":"[1,1]","mutagen_history":"[1,1]","location_rts":"[2571,537]","trial_type":"fractal-mutation","trial_index":99,"time_elapsed":2145489,"internal_node_id":"0.0-5.0-45.0"},{"group":"hexagon_tri","fractal_assignment":["../images/ylw_slt.png","../images/blu_wht.png","../images/org_blu.png","../images/gry_blk.png","../images/pnk_blu.png","../images/cyn_red.png"],"mutagen_generator_assignment":[0,1],"goal":1,"start":4,"action_noise":0,"location_history":"[4,2,1]","action_history":"[1,0]","mutagen_history":"[1,0]","location_rts":"[3477,510]","trial_type":"fractal-mutation","trial_index":100,"time_elapsed":2155551,"internal_node_id":"0.0-5.0-46.0"},{"group":"hexagon_tri","fractal_assignment":["../images/ylw_slt.png","../images/blu_wht.png","../images/org_blu.png","../images/gry_blk.png","../images/pnk_blu.png","../images/cyn_red.png"],"mutagen_generator_assignment":[0,1],"goal":4,"start":1,"action_noise":0,"location_history":"[1,5,0,5,4]","action_history":"[1,1,0,0]","mutagen_history":"[1,1,0,0]","location_rts":"[3916,277,961,114]","trial_type":"fractal-mutation","trial_index":101,"time_elapsed":2168960,"internal_node_id":"0.0-5.0-47.0"},{"group":"hexagon_tri","fractal_assignment":["../images/ylw_slt.png","../images/blu_wht.png","../images/org_blu.png","../images/gry_blk.png","../images/pnk_blu.png","../images/cyn_red.png"],"mutagen_generator_assignment":[0,1],"goal":3,"start":4,"action_noise":0,"location_history":"[4,2,3]","action_history":"[1,1]","mutagen_history":"[1,1]","location_rts":"[2117,152]","trial_type":"fractal-mutation","trial_index":102,"time_elapsed":2177321,"internal_node_id":"0.0-5.0-48.0"},{"group":"hexagon_tri","fractal_assignment":["../images/ylw_slt.png","../images/blu_wht.png","../images/org_blu.png","../images/gry_blk.png","../images/pnk_blu.png","../images/cyn_red.png"],"mutagen_generator_assignment":[0,1],"goal":5,"start":3,"action_noise":0,"location_history":"[3,4,0,5]","action_history":"[1,0,0]","mutagen_history":"[1,0,0]","location_rts":"[1662,797,384]","trial_type":"fractal-mutation","trial_index":103,"time_elapsed":2187260,"internal_node_id":"0.0-5.0-49.0"},{"view_history":"[{\"page_index\":0,\"viewing_time\":8149}]","rt":8150,"trial_type":"instructions","trial_index":104,"time_elapsed":2196410,"internal_node_id":"0.0-6.0"},{"rt":2389,"responses":"{\"Q0\":\"\"}","trial_type":"survey-text","trial_index":105,"time_elapsed":2199809,"internal_node_id":"0.0-7.0"}]