[{"view_history":"[{\"page_index\":0,\"viewing_time\":20740},{\"page_index\":1,\"viewing_time\":14252},{\"page_index\":2,\"viewing_time\":26020}]","rt":61016,"trial_type":"instructions","trial_index":0,"time_elapsed":61020,"internal_node_id":"0.0-0.0"},{"view_history":"[{\"page_index\":0,\"viewing_time\":10748},{\"page_index\":1,\"viewing_time\":41230}]","rt":51980,"trial_type":"instructions","trial_index":1,"time_elapsed":114002,"internal_node_id":"0.0-1.0"},{"group":"hexagon_tri","room_assignment":["yellow","green","blue","grey","red","purple"],"door_color_assignment":["white","black"],"door_generator_assignment":[1,0],"goal":4,"start":0,"action_noise":0,"location_history":"[0,1,5,0,1,5,4]","action_history":"[1,1,1,1,1,0]","door_history":"[0,0,0,0,0,1]","location_rts":"[3658,4044,1322,840,1026,1180]","trial_type":"two-door-navigation","trial_index":2,"time_elapsed":136766,"internal_node_id":"0.0-2.0-0.0"},{"group":"hexagon_tri","room_assignment":["yellow","green","blue","grey","red","purple"],"door_color_assignment":["white","black"],"door_generator_assignment":[1,0],"goal":3,"start":4,"action_noise":0,"location_history":"[4,2,3]","action_history":"[1,1]","door_history":"[0,0]","location_rts":"[5890,1046]","trial_type":"two-door-navigation","trial_index":3,"time_elapsed":149924,"internal_node_id":"0.0-2.0-1.0"},{"group":"hexagon_tri","room_assignment":["yellow","green","blue","grey","red","purple"],"door_color_assignment":["white","black"],"door_generator_assignment":[1,0],"goal":5,"start":3,"action_noise":0,"location_history":"[3,2,1,5]","action_history":"[0,0,1]","door_history":"[1,1,0]","location_rts":"[3328,994,716]","trial_type":"two-door-navigation","trial_index":4,"time_elapsed":162350,"internal_node_id":"0.0-2.0-2.0"},{"group":"hexagon_tri","room_assignment":["yellow","green","blue","grey","red","purple"],"door_color_assignment":["white","black"],"door_generator_assignment":[1,0],"goal":2,"start":5,"action_noise":0,"location_history":"[5,0,1,5,0,5,4,2]","action_history":"[1,1,1,1,0,0,1]","door_history":"[0,0,0,0,1,1,0]","location_rts":"[2974,446,520,530,1000,1278,1908]","trial_type":"two-door-navigation","trial_index":5,"time_elapsed":182876,"internal_node_id":"0.0-2.0-3.0"},{"group":"hexagon_tri","room_assignment":["yellow","green","blue","grey","red","purple"],"door_color_assignment":["white","black"],"door_generator_assignment":[1,0],"goal":1,"start":2,"action_noise":0,"location_history":"[2,1]","action_history":"[0]","door_history":"[1]","location_rts":"[8432]","trial_type":"two-door-navigation","trial_index":6,"time_elapsed":196442,"internal_node_id":"0.0-2.0-4.0"},{"group":"hexagon_tri","room_assignment":["yellow","green","blue","grey","red","purple"],"door_color_assignment":["white","black"],"door_generator_assignment":[1,0],"goal":4,"start":1,"action_noise":0,"location_history":"[1,3,2,1,3,2,3,4]","action_history":"[0,0,0,0,0,1,1]","door_history":"[1,1,1,1,1,0,0]","location_rts":"[4186,2956,966,1078,702,756,1142]","trial_type":"two-door-navigation","trial_index":7,"time_elapsed":220072,"internal_node_id":"0.0-2.0-5.0"},{"group":"hexagon_tri","room_assignment":["yellow","green","blue","grey","red","purple"],"door_color_assignment":["white","black"],"door_generator_assignment":[1,0],"goal":1,"start":4,"action_noise":0,"location_history":"[4,0,1]","action_history":"[0,1]","door_history":"[1,0]","location_rts":"[6282,1436]","trial_type":"two-door-navigation","trial_index":8,"time_elapsed":234042,"internal_node_id":"0.0-2.0-6.0"},{"group":"hexagon_tri","room_assignment":["yellow","green","blue","grey","red","purple"],"door_color_assignment":["white","black"],"door_generator_assignment":[1,0],"goal":5,"start":1,"action_noise":0,"location_history":"[1,5]","action_history":"[1]","door_history":"[0]","location_rts":"[7594]","trial_type":"two-door-navigation","trial_index":9,"time_elapsed":246820,"internal_node_id":"0.0-2.0-7.0"},{"group":"hexagon_tri","room_assignment":["yellow","green","blue","grey","red","purple"],"door_color_assignment":["white","black"],"door_generator_assignment":[1,0],"goal":0,"start":5,"action_noise":0,"location_history":"[5,4,0]","action_history":"[0,0]","door_history":"[1,1]","location_rts":"[3134,970]","trial_type":"two-door-navigation","trial_index":10,"time_elapsed":257156,"internal_node_id":"0.0-2.0-8.0"},{"group":"hexagon_tri","room_assignment":["yellow","green","blue","grey","red","purple"],"door_color_assignment":["white","black"],"door_generator_assignment":[1,0],"goal":2,"start":0,"action_noise":0,"location_history":"[0,5,0,1,5,0,5,4,2]","action_history":"[0,1,1,1,1,0,0,1]","door_history":"[1,0,0,0,0,1,1,0]","location_rts":"[4440,912,440,632,402,544,1508,608]","trial_type":"two-door-navigation","trial_index":11,"time_elapsed":279606,"internal_node_id":"0.0-2.0-9.0"},{"group":"hexagon_tri","room_assignment":["yellow","green","blue","grey","red","purple"],"door_color_assignment":["white","black"],"door_generator_assignment":[1,0],"goal":3,"start":2,"action_noise":0,"location_history":"[2,3]","action_history":"[1]","door_history":"[0]","location_rts":"[4478]","trial_type":"two-door-navigation","trial_index":12,"time_elapsed":289242,"internal_node_id":"0.0-2.0-10.0"},{"group":"hexagon_tri","room_assignment":["yellow","green","blue","grey","red","purple"],"door_color_assignment":["white","black"],"door_generator_assignment":[1,0],"goal":0,"start":3,"action_noise":0,"location_history":"[3,2,3,4,0]","action_history":"[0,1,1,0]","door_history":"[1,0,0,1]","location_rts":"[6244,1434,402,822]","trial_type":"two-door-navigation","trial_index":13,"time_elapsed":306620,"internal_node_id":"0.0-2.0-11.0"},{"group":"hexagon_tri","room_assignment":["yellow","green","blue","grey","red","purple"],"door_color_assignment":["white","black"],"door_generator_assignment":[1,0],"goal":2,"start":0,"action_noise":0,"location_history":"[0,5,0,1,3,2]","action_history":"[0,1,1,0,0]","door_history":"[1,0,0,1,1]","location_rts":"[5644,1706,438,992,922]","trial_type":"two-door-navigation","trial_index":14,"time_elapsed":325902,"internal_node_id":"0.0-2.0-12.0"},{"group":"hexagon_tri","room_assignment":["yellow","green","blue","grey","red","purple"],"door_color_assignment":["white","black"],"door_generator_assignment":[1,0],"goal":5,"start":2,"action_noise":0,"location_history":"[2,1,5]","action_history":"[0,1]","door_history":"[1,0]","location_rts":"[4358,902]","trial_type":"two-door-navigation","trial_index":15,"time_elapsed":337504,"internal_node_id":"0.0-2.0-13.0"},{"group":"hexagon_tri","room_assignment":["yellow","green","blue","grey","red","purple"],"door_color_assignment":["white","black"],"door_generator_assignment":[1,0],"goal":4,"start":5,"action_noise":0,"location_history":"[5,4]","action_history":"[0]","door_history":"[1]","location_rts":"[4660]","trial_type":"two-door-navigation","trial_index":16,"time_elapsed":347330,"internal_node_id":"0.0-2.0-14.0"},{"group":"hexagon_tri","room_assignment":["yellow","green","blue","grey","red","purple"],"door_color_assignment":["white","black"],"door_generator_assignment":[1,0],"goal":3,"start":4,"action_noise":0,"location_history":"[4,0,5,0,1,5,0,5,4,0,1,5,0,1,3]","action_history":"[0,0,1,1,1,1,0,0,0,1,1,1,1,0]","door_history":"[1,1,0,0,0,0,1,1,1,0,0,0,0,1]","location_rts":"[3624,1058,1544,674,504,466,556,758,574,1700,410,382,492,534]","trial_type":"two-door-navigation","trial_index":17,"time_elapsed":380106,"internal_node_id":"0.0-2.0-15.0"},{"group":"hexagon_tri","room_assignment":["yellow","green","blue","grey","red","purple"],"door_color_assignment":["white","black"],"door_generator_assignment":[1,0],"goal":1,"start":3,"action_noise":0,"location_history":"[3,2,3,4,2,3,2,1]","action_history":"[0,1,1,1,1,0,0]","door_history":"[1,0,0,0,0,1,1]","location_rts":"[6092,1126,324,1516,438,626,778]","trial_type":"two-door-navigation","trial_index":18,"time_elapsed":402822,"internal_node_id":"0.0-2.0-16.0"},{"group":"hexagon_tri","room_assignment":["yellow","green","blue","grey","red","purple"],"door_color_assignment":["white","black"],"door_generator_assignment":[1,0],"goal":5,"start":1,"action_noise":0,"location_history":"[1,3,2,1,5]","action_history":"[0,0,0,1]","door_history":"[1,1,1,0]","location_rts":"[37950,1306,1736,656]","trial_type":"two-door-navigation","trial_index":19,"time_elapsed":452868,"internal_node_id":"0.0-2.0-17.0"},{"group":"hexagon_tri","room_assignment":["yellow","green","blue","grey","red","purple"],"door_color_assignment":["white","black"],"door_generator_assignment":[1,0],"goal":4,"start":5,"action_noise":0,"location_history":"[5,4]","action_history":"[0]","door_history":"[1]","location_rts":"[2054]","trial_type":"two-door-navigation","trial_index":20,"time_elapsed":460050,"internal_node_id":"0.0-2.0-18.0"},{"group":"hexagon_tri","room_assignment":["yellow","green","blue","grey","red","purple"],"door_color_assignment":["white","black"],"door_generator_assignment":[1,0],"goal":0,"start":4,"action_noise":0,"location_history":"[4,2,3,2,1,5,0]","action_history":"[1,1,0,0,1,1]","door_history":"[0,0,1,1,0,0]","location_rts":"[4384,636,1172,1172,1358,442]","trial_type":"two-door-navigation","trial_index":21,"time_elapsed":479796,"internal_node_id":"0.0-2.0-19.0"},{"group":"hexagon_tri","room_assignment":["yellow","green","blue","grey","red","purple"],"door_color_assignment":["white","black"],"door_generator_assignment":[1,0],"goal":1,"start":0,"action_noise":0,"location_history":"[0,5,0,1]","action_history":"[0,1,1]","door_history":"[1,0,0]","location_rts":"[3980,1148,492]","trial_type":"two-door-navigation","trial_index":22,"time_elapsed":492778,"internal_node_id":"0.0-2.0-20.0"},{"group":"hexagon_tri","room_assignment":["yellow","green","blue","grey","red","purple"],"door_color_assignment":["white","black"],"door_generator_assignment":[1,0],"goal":3,"start":1,"action_noise":0,"location_history":"[1,3]","action_history":"[0]","door_history":"[1]","location_rts":"[3590]","trial_type":"two-door-navigation","trial_index":23,"time_elapsed":501494,"internal_node_id":"0.0-2.0-21.0"},{"group":"hexagon_tri","room_assignment":["yellow","green","blue","grey","red","purple"],"door_color_assignment":["white","black"],"door_generator_assignment":[1,0],"goal":2,"start":3,"action_noise":0,"location_history":"[3,2]","action_history":"[0]","door_history":"[1]","location_rts":"[2714]","trial_type":"two-door-navigation","trial_index":24,"time_elapsed":509376,"internal_node_id":"0.0-2.0-22.0"},{"group":"hexagon_tri","room_assignment":["yellow","green","blue","grey","red","purple"],"door_color_assignment":["white","black"],"door_generator_assignment":[1,0],"goal":0,"start":2,"action_noise":0,"location_history":"[2,3,4,0]","action_history":"[1,1,0]","door_history":"[0,0,1]","location_rts":"[3614,580,636]","trial_type":"two-door-navigation","trial_index":25,"time_elapsed":521590,"internal_node_id":"0.0-2.0-23.0"},{"group":"hexagon_tri","room_assignment":["yellow","green","blue","grey","red","purple"],"door_color_assignment":["white","black"],"door_generator_assignment":[1,0],"goal":3,"start":0,"action_noise":0,"location_history":"[0,1,5,4,0,5,4,2,3]","action_history":"[1,1,0,0,0,0,1,1]","door_history":"[0,0,1,1,1,1,0,0]","location_rts":"[3570,424,1616,498,516,518,536,476]","trial_type":"two-door-navigation","trial_index":26,"time_elapsed":542628,"internal_node_id":"0.0-2.0-24.0"},{"group":"hexagon_tri","room_assignment":["yellow","green","blue","grey","red","purple"],"door_color_assignment":["white","black"],"door_generator_assignment":[1,0],"goal":1,"start":3,"action_noise":0,"location_history":"[3,2,3,4,0,5,0,5,4,2,1]","action_history":"[0,1,1,0,0,1,0,0,1,0]","door_history":"[1,0,0,1,1,0,1,1,0,1]","location_rts":"[3328,480,394,1094,520,706,636,386,1110,522]","trial_type":"two-door-navigation","trial_index":27,"time_elapsed":566916,"internal_node_id":"0.0-2.0-25.0"},{"group":"hexagon_tri","room_assignment":["yellow","green","blue","grey","red","purple"],"door_color_assignment":["white","black"],"door_generator_assignment":[1,0],"goal":2,"start":1,"action_noise":0,"location_history":"[1,5,4,2]","action_history":"[1,0,1]","door_history":"[0,1,0]","location_rts":"[2952,1072,1598]","trial_type":"two-door-navigation","trial_index":28,"time_elapsed":579940,"internal_node_id":"0.0-2.0-26.0"},{"group":"hexagon_tri","room_assignment":["yellow","green","blue","grey","red","purple"],"door_color_assignment":["white","black"],"door_generator_assignment":[1,0],"goal":5,"start":2,"action_noise":0,"location_history":"[2,1,5]","action_history":"[0,1]","door_history":"[1,0]","location_rts":"[4640,874]","trial_type":"two-door-navigation","trial_index":29,"time_elapsed":591688,"internal_node_id":"0.0-2.0-27.0"},{"group":"hexagon_tri","room_assignment":["yellow","green","blue","grey","red","purple"],"door_color_assignment":["white","black"],"door_generator_assignment":[1,0],"goal":4,"start":5,"action_noise":0,"location_history":"[5,0,5,4]","action_history":"[1,0,0]","door_history":"[0,1,1]","location_rts":"[2612,1230,532]","trial_type":"two-door-navigation","trial_index":30,"time_elapsed":603410,"internal_node_id":"0.0-2.0-28.0"},{"group":"hexagon_tri","room_assignment":["yellow","green","blue","grey","red","purple"],"door_color_assignment":["white","black"],"door_generator_assignment":[1,0],"goal":5,"start":4,"action_noise":0,"location_history":"[4,2,1,3,4,2,3,2,3,2,3,2,3,2,1,5]","action_history":"[1,0,0,1,1,1,0,1,0,1,0,1,0,0,1]","door_history":"[0,1,1,0,0,0,1,0,1,0,1,0,1,1,0]","location_rts":"[13284,608,528,792,428,514,432,392,662,412,454,582,1110,620,546]","trial_type":"two-door-navigation","trial_index":31,"time_elapsed":645568,"internal_node_id":"0.0-2.0-29.0"},{"group":"hexagon_tri","room_assignment":["yellow","green","blue","grey","red","purple"],"door_color_assignment":["white","black"],"door_generator_assignment":[1,0],"goal":3,"start":5,"action_noise":0,"location_history":"[5,4,0,1,5,0,5,4,2,3]","action_history":"[0,0,1,1,1,0,0,1,1]","door_history":"[1,1,0,0,0,1,1,0,0]","location_rts":"[3232,1018,824,480,426,288,524,430,580]","trial_type":"two-door-navigation","trial_index":32,"time_elapsed":667360,"internal_node_id":"0.0-2.0-30.0"},{"group":"hexagon_tri","room_assignment":["yellow","green","blue","grey","red","purple"],"door_color_assignment":["white","black"],"door_generator_assignment":[1,0],"goal":0,"start":3,"action_noise":0,"location_history":"[3,4,2,1,3,4,2,1,3,2,3,4,2,1,5,0]","action_history":"[1,1,0,0,1,1,0,0,0,1,1,1,0,1,1]","door_history":"[0,0,1,1,0,0,1,1,1,0,0,0,1,0,0]","location_rts":"[5200,832,610,1072,884,432,318,306,2438,1256,460,730,436,1318,1314]","trial_type":"two-door-navigation","trial_index":33,"time_elapsed":705642,"internal_node_id":"0.0-2.0-31.0"},{"group":"hexagon_tri","room_assignment":["yellow","green","blue","grey","red","purple"],"door_color_assignment":["white","black"],"door_generator_assignment":[1,0],"goal":4,"start":0,"action_noise":0,"location_history":"[0,5,0,5,4]","action_history":"[0,1,0,0]","door_history":"[1,0,1,1]","location_rts":"[4136,1672,746,412]","trial_type":"two-door-navigation","trial_index":34,"time_elapsed":720998,"internal_node_id":"0.0-2.0-32.0"},{"group":"hexagon_tri","room_assignment":["yellow","green","blue","grey","red","purple"],"door_color_assignment":["white","black"],"door_generator_assignment":[1,0],"goal":1,"start":4,"action_noise":0,"location_history":"[4,0,1]","action_history":"[0,1]","door_history":"[1,0]","location_rts":"[3188,1644]","trial_type":"two-door-navigation","trial_index":35,"time_elapsed":732108,"internal_node_id":"0.0-2.0-33.0"},{"group":"hexagon_tri","room_assignment":["yellow","green","blue","grey","red","purple"],"door_color_assignment":["white","black"],"door_generator_assignment":[1,0],"goal":2,"start":1,"action_noise":0,"location_history":"[1,3,2]","action_history":"[0,0]","door_history":"[1,1]","location_rts":"[3592,974]","trial_type":"two-door-navigation","trial_index":36,"time_elapsed":742892,"internal_node_id":"0.0-2.0-34.0"},{"group":"hexagon_tri","room_assignment":["yellow","green","blue","grey","red","purple"],"door_color_assignment":["white","black"],"door_generator_assignment":[1,0],"goal":0,"start":2,"action_noise":0,"location_history":"[2,1,5,0]","action_history":"[0,1,1]","door_history":"[1,0,0]","location_rts":"[2924,1158,554]","trial_type":"two-door-navigation","trial_index":37,"time_elapsed":754872,"internal_node_id":"0.0-2.0-35.0"},{"group":"hexagon_tri","room_assignment":["yellow","green","blue","grey","red","purple"],"door_color_assignment":["white","black"],"door_generator_assignment":[1,0],"goal":5,"start":0,"action_noise":0,"location_history":"[0,1,5]","action_history":"[1,1]","door_history":"[0,0]","location_rts":"[3264,704]","trial_type":"two-door-navigation","trial_index":38,"time_elapsed":765100,"internal_node_id":"0.0-2.0-36.0"},{"group":"hexagon_tri","room_assignment":["yellow","green","blue","grey","red","purple"],"door_color_assignment":["white","black"],"door_generator_assignment":[1,0],"goal":2,"start":5,"action_noise":0,"location_history":"[5,4,2]","action_history":"[0,1]","door_history":"[1,0]","location_rts":"[2536,898]","trial_type":"two-door-navigation","trial_index":39,"time_elapsed":774764,"internal_node_id":"0.0-2.0-37.0"},{"group":"hexagon_tri","room_assignment":["yellow","green","blue","grey","red","purple"],"door_color_assignment":["white","black"],"door_generator_assignment":[1,0],"goal":1,"start":2,"action_noise":0,"location_history":"[2,1]","action_history":"[0]","door_history":"[1]","location_rts":"[1970]","trial_type":"two-door-navigation","trial_index":40,"time_elapsed":781880,"internal_node_id":"0.0-2.0-38.0"},{"group":"hexagon_tri","room_assignment":["yellow","green","blue","grey","red","purple"],"door_color_assignment":["white","black"],"door_generator_assignment":[1,0],"goal":4,"start":1,"action_noise":0,"location_history":"[1,3,4]","action_history":"[0,1]","door_history":"[1,0]","location_rts":"[1922,448]","trial_type":"two-door-navigation","trial_index":41,"time_elapsed":790502,"internal_node_id":"0.0-2.0-39.0"},{"group":"hexagon_tri","room_assignment":["yellow","green","blue","grey","red","purple"],"door_color_assignment":["white","black"],"door_generator_assignment":[1,0],"goal":3,"start":4,"action_noise":0,"location_history":"[4,2,3]","action_history":"[1,1]","door_history":"[0,0]","location_rts":"[4006,488]","trial_type":"two-door-navigation","trial_index":42,"time_elapsed":801232,"internal_node_id":"0.0-2.0-40.0"},{"group":"hexagon_tri","room_assignment":["yellow","green","blue","grey","red","purple"],"door_color_assignment":["white","black"],"door_generator_assignment":[1,0],"goal":5,"start":3,"action_noise":0,"location_history":"[3,4,0,1,5]","action_history":"[1,0,1,1]","door_history":"[0,1,0,0]","location_rts":"[1804,530,1166,586]","trial_type":"two-door-navigation","trial_index":43,"time_elapsed":813782,"internal_node_id":"0.0-2.0-41.0"},{"group":"hexagon_tri","room_assignment":["yellow","green","blue","grey","red","purple"],"door_color_assignment":["white","black"],"door_generator_assignment":[1,0],"goal":3,"start":5,"action_noise":0,"location_history":"[5,0,5,0,1,3]","action_history":"[1,0,1,1,0]","door_history":"[0,1,0,0,1]","location_rts":"[5776,1790,2950,442,2252]","trial_type":"two-door-navigation","trial_index":44,"time_elapsed":836536,"internal_node_id":"0.0-2.0-42.0"},{"group":"hexagon_tri","room_assignment":["yellow","green","blue","grey","red","purple"],"door_color_assignment":["white","black"],"door_generator_assignment":[1,0],"goal":0,"start":3,"action_noise":0,"location_history":"[3,4,0]","action_history":"[1,0]","door_history":"[0,1]","location_rts":"[2892,1244]","trial_type":"two-door-navigation","trial_index":45,"time_elapsed":846904,"internal_node_id":"0.0-2.0-43.0"},{"group":"hexagon_tri","room_assignment":["yellow","green","blue","grey","red","purple"],"door_color_assignment":["white","black"],"door_generator_assignment":[1,0],"goal":2,"start":0,"action_noise":0,"location_history":"[0,5,0,1,5,4,0,1,5,4,0,5,0,1,5,0,5,4,0,1,5,0,1,5,4,2]","action_history":"[0,1,1,1,0,0,1,1,0,0,0,1,1,1,1,0,0,0,1,1,1,1,1,0,1]","door_history":"[1,0,0,0,1,1,0,0,1,1,1,0,0,0,0,1,1,1,0,0,0,0,0,1,0]","location_rts":"[4674,716,504,570,632,1276,976,496,684,570,864,966,646,616,1886,340,1192,1574,648,454,518,570,548,2038,1920]","trial_type":"two-door-navigation","trial_index":46,"time_elapsed":904496,"internal_node_id":"0.0-2.0-44.0"},{"group":"hexagon_tri","room_assignment":["yellow","green","blue","grey","red","purple"],"door_color_assignment":["white","black"],"door_generator_assignment":[1,0],"goal":4,"start":2,"action_noise":0,"location_history":"[2,1,3,4]","action_history":"[0,0,1]","door_history":"[1,1,0]","location_rts":"[1718,2082,964]","trial_type":"two-door-navigation","trial_index":47,"time_elapsed":916574,"internal_node_id":"0.0-2.0-45.0"},{"group":"hexagon_tri","room_assignment":["yellow","green","blue","grey","red","purple"],"door_color_assignment":["white","black"],"door_generator_assignment":[1,0],"goal":1,"start":4,"action_noise":0,"location_history":"[4,0,1]","action_history":"[0,1]","door_history":"[1,0]","location_rts":"[3216,982]","trial_type":"two-door-navigation","trial_index":48,"time_elapsed":927004,"internal_node_id":"0.0-2.0-46.0"},{"group":"hexagon_tri","room_assignment":["yellow","green","blue","grey","red","purple"],"door_color_assignment":["white","black"],"door_generator_assignment":[1,0],"goal":4,"start":1,"action_noise":0,"location_history":"[1,5,4]","action_history":"[1,0]","door_history":"[0,1]","location_rts":"[2452,852]","trial_type":"two-door-navigation","trial_index":49,"time_elapsed":936504,"internal_node_id":"0.0-2.0-47.0"},{"group":"hexagon_tri","room_assignment":["yellow","green","blue","grey","red","purple"],"door_color_assignment":["white","black"],"door_generator_assignment":[1,0],"goal":3,"start":4,"action_noise":0,"location_history":"[4,0,1,5,4,0,5,4,0,1,5,4,2,3]","action_history":"[0,1,1,0,0,0,0,0,1,1,0,1,1]","door_history":"[1,0,0,1,1,1,1,1,0,0,1,0,0]","location_rts":"[2010,1278,832,688,484,470,538,654,398,516,542,2386,548]","trial_type":"two-door-navigation","trial_index":50,"time_elapsed":966226,"internal_node_id":"0.0-2.0-48.0"},{"group":"hexagon_tri","room_assignment":["yellow","green","blue","grey","red","purple"],"door_color_assignment":["white","black"],"door_generator_assignment":[1,0],"goal":5,"start":3,"action_noise":0,"location_history":"[3,4,0,5]","action_history":"[1,0,0]","door_history":"[0,1,1]","location_rts":"[654,704,486]","trial_type":"two-door-navigation","trial_index":51,"time_elapsed":975464,"internal_node_id":"0.0-2.0-49.0"},{"view_history":"[{\"page_index\":0,\"viewing_time\":3574}]","rt":3574,"trial_type":"instructions","trial_index":52,"time_elapsed":980048,"internal_node_id":"0.0-3.0"},{"view_history":"[{\"page_index\":0,\"viewing_time\":3156},{\"page_index\":1,\"viewing_time\":30992}]","rt":34148,"trial_type":"instructions","trial_index":53,"time_elapsed":1015196,"internal_node_id":"0.0-4.0"},{"group":"hexagon_bi","fractal_assignment":["../images/gry_blk.png","../images/cyn_red.png","../images/pnk_blu.png","../images/blu_wht.png","../images/org_blu.png","../images/ylw_slt.png"],"mutagen_generator_assignment":[0,1],"goal":4,"start":0,"action_noise":0,"location_history":"[0,5,0,1,0,1,2,3,2,3,2,1,2,1,2,3,2,1,2,1,2,1,0,1,0,5,4]","action_history":"[0,0,1,1,1,0,1,1,1,1,0,0,0,0,1,1,0,0,0,0,0,1,1,1,0,1]","mutagen_history":"[0,0,1,1,1,0,1,1,1,1,0,0,0,0,1,1,0,0,0,0,0,1,1,1,0,1]","location_rts":"[20838,2284,980,978,1226,578,1624,930,676,554,416,556,630,1072,428,2626,1206,1006,1414,2124,706,776,2342,702,1348,950]","trial_type":"fractal-mutation","trial_index":54,"time_elapsed":1097390,"internal_node_id":"0.0-5.0-0.0"},{"group":"hexagon_bi","fractal_assignment":["../images/gry_blk.png","../images/cyn_red.png","../images/pnk_blu.png","../images/blu_wht.png","../images/org_blu.png","../images/ylw_slt.png"],"mutagen_generator_assignment":[0,1],"goal":3,"start":4,"action_noise":0,"location_history":"[4,3]","action_history":"[0]","mutagen_history":"[0]","location_rts":"[6120]","trial_type":"fractal-mutation","trial_index":55,"time_elapsed":1108646,"internal_node_id":"0.0-5.0-1.0"},{"group":"hexagon_bi","fractal_assignment":["../images/gry_blk.png","../images/cyn_red.png","../images/pnk_blu.png","../images/blu_wht.png","../images/org_blu.png","../images/ylw_slt.png"],"mutagen_generator_assignment":[0,1],"goal":5,"start":3,"action_noise":0,"location_history":"[3,4,3,2,3,2,3,2,1,2,1,0,1,2,1,2,1,2,1,0,1,0,5]","action_history":"[0,0,1,1,1,1,1,0,0,0,1,1,0,0,0,0,0,0,1,1,1,0]","mutagen_history":"[0,0,1,1,1,1,1,0,0,0,1,1,0,0,0,0,0,0,1,1,1,0]","location_rts":"[3520,1100,996,628,666,1542,708,546,694,880,350,2312,1466,1304,686,782,440,1320,1494,1672,1826,1370]","trial_type":"fractal-mutation","trial_index":56,"time_elapsed":1163624,"internal_node_id":"0.0-5.0-2.0"},{"group":"hexagon_bi","fractal_assignment":["../images/gry_blk.png","../images/cyn_red.png","../images/pnk_blu.png","../images/blu_wht.png","../images/org_blu.png","../images/ylw_slt.png"],"mutagen_generator_assignment":[0,1],"goal":2,"start":5,"action_noise":0,"location_history":"[5,0,5,0,1,2]","action_history":"[0,0,0,1,0]","mutagen_history":"[0,0,0,1,0]","location_rts":"[8380,660,1370,1020,1526]","trial_type":"fractal-mutation","trial_index":57,"time_elapsed":1186196,"internal_node_id":"0.0-5.0-3.0"},{"group":"hexagon_bi","fractal_assignment":["../images/gry_blk.png","../images/cyn_red.png","../images/pnk_blu.png","../images/blu_wht.png","../images/org_blu.png","../images/ylw_slt.png"],"mutagen_generator_assignment":[0,1],"goal":1,"start":2,"action_noise":0,"location_history":"[2,1]","action_history":"[0]","mutagen_history":"[0]","location_rts":"[3182]","trial_type":"fractal-mutation","trial_index":58,"time_elapsed":1194524,"internal_node_id":"0.0-5.0-4.0"},{"group":"hexagon_bi","fractal_assignment":["../images/gry_blk.png","../images/cyn_red.png","../images/pnk_blu.png","../images/blu_wht.png","../images/org_blu.png","../images/ylw_slt.png"],"mutagen_generator_assignment":[0,1],"goal":4,"start":1,"action_noise":0,"location_history":"[1,0,5,0,5,4]","action_history":"[1,0,0,0,1]","mutagen_history":"[1,0,0,0,1]","location_rts":"[8660,3250,510,1370,730]","trial_type":"fractal-mutation","trial_index":59,"time_elapsed":1218592,"internal_node_id":"0.0-5.0-5.0"},{"group":"hexagon_bi","fractal_assignment":["../images/gry_blk.png","../images/cyn_red.png","../images/pnk_blu.png","../images/blu_wht.png","../images/org_blu.png","../images/ylw_slt.png"],"mutagen_generator_assignment":[0,1],"goal":1,"start":4,"action_noise":0,"location_history":"[4,5,4,3,2,1]","action_history":"[1,1,0,1,0]","mutagen_history":"[1,1,0,1,0]","location_rts":"[2832,950,1076,1816,1226]","trial_type":"fractal-mutation","trial_index":60,"time_elapsed":1236036,"internal_node_id":"0.0-5.0-6.0"},{"group":"hexagon_bi","fractal_assignment":["../images/gry_blk.png","../images/cyn_red.png","../images/pnk_blu.png","../images/blu_wht.png","../images/org_blu.png","../images/ylw_slt.png"],"mutagen_generator_assignment":[0,1],"goal":5,"start":1,"action_noise":0,"location_history":"[1,0,1,0,5]","action_history":"[1,1,1,0]","mutagen_history":"[1,1,1,0]","location_rts":"[7646,2350,1918,536]","trial_type":"fractal-mutation","trial_index":61,"time_elapsed":1256984,"internal_node_id":"0.0-5.0-7.0"},{"group":"hexagon_bi","fractal_assignment":["../images/gry_blk.png","../images/cyn_red.png","../images/pnk_blu.png","../images/blu_wht.png","../images/org_blu.png","../images/ylw_slt.png"],"mutagen_generator_assignment":[0,1],"goal":0,"start":5,"action_noise":0,"location_history":"[5,0]","action_history":"[0]","mutagen_history":"[0]","location_rts":"[4676]","trial_type":"fractal-mutation","trial_index":62,"time_elapsed":1266756,"internal_node_id":"0.0-5.0-8.0"},{"group":"hexagon_bi","fractal_assignment":["../images/gry_blk.png","../images/cyn_red.png","../images/pnk_blu.png","../images/blu_wht.png","../images/org_blu.png","../images/ylw_slt.png"],"mutagen_generator_assignment":[0,1],"goal":2,"start":0,"action_noise":0,"location_history":"[0,1,2]","action_history":"[1,0]","mutagen_history":"[1,0]","location_rts":"[3150,836]","trial_type":"fractal-mutation","trial_index":63,"time_elapsed":1276950,"internal_node_id":"0.0-5.0-9.0"},{"group":"hexagon_bi","fractal_assignment":["../images/gry_blk.png","../images/cyn_red.png","../images/pnk_blu.png","../images/blu_wht.png","../images/org_blu.png","../images/ylw_slt.png"],"mutagen_generator_assignment":[0,1],"goal":3,"start":2,"action_noise":0,"location_history":"[2,3]","action_history":"[1]","mutagen_history":"[1]","location_rts":"[3270]","trial_type":"fractal-mutation","trial_index":64,"time_elapsed":1285354,"internal_node_id":"0.0-5.0-10.0"},{"group":"hexagon_bi","fractal_assignment":["../images/gry_blk.png","../images/cyn_red.png","../images/pnk_blu.png","../images/blu_wht.png","../images/org_blu.png","../images/ylw_slt.png"],"mutagen_generator_assignment":[0,1],"goal":0,"start":3,"action_noise":0,"location_history":"[3,2,1,0]","action_history":"[1,0,1]","mutagen_history":"[1,0,1]","location_rts":"[3406,1394,644]","trial_type":"fractal-mutation","trial_index":65,"time_elapsed":1298174,"internal_node_id":"0.0-5.0-11.0"},{"group":"hexagon_bi","fractal_assignment":["../images/gry_blk.png","../images/cyn_red.png","../images/pnk_blu.png","../images/blu_wht.png","../images/org_blu.png","../images/ylw_slt.png"],"mutagen_generator_assignment":[0,1],"goal":2,"start":0,"action_noise":0,"location_history":"[0,1,2]","action_history":"[1,0]","mutagen_history":"[1,0]","location_rts":"[4914,748]","trial_type":"fractal-mutation","trial_index":66,"time_elapsed":1310074,"internal_node_id":"0.0-5.0-12.0"},{"group":"hexagon_bi","fractal_assignment":["../images/gry_blk.png","../images/cyn_red.png","../images/pnk_blu.png","../images/blu_wht.png","../images/org_blu.png","../images/ylw_slt.png"],"mutagen_generator_assignment":[0,1],"goal":5,"start":2,"action_noise":0,"location_history":"[2,1,0,5]","action_history":"[0,1,0]","mutagen_history":"[0,1,0]","location_rts":"[3852,496,434]","trial_type":"fractal-mutation","trial_index":67,"time_elapsed":1322286,"internal_node_id":"0.0-5.0-13.0"},{"group":"hexagon_bi","fractal_assignment":["../images/gry_blk.png","../images/cyn_red.png","../images/pnk_blu.png","../images/blu_wht.png","../images/org_blu.png","../images/ylw_slt.png"],"mutagen_generator_assignment":[0,1],"goal":4,"start":5,"action_noise":0,"location_history":"[5,4]","action_history":"[1]","mutagen_history":"[1]","location_rts":"[5428]","trial_type":"fractal-mutation","trial_index":68,"time_elapsed":1332858,"internal_node_id":"0.0-5.0-14.0"},{"group":"hexagon_bi","fractal_assignment":["../images/gry_blk.png","../images/cyn_red.png","../images/pnk_blu.png","../images/blu_wht.png","../images/org_blu.png","../images/ylw_slt.png"],"mutagen_generator_assignment":[0,1],"goal":3,"start":4,"action_noise":0,"location_history":"[4,5,0,1,0,1,2,3]","action_history":"[1,0,1,1,1,0,1]","mutagen_history":"[1,0,1,1,1,0,1]","location_rts":"[4066,1528,3244,1518,924,732,388]","trial_type":"fractal-mutation","trial_index":69,"time_elapsed":1357012,"internal_node_id":"0.0-5.0-15.0"},{"group":"hexagon_bi","fractal_assignment":["../images/gry_blk.png","../images/cyn_red.png","../images/pnk_blu.png","../images/blu_wht.png","../images/org_blu.png","../images/ylw_slt.png"],"mutagen_generator_assignment":[0,1],"goal":1,"start":3,"action_noise":0,"location_history":"[3,2,1]","action_history":"[1,0]","mutagen_history":"[1,0]","location_rts":"[3776,776]","trial_type":"fractal-mutation","trial_index":70,"time_elapsed":1367812,"internal_node_id":"0.0-5.0-16.0"},{"group":"hexagon_bi","fractal_assignment":["../images/gry_blk.png","../images/cyn_red.png","../images/pnk_blu.png","../images/blu_wht.png","../images/org_blu.png","../images/ylw_slt.png"],"mutagen_generator_assignment":[0,1],"goal":5,"start":1,"action_noise":0,"location_history":"[1,2,3,2,1,0,1,2,1,2,3,2,3,4,5]","action_history":"[0,1,1,0,1,1,0,0,0,1,1,1,0,1]","mutagen_history":"[0,1,1,0,1,1,0,0,0,1,1,1,0,1]","location_rts":"[7854,352,1950,472,558,3220,846,1162,738,2166,1588,1510,466,2898]","trial_type":"fractal-mutation","trial_index":71,"time_elapsed":1413164,"internal_node_id":"0.0-5.0-17.0"},{"group":"hexagon_bi","fractal_assignment":["../images/gry_blk.png","../images/cyn_red.png","../images/pnk_blu.png","../images/blu_wht.png","../images/org_blu.png","../images/ylw_slt.png"],"mutagen_generator_assignment":[0,1],"goal":4,"start":5,"action_noise":0,"location_history":"[5,4]","action_history":"[1]","mutagen_history":"[1]","location_rts":"[2892]","trial_type":"fractal-mutation","trial_index":72,"time_elapsed":1421168,"internal_node_id":"0.0-5.0-18.0"},{"group":"hexagon_bi","fractal_assignment":["../images/gry_blk.png","../images/cyn_red.png","../images/pnk_blu.png","../images/blu_wht.png","../images/org_blu.png","../images/ylw_slt.png"],"mutagen_generator_assignment":[0,1],"goal":0,"start":4,"action_noise":0,"location_history":"[4,5,0]","action_history":"[1,0]","mutagen_history":"[1,0]","location_rts":"[6126,1130]","trial_type":"fractal-mutation","trial_index":73,"time_elapsed":1434664,"internal_node_id":"0.0-5.0-19.0"},{"group":"hexagon_bi","fractal_assignment":["../images/gry_blk.png","../images/cyn_red.png","../images/pnk_blu.png","../images/blu_wht.png","../images/org_blu.png","../images/ylw_slt.png"],"mutagen_generator_assignment":[0,1],"goal":1,"start":0,"action_noise":0,"location_history":"[0,5,0,1]","action_history":"[0,0,1]","mutagen_history":"[0,0,1]","location_rts":"[6934,1358,390]","trial_type":"fractal-mutation","trial_index":74,"time_elapsed":1450664,"internal_node_id":"0.0-5.0-20.0"},{"group":"hexagon_bi","fractal_assignment":["../images/gry_blk.png","../images/cyn_red.png","../images/pnk_blu.png","../images/blu_wht.png","../images/org_blu.png","../images/ylw_slt.png"],"mutagen_generator_assignment":[0,1],"goal":3,"start":1,"action_noise":0,"location_history":"[1,2,3]","action_history":"[0,1]","mutagen_history":"[0,1]","location_rts":"[4080,442]","trial_type":"fractal-mutation","trial_index":75,"time_elapsed":1461428,"internal_node_id":"0.0-5.0-21.0"},{"group":"hexagon_bi","fractal_assignment":["../images/gry_blk.png","../images/cyn_red.png","../images/pnk_blu.png","../images/blu_wht.png","../images/org_blu.png","../images/ylw_slt.png"],"mutagen_generator_assignment":[0,1],"goal":2,"start":3,"action_noise":0,"location_history":"[3,2]","action_history":"[1]","mutagen_history":"[1]","location_rts":"[3268]","trial_type":"fractal-mutation","trial_index":76,"time_elapsed":1469824,"internal_node_id":"0.0-5.0-22.0"},{"group":"hexagon_bi","fractal_assignment":["../images/gry_blk.png","../images/cyn_red.png","../images/pnk_blu.png","../images/blu_wht.png","../images/org_blu.png","../images/ylw_slt.png"],"mutagen_generator_assignment":[0,1],"goal":0,"start":2,"action_noise":0,"location_history":"[2,3,4,3,4,5,0]","action_history":"[1,0,0,0,1,0]","mutagen_history":"[1,0,0,0,1,0]","location_rts":"[5494,772,2178,1452,356,742]","trial_type":"fractal-mutation","trial_index":77,"time_elapsed":1491494,"internal_node_id":"0.0-5.0-23.0"},{"group":"hexagon_bi","fractal_assignment":["../images/gry_blk.png","../images/cyn_red.png","../images/pnk_blu.png","../images/blu_wht.png","../images/org_blu.png","../images/ylw_slt.png"],"mutagen_generator_assignment":[0,1],"goal":3,"start":0,"action_noise":0,"location_history":"[0,5,4,5,0,1,2,1,2,3]","action_history":"[0,1,1,0,1,0,0,0,1]","mutagen_history":"[0,1,1,0,1,0,0,0,1]","location_rts":"[4194,892,1696,1746,2426,644,434,524,314]","trial_type":"fractal-mutation","trial_index":78,"time_elapsed":1518358,"internal_node_id":"0.0-5.0-24.0"},{"group":"hexagon_bi","fractal_assignment":["../images/gry_blk.png","../images/cyn_red.png","../images/pnk_blu.png","../images/blu_wht.png","../images/org_blu.png","../images/ylw_slt.png"],"mutagen_generator_assignment":[0,1],"goal":1,"start":3,"action_noise":0,"location_history":"[3,2,1]","action_history":"[1,0]","mutagen_history":"[1,0]","location_rts":"[3894,596]","trial_type":"fractal-mutation","trial_index":79,"time_elapsed":1529090,"internal_node_id":"0.0-5.0-25.0"},{"group":"hexagon_bi","fractal_assignment":["../images/gry_blk.png","../images/cyn_red.png","../images/pnk_blu.png","../images/blu_wht.png","../images/org_blu.png","../images/ylw_slt.png"],"mutagen_generator_assignment":[0,1],"goal":2,"start":1,"action_noise":0,"location_history":"[1,2]","action_history":"[0]","mutagen_history":"[0]","location_rts":"[2056]","trial_type":"fractal-mutation","trial_index":80,"time_elapsed":1536314,"internal_node_id":"0.0-5.0-26.0"},{"group":"hexagon_bi","fractal_assignment":["../images/gry_blk.png","../images/cyn_red.png","../images/pnk_blu.png","../images/blu_wht.png","../images/org_blu.png","../images/ylw_slt.png"],"mutagen_generator_assignment":[0,1],"goal":5,"start":2,"action_noise":0,"location_history":"[2,3,4,5]","action_history":"[1,0,1]","mutagen_history":"[1,0,1]","location_rts":"[2040,2002,1060]","trial_type":"fractal-mutation","trial_index":81,"time_elapsed":1548840,"internal_node_id":"0.0-5.0-27.0"},{"group":"hexagon_bi","fractal_assignment":["../images/gry_blk.png","../images/cyn_red.png","../images/pnk_blu.png","../images/blu_wht.png","../images/org_blu.png","../images/ylw_slt.png"],"mutagen_generator_assignment":[0,1],"goal":4,"start":5,"action_noise":0,"location_history":"[5,4]","action_history":"[1]","mutagen_history":"[1]","location_rts":"[2938]","trial_type":"fractal-mutation","trial_index":82,"time_elapsed":1556942,"internal_node_id":"0.0-5.0-28.0"},{"group":"hexagon_bi","fractal_assignment":["../images/gry_blk.png","../images/cyn_red.png","../images/pnk_blu.png","../images/blu_wht.png","../images/org_blu.png","../images/ylw_slt.png"],"mutagen_generator_assignment":[0,1],"goal":5,"start":4,"action_noise":0,"location_history":"[4,5]","action_history":"[1]","mutagen_history":"[1]","location_rts":"[1044]","trial_type":"fractal-mutation","trial_index":83,"time_elapsed":1563120,"internal_node_id":"0.0-5.0-29.0"},{"group":"hexagon_bi","fractal_assignment":["../images/gry_blk.png","../images/cyn_red.png","../images/pnk_blu.png","../images/blu_wht.png","../images/org_blu.png","../images/ylw_slt.png"],"mutagen_generator_assignment":[0,1],"goal":3,"start":5,"action_noise":0,"location_history":"[5,0,1,0,1,2,3]","action_history":"[0,1,1,1,0,1]","mutagen_history":"[0,1,1,1,0,1]","location_rts":"[1796,434,1494,1290,366,614]","trial_type":"fractal-mutation","trial_index":84,"time_elapsed":1579946,"internal_node_id":"0.0-5.0-30.0"},{"group":"hexagon_bi","fractal_assignment":["../images/gry_blk.png","../images/cyn_red.png","../images/pnk_blu.png","../images/blu_wht.png","../images/org_blu.png","../images/ylw_slt.png"],"mutagen_generator_assignment":[0,1],"goal":0,"start":3,"action_noise":0,"location_history":"[3,2,3,2,1,0]","action_history":"[1,1,1,0,1]","mutagen_history":"[1,1,1,0,1]","location_rts":"[3626,1144,506,328,746]","trial_type":"fractal-mutation","trial_index":85,"time_elapsed":1596038,"internal_node_id":"0.0-5.0-31.0"},{"group":"hexagon_bi","fractal_assignment":["../images/gry_blk.png","../images/cyn_red.png","../images/pnk_blu.png","../images/blu_wht.png","../images/org_blu.png","../images/ylw_slt.png"],"mutagen_generator_assignment":[0,1],"goal":4,"start":0,"action_noise":0,"location_history":"[0,5,0,1,2,3,4]","action_history":"[0,0,1,0,1,0]","mutagen_history":"[0,0,1,0,1,0]","location_rts":"[4356,2258,1018,1234,402,2590]","trial_type":"fractal-mutation","trial_index":86,"time_elapsed":1618830,"internal_node_id":"0.0-5.0-32.0"},{"group":"hexagon_bi","fractal_assignment":["../images/gry_blk.png","../images/cyn_red.png","../images/pnk_blu.png","../images/blu_wht.png","../images/org_blu.png","../images/ylw_slt.png"],"mutagen_generator_assignment":[0,1],"goal":1,"start":4,"action_noise":0,"location_history":"[4,3,2,1]","action_history":"[0,1,0]","mutagen_history":"[0,1,0]","location_rts":"[3450,1214,734]","trial_type":"fractal-mutation","trial_index":87,"time_elapsed":1631568,"internal_node_id":"0.0-5.0-33.0"},{"group":"hexagon_bi","fractal_assignment":["../images/gry_blk.png","../images/cyn_red.png","../images/pnk_blu.png","../images/blu_wht.png","../images/org_blu.png","../images/ylw_slt.png"],"mutagen_generator_assignment":[0,1],"goal":2,"start":1,"action_noise":0,"location_history":"[1,2]","action_history":"[0]","mutagen_history":"[0]","location_rts":"[1468]","trial_type":"fractal-mutation","trial_index":88,"time_elapsed":1638248,"internal_node_id":"0.0-5.0-34.0"},{"group":"hexagon_bi","fractal_assignment":["../images/gry_blk.png","../images/cyn_red.png","../images/pnk_blu.png","../images/blu_wht.png","../images/org_blu.png","../images/ylw_slt.png"],"mutagen_generator_assignment":[0,1],"goal":0,"start":2,"action_noise":0,"location_history":"[2,3,2,1,0]","action_history":"[1,1,0,1]","mutagen_history":"[1,1,0,1]","location_rts":"[6578,1608,342,802]","trial_type":"fractal-mutation","trial_index":89,"time_elapsed":1656040,"internal_node_id":"0.0-5.0-35.0"},{"group":"hexagon_bi","fractal_assignment":["../images/gry_blk.png","../images/cyn_red.png","../images/pnk_blu.png","../images/blu_wht.png","../images/org_blu.png","../images/ylw_slt.png"],"mutagen_generator_assignment":[0,1],"goal":5,"start":0,"action_noise":0,"location_history":"[0,5]","action_history":"[0]","mutagen_history":"[0]","location_rts":"[2762]","trial_type":"fractal-mutation","trial_index":90,"time_elapsed":1663984,"internal_node_id":"0.0-5.0-36.0"},{"group":"hexagon_bi","fractal_assignment":["../images/gry_blk.png","../images/cyn_red.png","../images/pnk_blu.png","../images/blu_wht.png","../images/org_blu.png","../images/ylw_slt.png"],"mutagen_generator_assignment":[0,1],"goal":2,"start":5,"action_noise":0,"location_history":"[5,0,1,2]","action_history":"[0,1,0]","mutagen_history":"[0,1,0]","location_rts":"[3168,370,556]","trial_type":"fractal-mutation","trial_index":91,"time_elapsed":1675430,"internal_node_id":"0.0-5.0-37.0"},{"group":"hexagon_bi","fractal_assignment":["../images/gry_blk.png","../images/cyn_red.png","../images/pnk_blu.png","../images/blu_wht.png","../images/org_blu.png","../images/ylw_slt.png"],"mutagen_generator_assignment":[0,1],"goal":1,"start":2,"action_noise":0,"location_history":"[2,1]","action_history":"[0]","mutagen_history":"[0]","location_rts":"[1292]","trial_type":"fractal-mutation","trial_index":92,"time_elapsed":1681890,"internal_node_id":"0.0-5.0-38.0"},{"group":"hexagon_bi","fractal_assignment":["../images/gry_blk.png","../images/cyn_red.png","../images/pnk_blu.png","../images/blu_wht.png","../images/org_blu.png","../images/ylw_slt.png"],"mutagen_generator_assignment":[0,1],"goal":4,"start":1,"action_noise":0,"location_history":"[1,2,3,2,1,0,1,0,5,4]","action_history":"[0,1,1,0,1,1,1,0,1]","mutagen_history":"[0,1,1,0,1,1,1,0,1]","location_rts":"[5614,374,1344,378,336,1648,982,434,1234]","trial_type":"fractal-mutation","trial_index":93,"time_elapsed":1708506,"internal_node_id":"0.0-5.0-39.0"},{"group":"hexagon_bi","fractal_assignment":["../images/gry_blk.png","../images/cyn_red.png","../images/pnk_blu.png","../images/blu_wht.png","../images/org_blu.png","../images/ylw_slt.png"],"mutagen_generator_assignment":[0,1],"goal":3,"start":4,"action_noise":0,"location_history":"[4,3]","action_history":"[0]","mutagen_history":"[0]","location_rts":"[4874]","trial_type":"fractal-mutation","trial_index":94,"time_elapsed":1718564,"internal_node_id":"0.0-5.0-40.0"},{"group":"hexagon_bi","fractal_assignment":["../images/gry_blk.png","../images/cyn_red.png","../images/pnk_blu.png","../images/blu_wht.png","../images/org_blu.png","../images/ylw_slt.png"],"mutagen_generator_assignment":[0,1],"goal":5,"start":3,"action_noise":0,"location_history":"[3,2,1,0,1,0,5]","action_history":"[1,0,1,1,1,0]","mutagen_history":"[1,0,1,1,1,0]","location_rts":"[5320,838,528,1520,946,372]","trial_type":"fractal-mutation","trial_index":95,"time_elapsed":1738784,"internal_node_id":"0.0-5.0-41.0"},{"group":"hexagon_bi","fractal_assignment":["../images/gry_blk.png","../images/cyn_red.png","../images/pnk_blu.png","../images/blu_wht.png","../images/org_blu.png","../images/ylw_slt.png"],"mutagen_generator_assignment":[0,1],"goal":3,"start":5,"action_noise":0,"location_history":"[5,0,1,0,5,4,5,4,3]","action_history":"[0,1,1,0,1,1,1,0]","mutagen_history":"[0,1,1,0,1,1,1,0]","location_rts":"[4876,1852,696,882,1430,992,652,528]","trial_type":"fractal-mutation","trial_index":96,"time_elapsed":1763728,"internal_node_id":"0.0-5.0-42.0"},{"group":"hexagon_bi","fractal_assignment":["../images/gry_blk.png","../images/cyn_red.png","../images/pnk_blu.png","../images/blu_wht.png","../images/org_blu.png","../images/ylw_slt.png"],"mutagen_generator_assignment":[0,1],"goal":0,"start":3,"action_noise":0,"location_history":"[3,2,3,2,1,0]","action_history":"[1,1,1,0,1]","mutagen_history":"[1,1,1,0,1]","location_rts":"[2818,1286,1426,474,436]","trial_type":"fractal-mutation","trial_index":97,"time_elapsed":1779828,"internal_node_id":"0.0-5.0-43.0"},{"group":"hexagon_bi","fractal_assignment":["../images/gry_blk.png","../images/cyn_red.png","../images/pnk_blu.png","../images/blu_wht.png","../images/org_blu.png","../images/ylw_slt.png"],"mutagen_generator_assignment":[0,1],"goal":2,"start":0,"action_noise":0,"location_history":"[0,1,2]","action_history":"[1,0]","mutagen_history":"[1,0]","location_rts":"[2214,398]","trial_type":"fractal-mutation","trial_index":98,"time_elapsed":1788726,"internal_node_id":"0.0-5.0-44.0"},{"group":"hexagon_bi","fractal_assignment":["../images/gry_blk.png","../images/cyn_red.png","../images/pnk_blu.png","../images/blu_wht.png","../images/org_blu.png","../images/ylw_slt.png"],"mutagen_generator_assignment":[0,1],"goal":4,"start":2,"action_noise":0,"location_history":"[2,3,4]","action_history":"[1,0]","mutagen_history":"[1,0]","location_rts":"[4066,1476]","trial_type":"fractal-mutation","trial_index":99,"time_elapsed":1800544,"internal_node_id":"0.0-5.0-45.0"},{"group":"hexagon_bi","fractal_assignment":["../images/gry_blk.png","../images/cyn_red.png","../images/pnk_blu.png","../images/blu_wht.png","../images/org_blu.png","../images/ylw_slt.png"],"mutagen_generator_assignment":[0,1],"goal":1,"start":4,"action_noise":0,"location_history":"[4,3,4,5,4,3,4,3,2,1]","action_history":"[0,0,1,1,0,0,0,1,0]","mutagen_history":"[0,0,1,1,0,0,0,1,0]","location_rts":"[3772,1384,326,2166,1800,810,590,340,1004]","trial_type":"fractal-mutation","trial_index":100,"time_elapsed":1826782,"internal_node_id":"0.0-5.0-46.0"},{"group":"hexagon_bi","fractal_assignment":["../images/gry_blk.png","../images/cyn_red.png","../images/pnk_blu.png","../images/blu_wht.png","../images/org_blu.png","../images/ylw_slt.png"],"mutagen_generator_assignment":[0,1],"goal":4,"start":1,"action_noise":0,"location_history":"[1,2,3,4]","action_history":"[0,1,0]","mutagen_history":"[0,1,0]","location_rts":"[5370,360,1146]","trial_type":"fractal-mutation","trial_index":101,"time_elapsed":1840944,"internal_node_id":"0.0-5.0-47.0"},{"group":"hexagon_bi","fractal_assignment":["../images/gry_blk.png","../images/cyn_red.png","../images/pnk_blu.png","../images/blu_wht.png","../images/org_blu.png","../images/ylw_slt.png"],"mutagen_generator_assignment":[0,1],"goal":3,"start":4,"action_noise":0,"location_history":"[4,5,4,3]","action_history":"[1,1,0]","mutagen_history":"[1,1,0]","location_rts":"[1592,940,362]","trial_type":"fractal-mutation","trial_index":102,"time_elapsed":1851202,"internal_node_id":"0.0-5.0-48.0"},{"group":"hexagon_bi","fractal_assignment":["../images/gry_blk.png","../images/cyn_red.png","../images/pnk_blu.png","../images/blu_wht.png","../images/org_blu.png","../images/ylw_slt.png"],"mutagen_generator_assignment":[0,1],"goal":5,"start":3,"action_noise":0,"location_history":"[3,4,5]","action_history":"[0,1]","mutagen_history":"[0,1]","location_rts":"[1956,680]","trial_type":"fractal-mutation","trial_index":103,"time_elapsed":1860158,"internal_node_id":"0.0-5.0-49.0"},{"view_history":"[{\"page_index\":0,\"viewing_time\":11888}]","rt":11888,"trial_type":"instructions","trial_index":104,"time_elapsed":1873052,"internal_node_id":"0.0-6.0"},{"rt":15364,"responses":"{\"Q0\":\"Awesome HIT!\"}","trial_type":"survey-text","trial_index":105,"time_elapsed":1889436,"internal_node_id":"0.0-7.0"}]