[{"view_history":"[{\"page_index\":0,\"viewing_time\":22087},{\"page_index\":1,\"viewing_time\":17171},{\"page_index\":2,\"viewing_time\":24186}]","rt":63444,"trial_type":"instructions","trial_index":0,"time_elapsed":63446,"internal_node_id":"0.0-0.0"},{"view_history":"[{\"page_index\":0,\"viewing_time\":3155},{\"page_index\":1,\"viewing_time\":33405}]","rt":36561,"trial_type":"instructions","trial_index":1,"time_elapsed":101008,"internal_node_id":"0.0-1.0"},{"group":"hexagon_bi","room_assignment":["green","yellow","blue","grey","purple","red"],"door_color_assignment":["white","black"],"door_generator_assignment":[0,1],"goal":4,"start":0,"action_noise":0,"location_history":"[0,5,4]","action_history":"[0,1]","door_history":"[0,1]","location_rts":"[2139,3269]","trial_type":"two-door-navigation","trial_index":2,"time_elapsed":112450,"internal_node_id":"0.0-2.0-0.0"},{"group":"hexagon_bi","room_assignment":["green","yellow","blue","grey","purple","red"],"door_color_assignment":["white","black"],"door_generator_assignment":[0,1],"goal":3,"start":4,"action_noise":0,"location_history":"[4,5,4,3]","action_history":"[1,1,0]","door_history":"[1,1,0]","location_rts":"[3045,1747,1433]","trial_type":"two-door-navigation","trial_index":3,"time_elapsed":125738,"internal_node_id":"0.0-2.0-1.0"},{"group":"hexagon_bi","room_assignment":["green","yellow","blue","grey","purple","red"],"door_color_assignment":["white","black"],"door_generator_assignment":[0,1],"goal":5,"start":3,"action_noise":0,"location_history":"[3,2,3,4,3,4,5]","action_history":"[1,1,0,0,0,1]","door_history":"[1,1,0,0,0,1]","location_rts":"[2372,1255,594,698,1238,1275]","trial_type":"two-door-navigation","trial_index":4,"time_elapsed":143250,"internal_node_id":"0.0-2.0-2.0"},{"group":"hexagon_bi","room_assignment":["green","yellow","blue","grey","purple","red"],"door_color_assignment":["white","black"],"door_generator_assignment":[0,1],"goal":2,"start":5,"action_noise":0,"location_history":"[5,4,3,4,5,4,5,0,5,0,1,0,5,0,5,4,3,4,5,0,1,2]","action_history":"[1,0,0,1,1,1,0,0,0,1,1,0,0,0,1,0,0,1,0,1,0]","door_history":"[1,0,0,1,1,1,0,0,0,1,1,0,0,0,1,0,0,1,0,1,0]","location_rts":"[2693,1462,887,803,450,744,771,1255,1110,865,1104,890,573,1032,809,1754,1254,1404,945,402,2255]","trial_type":"two-door-navigation","trial_index":5,"time_elapsed":191985,"internal_node_id":"0.0-2.0-3.0"},{"group":"hexagon_bi","room_assignment":["green","yellow","blue","grey","purple","red"],"door_color_assignment":["white","black"],"door_generator_assignment":[0,1],"goal":1,"start":2,"action_noise":0,"location_history":"[2,1]","action_history":"[0]","door_history":"[0]","location_rts":"[3879]","trial_type":"two-door-navigation","trial_index":6,"time_elapsed":200881,"internal_node_id":"0.0-2.0-4.0"},{"group":"hexagon_bi","room_assignment":["green","yellow","blue","grey","purple","red"],"door_color_assignment":["white","black"],"door_generator_assignment":[0,1],"goal":4,"start":1,"action_noise":0,"location_history":"[1,0,1,2,1,0,1,2,3,2,3,4]","action_history":"[1,1,0,0,1,1,0,1,1,1,0]","door_history":"[1,1,0,0,1,1,0,1,1,1,0]","location_rts":"[1905,1424,1247,686,1577,1339,990,1201,1248,899,390]","trial_type":"two-door-navigation","trial_index":7,"time_elapsed":228918,"internal_node_id":"0.0-2.0-5.0"},{"group":"hexagon_bi","room_assignment":["green","yellow","blue","grey","purple","red"],"door_color_assignment":["white","black"],"door_generator_assignment":[0,1],"goal":1,"start":4,"action_noise":0,"location_history":"[4,3,4,5,0,5,0,1]","action_history":"[0,0,1,0,0,0,1]","door_history":"[0,0,1,0,0,0,1]","location_rts":"[2952,4187,823,1416,1109,1219,757]","trial_type":"two-door-navigation","trial_index":8,"time_elapsed":252451,"internal_node_id":"0.0-2.0-6.0"},{"group":"hexagon_bi","room_assignment":["green","yellow","blue","grey","purple","red"],"door_color_assignment":["white","black"],"door_generator_assignment":[0,1],"goal":5,"start":1,"action_noise":0,"location_history":"[1,0,1,2,1,2,3,2,1,2,3,2,1,2,1,0,5]","action_history":"[1,1,0,0,0,1,1,0,0,1,1,0,0,0,1,0]","door_history":"[1,1,0,0,0,1,1,0,0,1,1,0,0,0,1,0]","location_rts":"[4691,1464,922,1063,1909,323,1337,1123,622,1390,1932,1638,518,842,322,1722]","trial_type":"two-door-navigation","trial_index":9,"time_elapsed":294510,"internal_node_id":"0.0-2.0-7.0"},{"group":"hexagon_bi","room_assignment":["green","yellow","blue","grey","purple","red"],"door_color_assignment":["white","black"],"door_generator_assignment":[0,1],"goal":0,"start":5,"action_noise":0,"location_history":"[5,0]","action_history":"[0]","door_history":"[0]","location_rts":"[2748]","trial_type":"two-door-navigation","trial_index":10,"time_elapsed":302272,"internal_node_id":"0.0-2.0-8.0"},{"group":"hexagon_bi","room_assignment":["green","yellow","blue","grey","purple","red"],"door_color_assignment":["white","black"],"door_generator_assignment":[0,1],"goal":2,"start":0,"action_noise":0,"location_history":"[0,5,4,3,4,3,2]","action_history":"[0,1,0,0,0,1]","door_history":"[0,1,0,0,0,1]","location_rts":"[4894,892,1955,1547,1188,374]","trial_type":"two-door-navigation","trial_index":11,"time_elapsed":323173,"internal_node_id":"0.0-2.0-9.0"},{"group":"hexagon_bi","room_assignment":["green","yellow","blue","grey","purple","red"],"door_color_assignment":["white","black"],"door_generator_assignment":[0,1],"goal":3,"start":2,"action_noise":0,"location_history":"[2,3]","action_history":"[1]","door_history":"[1]","location_rts":"[3973]","trial_type":"two-door-navigation","trial_index":12,"time_elapsed":332161,"internal_node_id":"0.0-2.0-10.0"},{"group":"hexagon_bi","room_assignment":["green","yellow","blue","grey","purple","red"],"door_color_assignment":["white","black"],"door_generator_assignment":[0,1],"goal":0,"start":3,"action_noise":0,"location_history":"[3,4,3,2,3,2,1,0]","action_history":"[0,0,1,1,1,0,1]","door_history":"[0,0,1,1,1,0,1]","location_rts":"[1675,1356,1187,2284,1178,292,1395]","trial_type":"two-door-navigation","trial_index":13,"time_elapsed":352615,"internal_node_id":"0.0-2.0-11.0"},{"group":"hexagon_bi","room_assignment":["green","yellow","blue","grey","purple","red"],"door_color_assignment":["white","black"],"door_generator_assignment":[0,1],"goal":2,"start":0,"action_noise":0,"location_history":"[0,5,0,1,0,1,2]","action_history":"[0,0,1,1,1,0]","door_history":"[0,0,1,1,1,0]","location_rts":"[1900,1660,941,1001,1241,274]","trial_type":"two-door-navigation","trial_index":14,"time_elapsed":369729,"internal_node_id":"0.0-2.0-12.0"},{"group":"hexagon_bi","room_assignment":["green","yellow","blue","grey","purple","red"],"door_color_assignment":["white","black"],"door_generator_assignment":[0,1],"goal":5,"start":2,"action_noise":0,"location_history":"[2,1,2,1,0,1,2,1,0,5]","action_history":"[0,0,0,1,1,0,0,1,0]","door_history":"[0,0,0,1,1,0,0,1,0]","location_rts":"[3253,504,889,326,799,1475,835,1803,1836]","trial_type":"two-door-navigation","trial_index":15,"time_elapsed":394565,"internal_node_id":"0.0-2.0-13.0"},{"group":"hexagon_bi","room_assignment":["green","yellow","blue","grey","purple","red"],"door_color_assignment":["white","black"],"door_generator_assignment":[0,1],"goal":4,"start":5,"action_noise":0,"location_history":"[5,4]","action_history":"[1]","door_history":"[1]","location_rts":"[3100]","trial_type":"two-door-navigation","trial_index":16,"time_elapsed":402679,"internal_node_id":"0.0-2.0-14.0"},{"group":"hexagon_bi","room_assignment":["green","yellow","blue","grey","purple","red"],"door_color_assignment":["white","black"],"door_generator_assignment":[0,1],"goal":3,"start":4,"action_noise":0,"location_history":"[4,5,0,5,4,3]","action_history":"[1,0,0,1,0]","door_history":"[1,0,0,1,0]","location_rts":"[3031,1750,1140,829,757]","trial_type":"two-door-navigation","trial_index":17,"time_elapsed":419257,"internal_node_id":"0.0-2.0-15.0"},{"group":"hexagon_bi","room_assignment":["green","yellow","blue","grey","purple","red"],"door_color_assignment":["white","black"],"door_generator_assignment":[0,1],"goal":1,"start":3,"action_noise":0,"location_history":"[3,4,3,2,1]","action_history":"[0,0,1,0]","door_history":"[0,0,1,0]","location_rts":"[1993,1777,912,1794]","trial_type":"two-door-navigation","trial_index":18,"time_elapsed":433805,"internal_node_id":"0.0-2.0-16.0"},{"group":"hexagon_bi","room_assignment":["green","yellow","blue","grey","purple","red"],"door_color_assignment":["white","black"],"door_generator_assignment":[0,1],"goal":5,"start":1,"action_noise":0,"location_history":"[1,2,1,0,1,0,5]","action_history":"[0,0,1,1,1,0]","door_history":"[0,0,1,1,1,0]","location_rts":"[2272,1520,869,471,793,252]","trial_type":"two-door-navigation","trial_index":19,"time_elapsed":450049,"internal_node_id":"0.0-2.0-17.0"},{"group":"hexagon_bi","room_assignment":["green","yellow","blue","grey","purple","red"],"door_color_assignment":["white","black"],"door_generator_assignment":[0,1],"goal":4,"start":5,"action_noise":0,"location_history":"[5,4]","action_history":"[1]","door_history":"[1]","location_rts":"[1927]","trial_type":"two-door-navigation","trial_index":20,"time_elapsed":456985,"internal_node_id":"0.0-2.0-18.0"},{"group":"hexagon_bi","room_assignment":["green","yellow","blue","grey","purple","red"],"door_color_assignment":["white","black"],"door_generator_assignment":[0,1],"goal":0,"start":4,"action_noise":0,"location_history":"[4,3,4,5,0]","action_history":"[0,0,1,0]","door_history":"[0,0,1,0]","location_rts":"[6195,2154,973,1344]","trial_type":"two-door-navigation","trial_index":21,"time_elapsed":475695,"internal_node_id":"0.0-2.0-19.0"},{"group":"hexagon_bi","room_assignment":["green","yellow","blue","grey","purple","red"],"door_color_assignment":["white","black"],"door_generator_assignment":[0,1],"goal":1,"start":0,"action_noise":0,"location_history":"[0,5,0,1]","action_history":"[0,0,1]","door_history":"[0,0,1]","location_rts":"[4732,3242,1141]","trial_type":"two-door-navigation","trial_index":22,"time_elapsed":491849,"internal_node_id":"0.0-2.0-20.0"},{"group":"hexagon_bi","room_assignment":["green","yellow","blue","grey","purple","red"],"door_color_assignment":["white","black"],"door_generator_assignment":[0,1],"goal":3,"start":1,"action_noise":0,"location_history":"[1,0,5,0,1,0,1,2,3]","action_history":"[1,0,0,1,1,1,0,1]","door_history":"[1,0,0,1,1,1,0,1]","location_rts":"[2898,963,462,918,880,937,1193,1031]","trial_type":"two-door-navigation","trial_index":23,"time_elapsed":513237,"internal_node_id":"0.0-2.0-21.0"},{"group":"hexagon_bi","room_assignment":["green","yellow","blue","grey","purple","red"],"door_color_assignment":["white","black"],"door_generator_assignment":[0,1],"goal":2,"start":3,"action_noise":0,"location_history":"[3,4,3,2]","action_history":"[0,0,1]","door_history":"[0,0,1]","location_rts":"[3140,1507,801]","trial_type":"two-door-navigation","trial_index":24,"time_elapsed":525725,"internal_node_id":"0.0-2.0-22.0"},{"group":"hexagon_bi","room_assignment":["green","yellow","blue","grey","purple","red"],"door_color_assignment":["white","black"],"door_generator_assignment":[0,1],"goal":0,"start":2,"action_noise":0,"location_history":"[2,3,4,3,2,3,4,3,4,5,0]","action_history":"[1,0,0,1,1,0,0,0,1,0]","door_history":"[1,0,0,1,1,0,0,0,1,0]","location_rts":"[2231,2143,846,872,538,1026,392,1034,743,1856]","trial_type":"two-door-navigation","trial_index":25,"time_elapsed":551515,"internal_node_id":"0.0-2.0-23.0"},{"group":"hexagon_bi","room_assignment":["green","yellow","blue","grey","purple","red"],"door_color_assignment":["white","black"],"door_generator_assignment":[0,1],"goal":3,"start":0,"action_noise":0,"location_history":"[0,1,2,3]","action_history":"[1,0,1]","door_history":"[1,0,1]","location_rts":"[1597,1164,1650]","trial_type":"two-door-navigation","trial_index":26,"time_elapsed":562973,"internal_node_id":"0.0-2.0-24.0"},{"group":"hexagon_bi","room_assignment":["green","yellow","blue","grey","purple","red"],"door_color_assignment":["white","black"],"door_generator_assignment":[0,1],"goal":1,"start":3,"action_noise":0,"location_history":"[3,4,3,2,3,2,1]","action_history":"[0,0,1,1,1,0]","door_history":"[0,0,1,1,1,0]","location_rts":"[2091,1896,609,1201,1001,267]","trial_type":"two-door-navigation","trial_index":27,"time_elapsed":580101,"internal_node_id":"0.0-2.0-25.0"},{"group":"hexagon_bi","room_assignment":["green","yellow","blue","grey","purple","red"],"door_color_assignment":["white","black"],"door_generator_assignment":[0,1],"goal":2,"start":1,"action_noise":0,"location_history":"[1,2]","action_history":"[0]","door_history":"[0]","location_rts":"[4377]","trial_type":"two-door-navigation","trial_index":28,"time_elapsed":589492,"internal_node_id":"0.0-2.0-26.0"},{"group":"hexagon_bi","room_assignment":["green","yellow","blue","grey","purple","red"],"door_color_assignment":["white","black"],"door_generator_assignment":[0,1],"goal":5,"start":2,"action_noise":0,"location_history":"[2,1,2,3,4,3,2,3,4,5]","action_history":"[0,0,1,0,0,1,1,0,1]","door_history":"[0,0,1,0,0,1,1,0,1]","location_rts":"[7137,1829,955,793,498,1540,416,1159,1056]","trial_type":"two-door-navigation","trial_index":29,"time_elapsed":617985,"internal_node_id":"0.0-2.0-27.0"},{"group":"hexagon_bi","room_assignment":["green","yellow","blue","grey","purple","red"],"door_color_assignment":["white","black"],"door_generator_assignment":[0,1],"goal":4,"start":5,"action_noise":0,"location_history":"[5,4]","action_history":"[1]","door_history":"[1]","location_rts":"[2815]","trial_type":"two-door-navigation","trial_index":30,"time_elapsed":625825,"internal_node_id":"0.0-2.0-28.0"},{"group":"hexagon_bi","room_assignment":["green","yellow","blue","grey","purple","red"],"door_color_assignment":["white","black"],"door_generator_assignment":[0,1],"goal":5,"start":4,"action_noise":0,"location_history":"[4,3,4,5]","action_history":"[0,0,1]","door_history":"[0,0,1]","location_rts":"[3804,2291,1115]","trial_type":"two-door-navigation","trial_index":31,"time_elapsed":640068,"internal_node_id":"0.0-2.0-29.0"},{"group":"hexagon_bi","room_assignment":["green","yellow","blue","grey","purple","red"],"door_color_assignment":["white","black"],"door_generator_assignment":[0,1],"goal":3,"start":5,"action_noise":0,"location_history":"[5,4,3]","action_history":"[1,0]","door_history":"[1,0]","location_rts":"[3284,1128]","trial_type":"two-door-navigation","trial_index":32,"time_elapsed":650521,"internal_node_id":"0.0-2.0-30.0"},{"group":"hexagon_bi","room_assignment":["green","yellow","blue","grey","purple","red"],"door_color_assignment":["white","black"],"door_generator_assignment":[0,1],"goal":0,"start":3,"action_noise":0,"location_history":"[3,4,3,2,1,2,3,2,3,4,5,0]","action_history":"[0,0,1,0,0,1,1,1,0,1,0]","door_history":"[0,0,1,0,0,1,1,1,0,1,0]","location_rts":"[2397,3133,902,1765,1011,974,354,932,920,1072,1218]","trial_type":"two-door-navigation","trial_index":33,"time_elapsed":680323,"internal_node_id":"0.0-2.0-31.0"},{"group":"hexagon_bi","room_assignment":["green","yellow","blue","grey","purple","red"],"door_color_assignment":["white","black"],"door_generator_assignment":[0,1],"goal":4,"start":0,"action_noise":0,"location_history":"[0,1,0,5,4]","action_history":"[1,1,0,1]","door_history":"[1,1,0,1]","location_rts":"[2432,1107,872,1180]","trial_type":"two-door-navigation","trial_index":34,"time_elapsed":693959,"internal_node_id":"0.0-2.0-32.0"},{"group":"hexagon_bi","room_assignment":["green","yellow","blue","grey","purple","red"],"door_color_assignment":["white","black"],"door_generator_assignment":[0,1],"goal":1,"start":4,"action_noise":0,"location_history":"[4,3,4,3,2,3,4,5,0,1]","action_history":"[0,0,0,1,1,0,1,0,1]","door_history":"[0,0,0,1,1,0,1,0,1]","location_rts":"[2382,1091,843,264,1164,1517,741,235,1003]","trial_type":"two-door-navigation","trial_index":35,"time_elapsed":716342,"internal_node_id":"0.0-2.0-33.0"},{"group":"hexagon_bi","room_assignment":["green","yellow","blue","grey","purple","red"],"door_color_assignment":["white","black"],"door_generator_assignment":[0,1],"goal":2,"start":1,"action_noise":0,"location_history":"[1,0,1,2]","action_history":"[1,1,0]","door_history":"[1,1,0]","location_rts":"[3905,3183,814]","trial_type":"two-door-navigation","trial_index":36,"time_elapsed":731284,"internal_node_id":"0.0-2.0-34.0"},{"group":"hexagon_bi","room_assignment":["green","yellow","blue","grey","purple","red"],"door_color_assignment":["white","black"],"door_generator_assignment":[0,1],"goal":0,"start":2,"action_noise":0,"location_history":"[2,3,4,5,0]","action_history":"[1,0,1,0]","door_history":"[1,0,1,0]","location_rts":"[1878,880,1099,595]","trial_type":"two-door-navigation","trial_index":37,"time_elapsed":743792,"internal_node_id":"0.0-2.0-35.0"},{"group":"hexagon_bi","room_assignment":["green","yellow","blue","grey","purple","red"],"door_color_assignment":["white","black"],"door_generator_assignment":[0,1],"goal":5,"start":0,"action_noise":0,"location_history":"[0,5]","action_history":"[0]","door_history":"[0]","location_rts":"[2738]","trial_type":"two-door-navigation","trial_index":38,"time_elapsed":751543,"internal_node_id":"0.0-2.0-36.0"},{"group":"hexagon_bi","room_assignment":["green","yellow","blue","grey","purple","red"],"door_color_assignment":["white","black"],"door_generator_assignment":[0,1],"goal":2,"start":5,"action_noise":0,"location_history":"[5,4,5,0,1,2]","action_history":"[1,1,0,1,0]","door_history":"[1,1,0,1,0]","location_rts":"[1398,1284,609,769,1496]","trial_type":"two-door-navigation","trial_index":39,"time_elapsed":766164,"internal_node_id":"0.0-2.0-37.0"},{"group":"hexagon_bi","room_assignment":["green","yellow","blue","grey","purple","red"],"door_color_assignment":["white","black"],"door_generator_assignment":[0,1],"goal":1,"start":2,"action_noise":0,"location_history":"[2,1]","action_history":"[0]","door_history":"[0]","location_rts":"[2885]","trial_type":"two-door-navigation","trial_index":40,"time_elapsed":774067,"internal_node_id":"0.0-2.0-38.0"},{"group":"hexagon_bi","room_assignment":["green","yellow","blue","grey","purple","red"],"door_color_assignment":["white","black"],"door_generator_assignment":[0,1],"goal":4,"start":1,"action_noise":0,"location_history":"[1,0,5,4]","action_history":"[1,0,1]","door_history":"[1,0,1]","location_rts":"[2898,2416,1525]","trial_type":"two-door-navigation","trial_index":41,"time_elapsed":787956,"internal_node_id":"0.0-2.0-39.0"},{"group":"hexagon_bi","room_assignment":["green","yellow","blue","grey","purple","red"],"door_color_assignment":["white","black"],"door_generator_assignment":[0,1],"goal":3,"start":4,"action_noise":0,"location_history":"[4,5,4,3]","action_history":"[1,1,0]","door_history":"[1,1,0]","location_rts":"[1977,1274,991]","trial_type":"two-door-navigation","trial_index":42,"time_elapsed":799250,"internal_node_id":"0.0-2.0-40.0"},{"group":"hexagon_bi","room_assignment":["green","yellow","blue","grey","purple","red"],"door_color_assignment":["white","black"],"door_generator_assignment":[0,1],"goal":5,"start":3,"action_noise":0,"location_history":"[3,4,3,2,1,2,3,2,3,4,5]","action_history":"[0,0,1,0,0,1,1,1,0,1]","door_history":"[0,0,1,0,0,1,1,1,0,1]","location_rts":"[1707,767,774,814,1218,618,276,856,347,1770]","trial_type":"two-door-navigation","trial_index":43,"time_elapsed":822519,"internal_node_id":"0.0-2.0-41.0"},{"group":"hexagon_bi","room_assignment":["green","yellow","blue","grey","purple","red"],"door_color_assignment":["white","black"],"door_generator_assignment":[0,1],"goal":3,"start":5,"action_noise":0,"location_history":"[5,0,5,4,5,4,3]","action_history":"[0,0,1,1,1,0]","door_history":"[0,0,1,1,1,0]","location_rts":"[1618,1108,572,898,1255,1142]","trial_type":"two-door-navigation","trial_index":44,"time_elapsed":839188,"internal_node_id":"0.0-2.0-42.0"},{"group":"hexagon_bi","room_assignment":["green","yellow","blue","grey","purple","red"],"door_color_assignment":["white","black"],"door_generator_assignment":[0,1],"goal":0,"start":3,"action_noise":0,"location_history":"[3,4,5,0]","action_history":"[0,1,0]","door_history":"[0,1,0]","location_rts":"[3253,979,640]","trial_type":"two-door-navigation","trial_index":45,"time_elapsed":851098,"internal_node_id":"0.0-2.0-43.0"},{"group":"hexagon_bi","room_assignment":["green","yellow","blue","grey","purple","red"],"door_color_assignment":["white","black"],"door_generator_assignment":[0,1],"goal":2,"start":0,"action_noise":0,"location_history":"[0,1,2]","action_history":"[1,0]","door_history":"[1,0]","location_rts":"[1543,1649]","trial_type":"two-door-navigation","trial_index":46,"time_elapsed":860328,"internal_node_id":"0.0-2.0-44.0"},{"group":"hexagon_bi","room_assignment":["green","yellow","blue","grey","purple","red"],"door_color_assignment":["white","black"],"door_generator_assignment":[0,1],"goal":4,"start":2,"action_noise":0,"location_history":"[2,3,2,3,4]","action_history":"[1,1,1,0]","door_history":"[1,1,1,0]","location_rts":"[2730,1971,834,443]","trial_type":"two-door-navigation","trial_index":47,"time_elapsed":874383,"internal_node_id":"0.0-2.0-45.0"},{"group":"hexagon_bi","room_assignment":["green","yellow","blue","grey","purple","red"],"door_color_assignment":["white","black"],"door_generator_assignment":[0,1],"goal":1,"start":4,"action_noise":0,"location_history":"[4,3,4,5,4,3,2,3,2,1]","action_history":"[0,0,1,1,0,1,1,1,0]","door_history":"[0,0,1,1,0,1,1,1,0]","location_rts":"[2531,1033,669,1481,1959,422,1504,575,248]","trial_type":"two-door-navigation","trial_index":48,"time_elapsed":897942,"internal_node_id":"0.0-2.0-46.0"},{"group":"hexagon_bi","room_assignment":["green","yellow","blue","grey","purple","red"],"door_color_assignment":["white","black"],"door_generator_assignment":[0,1],"goal":4,"start":1,"action_noise":0,"location_history":"[1,0,1,2,1,0,5,4]","action_history":"[1,1,0,0,1,0,1]","door_history":"[1,1,0,0,1,0,1]","location_rts":"[4413,1494,731,2942,763,627,875]","trial_type":"two-door-navigation","trial_index":49,"time_elapsed":920859,"internal_node_id":"0.0-2.0-47.0"},{"group":"hexagon_bi","room_assignment":["green","yellow","blue","grey","purple","red"],"door_color_assignment":["white","black"],"door_generator_assignment":[0,1],"goal":3,"start":4,"action_noise":0,"location_history":"[4,3]","action_history":"[0]","door_history":"[0]","location_rts":"[6123]","trial_type":"two-door-navigation","trial_index":50,"time_elapsed":931994,"internal_node_id":"0.0-2.0-48.0"},{"group":"hexagon_bi","room_assignment":["green","yellow","blue","grey","purple","red"],"door_color_assignment":["white","black"],"door_generator_assignment":[0,1],"goal":5,"start":3,"action_noise":0,"location_history":"[3,2,1,2,3,2,3,4,5]","action_history":"[1,0,0,1,1,1,0,1]","door_history":"[1,0,0,1,1,1,0,1]","location_rts":"[4204,1365,1155,499,1164,1139,224,885]","trial_type":"two-door-navigation","trial_index":51,"time_elapsed":954699,"internal_node_id":"0.0-2.0-49.0"},{"view_history":"[{\"page_index\":0,\"viewing_time\":4139}]","rt":4140,"trial_type":"instructions","trial_index":52,"time_elapsed":959840,"internal_node_id":"0.0-3.0"},{"view_history":"[{\"page_index\":0,\"viewing_time\":4109},{\"page_index\":1,\"viewing_time\":56433}]","rt":60542,"trial_type":"instructions","trial_index":53,"time_elapsed":1021383,"internal_node_id":"0.0-4.0"},{"group":"hexagon_tri","fractal_assignment":["../images/gry_blk.png","../images/ylw_slt.png","../images/pnk_blu.png","../images/cyn_red.png","../images/org_blu.png","../images/blu_wht.png"],"mutagen_generator_assignment":[1,0],"goal":4,"start":0,"action_noise":0,"location_history":"[0,1,3,2,1,5,4]","action_history":"[1,0,0,0,1,0]","mutagen_history":"[0,1,1,1,0,1]","location_rts":"[4173,16796,2947,1451,605,1355]","trial_type":"fractal-mutation","trial_index":54,"time_elapsed":1058970,"internal_node_id":"0.0-5.0-0.0"},{"group":"hexagon_tri","fractal_assignment":["../images/gry_blk.png","../images/ylw_slt.png","../images/pnk_blu.png","../images/cyn_red.png","../images/org_blu.png","../images/blu_wht.png"],"mutagen_generator_assignment":[1,0],"goal":3,"start":4,"action_noise":0,"location_history":"[4,0,5,4,2,1,5,0,1,3]","action_history":"[0,0,0,1,0,1,1,1,0]","mutagen_history":"[1,1,1,0,1,0,0,0,1]","location_rts":"[3643,1335,1675,609,1667,795,1739,1415,2022]","trial_type":"fractal-mutation","trial_index":55,"time_elapsed":1087210,"internal_node_id":"0.0-5.0-1.0"},{"group":"hexagon_tri","fractal_assignment":["../images/gry_blk.png","../images/ylw_slt.png","../images/pnk_blu.png","../images/cyn_red.png","../images/org_blu.png","../images/blu_wht.png"],"mutagen_generator_assignment":[1,0],"goal":5,"start":3,"action_noise":0,"location_history":"[3,2,3,4,2,3,2,1,5]","action_history":"[0,1,1,1,1,0,0,1]","mutagen_history":"[1,0,0,0,0,1,1,0]","location_rts":"[1828,580,689,1188,1382,714,834,645]","trial_type":"fractal-mutation","trial_index":56,"time_elapsed":1107328,"internal_node_id":"0.0-5.0-2.0"},{"group":"hexagon_tri","fractal_assignment":["../images/gry_blk.png","../images/ylw_slt.png","../images/pnk_blu.png","../images/cyn_red.png","../images/org_blu.png","../images/blu_wht.png"],"mutagen_generator_assignment":[1,0],"goal":2,"start":5,"action_noise":0,"location_history":"[5,4,0,1,3,2]","action_history":"[0,0,1,0,0]","mutagen_history":"[1,1,0,1,1]","location_rts":"[1899,1432,875,944,886]","trial_type":"fractal-mutation","trial_index":57,"time_elapsed":1122572,"internal_node_id":"0.0-5.0-3.0"},{"group":"hexagon_tri","fractal_assignment":["../images/gry_blk.png","../images/ylw_slt.png","../images/pnk_blu.png","../images/cyn_red.png","../images/org_blu.png","../images/blu_wht.png"],"mutagen_generator_assignment":[1,0],"goal":1,"start":2,"action_noise":0,"location_history":"[2,1]","action_history":"[0]","mutagen_history":"[1]","location_rts":"[2828]","trial_type":"fractal-mutation","trial_index":58,"time_elapsed":1130465,"internal_node_id":"0.0-5.0-4.0"},{"group":"hexagon_tri","fractal_assignment":["../images/gry_blk.png","../images/ylw_slt.png","../images/pnk_blu.png","../images/cyn_red.png","../images/org_blu.png","../images/blu_wht.png"],"mutagen_generator_assignment":[1,0],"goal":4,"start":1,"action_noise":0,"location_history":"[1,5,0,1,3,4]","action_history":"[1,1,1,0,1]","mutagen_history":"[0,0,0,1,0]","location_rts":"[2419,2190,770,1585,366]","trial_type":"fractal-mutation","trial_index":59,"time_elapsed":1146950,"internal_node_id":"0.0-5.0-5.0"},{"group":"hexagon_tri","fractal_assignment":["../images/gry_blk.png","../images/ylw_slt.png","../images/pnk_blu.png","../images/cyn_red.png","../images/org_blu.png","../images/blu_wht.png"],"mutagen_generator_assignment":[1,0],"goal":1,"start":4,"action_noise":0,"location_history":"[4,0,1]","action_history":"[0,1]","mutagen_history":"[1,0]","location_rts":"[1961,730]","trial_type":"fractal-mutation","trial_index":60,"time_elapsed":1155726,"internal_node_id":"0.0-5.0-6.0"},{"group":"hexagon_tri","fractal_assignment":["../images/gry_blk.png","../images/ylw_slt.png","../images/pnk_blu.png","../images/cyn_red.png","../images/org_blu.png","../images/blu_wht.png"],"mutagen_generator_assignment":[1,0],"goal":5,"start":1,"action_noise":0,"location_history":"[1,3,4,2,3,2,3,2,1,5]","action_history":"[0,1,1,1,0,1,0,0,1]","mutagen_history":"[1,0,0,0,1,0,1,1,0]","location_rts":"[1273,1345,1225,1331,633,1312,796,382,367]","trial_type":"fractal-mutation","trial_index":61,"time_elapsed":1177645,"internal_node_id":"0.0-5.0-7.0"},{"group":"hexagon_tri","fractal_assignment":["../images/gry_blk.png","../images/ylw_slt.png","../images/pnk_blu.png","../images/cyn_red.png","../images/org_blu.png","../images/blu_wht.png"],"mutagen_generator_assignment":[1,0],"goal":0,"start":5,"action_noise":0,"location_history":"[5,0]","action_history":"[1]","mutagen_history":"[0]","location_rts":"[1600]","trial_type":"fractal-mutation","trial_index":62,"time_elapsed":1184266,"internal_node_id":"0.0-5.0-8.0"},{"group":"hexagon_tri","fractal_assignment":["../images/gry_blk.png","../images/ylw_slt.png","../images/pnk_blu.png","../images/cyn_red.png","../images/org_blu.png","../images/blu_wht.png"],"mutagen_generator_assignment":[1,0],"goal":2,"start":0,"action_noise":0,"location_history":"[0,5,4,0,1,3,2]","action_history":"[0,0,0,1,0,0]","mutagen_history":"[1,1,1,0,1,1]","location_rts":"[1486,1029,2489,873,1295,1611]","trial_type":"fractal-mutation","trial_index":63,"time_elapsed":1203254,"internal_node_id":"0.0-5.0-9.0"},{"group":"hexagon_tri","fractal_assignment":["../images/gry_blk.png","../images/ylw_slt.png","../images/pnk_blu.png","../images/cyn_red.png","../images/org_blu.png","../images/blu_wht.png"],"mutagen_generator_assignment":[1,0],"goal":3,"start":2,"action_noise":0,"location_history":"[2,1,5,0,5,0,5,4,2,3]","action_history":"[0,1,1,0,1,0,0,1,1]","mutagen_history":"[1,0,0,1,0,1,1,0,0]","location_rts":"[3472,602,847,1570,1699,1985,858,1103,1294]","trial_type":"fractal-mutation","trial_index":64,"time_elapsed":1230028,"internal_node_id":"0.0-5.0-10.0"},{"group":"hexagon_tri","fractal_assignment":["../images/gry_blk.png","../images/ylw_slt.png","../images/pnk_blu.png","../images/cyn_red.png","../images/org_blu.png","../images/blu_wht.png"],"mutagen_generator_assignment":[1,0],"goal":0,"start":3,"action_noise":0,"location_history":"[3,4,2,3,2,3,4,2,1,5,4,0]","action_history":"[1,1,1,0,1,1,1,0,1,0,0]","mutagen_history":"[0,0,0,1,0,0,0,1,0,1,1]","location_rts":"[1287,1458,899,916,889,938,1610,525,1407,1298,683]","trial_type":"fractal-mutation","trial_index":65,"time_elapsed":1257311,"internal_node_id":"0.0-5.0-11.0"},{"group":"hexagon_tri","fractal_assignment":["../images/gry_blk.png","../images/ylw_slt.png","../images/pnk_blu.png","../images/cyn_red.png","../images/org_blu.png","../images/blu_wht.png"],"mutagen_generator_assignment":[1,0],"goal":2,"start":0,"action_noise":0,"location_history":"[0,5,4,2]","action_history":"[0,0,1]","mutagen_history":"[1,1,0]","location_rts":"[2557,1207,677]","trial_type":"fractal-mutation","trial_index":66,"time_elapsed":1268870,"internal_node_id":"0.0-5.0-12.0"},{"group":"hexagon_tri","fractal_assignment":["../images/gry_blk.png","../images/ylw_slt.png","../images/pnk_blu.png","../images/cyn_red.png","../images/org_blu.png","../images/blu_wht.png"],"mutagen_generator_assignment":[1,0],"goal":5,"start":2,"action_noise":0,"location_history":"[2,3,4,0,1,5]","action_history":"[1,1,0,1,1]","mutagen_history":"[0,0,1,0,0]","location_rts":"[1373,2142,1029,640,1603]","trial_type":"fractal-mutation","trial_index":67,"time_elapsed":1284831,"internal_node_id":"0.0-5.0-13.0"},{"group":"hexagon_tri","fractal_assignment":["../images/gry_blk.png","../images/ylw_slt.png","../images/pnk_blu.png","../images/cyn_red.png","../images/org_blu.png","../images/blu_wht.png"],"mutagen_generator_assignment":[1,0],"goal":4,"start":5,"action_noise":0,"location_history":"[5,0,1,3,4]","action_history":"[1,1,0,1]","mutagen_history":"[0,0,1,0]","location_rts":"[2174,1835,1768,543]","trial_type":"fractal-mutation","trial_index":68,"time_elapsed":1299275,"internal_node_id":"0.0-5.0-14.0"},{"group":"hexagon_tri","fractal_assignment":["../images/gry_blk.png","../images/ylw_slt.png","../images/pnk_blu.png","../images/cyn_red.png","../images/org_blu.png","../images/blu_wht.png"],"mutagen_generator_assignment":[1,0],"goal":3,"start":4,"action_noise":0,"location_history":"[4,0,5,4,2,1,5,0,5,4,2,1,5,0,5,4,2,1,3]","action_history":"[0,0,0,1,0,1,1,0,0,1,0,1,1,0,0,1,0,0]","mutagen_history":"[1,1,1,0,1,0,0,1,1,0,1,0,0,1,1,0,1,1]","location_rts":"[1945,945,2260,852,849,693,880,709,814,1086,745,1134,1318,1526,975,2342,2395,1226]","trial_type":"fractal-mutation","trial_index":69,"time_elapsed":1344619,"internal_node_id":"0.0-5.0-15.0"},{"group":"hexagon_tri","fractal_assignment":["../images/gry_blk.png","../images/ylw_slt.png","../images/pnk_blu.png","../images/cyn_red.png","../images/org_blu.png","../images/blu_wht.png"],"mutagen_generator_assignment":[1,0],"goal":1,"start":3,"action_noise":0,"location_history":"[3,2,3,4,2,1]","action_history":"[0,1,1,1,0]","mutagen_history":"[1,0,0,0,1]","location_rts":"[1527,979,782,809,488]","trial_type":"fractal-mutation","trial_index":70,"time_elapsed":1358383,"internal_node_id":"0.0-5.0-16.0"},{"group":"hexagon_tri","fractal_assignment":["../images/gry_blk.png","../images/ylw_slt.png","../images/pnk_blu.png","../images/cyn_red.png","../images/org_blu.png","../images/blu_wht.png"],"mutagen_generator_assignment":[1,0],"goal":5,"start":1,"action_noise":0,"location_history":"[1,5]","action_history":"[1]","mutagen_history":"[0]","location_rts":"[1060]","trial_type":"fractal-mutation","trial_index":71,"time_elapsed":1364466,"internal_node_id":"0.0-5.0-17.0"},{"group":"hexagon_tri","fractal_assignment":["../images/gry_blk.png","../images/ylw_slt.png","../images/pnk_blu.png","../images/cyn_red.png","../images/org_blu.png","../images/blu_wht.png"],"mutagen_generator_assignment":[1,0],"goal":4,"start":5,"action_noise":0,"location_history":"[5,0,5,0,1,3,4]","action_history":"[1,0,1,1,0,1]","mutagen_history":"[0,1,0,0,1,0]","location_rts":"[1392,1098,419,516,944,549]","trial_type":"fractal-mutation","trial_index":72,"time_elapsed":1379552,"internal_node_id":"0.0-5.0-18.0"},{"group":"hexagon_tri","fractal_assignment":["../images/gry_blk.png","../images/ylw_slt.png","../images/pnk_blu.png","../images/cyn_red.png","../images/org_blu.png","../images/blu_wht.png"],"mutagen_generator_assignment":[1,0],"goal":0,"start":4,"action_noise":0,"location_history":"[4,2,3,2,1,5,4,0]","action_history":"[1,1,0,0,1,0,0]","mutagen_history":"[0,0,1,1,0,1,1]","location_rts":"[2018,990,463,754,577,648,486]","trial_type":"fractal-mutation","trial_index":73,"time_elapsed":1396766,"internal_node_id":"0.0-5.0-19.0"},{"group":"hexagon_tri","fractal_assignment":["../images/gry_blk.png","../images/ylw_slt.png","../images/pnk_blu.png","../images/cyn_red.png","../images/org_blu.png","../images/blu_wht.png"],"mutagen_generator_assignment":[1,0],"goal":1,"start":0,"action_noise":0,"location_history":"[0,5,4,2,3,4,0,1]","action_history":"[0,0,1,1,1,0,1]","mutagen_history":"[1,1,0,0,0,1,0]","location_rts":"[3612,925,323,717,589,659,1054]","trial_type":"fractal-mutation","trial_index":74,"time_elapsed":1415886,"internal_node_id":"0.0-5.0-20.0"},{"group":"hexagon_tri","fractal_assignment":["../images/gry_blk.png","../images/ylw_slt.png","../images/pnk_blu.png","../images/cyn_red.png","../images/org_blu.png","../images/blu_wht.png"],"mutagen_generator_assignment":[1,0],"goal":3,"start":1,"action_noise":0,"location_history":"[1,5,0,5,0,1,3]","action_history":"[1,1,0,1,1,0]","mutagen_history":"[0,0,1,0,0,1]","location_rts":"[1780,778,847,835,843,642]","trial_type":"fractal-mutation","trial_index":75,"time_elapsed":1431846,"internal_node_id":"0.0-5.0-21.0"},{"group":"hexagon_tri","fractal_assignment":["../images/gry_blk.png","../images/ylw_slt.png","../images/pnk_blu.png","../images/cyn_red.png","../images/org_blu.png","../images/blu_wht.png"],"mutagen_generator_assignment":[1,0],"goal":2,"start":3,"action_noise":0,"location_history":"[3,4,0,1,5,0,1,3,2]","action_history":"[1,0,1,1,1,1,0,0]","mutagen_history":"[0,1,0,0,0,0,1,1]","location_rts":"[1373,1037,908,879,813,957,608,783]","trial_type":"fractal-mutation","trial_index":76,"time_elapsed":1451465,"internal_node_id":"0.0-5.0-22.0"},{"group":"hexagon_tri","fractal_assignment":["../images/gry_blk.png","../images/ylw_slt.png","../images/pnk_blu.png","../images/cyn_red.png","../images/org_blu.png","../images/blu_wht.png"],"mutagen_generator_assignment":[1,0],"goal":0,"start":2,"action_noise":0,"location_history":"[2,3,4,0]","action_history":"[1,1,0]","mutagen_history":"[0,0,1]","location_rts":"[1487,1150,1224]","trial_type":"fractal-mutation","trial_index":77,"time_elapsed":1462405,"internal_node_id":"0.0-5.0-23.0"},{"group":"hexagon_tri","fractal_assignment":["../images/gry_blk.png","../images/ylw_slt.png","../images/pnk_blu.png","../images/cyn_red.png","../images/org_blu.png","../images/blu_wht.png"],"mutagen_generator_assignment":[1,0],"goal":3,"start":0,"action_noise":0,"location_history":"[0,1,3]","action_history":"[1,0]","mutagen_history":"[0,1]","location_rts":"[1332,811]","trial_type":"fractal-mutation","trial_index":78,"time_elapsed":1470631,"internal_node_id":"0.0-5.0-24.0"},{"group":"hexagon_tri","fractal_assignment":["../images/gry_blk.png","../images/ylw_slt.png","../images/pnk_blu.png","../images/cyn_red.png","../images/org_blu.png","../images/blu_wht.png"],"mutagen_generator_assignment":[1,0],"goal":1,"start":3,"action_noise":0,"location_history":"[3,4,2,1]","action_history":"[1,1,0]","mutagen_history":"[0,0,1]","location_rts":"[3449,1323,588]","trial_type":"fractal-mutation","trial_index":79,"time_elapsed":1483089,"internal_node_id":"0.0-5.0-25.0"},{"group":"hexagon_tri","fractal_assignment":["../images/gry_blk.png","../images/ylw_slt.png","../images/pnk_blu.png","../images/cyn_red.png","../images/org_blu.png","../images/blu_wht.png"],"mutagen_generator_assignment":[1,0],"goal":2,"start":1,"action_noise":0,"location_history":"[1,5,4,0,5,4,2]","action_history":"[1,0,0,0,0,1]","mutagen_history":"[0,1,1,1,1,0]","location_rts":"[1119,612,975,1497,612,495]","trial_type":"fractal-mutation","trial_index":80,"time_elapsed":1498618,"internal_node_id":"0.0-5.0-26.0"},{"group":"hexagon_tri","fractal_assignment":["../images/gry_blk.png","../images/ylw_slt.png","../images/pnk_blu.png","../images/cyn_red.png","../images/org_blu.png","../images/blu_wht.png"],"mutagen_generator_assignment":[1,0],"goal":5,"start":2,"action_noise":0,"location_history":"[2,3,4,2,1,5]","action_history":"[1,1,1,0,1]","mutagen_history":"[0,0,0,1,0]","location_rts":"[1296,589,1059,834,931]","trial_type":"fractal-mutation","trial_index":81,"time_elapsed":1512500,"internal_node_id":"0.0-5.0-27.0"},{"group":"hexagon_tri","fractal_assignment":["../images/gry_blk.png","../images/ylw_slt.png","../images/pnk_blu.png","../images/cyn_red.png","../images/org_blu.png","../images/blu_wht.png"],"mutagen_generator_assignment":[1,0],"goal":4,"start":5,"action_noise":0,"location_history":"[5,4]","action_history":"[0]","mutagen_history":"[1]","location_rts":"[3692]","trial_type":"fractal-mutation","trial_index":82,"time_elapsed":1521250,"internal_node_id":"0.0-5.0-28.0"},{"group":"hexagon_tri","fractal_assignment":["../images/gry_blk.png","../images/ylw_slt.png","../images/pnk_blu.png","../images/cyn_red.png","../images/org_blu.png","../images/blu_wht.png"],"mutagen_generator_assignment":[1,0],"goal":5,"start":4,"action_noise":0,"location_history":"[4,2,1,5]","action_history":"[1,0,1]","mutagen_history":"[0,1,0]","location_rts":"[1285,1170,610]","trial_type":"fractal-mutation","trial_index":83,"time_elapsed":1531441,"internal_node_id":"0.0-5.0-29.0"},{"group":"hexagon_tri","fractal_assignment":["../images/gry_blk.png","../images/ylw_slt.png","../images/pnk_blu.png","../images/cyn_red.png","../images/org_blu.png","../images/blu_wht.png"],"mutagen_generator_assignment":[1,0],"goal":3,"start":5,"action_noise":0,"location_history":"[5,0,5,0,1,3]","action_history":"[1,0,1,1,0]","mutagen_history":"[0,1,0,0,1]","location_rts":"[1567,339,1169,363,684]","trial_type":"fractal-mutation","trial_index":84,"time_elapsed":1544693,"internal_node_id":"0.0-5.0-30.0"},{"group":"hexagon_tri","fractal_assignment":["../images/gry_blk.png","../images/ylw_slt.png","../images/pnk_blu.png","../images/cyn_red.png","../images/org_blu.png","../images/blu_wht.png"],"mutagen_generator_assignment":[1,0],"goal":0,"start":3,"action_noise":0,"location_history":"[3,4,0]","action_history":"[1,0]","mutagen_history":"[0,1]","location_rts":"[1032,936]","trial_type":"fractal-mutation","trial_index":85,"time_elapsed":1552732,"internal_node_id":"0.0-5.0-31.0"},{"group":"hexagon_tri","fractal_assignment":["../images/gry_blk.png","../images/ylw_slt.png","../images/pnk_blu.png","../images/cyn_red.png","../images/org_blu.png","../images/blu_wht.png"],"mutagen_generator_assignment":[1,0],"goal":4,"start":0,"action_noise":0,"location_history":"[0,1,3,4]","action_history":"[1,0,1]","mutagen_history":"[0,1,0]","location_rts":"[3249,2717,779]","trial_type":"fractal-mutation","trial_index":86,"time_elapsed":1566566,"internal_node_id":"0.0-5.0-32.0"},{"group":"hexagon_tri","fractal_assignment":["../images/gry_blk.png","../images/ylw_slt.png","../images/pnk_blu.png","../images/cyn_red.png","../images/org_blu.png","../images/blu_wht.png"],"mutagen_generator_assignment":[1,0],"goal":1,"start":4,"action_noise":0,"location_history":"[4,2,1]","action_history":"[1,0]","mutagen_history":"[0,1]","location_rts":"[1695,423]","trial_type":"fractal-mutation","trial_index":87,"time_elapsed":1574757,"internal_node_id":"0.0-5.0-33.0"},{"group":"hexagon_tri","fractal_assignment":["../images/gry_blk.png","../images/ylw_slt.png","../images/pnk_blu.png","../images/cyn_red.png","../images/org_blu.png","../images/blu_wht.png"],"mutagen_generator_assignment":[1,0],"goal":2,"start":1,"action_noise":0,"location_history":"[1,5,0,5,4,2]","action_history":"[1,1,0,0,1]","mutagen_history":"[0,0,1,1,0]","location_rts":"[1243,1651,459,473,945]","trial_type":"fractal-mutation","trial_index":88,"time_elapsed":1588711,"internal_node_id":"0.0-5.0-34.0"},{"group":"hexagon_tri","fractal_assignment":["../images/gry_blk.png","../images/ylw_slt.png","../images/pnk_blu.png","../images/cyn_red.png","../images/org_blu.png","../images/blu_wht.png"],"mutagen_generator_assignment":[1,0],"goal":0,"start":2,"action_noise":0,"location_history":"[2,3,2,3,4,0]","action_history":"[1,0,1,1,0]","mutagen_history":"[0,1,0,0,1]","location_rts":"[4048,750,716,268,915]","trial_type":"fractal-mutation","trial_index":89,"time_elapsed":1604605,"internal_node_id":"0.0-5.0-35.0"},{"group":"hexagon_tri","fractal_assignment":["../images/gry_blk.png","../images/ylw_slt.png","../images/pnk_blu.png","../images/cyn_red.png","../images/org_blu.png","../images/blu_wht.png"],"mutagen_generator_assignment":[1,0],"goal":5,"start":0,"action_noise":0,"location_history":"[0,5]","action_history":"[0]","mutagen_history":"[1]","location_rts":"[2179]","trial_type":"fractal-mutation","trial_index":90,"time_elapsed":1611827,"internal_node_id":"0.0-5.0-36.0"},{"group":"hexagon_tri","fractal_assignment":["../images/gry_blk.png","../images/ylw_slt.png","../images/pnk_blu.png","../images/cyn_red.png","../images/org_blu.png","../images/blu_wht.png"],"mutagen_generator_assignment":[1,0],"goal":2,"start":5,"action_noise":0,"location_history":"[5,4,2]","action_history":"[0,1]","mutagen_history":"[1,0]","location_rts":"[1361,550]","trial_type":"fractal-mutation","trial_index":91,"time_elapsed":1619823,"internal_node_id":"0.0-5.0-37.0"},{"group":"hexagon_tri","fractal_assignment":["../images/gry_blk.png","../images/ylw_slt.png","../images/pnk_blu.png","../images/cyn_red.png","../images/org_blu.png","../images/blu_wht.png"],"mutagen_generator_assignment":[1,0],"goal":1,"start":2,"action_noise":0,"location_history":"[2,1]","action_history":"[0]","mutagen_history":"[1]","location_rts":"[3488]","trial_type":"fractal-mutation","trial_index":92,"time_elapsed":1628352,"internal_node_id":"0.0-5.0-38.0"},{"group":"hexagon_tri","fractal_assignment":["../images/gry_blk.png","../images/ylw_slt.png","../images/pnk_blu.png","../images/cyn_red.png","../images/org_blu.png","../images/blu_wht.png"],"mutagen_generator_assignment":[1,0],"goal":4,"start":1,"action_noise":0,"location_history":"[1,5,0,5,0,5,4]","action_history":"[1,1,0,1,0,0]","mutagen_history":"[0,0,1,0,1,1]","location_rts":"[2347,1364,999,726,621,1021]","trial_type":"fractal-mutation","trial_index":93,"time_elapsed":1645642,"internal_node_id":"0.0-5.0-39.0"},{"group":"hexagon_tri","fractal_assignment":["../images/gry_blk.png","../images/ylw_slt.png","../images/pnk_blu.png","../images/cyn_red.png","../images/org_blu.png","../images/blu_wht.png"],"mutagen_generator_assignment":[1,0],"goal":3,"start":4,"action_noise":0,"location_history":"[4,2,1,3]","action_history":"[1,0,0]","mutagen_history":"[0,1,1]","location_rts":"[2261,1410,926]","trial_type":"fractal-mutation","trial_index":94,"time_elapsed":1657350,"internal_node_id":"0.0-5.0-40.0"},{"group":"hexagon_tri","fractal_assignment":["../images/gry_blk.png","../images/ylw_slt.png","../images/pnk_blu.png","../images/cyn_red.png","../images/org_blu.png","../images/blu_wht.png"],"mutagen_generator_assignment":[1,0],"goal":5,"start":3,"action_noise":0,"location_history":"[3,4,2,1,3,4,2,3,4,0,1,3,4,2,1,3,2,3,4,2,1,5]","action_history":"[1,1,0,0,1,1,1,1,0,1,0,1,1,0,0,0,1,1,1,0,1]","mutagen_history":"[0,0,1,1,0,0,0,0,1,0,1,0,0,1,1,1,0,0,0,1,0]","location_rts":"[1240,1468,584,762,487,631,850,1120,1704,1535,1605,576,502,773,2011,2409,316,761,1339,1423,1154]","trial_type":"fractal-mutation","trial_index":95,"time_elapsed":1706321,"internal_node_id":"0.0-5.0-41.0"},{"group":"hexagon_tri","fractal_assignment":["../images/gry_blk.png","../images/ylw_slt.png","../images/pnk_blu.png","../images/cyn_red.png","../images/org_blu.png","../images/blu_wht.png"],"mutagen_generator_assignment":[1,0],"goal":3,"start":5,"action_noise":0,"location_history":"[5,4,2,1,3]","action_history":"[0,1,0,0]","mutagen_history":"[1,0,1,1]","location_rts":"[1578,704,561,812]","trial_type":"fractal-mutation","trial_index":96,"time_elapsed":1718151,"internal_node_id":"0.0-5.0-42.0"},{"group":"hexagon_tri","fractal_assignment":["../images/gry_blk.png","../images/ylw_slt.png","../images/pnk_blu.png","../images/cyn_red.png","../images/org_blu.png","../images/blu_wht.png"],"mutagen_generator_assignment":[1,0],"goal":0,"start":3,"action_noise":0,"location_history":"[3,4,0]","action_history":"[1,0]","mutagen_history":"[0,1]","location_rts":"[1141,874]","trial_type":"fractal-mutation","trial_index":97,"time_elapsed":1726254,"internal_node_id":"0.0-5.0-43.0"},{"group":"hexagon_tri","fractal_assignment":["../images/gry_blk.png","../images/ylw_slt.png","../images/pnk_blu.png","../images/cyn_red.png","../images/org_blu.png","../images/blu_wht.png"],"mutagen_generator_assignment":[1,0],"goal":2,"start":0,"action_noise":0,"location_history":"[0,1,5,4,0,5,0,5,0,1,3,2]","action_history":"[1,1,0,0,0,1,0,1,1,0,0]","mutagen_history":"[0,0,1,1,1,0,1,0,0,1,1]","location_rts":"[1287,1222,615,675,983,856,969,1027,632,2275,2134]","trial_type":"fractal-mutation","trial_index":98,"time_elapsed":1754369,"internal_node_id":"0.0-5.0-44.0"},{"group":"hexagon_tri","fractal_assignment":["../images/gry_blk.png","../images/ylw_slt.png","../images/pnk_blu.png","../images/cyn_red.png","../images/org_blu.png","../images/blu_wht.png"],"mutagen_generator_assignment":[1,0],"goal":4,"start":2,"action_noise":0,"location_history":"[2,1,5,0,5,0,5,0,1,5,0,1,3,2,3,2,1,3,4]","action_history":"[0,1,1,0,1,0,1,1,1,1,1,0,0,1,0,0,0,1]","mutagen_history":"[1,0,0,1,0,1,0,0,0,0,0,1,1,0,1,1,1,0]","location_rts":"[2008,495,1255,938,743,1556,541,467,1520,725,648,260,699,1008,658,664,1127,945]","trial_type":"fractal-mutation","trial_index":99,"time_elapsed":1793223,"internal_node_id":"0.0-5.0-45.0"},{"group":"hexagon_tri","fractal_assignment":["../images/gry_blk.png","../images/ylw_slt.png","../images/pnk_blu.png","../images/cyn_red.png","../images/org_blu.png","../images/blu_wht.png"],"mutagen_generator_assignment":[1,0],"goal":1,"start":4,"action_noise":0,"location_history":"[4,0,1]","action_history":"[0,1]","mutagen_history":"[1,0]","location_rts":"[4355,1545]","trial_type":"fractal-mutation","trial_index":100,"time_elapsed":1805193,"internal_node_id":"0.0-5.0-46.0"},{"group":"hexagon_tri","fractal_assignment":["../images/gry_blk.png","../images/ylw_slt.png","../images/pnk_blu.png","../images/cyn_red.png","../images/org_blu.png","../images/blu_wht.png"],"mutagen_generator_assignment":[1,0],"goal":4,"start":1,"action_noise":0,"location_history":"[1,3,2,1,5,0,1,3,2,3,4]","action_history":"[0,0,0,1,1,1,0,0,1,1]","mutagen_history":"[1,1,1,0,0,0,1,1,0,0]","location_rts":"[3800,1250,650,487,567,884,522,287,486,715]","trial_type":"fractal-mutation","trial_index":101,"time_elapsed":1829177,"internal_node_id":"0.0-5.0-47.0"},{"group":"hexagon_tri","fractal_assignment":["../images/gry_blk.png","../images/ylw_slt.png","../images/pnk_blu.png","../images/cyn_red.png","../images/org_blu.png","../images/blu_wht.png"],"mutagen_generator_assignment":[1,0],"goal":3,"start":4,"action_noise":0,"location_history":"[4,0,5,4,2,1,5,4,0,1,5,4,0,5,0,5,0,1,3]","action_history":"[0,0,0,1,0,1,0,0,1,1,0,0,0,1,0,1,1,0]","mutagen_history":"[1,1,1,0,1,0,1,1,0,0,1,1,1,0,1,0,0,1]","location_rts":"[1704,603,836,743,945,1353,651,638,970,974,1171,743,832,520,772,909,862,2217]","trial_type":"fractal-mutation","trial_index":102,"time_elapsed":1869311,"internal_node_id":"0.0-5.0-48.0"},{"group":"hexagon_tri","fractal_assignment":["../images/gry_blk.png","../images/ylw_slt.png","../images/pnk_blu.png","../images/cyn_red.png","../images/org_blu.png","../images/blu_wht.png"],"mutagen_generator_assignment":[1,0],"goal":5,"start":3,"action_noise":0,"location_history":"[3,4,0,5]","action_history":"[1,0,0]","mutagen_history":"[0,1,1]","location_rts":"[1296,497,1080]","trial_type":"fractal-mutation","trial_index":103,"time_elapsed":1879293,"internal_node_id":"0.0-5.0-49.0"},{"view_history":"[{\"page_index\":0,\"viewing_time\":11982}]","rt":11982,"trial_type":"instructions","trial_index":104,"time_elapsed":1892276,"internal_node_id":"0.0-6.0"},{"rt":12362,"responses":"{\"Q0\":\"everything went great\"}","trial_type":"survey-text","trial_index":105,"time_elapsed":1905644,"internal_node_id":"0.0-7.0"}]