[{"view_history":"[{\"page_index\":0,\"viewing_time\":14854},{\"page_index\":1,\"viewing_time\":42052},{\"page_index\":2,\"viewing_time\":832750}]","rt":889658,"trial_type":"instructions","trial_index":0,"time_elapsed":889660,"internal_node_id":"0.0-0.0"},{"view_history":"[{\"page_index\":0,\"viewing_time\":13622},{\"page_index\":1,\"viewing_time\":25514}]","rt":39136,"trial_type":"instructions","trial_index":1,"time_elapsed":929799,"internal_node_id":"0.0-1.0"},{"group":"hexagon_bi","room_assignment":["yellow","grey","green","red","purple","blue"],"door_color_assignment":["white","black"],"door_generator_assignment":[1,0],"goal":4,"start":0,"action_noise":0,"location_history":"[0,1,0,1,0,5,0,5,0,5,4]","action_history":"[1,1,1,1,0,0,0,0,0,1]","door_history":"[0,0,0,0,1,1,1,1,1,0]","location_rts":"[8094,3109,1882,9150,2693,3041,1262,1524,1111,2237]","trial_type":"two-door-navigation","trial_index":2,"time_elapsed":978415,"internal_node_id":"0.0-2.0-0.0"},{"group":"hexagon_bi","room_assignment":["yellow","grey","green","red","purple","blue"],"door_color_assignment":["white","black"],"door_generator_assignment":[1,0],"goal":3,"start":4,"action_noise":0,"location_history":"[4,3]","action_history":"[0]","door_history":"[1]","location_rts":"[7542]","trial_type":"two-door-navigation","trial_index":3,"time_elapsed":991004,"internal_node_id":"0.0-2.0-1.0"},{"group":"hexagon_bi","room_assignment":["yellow","grey","green","red","purple","blue"],"door_color_assignment":["white","black"],"door_generator_assignment":[1,0],"goal":5,"start":3,"action_noise":0,"location_history":"[3,4,5]","action_history":"[0,1]","door_history":"[1,0]","location_rts":"[3296,2436]","trial_type":"two-door-navigation","trial_index":4,"time_elapsed":1002811,"internal_node_id":"0.0-2.0-2.0"},{"group":"hexagon_bi","room_assignment":["yellow","grey","green","red","purple","blue"],"door_color_assignment":["white","black"],"door_generator_assignment":[1,0],"goal":2,"start":5,"action_noise":0,"location_history":"[5,0,5,0,1,0,1,0,5,0,5,0,1,0,1,0,5,0,5,4,3,2]","action_history":"[0,0,0,1,1,1,1,0,0,0,0,1,1,1,1,0,0,0,1,0,1]","door_history":"[1,1,1,0,0,0,0,1,1,1,1,0,0,0,0,1,1,1,0,1,0]","location_rts":"[6057,987,2432,1550,1256,1839,1416,1623,993,1034,2604,2429,1382,1297,1503,2198,1921,1231,1748,2464,2746]","trial_type":"two-door-navigation","trial_index":5,"time_elapsed":1069327,"internal_node_id":"0.0-2.0-3.0"},{"group":"hexagon_bi","room_assignment":["yellow","grey","green","red","purple","blue"],"door_color_assignment":["white","black"],"door_generator_assignment":[1,0],"goal":1,"start":2,"action_noise":0,"location_history":"[2,1]","action_history":"[0]","door_history":"[1]","location_rts":"[7827]","trial_type":"two-door-navigation","trial_index":6,"time_elapsed":1082200,"internal_node_id":"0.0-2.0-4.0"},{"group":"hexagon_bi","room_assignment":["yellow","grey","green","red","purple","blue"],"door_color_assignment":["white","black"],"door_generator_assignment":[1,0],"goal":4,"start":1,"action_noise":0,"location_history":"[1,0,5,0,5,4]","action_history":"[1,0,0,0,1]","door_history":"[0,1,1,1,0]","location_rts":"[4166,2959,1403,1628,1380]","trial_type":"two-door-navigation","trial_index":7,"time_elapsed":1102938,"internal_node_id":"0.0-2.0-5.0"},{"group":"hexagon_bi","room_assignment":["yellow","grey","green","red","purple","blue"],"door_color_assignment":["white","black"],"door_generator_assignment":[1,0],"goal":1,"start":4,"action_noise":0,"location_history":"[4,5,4,3,4,3,2,3,2,3,4,5,0,1]","action_history":"[1,1,0,0,0,1,1,1,1,0,1,0,1]","door_history":"[0,0,1,1,1,0,0,0,0,1,0,1,0]","location_rts":"[2663,1696,2059,1023,6614,1443,1427,1627,2111,3663,2466,2012,1532]","trial_type":"two-door-navigation","trial_index":8,"time_elapsed":1150826,"internal_node_id":"0.0-2.0-6.0"},{"group":"hexagon_bi","room_assignment":["yellow","grey","green","red","purple","blue"],"door_color_assignment":["white","black"],"door_generator_assignment":[1,0],"goal":5,"start":1,"action_noise":0,"location_history":"[1,2,1,2,3,2,1,0,5]","action_history":"[0,0,0,1,1,0,1,0]","door_history":"[1,1,1,0,0,1,0,1]","location_rts":"[3585,1303,1630,1674,1040,2245,2987,1567]","trial_type":"two-door-navigation","trial_index":9,"time_elapsed":1179263,"internal_node_id":"0.0-2.0-7.0"},{"group":"hexagon_bi","room_assignment":["yellow","grey","green","red","purple","blue"],"door_color_assignment":["white","black"],"door_generator_assignment":[1,0],"goal":0,"start":5,"action_noise":0,"location_history":"[5,0]","action_history":"[0]","door_history":"[1]","location_rts":"[4064]","trial_type":"two-door-navigation","trial_index":10,"time_elapsed":1188389,"internal_node_id":"0.0-2.0-8.0"},{"group":"hexagon_bi","room_assignment":["yellow","grey","green","red","purple","blue"],"door_color_assignment":["white","black"],"door_generator_assignment":[1,0],"goal":2,"start":0,"action_noise":0,"location_history":"[0,1,2]","action_history":"[1,0]","door_history":"[0,1]","location_rts":"[5714,1564]","trial_type":"two-door-navigation","trial_index":11,"time_elapsed":1201748,"internal_node_id":"0.0-2.0-9.0"},{"group":"hexagon_bi","room_assignment":["yellow","grey","green","red","purple","blue"],"door_color_assignment":["white","black"],"door_generator_assignment":[1,0],"goal":3,"start":2,"action_noise":0,"location_history":"[2,3]","action_history":"[1]","door_history":"[0]","location_rts":"[4049]","trial_type":"two-door-navigation","trial_index":12,"time_elapsed":1211042,"internal_node_id":"0.0-2.0-10.0"},{"group":"hexagon_bi","room_assignment":["yellow","grey","green","red","purple","blue"],"door_color_assignment":["white","black"],"door_generator_assignment":[1,0],"goal":0,"start":3,"action_noise":0,"location_history":"[3,4,5,4,5,4,3,4,3,4,3,2,1,2,3,2,3,2,1,2,1,2,3,4,5,0]","action_history":"[0,1,1,1,1,0,0,0,0,0,1,0,0,1,1,1,1,0,0,0,0,1,0,1,0]","door_history":"[1,0,0,0,0,1,1,1,1,1,0,1,1,0,0,0,0,1,1,1,1,0,1,0,1]","location_rts":"[8965,1398,1095,1061,2116,2032,2231,1505,2520,3062,2400,2124,2752,2822,1384,1011,969,2792,2483,1638,1763,1970,2803,2079,1649]","trial_type":"two-door-navigation","trial_index":13,"time_elapsed":1298449,"internal_node_id":"0.0-2.0-11.0"},{"group":"hexagon_bi","room_assignment":["yellow","grey","green","red","purple","blue"],"door_color_assignment":["white","black"],"door_generator_assignment":[1,0],"goal":2,"start":0,"action_noise":0,"location_history":"[0,1,0,5,0,5,4,3,2]","action_history":"[1,1,0,0,0,1,0,1]","door_history":"[0,0,1,1,1,0,1,0]","location_rts":"[10846,1265,1532,1044,1464,3146,3081,2782]","trial_type":"two-door-navigation","trial_index":14,"time_elapsed":1336159,"internal_node_id":"0.0-2.0-12.0"},{"group":"hexagon_bi","room_assignment":["yellow","grey","green","red","purple","blue"],"door_color_assignment":["white","black"],"door_generator_assignment":[1,0],"goal":5,"start":2,"action_noise":0,"location_history":"[2,1,0,1,0,5]","action_history":"[0,1,1,1,0]","door_history":"[1,0,0,0,1]","location_rts":"[4324,1855,1118,1501,1604]","trial_type":"two-door-navigation","trial_index":15,"time_elapsed":1355748,"internal_node_id":"0.0-2.0-13.0"},{"group":"hexagon_bi","room_assignment":["yellow","grey","green","red","purple","blue"],"door_color_assignment":["white","black"],"door_generator_assignment":[1,0],"goal":4,"start":5,"action_noise":0,"location_history":"[5,4]","action_history":"[1]","door_history":"[0]","location_rts":"[3370]","trial_type":"two-door-navigation","trial_index":16,"time_elapsed":1364175,"internal_node_id":"0.0-2.0-14.0"},{"group":"hexagon_bi","room_assignment":["yellow","grey","green","red","purple","blue"],"door_color_assignment":["white","black"],"door_generator_assignment":[1,0],"goal":3,"start":4,"action_noise":0,"location_history":"[4,3]","action_history":"[0]","door_history":"[1]","location_rts":"[2938]","trial_type":"two-door-navigation","trial_index":17,"time_elapsed":1372152,"internal_node_id":"0.0-2.0-15.0"},{"group":"hexagon_bi","room_assignment":["yellow","grey","green","red","purple","blue"],"door_color_assignment":["white","black"],"door_generator_assignment":[1,0],"goal":1,"start":3,"action_noise":0,"location_history":"[3,2,3,2,1]","action_history":"[1,1,1,0]","door_history":"[0,0,0,1]","location_rts":"[2626,1424,1093,1465]","trial_type":"two-door-navigation","trial_index":18,"time_elapsed":1386944,"internal_node_id":"0.0-2.0-16.0"},{"group":"hexagon_bi","room_assignment":["yellow","grey","green","red","purple","blue"],"door_color_assignment":["white","black"],"door_generator_assignment":[1,0],"goal":5,"start":1,"action_noise":0,"location_history":"[1,2,1,2,3,4,5]","action_history":"[0,0,0,1,0,1]","door_history":"[1,1,1,0,1,0]","location_rts":"[5068,1536,1396,2047,2175,3832]","trial_type":"two-door-navigation","trial_index":19,"time_elapsed":1413206,"internal_node_id":"0.0-2.0-17.0"},{"group":"hexagon_bi","room_assignment":["yellow","grey","green","red","purple","blue"],"door_color_assignment":["white","black"],"door_generator_assignment":[1,0],"goal":4,"start":5,"action_noise":0,"location_history":"[5,0,1,0,1,2,3,4]","action_history":"[0,1,1,1,0,1,0]","door_history":"[1,0,0,0,1,0,1]","location_rts":"[4919,2023,1384,1523,3250,1781,1772]","trial_type":"two-door-navigation","trial_index":20,"time_elapsed":1441118,"internal_node_id":"0.0-2.0-18.0"},{"group":"hexagon_bi","room_assignment":["yellow","grey","green","red","purple","blue"],"door_color_assignment":["white","black"],"door_generator_assignment":[1,0],"goal":0,"start":4,"action_noise":0,"location_history":"[4,5,0]","action_history":"[1,0]","door_history":"[0,1]","location_rts":"[1733,1714]","trial_type":"two-door-navigation","trial_index":21,"time_elapsed":1450647,"internal_node_id":"0.0-2.0-19.0"},{"group":"hexagon_bi","room_assignment":["yellow","grey","green","red","purple","blue"],"door_color_assignment":["white","black"],"door_generator_assignment":[1,0],"goal":1,"start":0,"action_noise":0,"location_history":"[0,5,4,5,0,1]","action_history":"[0,1,1,0,1]","door_history":"[1,0,0,1,0]","location_rts":"[4259,1370,1532,2072,1646]","trial_type":"two-door-navigation","trial_index":22,"time_elapsed":1470699,"internal_node_id":"0.0-2.0-20.0"},{"group":"hexagon_bi","room_assignment":["yellow","grey","green","red","purple","blue"],"door_color_assignment":["white","black"],"door_generator_assignment":[1,0],"goal":3,"start":1,"action_noise":0,"location_history":"[1,2,3]","action_history":"[0,1]","door_history":"[1,0]","location_rts":"[3227,3102]","trial_type":"two-door-navigation","trial_index":23,"time_elapsed":1483100,"internal_node_id":"0.0-2.0-21.0"},{"group":"hexagon_bi","room_assignment":["yellow","grey","green","red","purple","blue"],"door_color_assignment":["white","black"],"door_generator_assignment":[1,0],"goal":2,"start":3,"action_noise":0,"location_history":"[3,2]","action_history":"[1]","door_history":"[0]","location_rts":"[4783]","trial_type":"two-door-navigation","trial_index":24,"time_elapsed":1492932,"internal_node_id":"0.0-2.0-22.0"},{"group":"hexagon_bi","room_assignment":["yellow","grey","green","red","purple","blue"],"door_color_assignment":["white","black"],"door_generator_assignment":[1,0],"goal":0,"start":2,"action_noise":0,"location_history":"[2,1,0]","action_history":"[0,1]","door_history":"[1,0]","location_rts":"[1853,1453]","trial_type":"two-door-navigation","trial_index":25,"time_elapsed":1502319,"internal_node_id":"0.0-2.0-23.0"},{"group":"hexagon_bi","room_assignment":["yellow","grey","green","red","purple","blue"],"door_color_assignment":["white","black"],"door_generator_assignment":[1,0],"goal":3,"start":0,"action_noise":0,"location_history":"[0,5,0,1,2,1,0,1,2,3]","action_history":"[0,0,1,0,0,1,1,0,1]","door_history":"[1,1,0,1,1,0,0,1,0]","location_rts":"[3340,1374,1612,2141,3073,3011,1866,2065,1638]","trial_type":"two-door-navigation","trial_index":26,"time_elapsed":1535750,"internal_node_id":"0.0-2.0-24.0"},{"group":"hexagon_bi","room_assignment":["yellow","grey","green","red","purple","blue"],"door_color_assignment":["white","black"],"door_generator_assignment":[1,0],"goal":1,"start":3,"action_noise":0,"location_history":"[3,2,1]","action_history":"[1,0]","door_history":"[0,1]","location_rts":"[3264,2970]","trial_type":"two-door-navigation","trial_index":27,"time_elapsed":1548060,"internal_node_id":"0.0-2.0-25.0"},{"group":"hexagon_bi","room_assignment":["yellow","grey","green","red","purple","blue"],"door_color_assignment":["white","black"],"door_generator_assignment":[1,0],"goal":2,"start":1,"action_noise":0,"location_history":"[1,0,5,4,3,4,5,0,1,2]","action_history":"[1,0,1,0,0,1,0,1,0]","door_history":"[0,1,0,1,1,0,1,0,1]","location_rts":"[4948,1549,2523,1615,1431,1786,2799,2318,2157]","trial_type":"two-door-navigation","trial_index":28,"time_elapsed":1582524,"internal_node_id":"0.0-2.0-26.0"},{"group":"hexagon_bi","room_assignment":["yellow","grey","green","red","purple","blue"],"door_color_assignment":["white","black"],"door_generator_assignment":[1,0],"goal":5,"start":2,"action_noise":0,"location_history":"[2,3,2,1,0,5]","action_history":"[1,1,0,1,0]","door_history":"[0,0,1,0,1]","location_rts":"[1742,1285,1420,2500,3306]","trial_type":"two-door-navigation","trial_index":29,"time_elapsed":1601957,"internal_node_id":"0.0-2.0-27.0"},{"group":"hexagon_bi","room_assignment":["yellow","grey","green","red","purple","blue"],"door_color_assignment":["white","black"],"door_generator_assignment":[1,0],"goal":4,"start":5,"action_noise":0,"location_history":"[5,0,1,2,1,0,1,2,3,4]","action_history":"[0,1,0,0,1,1,0,1,0]","door_history":"[1,0,1,1,0,0,1,0,1]","location_rts":"[3351,3785,1692,1283,2461,1337,1370,2031,2314]","trial_type":"two-door-navigation","trial_index":30,"time_elapsed":1634913,"internal_node_id":"0.0-2.0-28.0"},{"group":"hexagon_bi","room_assignment":["yellow","grey","green","red","purple","blue"],"door_color_assignment":["white","black"],"door_generator_assignment":[1,0],"goal":5,"start":4,"action_noise":0,"location_history":"[4,3,2,1,0,5]","action_history":"[0,1,0,1,0]","door_history":"[1,0,1,0,1]","location_rts":"[6321,2184,1857,2685,1612]","trial_type":"two-door-navigation","trial_index":31,"time_elapsed":1658784,"internal_node_id":"0.0-2.0-29.0"},{"group":"hexagon_bi","room_assignment":["yellow","grey","green","red","purple","blue"],"door_color_assignment":["white","black"],"door_generator_assignment":[1,0],"goal":3,"start":5,"action_noise":0,"location_history":"[5,4,3]","action_history":"[1,0]","door_history":"[0,1]","location_rts":"[4629,1752]","trial_type":"two-door-navigation","trial_index":32,"time_elapsed":1671257,"internal_node_id":"0.0-2.0-30.0"},{"group":"hexagon_bi","room_assignment":["yellow","grey","green","red","purple","blue"],"door_color_assignment":["white","black"],"door_generator_assignment":[1,0],"goal":0,"start":3,"action_noise":0,"location_history":"[3,2,1,0]","action_history":"[1,0,1]","door_history":"[0,1,0]","location_rts":"[5812,1895,2339]","trial_type":"two-door-navigation","trial_index":33,"time_elapsed":1688422,"internal_node_id":"0.0-2.0-31.0"},{"group":"hexagon_bi","room_assignment":["yellow","grey","green","red","purple","blue"],"door_color_assignment":["white","black"],"door_generator_assignment":[1,0],"goal":4,"start":0,"action_noise":0,"location_history":"[0,5,4]","action_history":"[0,1]","door_history":"[1,0]","location_rts":"[3496,3405]","trial_type":"two-door-navigation","trial_index":34,"time_elapsed":1701405,"internal_node_id":"0.0-2.0-32.0"},{"group":"hexagon_bi","room_assignment":["yellow","grey","green","red","purple","blue"],"door_color_assignment":["white","black"],"door_generator_assignment":[1,0],"goal":1,"start":4,"action_noise":0,"location_history":"[4,5,0,1]","action_history":"[1,0,1]","door_history":"[0,1,0]","location_rts":"[3853,1782,2123]","trial_type":"two-door-navigation","trial_index":35,"time_elapsed":1716278,"internal_node_id":"0.0-2.0-33.0"},{"group":"hexagon_bi","room_assignment":["yellow","grey","green","red","purple","blue"],"door_color_assignment":["white","black"],"door_generator_assignment":[1,0],"goal":2,"start":1,"action_noise":0,"location_history":"[1,2]","action_history":"[0]","door_history":"[1]","location_rts":"[6081]","trial_type":"two-door-navigation","trial_index":36,"time_elapsed":1727399,"internal_node_id":"0.0-2.0-34.0"},{"group":"hexagon_bi","room_assignment":["yellow","grey","green","red","purple","blue"],"door_color_assignment":["white","black"],"door_generator_assignment":[1,0],"goal":0,"start":2,"action_noise":0,"location_history":"[2,1,0]","action_history":"[0,1]","door_history":"[1,0]","location_rts":"[9025,2306]","trial_type":"two-door-navigation","trial_index":37,"time_elapsed":1744810,"internal_node_id":"0.0-2.0-35.0"},{"group":"hexagon_bi","room_assignment":["yellow","grey","green","red","purple","blue"],"door_color_assignment":["white","black"],"door_generator_assignment":[1,0],"goal":5,"start":0,"action_noise":0,"location_history":"[0,5]","action_history":"[0]","door_history":"[1]","location_rts":"[2878]","trial_type":"two-door-navigation","trial_index":38,"time_elapsed":1752737,"internal_node_id":"0.0-2.0-36.0"},{"group":"hexagon_bi","room_assignment":["yellow","grey","green","red","purple","blue"],"door_color_assignment":["white","black"],"door_generator_assignment":[1,0],"goal":2,"start":5,"action_noise":0,"location_history":"[5,0,1,2]","action_history":"[0,1,0]","door_history":"[1,0,1]","location_rts":"[5922,3563,1705]","trial_type":"two-door-navigation","trial_index":39,"time_elapsed":1771073,"internal_node_id":"0.0-2.0-37.0"},{"group":"hexagon_bi","room_assignment":["yellow","grey","green","red","purple","blue"],"door_color_assignment":["white","black"],"door_generator_assignment":[1,0],"goal":1,"start":2,"action_noise":0,"location_history":"[2,3,4,5,4,3,2,1]","action_history":"[1,0,1,1,0,1,0]","door_history":"[0,1,0,0,1,0,1]","location_rts":"[1657,3060,1702,1346,1455,2070,1594]","trial_type":"two-door-navigation","trial_index":40,"time_elapsed":1795222,"internal_node_id":"0.0-2.0-38.0"},{"group":"hexagon_bi","room_assignment":["yellow","grey","green","red","purple","blue"],"door_color_assignment":["white","black"],"door_generator_assignment":[1,0],"goal":4,"start":1,"action_noise":0,"location_history":"[1,2,3,4]","action_history":"[0,1,0]","door_history":"[1,0,1]","location_rts":"[5607,2327,1720]","trial_type":"two-door-navigation","trial_index":41,"time_elapsed":1811984,"internal_node_id":"0.0-2.0-39.0"},{"group":"hexagon_bi","room_assignment":["yellow","grey","green","red","purple","blue"],"door_color_assignment":["white","black"],"door_generator_assignment":[1,0],"goal":3,"start":4,"action_noise":0,"location_history":"[4,3]","action_history":"[0]","door_history":"[1]","location_rts":"[4639]","trial_type":"two-door-navigation","trial_index":42,"time_elapsed":1821670,"internal_node_id":"0.0-2.0-40.0"},{"group":"hexagon_bi","room_assignment":["yellow","grey","green","red","purple","blue"],"door_color_assignment":["white","black"],"door_generator_assignment":[1,0],"goal":5,"start":3,"action_noise":0,"location_history":"[3,4,5]","action_history":"[0,1]","door_history":"[1,0]","location_rts":"[2677,1715]","trial_type":"two-door-navigation","trial_index":43,"time_elapsed":1832133,"internal_node_id":"0.0-2.0-41.0"},{"group":"hexagon_bi","room_assignment":["yellow","grey","green","red","purple","blue"],"door_color_assignment":["white","black"],"door_generator_assignment":[1,0],"goal":3,"start":5,"action_noise":0,"location_history":"[5,0,5,4,5,0,1,2,3]","action_history":"[0,0,1,1,0,1,0,1]","door_history":"[1,1,0,0,1,0,1,0]","location_rts":"[1499,1302,1390,1256,1571,1975,1631,2220]","trial_type":"two-door-navigation","trial_index":44,"time_elapsed":1857241,"internal_node_id":"0.0-2.0-42.0"},{"group":"hexagon_bi","room_assignment":["yellow","grey","green","red","purple","blue"],"door_color_assignment":["white","black"],"door_generator_assignment":[1,0],"goal":0,"start":3,"action_noise":0,"location_history":"[3,4,5,0]","action_history":"[0,1,0]","door_history":"[1,0,1]","location_rts":"[5562,4117,2094]","trial_type":"two-door-navigation","trial_index":45,"time_elapsed":1876146,"internal_node_id":"0.0-2.0-43.0"},{"group":"hexagon_bi","room_assignment":["yellow","grey","green","red","purple","blue"],"door_color_assignment":["white","black"],"door_generator_assignment":[1,0],"goal":2,"start":0,"action_noise":0,"location_history":"[0,1,2]","action_history":"[1,0]","door_history":"[0,1]","location_rts":"[4328,1454]","trial_type":"two-door-navigation","trial_index":46,"time_elapsed":1888026,"internal_node_id":"0.0-2.0-44.0"},{"group":"hexagon_bi","room_assignment":["yellow","grey","green","red","purple","blue"],"door_color_assignment":["white","black"],"door_generator_assignment":[1,0],"goal":4,"start":2,"action_noise":0,"location_history":"[2,3,4]","action_history":"[1,0]","door_history":"[0,1]","location_rts":"[4128,1512]","trial_type":"two-door-navigation","trial_index":47,"time_elapsed":1899756,"internal_node_id":"0.0-2.0-45.0"},{"group":"hexagon_bi","room_assignment":["yellow","grey","green","red","purple","blue"],"door_color_assignment":["white","black"],"door_generator_assignment":[1,0],"goal":1,"start":4,"action_noise":0,"location_history":"[4,5,0,1]","action_history":"[1,0,1]","door_history":"[0,1,0]","location_rts":"[3754,1716,2961]","trial_type":"two-door-navigation","trial_index":48,"time_elapsed":1915317,"internal_node_id":"0.0-2.0-46.0"},{"group":"hexagon_bi","room_assignment":["yellow","grey","green","red","purple","blue"],"door_color_assignment":["white","black"],"door_generator_assignment":[1,0],"goal":4,"start":1,"action_noise":0,"location_history":"[1,2,3,4]","action_history":"[0,1,0]","door_history":"[1,0,1]","location_rts":"[2408,2272,2091]","trial_type":"two-door-navigation","trial_index":49,"time_elapsed":1929189,"internal_node_id":"0.0-2.0-47.0"},{"group":"hexagon_bi","room_assignment":["yellow","grey","green","red","purple","blue"],"door_color_assignment":["white","black"],"door_generator_assignment":[1,0],"goal":3,"start":4,"action_noise":0,"location_history":"[4,5,0,1,2,3]","action_history":"[1,0,1,0,1]","door_history":"[0,1,0,1,0]","location_rts":"[3555,1626,2043,2097,2555]","trial_type":"two-door-navigation","trial_index":50,"time_elapsed":1950262,"internal_node_id":"0.0-2.0-48.0"},{"group":"hexagon_bi","room_assignment":["yellow","grey","green","red","purple","blue"],"door_color_assignment":["white","black"],"door_generator_assignment":[1,0],"goal":5,"start":3,"action_noise":0,"location_history":"[3,4,5]","action_history":"[0,1]","door_history":"[1,0]","location_rts":"[3417,4992]","trial_type":"two-door-navigation","trial_index":51,"time_elapsed":1964751,"internal_node_id":"0.0-2.0-49.0"},{"view_history":"[{\"page_index\":0,\"viewing_time\":4904}]","rt":4905,"trial_type":"instructions","trial_index":52,"time_elapsed":1970657,"internal_node_id":"0.0-3.0"},{"view_history":"[{\"page_index\":0,\"viewing_time\":12226},{\"page_index\":1,\"viewing_time\":20772}]","rt":32999,"trial_type":"instructions","trial_index":53,"time_elapsed":2004657,"internal_node_id":"0.0-4.0"},{"group":"hexagon_bi","fractal_assignment":["../images/gry_blk.png","../images/cyn_red.png","../images/ylw_slt.png","../images/org_blu.png","../images/blu_wht.png","../images/pnk_blu.png"],"mutagen_generator_assignment":[0,1],"goal":4,"start":0,"action_noise":0,"location_history":"[0,5,4]","action_history":"[0,1]","mutagen_history":"[0,1]","location_rts":"[5694,2693]","trial_type":"fractal-mutation","trial_index":54,"time_elapsed":2019240,"internal_node_id":"0.0-5.0-0.0"},{"group":"hexagon_bi","fractal_assignment":["../images/gry_blk.png","../images/cyn_red.png","../images/ylw_slt.png","../images/org_blu.png","../images/blu_wht.png","../images/pnk_blu.png"],"mutagen_generator_assignment":[0,1],"goal":3,"start":4,"action_noise":0,"location_history":"[4,3]","action_history":"[0]","mutagen_history":"[0]","location_rts":"[4063]","trial_type":"fractal-mutation","trial_index":55,"time_elapsed":2028377,"internal_node_id":"0.0-5.0-1.0"},{"group":"hexagon_bi","fractal_assignment":["../images/gry_blk.png","../images/cyn_red.png","../images/ylw_slt.png","../images/org_blu.png","../images/blu_wht.png","../images/pnk_blu.png"],"mutagen_generator_assignment":[0,1],"goal":5,"start":3,"action_noise":0,"location_history":"[3,2,1,2,3,2,3,4,5]","action_history":"[1,0,0,1,1,1,0,1]","mutagen_history":"[1,0,0,1,1,1,0,1]","location_rts":"[5493,1504,1254,1570,721,816,1392,1559]","trial_type":"fractal-mutation","trial_index":56,"time_elapsed":2055499,"internal_node_id":"0.0-5.0-2.0"},{"group":"hexagon_bi","fractal_assignment":["../images/gry_blk.png","../images/cyn_red.png","../images/ylw_slt.png","../images/org_blu.png","../images/blu_wht.png","../images/pnk_blu.png"],"mutagen_generator_assignment":[0,1],"goal":2,"start":5,"action_noise":0,"location_history":"[5,4,3,2]","action_history":"[1,0,1]","mutagen_history":"[1,0,1]","location_rts":"[7513,1034,1604]","trial_type":"fractal-mutation","trial_index":57,"time_elapsed":2072940,"internal_node_id":"0.0-5.0-3.0"},{"group":"hexagon_bi","fractal_assignment":["../images/gry_blk.png","../images/cyn_red.png","../images/ylw_slt.png","../images/org_blu.png","../images/blu_wht.png","../images/pnk_blu.png"],"mutagen_generator_assignment":[0,1],"goal":1,"start":2,"action_noise":0,"location_history":"[2,3,4,3,2,3,4,3,4,5,4,5,0,5,4,5,4,3,4,5,4,3,4,3,4,5,4,5,0,1]","action_history":"[1,0,0,1,1,0,0,0,1,1,1,0,0,1,1,1,0,0,1,1,0,0,0,0,1,1,1,0,1]","mutagen_history":"[1,0,0,1,1,0,0,0,1,1,1,0,0,1,1,1,0,0,1,1,0,0,0,0,1,1,1,0,1]","location_rts":"[4336,206,1396,1259,1144,1666,1168,1176,1348,1664,1368,927,1638,1303,820,724,1585,1167,1234,1054,1019,887,848,722,951,726,678,1623,1058]","trial_type":"fractal-mutation","trial_index":58,"time_elapsed":2144203,"internal_node_id":"0.0-5.0-4.0"},{"group":"hexagon_bi","fractal_assignment":["../images/gry_blk.png","../images/cyn_red.png","../images/ylw_slt.png","../images/org_blu.png","../images/blu_wht.png","../images/pnk_blu.png"],"mutagen_generator_assignment":[0,1],"goal":4,"start":1,"action_noise":0,"location_history":"[1,0,5,0,1,0,5,4]","action_history":"[1,0,0,1,1,0,1]","mutagen_history":"[1,0,0,1,1,0,1]","location_rts":"[4101,984,2093,833,1337,1163,2022]","trial_type":"fractal-mutation","trial_index":59,"time_elapsed":2168292,"internal_node_id":"0.0-5.0-5.0"},{"group":"hexagon_bi","fractal_assignment":["../images/gry_blk.png","../images/cyn_red.png","../images/ylw_slt.png","../images/org_blu.png","../images/blu_wht.png","../images/pnk_blu.png"],"mutagen_generator_assignment":[0,1],"goal":1,"start":4,"action_noise":0,"location_history":"[4,5,0,1]","action_history":"[1,0,1]","mutagen_history":"[1,0,1]","location_rts":"[2181,2201,615]","trial_type":"fractal-mutation","trial_index":60,"time_elapsed":2180549,"internal_node_id":"0.0-5.0-6.0"},{"group":"hexagon_bi","fractal_assignment":["../images/gry_blk.png","../images/cyn_red.png","../images/ylw_slt.png","../images/org_blu.png","../images/blu_wht.png","../images/pnk_blu.png"],"mutagen_generator_assignment":[0,1],"goal":5,"start":1,"action_noise":0,"location_history":"[1,2,3,4,5]","action_history":"[0,1,0,1]","mutagen_history":"[0,1,0,1]","location_rts":"[3145,1291,996,893]","trial_type":"fractal-mutation","trial_index":61,"time_elapsed":2195187,"internal_node_id":"0.0-5.0-7.0"},{"group":"hexagon_bi","fractal_assignment":["../images/gry_blk.png","../images/cyn_red.png","../images/ylw_slt.png","../images/org_blu.png","../images/blu_wht.png","../images/pnk_blu.png"],"mutagen_generator_assignment":[0,1],"goal":0,"start":5,"action_noise":0,"location_history":"[5,4,3,4,3,2,1,2,1,0]","action_history":"[1,0,0,0,1,0,0,0,1]","mutagen_history":"[1,0,0,0,1,0,0,0,1]","location_rts":"[1226,1552,589,2381,64,1710,1221,1416,642]","trial_type":"fractal-mutation","trial_index":62,"time_elapsed":2219662,"internal_node_id":"0.0-5.0-8.0"},{"group":"hexagon_bi","fractal_assignment":["../images/gry_blk.png","../images/cyn_red.png","../images/ylw_slt.png","../images/org_blu.png","../images/blu_wht.png","../images/pnk_blu.png"],"mutagen_generator_assignment":[0,1],"goal":2,"start":0,"action_noise":0,"location_history":"[0,5,4,3,4,5,4,5,0,1,0,5,4,3,2]","action_history":"[0,1,0,0,1,1,1,0,1,1,0,1,0,1]","mutagen_history":"[0,1,0,0,1,1,1,0,1,1,0,1,0,1]","location_rts":"[1681,2503,1093,984,573,747,1198,948,2873,1511,1316,906,1120,1146]","trial_type":"fractal-mutation","trial_index":63,"time_elapsed":2257445,"internal_node_id":"0.0-5.0-9.0"},{"group":"hexagon_bi","fractal_assignment":["../images/gry_blk.png","../images/cyn_red.png","../images/ylw_slt.png","../images/org_blu.png","../images/blu_wht.png","../images/pnk_blu.png"],"mutagen_generator_assignment":[0,1],"goal":3,"start":2,"action_noise":0,"location_history":"[2,3]","action_history":"[1]","mutagen_history":"[1]","location_rts":"[1023]","trial_type":"fractal-mutation","trial_index":64,"time_elapsed":2263577,"internal_node_id":"0.0-5.0-10.0"},{"group":"hexagon_bi","fractal_assignment":["../images/gry_blk.png","../images/cyn_red.png","../images/ylw_slt.png","../images/org_blu.png","../images/blu_wht.png","../images/pnk_blu.png"],"mutagen_generator_assignment":[0,1],"goal":0,"start":3,"action_noise":0,"location_history":"[3,4,5,0]","action_history":"[0,1,0]","mutagen_history":"[0,1,0]","location_rts":"[2691,984,1373]","trial_type":"fractal-mutation","trial_index":65,"time_elapsed":2275854,"internal_node_id":"0.0-5.0-11.0"},{"group":"hexagon_bi","fractal_assignment":["../images/gry_blk.png","../images/cyn_red.png","../images/ylw_slt.png","../images/org_blu.png","../images/blu_wht.png","../images/pnk_blu.png"],"mutagen_generator_assignment":[0,1],"goal":2,"start":0,"action_noise":0,"location_history":"[0,5,4,3,2]","action_history":"[0,1,0,1]","mutagen_history":"[0,1,0,1]","location_rts":"[2749,1171,1205,783]","trial_type":"fractal-mutation","trial_index":66,"time_elapsed":2290147,"internal_node_id":"0.0-5.0-12.0"},{"group":"hexagon_bi","fractal_assignment":["../images/gry_blk.png","../images/cyn_red.png","../images/ylw_slt.png","../images/org_blu.png","../images/blu_wht.png","../images/pnk_blu.png"],"mutagen_generator_assignment":[0,1],"goal":5,"start":2,"action_noise":0,"location_history":"[2,3,4,5]","action_history":"[1,0,1]","mutagen_history":"[1,0,1]","location_rts":"[2950,666,740]","trial_type":"fractal-mutation","trial_index":67,"time_elapsed":2301800,"internal_node_id":"0.0-5.0-13.0"},{"group":"hexagon_bi","fractal_assignment":["../images/gry_blk.png","../images/cyn_red.png","../images/ylw_slt.png","../images/org_blu.png","../images/blu_wht.png","../images/pnk_blu.png"],"mutagen_generator_assignment":[0,1],"goal":4,"start":5,"action_noise":0,"location_history":"[5,4]","action_history":"[1]","mutagen_history":"[1]","location_rts":"[983]","trial_type":"fractal-mutation","trial_index":68,"time_elapsed":2307891,"internal_node_id":"0.0-5.0-14.0"},{"group":"hexagon_bi","fractal_assignment":["../images/gry_blk.png","../images/cyn_red.png","../images/ylw_slt.png","../images/org_blu.png","../images/blu_wht.png","../images/pnk_blu.png"],"mutagen_generator_assignment":[0,1],"goal":3,"start":4,"action_noise":0,"location_history":"[4,5,0,5,4,3]","action_history":"[1,0,0,1,0]","mutagen_history":"[1,0,0,1,0]","location_rts":"[2047,511,980,666,585]","trial_type":"fractal-mutation","trial_index":69,"time_elapsed":2322040,"internal_node_id":"0.0-5.0-15.0"},{"group":"hexagon_bi","fractal_assignment":["../images/gry_blk.png","../images/cyn_red.png","../images/ylw_slt.png","../images/org_blu.png","../images/blu_wht.png","../images/pnk_blu.png"],"mutagen_generator_assignment":[0,1],"goal":1,"start":3,"action_noise":0,"location_history":"[3,2,1]","action_history":"[1,0]","mutagen_history":"[1,0]","location_rts":"[2167,637]","trial_type":"fractal-mutation","trial_index":70,"time_elapsed":2331007,"internal_node_id":"0.0-5.0-16.0"},{"group":"hexagon_bi","fractal_assignment":["../images/gry_blk.png","../images/cyn_red.png","../images/ylw_slt.png","../images/org_blu.png","../images/blu_wht.png","../images/pnk_blu.png"],"mutagen_generator_assignment":[0,1],"goal":5,"start":1,"action_noise":0,"location_history":"[1,0,5]","action_history":"[1,0]","mutagen_history":"[1,0]","location_rts":"[1947,605]","trial_type":"fractal-mutation","trial_index":71,"time_elapsed":2339760,"internal_node_id":"0.0-5.0-17.0"},{"group":"hexagon_bi","fractal_assignment":["../images/gry_blk.png","../images/cyn_red.png","../images/ylw_slt.png","../images/org_blu.png","../images/blu_wht.png","../images/pnk_blu.png"],"mutagen_generator_assignment":[0,1],"goal":4,"start":5,"action_noise":0,"location_history":"[5,4]","action_history":"[1]","mutagen_history":"[1]","location_rts":"[1793]","trial_type":"fractal-mutation","trial_index":72,"time_elapsed":2346638,"internal_node_id":"0.0-5.0-18.0"},{"group":"hexagon_bi","fractal_assignment":["../images/gry_blk.png","../images/cyn_red.png","../images/ylw_slt.png","../images/org_blu.png","../images/blu_wht.png","../images/pnk_blu.png"],"mutagen_generator_assignment":[0,1],"goal":0,"start":4,"action_noise":0,"location_history":"[4,3,2,1,0]","action_history":"[0,1,0,1]","mutagen_history":"[0,1,0,1]","location_rts":"[1749,730,984,970]","trial_type":"fractal-mutation","trial_index":73,"time_elapsed":2359376,"internal_node_id":"0.0-5.0-19.0"},{"group":"hexagon_bi","fractal_assignment":["../images/gry_blk.png","../images/cyn_red.png","../images/ylw_slt.png","../images/org_blu.png","../images/blu_wht.png","../images/pnk_blu.png"],"mutagen_generator_assignment":[0,1],"goal":1,"start":0,"action_noise":0,"location_history":"[0,1]","action_history":"[1]","mutagen_history":"[1]","location_rts":"[1107]","trial_type":"fractal-mutation","trial_index":74,"time_elapsed":2365583,"internal_node_id":"0.0-5.0-20.0"},{"group":"hexagon_bi","fractal_assignment":["../images/gry_blk.png","../images/cyn_red.png","../images/ylw_slt.png","../images/org_blu.png","../images/blu_wht.png","../images/pnk_blu.png"],"mutagen_generator_assignment":[0,1],"goal":3,"start":1,"action_noise":0,"location_history":"[1,2,3]","action_history":"[0,1]","mutagen_history":"[0,1]","location_rts":"[1951,685]","trial_type":"fractal-mutation","trial_index":75,"time_elapsed":2374389,"internal_node_id":"0.0-5.0-21.0"},{"group":"hexagon_bi","fractal_assignment":["../images/gry_blk.png","../images/cyn_red.png","../images/ylw_slt.png","../images/org_blu.png","../images/blu_wht.png","../images/pnk_blu.png"],"mutagen_generator_assignment":[0,1],"goal":2,"start":3,"action_noise":0,"location_history":"[3,4,5,0,1,0,5,0,1,0,1,2]","action_history":"[0,1,0,1,1,0,0,1,1,1,0]","mutagen_history":"[0,1,0,1,1,0,0,1,1,1,0]","location_rts":"[3740,752,918,793,1170,2022,2582,1589,1056,872,568]","trial_type":"fractal-mutation","trial_index":76,"time_elapsed":2406520,"internal_node_id":"0.0-5.0-22.0"},{"group":"hexagon_bi","fractal_assignment":["../images/gry_blk.png","../images/cyn_red.png","../images/ylw_slt.png","../images/org_blu.png","../images/blu_wht.png","../images/pnk_blu.png"],"mutagen_generator_assignment":[0,1],"goal":0,"start":2,"action_noise":0,"location_history":"[2,3,4,3,2,1,0]","action_history":"[1,0,0,1,0,1]","mutagen_history":"[1,0,0,1,0,1]","location_rts":"[744,881,965,1191,867,1097]","trial_type":"fractal-mutation","trial_index":77,"time_elapsed":2422792,"internal_node_id":"0.0-5.0-23.0"},{"group":"hexagon_bi","fractal_assignment":["../images/gry_blk.png","../images/cyn_red.png","../images/ylw_slt.png","../images/org_blu.png","../images/blu_wht.png","../images/pnk_blu.png"],"mutagen_generator_assignment":[0,1],"goal":3,"start":0,"action_noise":0,"location_history":"[0,1,2,3]","action_history":"[1,0,1]","mutagen_history":"[1,0,1]","location_rts":"[1747,623,822]","trial_type":"fractal-mutation","trial_index":78,"time_elapsed":2433269,"internal_node_id":"0.0-5.0-24.0"},{"group":"hexagon_bi","fractal_assignment":["../images/gry_blk.png","../images/cyn_red.png","../images/ylw_slt.png","../images/org_blu.png","../images/blu_wht.png","../images/pnk_blu.png"],"mutagen_generator_assignment":[0,1],"goal":1,"start":3,"action_noise":0,"location_history":"[3,2,1]","action_history":"[1,0]","mutagen_history":"[1,0]","location_rts":"[4317,685]","trial_type":"fractal-mutation","trial_index":79,"time_elapsed":2444435,"internal_node_id":"0.0-5.0-25.0"},{"group":"hexagon_bi","fractal_assignment":["../images/gry_blk.png","../images/cyn_red.png","../images/ylw_slt.png","../images/org_blu.png","../images/blu_wht.png","../images/pnk_blu.png"],"mutagen_generator_assignment":[0,1],"goal":2,"start":1,"action_noise":0,"location_history":"[1,2]","action_history":"[0]","mutagen_history":"[0]","location_rts":"[1799]","trial_type":"fractal-mutation","trial_index":80,"time_elapsed":2451315,"internal_node_id":"0.0-5.0-26.0"},{"group":"hexagon_bi","fractal_assignment":["../images/gry_blk.png","../images/cyn_red.png","../images/ylw_slt.png","../images/org_blu.png","../images/blu_wht.png","../images/pnk_blu.png"],"mutagen_generator_assignment":[0,1],"goal":5,"start":2,"action_noise":0,"location_history":"[2,3,4,5]","action_history":"[1,0,1]","mutagen_history":"[1,0,1]","location_rts":"[1823,717,678]","trial_type":"fractal-mutation","trial_index":81,"time_elapsed":2461855,"internal_node_id":"0.0-5.0-27.0"},{"group":"hexagon_bi","fractal_assignment":["../images/gry_blk.png","../images/cyn_red.png","../images/ylw_slt.png","../images/org_blu.png","../images/blu_wht.png","../images/pnk_blu.png"],"mutagen_generator_assignment":[0,1],"goal":4,"start":5,"action_noise":0,"location_history":"[5,4]","action_history":"[1]","mutagen_history":"[1]","location_rts":"[2362]","trial_type":"fractal-mutation","trial_index":82,"time_elapsed":2469327,"internal_node_id":"0.0-5.0-28.0"},{"group":"hexagon_bi","fractal_assignment":["../images/gry_blk.png","../images/cyn_red.png","../images/ylw_slt.png","../images/org_blu.png","../images/blu_wht.png","../images/pnk_blu.png"],"mutagen_generator_assignment":[0,1],"goal":5,"start":4,"action_noise":0,"location_history":"[4,5]","action_history":"[1]","mutagen_history":"[1]","location_rts":"[792]","trial_type":"fractal-mutation","trial_index":83,"time_elapsed":2475274,"internal_node_id":"0.0-5.0-29.0"},{"group":"hexagon_bi","fractal_assignment":["../images/gry_blk.png","../images/cyn_red.png","../images/ylw_slt.png","../images/org_blu.png","../images/blu_wht.png","../images/pnk_blu.png"],"mutagen_generator_assignment":[0,1],"goal":3,"start":5,"action_noise":0,"location_history":"[5,0,1,2,3]","action_history":"[0,1,0,1]","mutagen_history":"[0,1,0,1]","location_rts":"[1560,870,657,1935]","trial_type":"fractal-mutation","trial_index":84,"time_elapsed":2488662,"internal_node_id":"0.0-5.0-30.0"},{"group":"hexagon_bi","fractal_assignment":["../images/gry_blk.png","../images/cyn_red.png","../images/ylw_slt.png","../images/org_blu.png","../images/blu_wht.png","../images/pnk_blu.png"],"mutagen_generator_assignment":[0,1],"goal":0,"start":3,"action_noise":0,"location_history":"[3,2,1,2,3,4,3,2,3,4,3,2,3,4,3,4,5,4,5,0]","action_history":"[1,0,0,1,0,0,1,1,0,0,1,1,0,0,0,1,1,1,0]","mutagen_history":"[1,0,0,1,0,0,1,1,0,0,1,1,0,0,0,1,1,1,0]","location_rts":"[925,620,976,884,856,1634,2883,587,866,1939,1356,1368,1447,1274,796,1368,645,845,899]","trial_type":"fractal-mutation","trial_index":85,"time_elapsed":2535304,"internal_node_id":"0.0-5.0-31.0"},{"group":"hexagon_bi","fractal_assignment":["../images/gry_blk.png","../images/cyn_red.png","../images/ylw_slt.png","../images/org_blu.png","../images/blu_wht.png","../images/pnk_blu.png"],"mutagen_generator_assignment":[0,1],"goal":4,"start":0,"action_noise":0,"location_history":"[0,1,2,3,2,1,2,3,2,3,4]","action_history":"[1,0,1,1,0,0,1,1,1,0]","mutagen_history":"[1,0,1,1,0,0,1,1,1,0]","location_rts":"[992,5069,679,1053,1114,1298,1162,978,1753,478]","trial_type":"fractal-mutation","trial_index":86,"time_elapsed":2564713,"internal_node_id":"0.0-5.0-32.0"},{"group":"hexagon_bi","fractal_assignment":["../images/gry_blk.png","../images/cyn_red.png","../images/ylw_slt.png","../images/org_blu.png","../images/blu_wht.png","../images/pnk_blu.png"],"mutagen_generator_assignment":[0,1],"goal":1,"start":4,"action_noise":0,"location_history":"[4,5,0,1]","action_history":"[1,0,1]","mutagen_history":"[1,0,1]","location_rts":"[2656,718,1891]","trial_type":"fractal-mutation","trial_index":87,"time_elapsed":2577249,"internal_node_id":"0.0-5.0-33.0"},{"group":"hexagon_bi","fractal_assignment":["../images/gry_blk.png","../images/cyn_red.png","../images/ylw_slt.png","../images/org_blu.png","../images/blu_wht.png","../images/pnk_blu.png"],"mutagen_generator_assignment":[0,1],"goal":2,"start":1,"action_noise":0,"location_history":"[1,2]","action_history":"[0]","mutagen_history":"[0]","location_rts":"[1930]","trial_type":"fractal-mutation","trial_index":88,"time_elapsed":2584261,"internal_node_id":"0.0-5.0-34.0"},{"group":"hexagon_bi","fractal_assignment":["../images/gry_blk.png","../images/cyn_red.png","../images/ylw_slt.png","../images/org_blu.png","../images/blu_wht.png","../images/pnk_blu.png"],"mutagen_generator_assignment":[0,1],"goal":0,"start":2,"action_noise":0,"location_history":"[2,1,0]","action_history":"[0,1]","mutagen_history":"[0,1]","location_rts":"[1698,1040]","trial_type":"fractal-mutation","trial_index":89,"time_elapsed":2593177,"internal_node_id":"0.0-5.0-35.0"},{"group":"hexagon_bi","fractal_assignment":["../images/gry_blk.png","../images/cyn_red.png","../images/ylw_slt.png","../images/org_blu.png","../images/blu_wht.png","../images/pnk_blu.png"],"mutagen_generator_assignment":[0,1],"goal":5,"start":0,"action_noise":0,"location_history":"[0,1,2,3,2,1,0,1,2,3,2,1,2,3,2,3,2,3,2,1,2,3,2,1,0,5]","action_history":"[1,0,1,1,0,1,1,0,1,1,0,0,1,1,1,1,1,1,0,0,1,1,0,1,0]","mutagen_history":"[1,0,1,1,0,1,1,0,1,1,0,0,1,1,1,1,1,1,0,0,1,1,0,1,0]","location_rts":"[1711,681,1305,1709,475,1369,1384,443,1429,1446,1011,905,530,1259,2390,633,2326,1460,432,1136,2099,1404,2086,773,1603]","trial_type":"fractal-mutation","trial_index":90,"time_elapsed":2656439,"internal_node_id":"0.0-5.0-36.0"},{"group":"hexagon_bi","fractal_assignment":["../images/gry_blk.png","../images/cyn_red.png","../images/ylw_slt.png","../images/org_blu.png","../images/blu_wht.png","../images/pnk_blu.png"],"mutagen_generator_assignment":[0,1],"goal":2,"start":5,"action_noise":0,"location_history":"[5,0,1,0,5,4,3,2]","action_history":"[0,1,1,0,1,0,1]","mutagen_history":"[0,1,1,0,1,0,1]","location_rts":"[8449,1098,1544,2339,2111,1995,1159]","trial_type":"fractal-mutation","trial_index":91,"time_elapsed":2686748,"internal_node_id":"0.0-5.0-37.0"},{"group":"hexagon_bi","fractal_assignment":["../images/gry_blk.png","../images/cyn_red.png","../images/ylw_slt.png","../images/org_blu.png","../images/blu_wht.png","../images/pnk_blu.png"],"mutagen_generator_assignment":[0,1],"goal":1,"start":2,"action_noise":0,"location_history":"[2,3,4,5,0,1]","action_history":"[1,0,1,0,1]","mutagen_history":"[1,0,1,0,1]","location_rts":"[3406,1254,1636,1096,1858]","trial_type":"fractal-mutation","trial_index":92,"time_elapsed":2705387,"internal_node_id":"0.0-5.0-38.0"},{"group":"hexagon_bi","fractal_assignment":["../images/gry_blk.png","../images/cyn_red.png","../images/ylw_slt.png","../images/org_blu.png","../images/blu_wht.png","../images/pnk_blu.png"],"mutagen_generator_assignment":[0,1],"goal":4,"start":1,"action_noise":0,"location_history":"[1,0,5,4]","action_history":"[1,0,1]","mutagen_history":"[1,0,1]","location_rts":"[2427,814,2322]","trial_type":"fractal-mutation","trial_index":93,"time_elapsed":2718222,"internal_node_id":"0.0-5.0-39.0"},{"group":"hexagon_bi","fractal_assignment":["../images/gry_blk.png","../images/cyn_red.png","../images/ylw_slt.png","../images/org_blu.png","../images/blu_wht.png","../images/pnk_blu.png"],"mutagen_generator_assignment":[0,1],"goal":3,"start":4,"action_noise":0,"location_history":"[4,5,0,5,4,3]","action_history":"[1,0,0,1,0]","mutagen_history":"[1,0,0,1,0]","location_rts":"[1962,752,1219,811,1047]","trial_type":"fractal-mutation","trial_index":94,"time_elapsed":2733365,"internal_node_id":"0.0-5.0-40.0"},{"group":"hexagon_bi","fractal_assignment":["../images/gry_blk.png","../images/cyn_red.png","../images/ylw_slt.png","../images/org_blu.png","../images/blu_wht.png","../images/pnk_blu.png"],"mutagen_generator_assignment":[0,1],"goal":5,"start":3,"action_noise":0,"location_history":"[3,2,1,0,5]","action_history":"[1,0,1,0]","mutagen_history":"[1,0,1,0]","location_rts":"[3140,1059,1405,1365]","trial_type":"fractal-mutation","trial_index":95,"time_elapsed":2748677,"internal_node_id":"0.0-5.0-41.0"},{"group":"hexagon_bi","fractal_assignment":["../images/gry_blk.png","../images/cyn_red.png","../images/ylw_slt.png","../images/org_blu.png","../images/blu_wht.png","../images/pnk_blu.png"],"mutagen_generator_assignment":[0,1],"goal":3,"start":5,"action_noise":0,"location_history":"[5,0,1,2,3]","action_history":"[0,1,0,1]","mutagen_history":"[0,1,0,1]","location_rts":"[2894,751,1134,1883]","trial_type":"fractal-mutation","trial_index":96,"time_elapsed":2763667,"internal_node_id":"0.0-5.0-42.0"},{"group":"hexagon_bi","fractal_assignment":["../images/gry_blk.png","../images/cyn_red.png","../images/ylw_slt.png","../images/org_blu.png","../images/blu_wht.png","../images/pnk_blu.png"],"mutagen_generator_assignment":[0,1],"goal":0,"start":3,"action_noise":0,"location_history":"[3,2,1,0]","action_history":"[1,0,1]","mutagen_history":"[1,0,1]","location_rts":"[4220,794,1670]","trial_type":"fractal-mutation","trial_index":97,"time_elapsed":2777624,"internal_node_id":"0.0-5.0-43.0"},{"group":"hexagon_bi","fractal_assignment":["../images/gry_blk.png","../images/cyn_red.png","../images/ylw_slt.png","../images/org_blu.png","../images/blu_wht.png","../images/pnk_blu.png"],"mutagen_generator_assignment":[0,1],"goal":2,"start":0,"action_noise":0,"location_history":"[0,1,2]","action_history":"[1,0]","mutagen_history":"[1,0]","location_rts":"[2072,986]","trial_type":"fractal-mutation","trial_index":98,"time_elapsed":2786856,"internal_node_id":"0.0-5.0-44.0"},{"group":"hexagon_bi","fractal_assignment":["../images/gry_blk.png","../images/cyn_red.png","../images/ylw_slt.png","../images/org_blu.png","../images/blu_wht.png","../images/pnk_blu.png"],"mutagen_generator_assignment":[0,1],"goal":4,"start":2,"action_noise":0,"location_history":"[2,1,0,1,2,3,4]","action_history":"[0,1,1,0,1,0]","mutagen_history":"[0,1,1,0,1,0]","location_rts":"[2906,1142,1129,1018,1945,931]","trial_type":"fractal-mutation","trial_index":99,"time_elapsed":2806401,"internal_node_id":"0.0-5.0-45.0"},{"group":"hexagon_bi","fractal_assignment":["../images/gry_blk.png","../images/cyn_red.png","../images/ylw_slt.png","../images/org_blu.png","../images/blu_wht.png","../images/pnk_blu.png"],"mutagen_generator_assignment":[0,1],"goal":1,"start":4,"action_noise":0,"location_history":"[4,5,0,1]","action_history":"[1,0,1]","mutagen_history":"[1,0,1]","location_rts":"[4189,668,1619]","trial_type":"fractal-mutation","trial_index":100,"time_elapsed":2820150,"internal_node_id":"0.0-5.0-46.0"},{"group":"hexagon_bi","fractal_assignment":["../images/gry_blk.png","../images/cyn_red.png","../images/ylw_slt.png","../images/org_blu.png","../images/blu_wht.png","../images/pnk_blu.png"],"mutagen_generator_assignment":[0,1],"goal":4,"start":1,"action_noise":0,"location_history":"[1,0,5,4]","action_history":"[1,0,1]","mutagen_history":"[1,0,1]","location_rts":"[2425,800,1253]","trial_type":"fractal-mutation","trial_index":101,"time_elapsed":2831868,"internal_node_id":"0.0-5.0-47.0"},{"group":"hexagon_bi","fractal_assignment":["../images/gry_blk.png","../images/cyn_red.png","../images/ylw_slt.png","../images/org_blu.png","../images/blu_wht.png","../images/pnk_blu.png"],"mutagen_generator_assignment":[0,1],"goal":3,"start":4,"action_noise":0,"location_history":"[4,3]","action_history":"[0]","mutagen_history":"[0]","location_rts":"[1966]","trial_type":"fractal-mutation","trial_index":102,"time_elapsed":2838947,"internal_node_id":"0.0-5.0-48.0"},{"group":"hexagon_bi","fractal_assignment":["../images/gry_blk.png","../images/cyn_red.png","../images/ylw_slt.png","../images/org_blu.png","../images/blu_wht.png","../images/pnk_blu.png"],"mutagen_generator_assignment":[0,1],"goal":5,"start":3,"action_noise":0,"location_history":"[3,2,1,0,5]","action_history":"[1,0,1,0]","mutagen_history":"[1,0,1,0]","location_rts":"[4491,741,2170,828]","trial_type":"fractal-mutation","trial_index":103,"time_elapsed":2855579,"internal_node_id":"0.0-5.0-49.0"},{"view_history":"[{\"page_index\":0,\"viewing_time\":25664}]","rt":25665,"trial_type":"instructions","trial_index":104,"time_elapsed":2882246,"internal_node_id":"0.0-6.0"},{"rt":8704,"responses":"{\"Q0\":\"\"}","trial_type":"survey-text","trial_index":105,"time_elapsed":2891966,"internal_node_id":"0.0-7.0"}]