[{"view_history":"[{\"page_index\":0,\"viewing_time\":3310},{\"page_index\":1,\"viewing_time\":28197},{\"page_index\":2,\"viewing_time\":112809}]","rt":144316,"trial_type":"instructions","trial_index":0,"time_elapsed":144316,"internal_node_id":"0.0-0.0"},{"view_history":"[{\"page_index\":0,\"viewing_time\":14837},{\"page_index\":1,\"viewing_time\":72605}]","rt":87442,"trial_type":"instructions","trial_index":1,"time_elapsed":232760,"internal_node_id":"0.0-1.0"},{"group":"hexagon_bi","room_assignment":["yellow","purple","green","grey","blue","red"],"door_color_assignment":["black","white"],"door_generator_assignment":[0,1],"goal":4,"start":0,"action_noise":0,"location_history":"[0,5,0,5,0,5,4]","action_history":"[0,0,0,0,0,1]","door_history":"[0,0,0,0,0,1]","location_rts":"[1899,1021,972,1431,572,894]","trial_type":"two-door-navigation","trial_index":2,"time_elapsed":249689,"internal_node_id":"0.0-2.0-0.0"},{"group":"hexagon_bi","room_assignment":["yellow","purple","green","grey","blue","red"],"door_color_assignment":["black","white"],"door_generator_assignment":[0,1],"goal":3,"start":4,"action_noise":0,"location_history":"[4,5,0,1,0,5,0,1,0,1,2,1,2,1,2,1,0,1,0,1,0,5,0,5,4,5,4,5,4,3]","action_history":"[1,0,1,1,0,0,1,1,1,0,0,0,0,0,0,1,1,1,1,1,0,0,0,1,1,1,1,1,0]","door_history":"[1,0,1,1,0,0,1,1,1,0,0,0,0,0,0,1,1,1,1,1,0,0,0,1,1,1,1,1,0]","location_rts":"[2104,757,797,674,802,425,1013,413,530,1089,414,500,466,408,814,468,408,408,499,1175,313,15726,457,803,741,599,414,986,900]","trial_type":"two-door-navigation","trial_index":3,"time_elapsed":318380,"internal_node_id":"0.0-2.0-1.0"},{"group":"hexagon_bi","room_assignment":["yellow","purple","green","grey","blue","red"],"door_color_assignment":["black","white"],"door_generator_assignment":[0,1],"goal":5,"start":3,"action_noise":0,"location_history":"[3,2,3,4,3,4,5]","action_history":"[1,1,0,0,0,1]","door_history":"[1,1,0,0,0,1]","location_rts":"[1331,371,554,382,376,664]","trial_type":"two-door-navigation","trial_index":4,"time_elapsed":332186,"internal_node_id":"0.0-2.0-2.0"},{"group":"hexagon_bi","room_assignment":["yellow","purple","green","grey","blue","red"],"door_color_assignment":["black","white"],"door_generator_assignment":[0,1],"goal":2,"start":5,"action_noise":0,"location_history":"[5,0,5,4,5,4,3,4,3,2]","action_history":"[0,0,1,1,1,0,0,0,1]","door_history":"[0,0,1,1,1,0,0,0,1]","location_rts":"[740,468,449,595,377,532,440,747,759]","trial_type":"two-door-navigation","trial_index":5,"time_elapsed":350493,"internal_node_id":"0.0-2.0-3.0"},{"group":"hexagon_bi","room_assignment":["yellow","purple","green","grey","blue","red"],"door_color_assignment":["black","white"],"door_generator_assignment":[0,1],"goal":1,"start":2,"action_noise":0,"location_history":"[2,1]","action_history":"[0]","door_history":"[0]","location_rts":"[1552]","trial_type":"two-door-navigation","trial_index":6,"time_elapsed":357070,"internal_node_id":"0.0-2.0-4.0"},{"group":"hexagon_bi","room_assignment":["yellow","purple","green","grey","blue","red"],"door_color_assignment":["black","white"],"door_generator_assignment":[0,1],"goal":4,"start":1,"action_noise":0,"location_history":"[1,0,5,0,5,0,1,0,1,0,5,0,1,0,1,0,5,0,5,4]","action_history":"[1,0,0,0,0,1,1,1,1,0,0,1,1,1,1,0,0,0,1]","door_history":"[1,0,0,0,0,1,1,1,1,0,0,1,1,1,1,0,0,0,1]","location_rts":"[2191,641,371,417,354,670,363,325,693,656,711,557,304,244,385,1145,476,734,297]","trial_type":"two-door-navigation","trial_index":7,"time_elapsed":392017,"internal_node_id":"0.0-2.0-5.0"},{"group":"hexagon_bi","room_assignment":["yellow","purple","green","grey","blue","red"],"door_color_assignment":["black","white"],"door_generator_assignment":[0,1],"goal":1,"start":4,"action_noise":0,"location_history":"[4,3,2,3,4,3,4,5,4,5,0,1]","action_history":"[0,1,1,0,0,0,1,1,1,0,1]","door_history":"[0,1,1,0,0,0,1,1,1,0,1]","location_rts":"[1407,552,540,468,443,221,374,337,285,429,479]","trial_type":"two-door-navigation","trial_index":8,"time_elapsed":412764,"internal_node_id":"0.0-2.0-6.0"},{"group":"hexagon_bi","room_assignment":["yellow","purple","green","grey","blue","red"],"door_color_assignment":["black","white"],"door_generator_assignment":[0,1],"goal":5,"start":1,"action_noise":0,"location_history":"[1,2,1,0,1,0,5]","action_history":"[0,0,1,1,1,0]","door_history":"[0,0,1,1,1,0]","location_rts":"[1011,362,532,407,639,148]","trial_type":"two-door-navigation","trial_index":9,"time_elapsed":425986,"internal_node_id":"0.0-2.0-7.0"},{"group":"hexagon_bi","room_assignment":["yellow","purple","green","grey","blue","red"],"door_color_assignment":["black","white"],"door_generator_assignment":[0,1],"goal":0,"start":5,"action_noise":0,"location_history":"[5,0]","action_history":"[0]","door_history":"[0]","location_rts":"[1774]","trial_type":"two-door-navigation","trial_index":10,"time_elapsed":432786,"internal_node_id":"0.0-2.0-8.0"},{"group":"hexagon_bi","room_assignment":["yellow","purple","green","grey","blue","red"],"door_color_assignment":["black","white"],"door_generator_assignment":[0,1],"goal":2,"start":0,"action_noise":0,"location_history":"[0,1,0,5,0,1,0,1,2]","action_history":"[1,1,0,0,1,1,1,0]","door_history":"[1,1,0,0,1,1,1,0]","location_rts":"[1949,452,12315,327,120,8120,1546,698]","trial_type":"two-door-navigation","trial_index":11,"time_elapsed":470485,"internal_node_id":"0.0-2.0-9.0"},{"group":"hexagon_bi","room_assignment":["yellow","purple","green","grey","blue","red"],"door_color_assignment":["black","white"],"door_generator_assignment":[0,1],"goal":3,"start":2,"action_noise":0,"location_history":"[2,3]","action_history":"[1]","door_history":"[1]","location_rts":"[1266]","trial_type":"two-door-navigation","trial_index":12,"time_elapsed":476780,"internal_node_id":"0.0-2.0-10.0"},{"group":"hexagon_bi","room_assignment":["yellow","purple","green","grey","blue","red"],"door_color_assignment":["black","white"],"door_generator_assignment":[0,1],"goal":0,"start":3,"action_noise":0,"location_history":"[3,4,3,2,1,2,3,2,1,0]","action_history":"[0,0,1,0,0,1,1,0,1]","door_history":"[0,0,1,0,0,1,1,0,1]","location_rts":"[1149,377,710,690,366,462,528,451,317]","trial_type":"two-door-navigation","trial_index":13,"time_elapsed":495013,"internal_node_id":"0.0-2.0-11.0"},{"group":"hexagon_bi","room_assignment":["yellow","purple","green","grey","blue","red"],"door_color_assignment":["black","white"],"door_generator_assignment":[0,1],"goal":2,"start":0,"action_noise":0,"location_history":"[0,1,0,5,4,5,0,1,2]","action_history":"[1,1,0,1,1,0,1,0]","door_history":"[1,1,0,1,1,0,1,0]","location_rts":"[41819,298,346,764,449,420,700,936]","trial_type":"two-door-navigation","trial_index":14,"time_elapsed":552919,"internal_node_id":"0.0-2.0-12.0"},{"group":"hexagon_bi","room_assignment":["yellow","purple","green","grey","blue","red"],"door_color_assignment":["black","white"],"door_generator_assignment":[0,1],"goal":5,"start":2,"action_noise":0,"location_history":"[2,3,4,3,4,5]","action_history":"[1,0,0,0,1]","door_history":"[1,0,0,0,1]","location_rts":"[29967,582,406,368,157]","trial_type":"two-door-navigation","trial_index":15,"time_elapsed":593502,"internal_node_id":"0.0-2.0-13.0"},{"group":"hexagon_bi","room_assignment":["yellow","purple","green","grey","blue","red"],"door_color_assignment":["black","white"],"door_generator_assignment":[0,1],"goal":4,"start":5,"action_noise":0,"location_history":"[5,0,1,0,5,4]","action_history":"[0,1,1,0,1]","door_history":"[0,1,1,0,1]","location_rts":"[1263,613,384,977,683]","trial_type":"two-door-navigation","trial_index":16,"time_elapsed":606534,"internal_node_id":"0.0-2.0-14.0"},{"group":"hexagon_bi","room_assignment":["yellow","purple","green","grey","blue","red"],"door_color_assignment":["black","white"],"door_generator_assignment":[0,1],"goal":3,"start":4,"action_noise":0,"location_history":"[4,3]","action_history":"[0]","door_history":"[0]","location_rts":"[591]","trial_type":"two-door-navigation","trial_index":17,"time_elapsed":612150,"internal_node_id":"0.0-2.0-15.0"},{"group":"hexagon_bi","room_assignment":["yellow","purple","green","grey","blue","red"],"door_color_assignment":["black","white"],"door_generator_assignment":[0,1],"goal":1,"start":3,"action_noise":0,"location_history":"[3,4,5,4,3,2,3,4,5,0,5,4,5,0,1]","action_history":"[0,1,1,0,1,1,0,1,0,0,1,1,0,1]","door_history":"[0,1,1,0,1,1,0,1,0,0,1,1,0,1]","location_rts":"[517,269,319,325,447,378,371,442,669,435,343,516,263,576]","trial_type":"two-door-navigation","trial_index":18,"time_elapsed":636306,"internal_node_id":"0.0-2.0-16.0"},{"group":"hexagon_bi","room_assignment":["yellow","purple","green","grey","blue","red"],"door_color_assignment":["black","white"],"door_generator_assignment":[0,1],"goal":5,"start":1,"action_noise":0,"location_history":"[1,0,1,2,1,0,5]","action_history":"[1,1,0,0,1,0]","door_history":"[1,1,0,0,1,0]","location_rts":"[1356,376,114,522,66,390]","trial_type":"two-door-navigation","trial_index":19,"time_elapsed":649250,"internal_node_id":"0.0-2.0-17.0"},{"group":"hexagon_bi","room_assignment":["yellow","purple","green","grey","blue","red"],"door_color_assignment":["black","white"],"door_generator_assignment":[0,1],"goal":4,"start":5,"action_noise":0,"location_history":"[5,0,1,0,5,0,1,2,3,4]","action_history":"[0,1,1,0,0,1,0,1,0]","door_history":"[0,1,1,0,0,1,0,1,0]","location_rts":"[717,392,731,94,1297,86,217,561,595]","trial_type":"two-door-navigation","trial_index":20,"time_elapsed":667141,"internal_node_id":"0.0-2.0-18.0"},{"group":"hexagon_bi","room_assignment":["yellow","purple","green","grey","blue","red"],"door_color_assignment":["black","white"],"door_generator_assignment":[0,1],"goal":0,"start":4,"action_noise":0,"location_history":"[4,5,4,3,2,1,2,3,4,5,4,3,2,3,4,5,4,3,4,5,0]","action_history":"[1,1,0,1,0,0,1,0,1,1,0,1,1,0,1,1,0,0,1,0]","door_history":"[1,1,0,1,0,0,1,0,1,1,0,1,1,0,1,1,0,0,1,0]","location_rts":"[1042,395,211,650,478,498,121,613,860,412,104,229,386,53,162,596,89,805,72,543]","trial_type":"two-door-navigation","trial_index":21,"time_elapsed":699868,"internal_node_id":"0.0-2.0-19.0"},{"group":"hexagon_bi","room_assignment":["yellow","purple","green","grey","blue","red"],"door_color_assignment":["black","white"],"door_generator_assignment":[0,1],"goal":1,"start":0,"action_noise":0,"location_history":"[0,5,4,5,0,1]","action_history":"[0,1,1,0,1]","door_history":"[0,1,1,0,1]","location_rts":"[1697,398,692,706,173]","trial_type":"two-door-navigation","trial_index":22,"time_elapsed":712639,"internal_node_id":"0.0-2.0-20.0"},{"group":"hexagon_bi","room_assignment":["yellow","purple","green","grey","blue","red"],"door_color_assignment":["black","white"],"door_generator_assignment":[0,1],"goal":3,"start":1,"action_noise":0,"location_history":"[1,2,3]","action_history":"[0,1]","door_history":"[0,1]","location_rts":"[1681,454]","trial_type":"two-door-navigation","trial_index":23,"time_elapsed":720817,"internal_node_id":"0.0-2.0-21.0"},{"group":"hexagon_bi","room_assignment":["yellow","purple","green","grey","blue","red"],"door_color_assignment":["black","white"],"door_generator_assignment":[0,1],"goal":2,"start":3,"action_noise":0,"location_history":"[3,4,5,4,3,4,5,4,3,4,5,0,1,0,5,4,3,2]","action_history":"[0,1,1,0,0,1,1,0,0,1,0,1,1,0,1,0,1]","door_history":"[0,1,1,0,0,1,1,0,0,1,0,1,1,0,1,0,1]","location_rts":"[4595,629,325,345,388,453,594,573,417,184,340,452,520,114,509,499,749]","trial_type":"two-door-navigation","trial_index":24,"time_elapsed":753813,"internal_node_id":"0.0-2.0-22.0"},{"group":"hexagon_bi","room_assignment":["yellow","purple","green","grey","blue","red"],"door_color_assignment":["black","white"],"door_generator_assignment":[0,1],"goal":0,"start":2,"action_noise":0,"location_history":"[2,3,4,5,4,3,2,1,0]","action_history":"[1,0,1,1,0,1,0,1]","door_history":"[1,0,1,1,0,1,0,1]","location_rts":"[123374,831,508,319,12,395,201,331]","trial_type":"two-door-navigation","trial_index":25,"time_elapsed":891946,"internal_node_id":"0.0-2.0-23.0"},{"group":"hexagon_bi","room_assignment":["yellow","purple","green","grey","blue","red"],"door_color_assignment":["black","white"],"door_generator_assignment":[0,1],"goal":3,"start":0,"action_noise":0,"location_history":"[0,1,2,3]","action_history":"[1,0,1]","door_history":"[1,0,1]","location_rts":"[426,601,1175]","trial_type":"two-door-navigation","trial_index":26,"time_elapsed":901212,"internal_node_id":"0.0-2.0-24.0"},{"group":"hexagon_bi","room_assignment":["yellow","purple","green","grey","blue","red"],"door_color_assignment":["black","white"],"door_generator_assignment":[0,1],"goal":1,"start":3,"action_noise":0,"location_history":"[3,4,5,4,3,2,1]","action_history":"[0,1,1,0,1,0]","door_history":"[0,1,1,0,1,0]","location_rts":"[545,355,490,53,491,230]","trial_type":"two-door-navigation","trial_index":27,"time_elapsed":913507,"internal_node_id":"0.0-2.0-25.0"},{"group":"hexagon_bi","room_assignment":["yellow","purple","green","grey","blue","red"],"door_color_assignment":["black","white"],"door_generator_assignment":[0,1],"goal":2,"start":1,"action_noise":0,"location_history":"[1,2]","action_history":"[0]","door_history":"[0]","location_rts":"[573]","trial_type":"two-door-navigation","trial_index":28,"time_elapsed":919101,"internal_node_id":"0.0-2.0-26.0"},{"group":"hexagon_bi","room_assignment":["yellow","purple","green","grey","blue","red"],"door_color_assignment":["black","white"],"door_generator_assignment":[0,1],"goal":5,"start":2,"action_noise":0,"location_history":"[2,3,4,5]","action_history":"[1,0,1]","door_history":"[1,0,1]","location_rts":"[1914,398,722]","trial_type":"two-door-navigation","trial_index":29,"time_elapsed":929192,"internal_node_id":"0.0-2.0-27.0"},{"group":"hexagon_bi","room_assignment":["yellow","purple","green","grey","blue","red"],"door_color_assignment":["black","white"],"door_generator_assignment":[0,1],"goal":4,"start":5,"action_noise":0,"location_history":"[5,0,1,2,3,4]","action_history":"[0,1,0,1,0]","door_history":"[0,1,0,1,0]","location_rts":"[1099,125,164,439,660]","trial_type":"two-door-navigation","trial_index":30,"time_elapsed":940779,"internal_node_id":"0.0-2.0-28.0"},{"group":"hexagon_bi","room_assignment":["yellow","purple","green","grey","blue","red"],"door_color_assignment":["black","white"],"door_generator_assignment":[0,1],"goal":5,"start":4,"action_noise":0,"location_history":"[4,5]","action_history":"[1]","door_history":"[1]","location_rts":"[33779]","trial_type":"two-door-navigation","trial_index":31,"time_elapsed":979581,"internal_node_id":"0.0-2.0-29.0"},{"group":"hexagon_bi","room_assignment":["yellow","purple","green","grey","blue","red"],"door_color_assignment":["black","white"],"door_generator_assignment":[0,1],"goal":3,"start":5,"action_noise":0,"location_history":"[5,4,3]","action_history":"[1,0]","door_history":"[1,0]","location_rts":"[1382,324]","trial_type":"two-door-navigation","trial_index":32,"time_elapsed":987336,"internal_node_id":"0.0-2.0-30.0"},{"group":"hexagon_bi","room_assignment":["yellow","purple","green","grey","blue","red"],"door_color_assignment":["black","white"],"door_generator_assignment":[0,1],"goal":0,"start":3,"action_noise":0,"location_history":"[3,2,1,0]","action_history":"[1,0,1]","door_history":"[1,0,1]","location_rts":"[42192,310,300]","trial_type":"two-door-navigation","trial_index":33,"time_elapsed":1037201,"internal_node_id":"0.0-2.0-31.0"},{"group":"hexagon_bi","room_assignment":["yellow","purple","green","grey","blue","red"],"door_color_assignment":["black","white"],"door_generator_assignment":[0,1],"goal":4,"start":0,"action_noise":0,"location_history":"[0,1,2,3,4]","action_history":"[1,0,1,0]","door_history":"[1,0,1,0]","location_rts":"[890,355,1642,588]","trial_type":"two-door-navigation","trial_index":34,"time_elapsed":1048757,"internal_node_id":"0.0-2.0-32.0"},{"group":"hexagon_bi","room_assignment":["yellow","purple","green","grey","blue","red"],"door_color_assignment":["black","white"],"door_generator_assignment":[0,1],"goal":1,"start":4,"action_noise":0,"location_history":"[4,5,0,1]","action_history":"[1,0,1]","door_history":"[1,0,1]","location_rts":"[1215,291,279]","trial_type":"two-door-navigation","trial_index":35,"time_elapsed":1057600,"internal_node_id":"0.0-2.0-33.0"},{"group":"hexagon_bi","room_assignment":["yellow","purple","green","grey","blue","red"],"door_color_assignment":["black","white"],"door_generator_assignment":[0,1],"goal":2,"start":1,"action_noise":0,"location_history":"[1,2]","action_history":"[0]","door_history":"[0]","location_rts":"[750]","trial_type":"two-door-navigation","trial_index":36,"time_elapsed":1063374,"internal_node_id":"0.0-2.0-34.0"},{"group":"hexagon_bi","room_assignment":["yellow","purple","green","grey","blue","red"],"door_color_assignment":["black","white"],"door_generator_assignment":[0,1],"goal":0,"start":2,"action_noise":0,"location_history":"[2,3,4,5,0]","action_history":"[1,0,1,0]","door_history":"[1,0,1,0]","location_rts":"[1035,297,375,421]","trial_type":"two-door-navigation","trial_index":37,"time_elapsed":1073580,"internal_node_id":"0.0-2.0-35.0"},{"group":"hexagon_bi","room_assignment":["yellow","purple","green","grey","blue","red"],"door_color_assignment":["black","white"],"door_generator_assignment":[0,1],"goal":5,"start":0,"action_noise":0,"location_history":"[0,1,2,3,4,5]","action_history":"[1,0,1,0,1]","door_history":"[1,0,1,0,1]","location_rts":"[945,439,617,541,947]","trial_type":"two-door-navigation","trial_index":38,"time_elapsed":1086164,"internal_node_id":"0.0-2.0-36.0"},{"group":"hexagon_bi","room_assignment":["yellow","purple","green","grey","blue","red"],"door_color_assignment":["black","white"],"door_generator_assignment":[0,1],"goal":2,"start":5,"action_noise":0,"location_history":"[5,0,1,2]","action_history":"[0,1,0]","door_history":"[0,1,0]","location_rts":"[662,837,413]","trial_type":"two-door-navigation","trial_index":39,"time_elapsed":1095139,"internal_node_id":"0.0-2.0-37.0"},{"group":"hexagon_bi","room_assignment":["yellow","purple","green","grey","blue","red"],"door_color_assignment":["black","white"],"door_generator_assignment":[0,1],"goal":1,"start":2,"action_noise":0,"location_history":"[2,3,4,5,0,1]","action_history":"[1,0,1,0,1]","door_history":"[1,0,1,0,1]","location_rts":"[2722,206,416,437,341]","trial_type":"two-door-navigation","trial_index":40,"time_elapsed":1108365,"internal_node_id":"0.0-2.0-38.0"},{"group":"hexagon_bi","room_assignment":["yellow","purple","green","grey","blue","red"],"door_color_assignment":["black","white"],"door_generator_assignment":[0,1],"goal":4,"start":1,"action_noise":0,"location_history":"[1,2,3,4]","action_history":"[0,1,0]","door_history":"[0,1,0]","location_rts":"[433,371,409]","trial_type":"two-door-navigation","trial_index":41,"time_elapsed":1116646,"internal_node_id":"0.0-2.0-39.0"},{"group":"hexagon_bi","room_assignment":["yellow","purple","green","grey","blue","red"],"door_color_assignment":["black","white"],"door_generator_assignment":[0,1],"goal":3,"start":4,"action_noise":0,"location_history":"[4,3]","action_history":"[0]","door_history":"[0]","location_rts":"[1454]","trial_type":"two-door-navigation","trial_index":42,"time_elapsed":1123120,"internal_node_id":"0.0-2.0-40.0"},{"group":"hexagon_bi","room_assignment":["yellow","purple","green","grey","blue","red"],"door_color_assignment":["black","white"],"door_generator_assignment":[0,1],"goal":5,"start":3,"action_noise":0,"location_history":"[3,4,5]","action_history":"[0,1]","door_history":"[0,1]","location_rts":"[711,249]","trial_type":"two-door-navigation","trial_index":43,"time_elapsed":1130129,"internal_node_id":"0.0-2.0-41.0"},{"group":"hexagon_bi","room_assignment":["yellow","purple","green","grey","blue","red"],"door_color_assignment":["black","white"],"door_generator_assignment":[0,1],"goal":3,"start":5,"action_noise":0,"location_history":"[5,0,1,2,3]","action_history":"[0,1,0,1]","door_history":"[0,1,0,1]","location_rts":"[569,251,420,401]","trial_type":"two-door-navigation","trial_index":44,"time_elapsed":1139853,"internal_node_id":"0.0-2.0-42.0"},{"group":"hexagon_bi","room_assignment":["yellow","purple","green","grey","blue","red"],"door_color_assignment":["black","white"],"door_generator_assignment":[0,1],"goal":0,"start":3,"action_noise":0,"location_history":"[3,4,5,0]","action_history":"[0,1,0]","door_history":"[0,1,0]","location_rts":"[872,121,102]","trial_type":"two-door-navigation","trial_index":45,"time_elapsed":1148009,"internal_node_id":"0.0-2.0-43.0"},{"group":"hexagon_bi","room_assignment":["yellow","purple","green","grey","blue","red"],"door_color_assignment":["black","white"],"door_generator_assignment":[0,1],"goal":2,"start":0,"action_noise":0,"location_history":"[0,5,4,3,2]","action_history":"[0,1,0,1]","door_history":"[0,1,0,1]","location_rts":"[695,989,366,780]","trial_type":"two-door-navigation","trial_index":46,"time_elapsed":1158928,"internal_node_id":"0.0-2.0-44.0"},{"group":"hexagon_bi","room_assignment":["yellow","purple","green","grey","blue","red"],"door_color_assignment":["black","white"],"door_generator_assignment":[0,1],"goal":4,"start":2,"action_noise":0,"location_history":"[2,1,0,5,4]","action_history":"[0,1,0,1]","door_history":"[0,1,0,1]","location_rts":"[1209,506,230,288]","trial_type":"two-door-navigation","trial_index":47,"time_elapsed":1169239,"internal_node_id":"0.0-2.0-45.0"},{"group":"hexagon_bi","room_assignment":["yellow","purple","green","grey","blue","red"],"door_color_assignment":["black","white"],"door_generator_assignment":[0,1],"goal":1,"start":4,"action_noise":0,"location_history":"[4,3,2,1]","action_history":"[0,1,0]","door_history":"[0,1,0]","location_rts":"[628,395,1139]","trial_type":"two-door-navigation","trial_index":48,"time_elapsed":1178473,"internal_node_id":"0.0-2.0-46.0"},{"group":"hexagon_bi","room_assignment":["yellow","purple","green","grey","blue","red"],"door_color_assignment":["black","white"],"door_generator_assignment":[0,1],"goal":4,"start":1,"action_noise":0,"location_history":"[1,0,5,0,5,4]","action_history":"[1,0,0,0,1]","door_history":"[1,0,0,0,1]","location_rts":"[1025,183,336,346,93]","trial_type":"two-door-navigation","trial_index":49,"time_elapsed":1189546,"internal_node_id":"0.0-2.0-47.0"},{"group":"hexagon_bi","room_assignment":["yellow","purple","green","grey","blue","red"],"door_color_assignment":["black","white"],"door_generator_assignment":[0,1],"goal":3,"start":4,"action_noise":0,"location_history":"[4,3]","action_history":"[0]","door_history":"[0]","location_rts":"[519]","trial_type":"two-door-navigation","trial_index":50,"time_elapsed":1195094,"internal_node_id":"0.0-2.0-48.0"},{"group":"hexagon_bi","room_assignment":["yellow","purple","green","grey","blue","red"],"door_color_assignment":["black","white"],"door_generator_assignment":[0,1],"goal":5,"start":3,"action_noise":0,"location_history":"[3,4,5]","action_history":"[0,1]","door_history":"[0,1]","location_rts":"[515,183]","trial_type":"two-door-navigation","trial_index":51,"time_elapsed":1201835,"internal_node_id":"0.0-2.0-49.0"},{"view_history":"[{\"page_index\":0,\"viewing_time\":2286}]","rt":2286,"trial_type":"instructions","trial_index":52,"time_elapsed":1205123,"internal_node_id":"0.0-3.0"},{"view_history":"[{\"page_index\":0,\"viewing_time\":3617},{\"page_index\":1,\"viewing_time\":1005951}]","rt":1009568,"trial_type":"instructions","trial_index":53,"time_elapsed":2215691,"internal_node_id":"0.0-4.0"},{"group":"hexagon_tri","fractal_assignment":["../images/pnk_blu.png","../images/gry_blk.png","../images/org_blu.png","../images/cyn_red.png","../images/ylw_slt.png","../images/blu_wht.png"],"mutagen_generator_assignment":[0,1],"goal":4,"start":0,"action_noise":0,"location_history":"[0,5,0,1,3,4]","action_history":"[0,1,1,0,1]","mutagen_history":"[0,1,1,0,1]","location_rts":"[5360,2561,816,460,603]","trial_type":"fractal-mutation","trial_index":54,"time_elapsed":2234712,"internal_node_id":"0.0-5.0-0.0"},{"group":"hexagon_tri","fractal_assignment":["../images/pnk_blu.png","../images/gry_blk.png","../images/org_blu.png","../images/cyn_red.png","../images/ylw_slt.png","../images/blu_wht.png"],"mutagen_generator_assignment":[0,1],"goal":3,"start":4,"action_noise":0,"location_history":"[4,0,1,3]","action_history":"[0,1,0]","mutagen_history":"[0,1,0]","location_rts":"[1066,336,234]","trial_type":"fractal-mutation","trial_index":55,"time_elapsed":2243494,"internal_node_id":"0.0-5.0-1.0"},{"group":"hexagon_tri","fractal_assignment":["../images/pnk_blu.png","../images/gry_blk.png","../images/org_blu.png","../images/cyn_red.png","../images/ylw_slt.png","../images/blu_wht.png"],"mutagen_generator_assignment":[0,1],"goal":5,"start":3,"action_noise":0,"location_history":"[3,4,0,5]","action_history":"[1,0,0]","mutagen_history":"[1,0,0]","location_rts":"[2421,349,400]","trial_type":"fractal-mutation","trial_index":56,"time_elapsed":2253793,"internal_node_id":"0.0-5.0-2.0"},{"group":"hexagon_tri","fractal_assignment":["../images/pnk_blu.png","../images/gry_blk.png","../images/org_blu.png","../images/cyn_red.png","../images/ylw_slt.png","../images/blu_wht.png"],"mutagen_generator_assignment":[0,1],"goal":2,"start":5,"action_noise":0,"location_history":"[5,0,5,0,5,0,1,3,4,0,1,5,4,2]","action_history":"[1,0,1,0,1,1,0,1,0,1,1,0,1]","mutagen_history":"[1,0,1,0,1,1,0,1,0,1,1,0,1]","location_rts":"[1752,189,423,333,387,322,412,340,368,494,279,442,349]","trial_type":"fractal-mutation","trial_index":57,"time_elapsed":2277421,"internal_node_id":"0.0-5.0-3.0"},{"group":"hexagon_tri","fractal_assignment":["../images/pnk_blu.png","../images/gry_blk.png","../images/org_blu.png","../images/cyn_red.png","../images/ylw_slt.png","../images/blu_wht.png"],"mutagen_generator_assignment":[0,1],"goal":1,"start":2,"action_noise":0,"location_history":"[2,1]","action_history":"[0]","mutagen_history":"[0]","location_rts":"[574]","trial_type":"fractal-mutation","trial_index":58,"time_elapsed":2283035,"internal_node_id":"0.0-5.0-4.0"},{"group":"hexagon_tri","fractal_assignment":["../images/pnk_blu.png","../images/gry_blk.png","../images/org_blu.png","../images/cyn_red.png","../images/ylw_slt.png","../images/blu_wht.png"],"mutagen_generator_assignment":[0,1],"goal":4,"start":1,"action_noise":0,"location_history":"[1,5,4]","action_history":"[1,0]","mutagen_history":"[1,0]","location_rts":"[376,460]","trial_type":"fractal-mutation","trial_index":59,"time_elapsed":2289957,"internal_node_id":"0.0-5.0-5.0"},{"group":"hexagon_tri","fractal_assignment":["../images/pnk_blu.png","../images/gry_blk.png","../images/org_blu.png","../images/cyn_red.png","../images/ylw_slt.png","../images/blu_wht.png"],"mutagen_generator_assignment":[0,1],"goal":1,"start":4,"action_noise":0,"location_history":"[4,2,1]","action_history":"[1,0]","mutagen_history":"[1,0]","location_rts":"[1824,462]","trial_type":"fractal-mutation","trial_index":60,"time_elapsed":2298334,"internal_node_id":"0.0-5.0-6.0"},{"group":"hexagon_tri","fractal_assignment":["../images/pnk_blu.png","../images/gry_blk.png","../images/org_blu.png","../images/cyn_red.png","../images/ylw_slt.png","../images/blu_wht.png"],"mutagen_generator_assignment":[0,1],"goal":5,"start":1,"action_noise":0,"location_history":"[1,5]","action_history":"[1]","mutagen_history":"[1]","location_rts":"[4637]","trial_type":"fractal-mutation","trial_index":61,"time_elapsed":2308016,"internal_node_id":"0.0-5.0-7.0"},{"group":"hexagon_tri","fractal_assignment":["../images/pnk_blu.png","../images/gry_blk.png","../images/org_blu.png","../images/cyn_red.png","../images/ylw_slt.png","../images/blu_wht.png"],"mutagen_generator_assignment":[0,1],"goal":0,"start":5,"action_noise":0,"location_history":"[5,4,2,1,5,4,2,1,5,4,2,1,3,4,0]","action_history":"[0,1,0,1,0,1,0,1,0,1,0,0,1,0]","mutagen_history":"[0,1,0,1,0,1,0,1,0,1,0,0,1,0]","location_rts":"[323,148,295,229,296,251,328,542,254,410,359,350,596,410]","trial_type":"fractal-mutation","trial_index":62,"time_elapsed":2331319,"internal_node_id":"0.0-5.0-8.0"},{"group":"hexagon_tri","fractal_assignment":["../images/pnk_blu.png","../images/gry_blk.png","../images/org_blu.png","../images/cyn_red.png","../images/ylw_slt.png","../images/blu_wht.png"],"mutagen_generator_assignment":[0,1],"goal":2,"start":0,"action_noise":0,"location_history":"[0,1,3,4,2]","action_history":"[1,0,1,1]","mutagen_history":"[1,0,1,1]","location_rts":"[18348,336,338,393]","trial_type":"fractal-mutation","trial_index":63,"time_elapsed":2358909,"internal_node_id":"0.0-5.0-9.0"},{"group":"hexagon_tri","fractal_assignment":["../images/pnk_blu.png","../images/gry_blk.png","../images/org_blu.png","../images/cyn_red.png","../images/ylw_slt.png","../images/blu_wht.png"],"mutagen_generator_assignment":[0,1],"goal":3,"start":2,"action_noise":0,"location_history":"[2,1,5,4,2,3]","action_history":"[0,1,0,1,1]","mutagen_history":"[0,1,0,1,1]","location_rts":"[3719,116,260,264,256]","trial_type":"fractal-mutation","trial_index":64,"time_elapsed":2372726,"internal_node_id":"0.0-5.0-10.0"},{"group":"hexagon_tri","fractal_assignment":["../images/pnk_blu.png","../images/gry_blk.png","../images/org_blu.png","../images/cyn_red.png","../images/ylw_slt.png","../images/blu_wht.png"],"mutagen_generator_assignment":[0,1],"goal":0,"start":3,"action_noise":0,"location_history":"[3,4,0]","action_history":"[1,0]","mutagen_history":"[1,0]","location_rts":"[4372,268]","trial_type":"fractal-mutation","trial_index":65,"time_elapsed":2383449,"internal_node_id":"0.0-5.0-11.0"},{"group":"hexagon_tri","fractal_assignment":["../images/pnk_blu.png","../images/gry_blk.png","../images/org_blu.png","../images/cyn_red.png","../images/ylw_slt.png","../images/blu_wht.png"],"mutagen_generator_assignment":[0,1],"goal":2,"start":0,"action_noise":0,"location_history":"[0,1,3,4,2]","action_history":"[1,0,1,1]","mutagen_history":"[1,0,1,1]","location_rts":"[809,46603,217,299]","trial_type":"fractal-mutation","trial_index":66,"time_elapsed":2439545,"internal_node_id":"0.0-5.0-12.0"},{"group":"hexagon_tri","fractal_assignment":["../images/pnk_blu.png","../images/gry_blk.png","../images/org_blu.png","../images/cyn_red.png","../images/ylw_slt.png","../images/blu_wht.png"],"mutagen_generator_assignment":[0,1],"goal":5,"start":2,"action_noise":0,"location_history":"[2,1,5]","action_history":"[0,1]","mutagen_history":"[0,1]","location_rts":"[12615,355]","trial_type":"fractal-mutation","trial_index":67,"time_elapsed":2458603,"internal_node_id":"0.0-5.0-13.0"},{"group":"hexagon_tri","fractal_assignment":["../images/pnk_blu.png","../images/gry_blk.png","../images/org_blu.png","../images/cyn_red.png","../images/ylw_slt.png","../images/blu_wht.png"],"mutagen_generator_assignment":[0,1],"goal":4,"start":5,"action_noise":0,"location_history":"[5,0,5,0,1,3,4]","action_history":"[1,0,1,1,0,1]","mutagen_history":"[1,0,1,1,0,1]","location_rts":"[1552,641,648,688,388,445]","trial_type":"fractal-mutation","trial_index":68,"time_elapsed":2473182,"internal_node_id":"0.0-5.0-14.0"},{"group":"hexagon_tri","fractal_assignment":["../images/pnk_blu.png","../images/gry_blk.png","../images/org_blu.png","../images/cyn_red.png","../images/ylw_slt.png","../images/blu_wht.png"],"mutagen_generator_assignment":[0,1],"goal":3,"start":4,"action_noise":0,"location_history":"[4,0,1,3]","action_history":"[0,1,0]","mutagen_history":"[0,1,0]","location_rts":"[3412,89,341]","trial_type":"fractal-mutation","trial_index":69,"time_elapsed":2484130,"internal_node_id":"0.0-5.0-15.0"},{"group":"hexagon_tri","fractal_assignment":["../images/pnk_blu.png","../images/gry_blk.png","../images/org_blu.png","../images/cyn_red.png","../images/ylw_slt.png","../images/blu_wht.png"],"mutagen_generator_assignment":[0,1],"goal":1,"start":3,"action_noise":0,"location_history":"[3,4,0,1]","action_history":"[1,0,1]","mutagen_history":"[1,0,1]","location_rts":"[832,247,68]","trial_type":"fractal-mutation","trial_index":70,"time_elapsed":2492406,"internal_node_id":"0.0-5.0-16.0"},{"group":"hexagon_tri","fractal_assignment":["../images/pnk_blu.png","../images/gry_blk.png","../images/org_blu.png","../images/cyn_red.png","../images/ylw_slt.png","../images/blu_wht.png"],"mutagen_generator_assignment":[0,1],"goal":5,"start":1,"action_noise":0,"location_history":"[1,5]","action_history":"[1]","mutagen_history":"[1]","location_rts":"[2861]","trial_type":"fractal-mutation","trial_index":71,"time_elapsed":2500319,"internal_node_id":"0.0-5.0-17.0"},{"group":"hexagon_tri","fractal_assignment":["../images/pnk_blu.png","../images/gry_blk.png","../images/org_blu.png","../images/cyn_red.png","../images/ylw_slt.png","../images/blu_wht.png"],"mutagen_generator_assignment":[0,1],"goal":4,"start":5,"action_noise":0,"location_history":"[5,0,5,0,5,0,5,0,1,3,4]","action_history":"[1,0,1,0,1,0,1,1,0,1]","mutagen_history":"[1,0,1,0,1,0,1,1,0,1]","location_rts":"[1485,257,433,555,403,403,503,680,564,434]","trial_type":"fractal-mutation","trial_index":72,"time_elapsed":2520414,"internal_node_id":"0.0-5.0-18.0"},{"group":"hexagon_tri","fractal_assignment":["../images/pnk_blu.png","../images/gry_blk.png","../images/org_blu.png","../images/cyn_red.png","../images/ylw_slt.png","../images/blu_wht.png"],"mutagen_generator_assignment":[0,1],"goal":0,"start":4,"action_noise":0,"location_history":"[4,0]","action_history":"[0]","mutagen_history":"[0]","location_rts":"[3742]","trial_type":"fractal-mutation","trial_index":73,"time_elapsed":2529195,"internal_node_id":"0.0-5.0-19.0"},{"group":"hexagon_tri","fractal_assignment":["../images/pnk_blu.png","../images/gry_blk.png","../images/org_blu.png","../images/cyn_red.png","../images/ylw_slt.png","../images/blu_wht.png"],"mutagen_generator_assignment":[0,1],"goal":1,"start":0,"action_noise":0,"location_history":"[0,1]","action_history":"[1]","mutagen_history":"[1]","location_rts":"[583]","trial_type":"fractal-mutation","trial_index":74,"time_elapsed":2534827,"internal_node_id":"0.0-5.0-20.0"},{"group":"hexagon_tri","fractal_assignment":["../images/pnk_blu.png","../images/gry_blk.png","../images/org_blu.png","../images/cyn_red.png","../images/ylw_slt.png","../images/blu_wht.png"],"mutagen_generator_assignment":[0,1],"goal":3,"start":1,"action_noise":0,"location_history":"[1,5,4,2,3]","action_history":"[1,0,1,1]","mutagen_history":"[1,0,1,1]","location_rts":"[941,308,260,481]","trial_type":"fractal-mutation","trial_index":75,"time_elapsed":2544979,"internal_node_id":"0.0-5.0-21.0"},{"group":"hexagon_tri","fractal_assignment":["../images/pnk_blu.png","../images/gry_blk.png","../images/org_blu.png","../images/cyn_red.png","../images/ylw_slt.png","../images/blu_wht.png"],"mutagen_generator_assignment":[0,1],"goal":2,"start":3,"action_noise":0,"location_history":"[3,4,0,1,5,4,2]","action_history":"[1,0,1,1,0,1]","mutagen_history":"[1,0,1,1,0,1]","location_rts":"[13483,266,319,407,367,350]","trial_type":"fractal-mutation","trial_index":76,"time_elapsed":2570418,"internal_node_id":"0.0-5.0-22.0"},{"group":"hexagon_tri","fractal_assignment":["../images/pnk_blu.png","../images/gry_blk.png","../images/org_blu.png","../images/cyn_red.png","../images/ylw_slt.png","../images/blu_wht.png"],"mutagen_generator_assignment":[0,1],"goal":0,"start":2,"action_noise":0,"location_history":"[2,3,2,3,2,3,2,3,2,1,5,4,0]","action_history":"[1,0,1,0,1,0,1,0,0,1,0,0]","mutagen_history":"[1,0,1,0,1,0,1,0,0,1,0,0]","location_rts":"[5545,256,288,275,385,256,463,653,671,501,522,518]","trial_type":"fractal-mutation","trial_index":77,"time_elapsed":2597160,"internal_node_id":"0.0-5.0-23.0"},{"group":"hexagon_tri","fractal_assignment":["../images/pnk_blu.png","../images/gry_blk.png","../images/org_blu.png","../images/cyn_red.png","../images/ylw_slt.png","../images/blu_wht.png"],"mutagen_generator_assignment":[0,1],"goal":3,"start":0,"action_noise":0,"location_history":"[0,1,3]","action_history":"[1,0]","mutagen_history":"[1,0]","location_rts":"[2109,184]","trial_type":"fractal-mutation","trial_index":78,"time_elapsed":2605539,"internal_node_id":"0.0-5.0-24.0"},{"group":"hexagon_tri","fractal_assignment":["../images/pnk_blu.png","../images/gry_blk.png","../images/org_blu.png","../images/cyn_red.png","../images/ylw_slt.png","../images/blu_wht.png"],"mutagen_generator_assignment":[0,1],"goal":1,"start":3,"action_noise":0,"location_history":"[3,4,0,1]","action_history":"[1,0,1]","mutagen_history":"[1,0,1]","location_rts":"[3662,210,270]","trial_type":"fractal-mutation","trial_index":79,"time_elapsed":2616809,"internal_node_id":"0.0-5.0-25.0"},{"group":"hexagon_tri","fractal_assignment":["../images/pnk_blu.png","../images/gry_blk.png","../images/org_blu.png","../images/cyn_red.png","../images/ylw_slt.png","../images/blu_wht.png"],"mutagen_generator_assignment":[0,1],"goal":2,"start":1,"action_noise":0,"location_history":"[1,3,4,0,1,5,4,0,1,5,4,0,5,0,5,0,5,4,0,1,5,4,2]","action_history":"[0,1,0,1,1,0,0,1,1,0,0,0,1,0,1,0,0,0,1,1,0,1]","mutagen_history":"[0,1,0,1,1,0,0,1,1,0,0,0,1,0,1,0,0,0,1,1,0,1]","location_rts":"[17936,666,393,455,171,372,438,458,498,342,179,485,234,292,417,327,405,321,327,522,216,372]","trial_type":"fractal-mutation","trial_index":80,"time_elapsed":2669398,"internal_node_id":"0.0-5.0-26.0"},{"group":"hexagon_tri","fractal_assignment":["../images/pnk_blu.png","../images/gry_blk.png","../images/org_blu.png","../images/cyn_red.png","../images/ylw_slt.png","../images/blu_wht.png"],"mutagen_generator_assignment":[0,1],"goal":5,"start":2,"action_noise":0,"location_history":"[2,3,2,3,4,0,1,3,4,0,5]","action_history":"[1,0,1,1,0,1,0,1,0,0]","mutagen_history":"[1,0,1,1,0,1,0,1,0,0]","location_rts":"[4180,565,249,225,162,188,193,227,199,274]","trial_type":"fractal-mutation","trial_index":81,"time_elapsed":2690174,"internal_node_id":"0.0-5.0-27.0"},{"group":"hexagon_tri","fractal_assignment":["../images/pnk_blu.png","../images/gry_blk.png","../images/org_blu.png","../images/cyn_red.png","../images/ylw_slt.png","../images/blu_wht.png"],"mutagen_generator_assignment":[0,1],"goal":4,"start":5,"action_noise":0,"location_history":"[5,0,5,0,5,0,5,0,1,3,4]","action_history":"[1,0,1,0,1,0,1,1,0,1]","mutagen_history":"[1,0,1,0,1,0,1,1,0,1]","location_rts":"[7661,154,472,297,221,288,169,333,301,407]","trial_type":"fractal-mutation","trial_index":82,"time_elapsed":2714870,"internal_node_id":"0.0-5.0-28.0"},{"group":"hexagon_tri","fractal_assignment":["../images/pnk_blu.png","../images/gry_blk.png","../images/org_blu.png","../images/cyn_red.png","../images/ylw_slt.png","../images/blu_wht.png"],"mutagen_generator_assignment":[0,1],"goal":5,"start":4,"action_noise":0,"location_history":"[4,0,1,5]","action_history":"[0,1,1]","mutagen_history":"[0,1,1]","location_rts":"[3106,418,557]","trial_type":"fractal-mutation","trial_index":83,"time_elapsed":2726090,"internal_node_id":"0.0-5.0-29.0"},{"group":"hexagon_tri","fractal_assignment":["../images/pnk_blu.png","../images/gry_blk.png","../images/org_blu.png","../images/cyn_red.png","../images/ylw_slt.png","../images/blu_wht.png"],"mutagen_generator_assignment":[0,1],"goal":3,"start":5,"action_noise":0,"location_history":"[5,4,2,1,3]","action_history":"[0,1,0,0]","mutagen_history":"[0,1,0,0]","location_rts":"[241,411,542,443]","trial_type":"fractal-mutation","trial_index":84,"time_elapsed":2735886,"internal_node_id":"0.0-5.0-30.0"},{"group":"hexagon_tri","fractal_assignment":["../images/pnk_blu.png","../images/gry_blk.png","../images/org_blu.png","../images/cyn_red.png","../images/ylw_slt.png","../images/blu_wht.png"],"mutagen_generator_assignment":[0,1],"goal":0,"start":3,"action_noise":0,"location_history":"[3,2,3,2,1,3,4,2,1,3,4,0]","action_history":"[0,1,0,0,0,1,1,0,0,1,0]","mutagen_history":"[0,1,0,0,0,1,1,0,0,1,0]","location_rts":"[7213,456,479,412,473,355,464,408,456,188,64293]","trial_type":"fractal-mutation","trial_index":85,"time_elapsed":2826490,"internal_node_id":"0.0-5.0-31.0"},{"group":"hexagon_tri","fractal_assignment":["../images/pnk_blu.png","../images/gry_blk.png","../images/org_blu.png","../images/cyn_red.png","../images/ylw_slt.png","../images/blu_wht.png"],"mutagen_generator_assignment":[0,1],"goal":4,"start":0,"action_noise":0,"location_history":"[0,1,3,4]","action_history":"[1,0,1]","mutagen_history":"[1,0,1]","location_rts":"[422,368,380]","trial_type":"fractal-mutation","trial_index":86,"time_elapsed":2834793,"internal_node_id":"0.0-5.0-32.0"},{"group":"hexagon_tri","fractal_assignment":["../images/pnk_blu.png","../images/gry_blk.png","../images/org_blu.png","../images/cyn_red.png","../images/ylw_slt.png","../images/blu_wht.png"],"mutagen_generator_assignment":[0,1],"goal":1,"start":4,"action_noise":0,"location_history":"[4,0,1]","action_history":"[0,1]","mutagen_history":"[0,1]","location_rts":"[392,387]","trial_type":"fractal-mutation","trial_index":87,"time_elapsed":2841656,"internal_node_id":"0.0-5.0-33.0"},{"group":"hexagon_tri","fractal_assignment":["../images/pnk_blu.png","../images/gry_blk.png","../images/org_blu.png","../images/cyn_red.png","../images/ylw_slt.png","../images/blu_wht.png"],"mutagen_generator_assignment":[0,1],"goal":2,"start":1,"action_noise":0,"location_history":"[1,5,4,0,1,3,4,2]","action_history":"[1,0,0,1,0,1,1]","mutagen_history":"[1,0,0,1,0,1,1]","location_rts":"[2860,246,324,277,63634,444,310]","trial_type":"fractal-mutation","trial_index":88,"time_elapsed":2921015,"internal_node_id":"0.0-5.0-34.0"},{"group":"hexagon_tri","fractal_assignment":["../images/pnk_blu.png","../images/gry_blk.png","../images/org_blu.png","../images/cyn_red.png","../images/ylw_slt.png","../images/blu_wht.png"],"mutagen_generator_assignment":[0,1],"goal":0,"start":2,"action_noise":0,"location_history":"[2,1,5,4,0]","action_history":"[0,1,0,0]","mutagen_history":"[0,1,0,0]","location_rts":"[502,435,309,359]","trial_type":"fractal-mutation","trial_index":89,"time_elapsed":2930788,"internal_node_id":"0.0-5.0-35.0"},{"group":"hexagon_tri","fractal_assignment":["../images/pnk_blu.png","../images/gry_blk.png","../images/org_blu.png","../images/cyn_red.png","../images/ylw_slt.png","../images/blu_wht.png"],"mutagen_generator_assignment":[0,1],"goal":5,"start":0,"action_noise":0,"location_history":"[0,1,3,4,2,1,3,4,2,1,5]","action_history":"[1,0,1,1,0,0,1,1,0,1]","mutagen_history":"[1,0,1,1,0,0,1,1,0,1]","location_rts":"[357,71,394,431,418,533,327,401,341,442]","trial_type":"fractal-mutation","trial_index":90,"time_elapsed":2948912,"internal_node_id":"0.0-5.0-36.0"},{"group":"hexagon_tri","fractal_assignment":["../images/pnk_blu.png","../images/gry_blk.png","../images/org_blu.png","../images/cyn_red.png","../images/ylw_slt.png","../images/blu_wht.png"],"mutagen_generator_assignment":[0,1],"goal":2,"start":5,"action_noise":0,"location_history":"[5,0,5,0,5,0,5,4,2]","action_history":"[1,0,1,0,1,0,0,1]","mutagen_history":"[1,0,1,0,1,0,0,1]","location_rts":"[1235,219,8178,384,310,291,481,238]","trial_type":"fractal-mutation","trial_index":91,"time_elapsed":2972558,"internal_node_id":"0.0-5.0-37.0"},{"group":"hexagon_tri","fractal_assignment":["../images/pnk_blu.png","../images/gry_blk.png","../images/org_blu.png","../images/cyn_red.png","../images/ylw_slt.png","../images/blu_wht.png"],"mutagen_generator_assignment":[0,1],"goal":1,"start":2,"action_noise":0,"location_history":"[2,3,2,3,2,3,4,2,1]","action_history":"[1,0,1,0,1,1,1,0]","mutagen_history":"[1,0,1,0,1,1,1,0]","location_rts":"[1028,125,198,436,223,172,372,153]","trial_type":"fractal-mutation","trial_index":92,"time_elapsed":2987578,"internal_node_id":"0.0-5.0-38.0"},{"group":"hexagon_tri","fractal_assignment":["../images/pnk_blu.png","../images/gry_blk.png","../images/org_blu.png","../images/cyn_red.png","../images/ylw_slt.png","../images/blu_wht.png"],"mutagen_generator_assignment":[0,1],"goal":4,"start":1,"action_noise":0,"location_history":"[1,5,4]","action_history":"[1,0]","mutagen_history":"[1,0]","location_rts":"[1103,341]","trial_type":"fractal-mutation","trial_index":93,"time_elapsed":2995104,"internal_node_id":"0.0-5.0-39.0"},{"group":"hexagon_tri","fractal_assignment":["../images/pnk_blu.png","../images/gry_blk.png","../images/org_blu.png","../images/cyn_red.png","../images/ylw_slt.png","../images/blu_wht.png"],"mutagen_generator_assignment":[0,1],"goal":3,"start":4,"action_noise":0,"location_history":"[4,2,1,5,4,0,1,3]","action_history":"[1,0,1,0,0,1,0]","mutagen_history":"[1,0,1,0,0,1,0]","location_rts":"[1594,220,179,240,425,247,182]","trial_type":"fractal-mutation","trial_index":94,"time_elapsed":3009447,"internal_node_id":"0.0-5.0-40.0"},{"group":"hexagon_tri","fractal_assignment":["../images/pnk_blu.png","../images/gry_blk.png","../images/org_blu.png","../images/cyn_red.png","../images/ylw_slt.png","../images/blu_wht.png"],"mutagen_generator_assignment":[0,1],"goal":5,"start":3,"action_noise":0,"location_history":"[3,4,0,1,3,4,2,3,2,1,5]","action_history":"[1,0,1,0,1,1,1,0,0,1]","mutagen_history":"[1,0,1,0,1,1,1,0,0,1]","location_rts":"[1085,107,359,479,420,395,442,332,408,221]","trial_type":"fractal-mutation","trial_index":95,"time_elapsed":3028063,"internal_node_id":"0.0-5.0-41.0"},{"group":"hexagon_tri","fractal_assignment":["../images/pnk_blu.png","../images/gry_blk.png","../images/org_blu.png","../images/cyn_red.png","../images/ylw_slt.png","../images/blu_wht.png"],"mutagen_generator_assignment":[0,1],"goal":3,"start":5,"action_noise":0,"location_history":"[5,0,5,0,1,3]","action_history":"[1,0,1,1,0]","mutagen_history":"[1,0,1,1,0]","location_rts":"[668,293,344,604,414]","trial_type":"fractal-mutation","trial_index":96,"time_elapsed":3039572,"internal_node_id":"0.0-5.0-42.0"},{"group":"hexagon_tri","fractal_assignment":["../images/pnk_blu.png","../images/gry_blk.png","../images/org_blu.png","../images/cyn_red.png","../images/ylw_slt.png","../images/blu_wht.png"],"mutagen_generator_assignment":[0,1],"goal":0,"start":3,"action_noise":0,"location_history":"[3,4,0]","action_history":"[1,0]","mutagen_history":"[1,0]","location_rts":"[614,372]","trial_type":"fractal-mutation","trial_index":97,"time_elapsed":3046647,"internal_node_id":"0.0-5.0-43.0"},{"group":"hexagon_tri","fractal_assignment":["../images/pnk_blu.png","../images/gry_blk.png","../images/org_blu.png","../images/cyn_red.png","../images/ylw_slt.png","../images/blu_wht.png"],"mutagen_generator_assignment":[0,1],"goal":2,"start":0,"action_noise":0,"location_history":"[0,5,0,5,0,1,5,4,0,1,3,4,0,5,0,1,5,4,0,5,0,5,0,1,3,2]","action_history":"[0,1,0,1,1,1,0,0,1,0,1,0,0,1,1,1,0,0,0,1,0,1,1,0,0]","mutagen_history":"[0,1,0,1,1,1,0,0,1,0,1,0,0,1,1,1,0,0,0,1,0,1,1,0,0]","location_rts":"[365,277,234,593,690,500,405,833,410,575,371,592,15056,77,482,400,290,310,487,312,185,326,231,128,295]","trial_type":"fractal-mutation","trial_index":98,"time_elapsed":3100954,"internal_node_id":"0.0-5.0-44.0"},{"group":"hexagon_tri","fractal_assignment":["../images/pnk_blu.png","../images/gry_blk.png","../images/org_blu.png","../images/cyn_red.png","../images/ylw_slt.png","../images/blu_wht.png"],"mutagen_generator_assignment":[0,1],"goal":4,"start":2,"action_noise":0,"location_history":"[2,1,5,4]","action_history":"[0,1,0]","mutagen_history":"[0,1,0]","location_rts":"[279,175,181]","trial_type":"fractal-mutation","trial_index":99,"time_elapsed":3108687,"internal_node_id":"0.0-5.0-45.0"},{"group":"hexagon_tri","fractal_assignment":["../images/pnk_blu.png","../images/gry_blk.png","../images/org_blu.png","../images/cyn_red.png","../images/ylw_slt.png","../images/blu_wht.png"],"mutagen_generator_assignment":[0,1],"goal":1,"start":4,"action_noise":0,"location_history":"[4,2,1]","action_history":"[1,0]","mutagen_history":"[1,0]","location_rts":"[141,306]","trial_type":"fractal-mutation","trial_index":100,"time_elapsed":3115216,"internal_node_id":"0.0-5.0-46.0"},{"group":"hexagon_tri","fractal_assignment":["../images/pnk_blu.png","../images/gry_blk.png","../images/org_blu.png","../images/cyn_red.png","../images/ylw_slt.png","../images/blu_wht.png"],"mutagen_generator_assignment":[0,1],"goal":4,"start":1,"action_noise":0,"location_history":"[1,5,4]","action_history":"[1,0]","mutagen_history":"[1,0]","location_rts":"[322,146]","trial_type":"fractal-mutation","trial_index":101,"time_elapsed":3121752,"internal_node_id":"0.0-5.0-47.0"},{"group":"hexagon_tri","fractal_assignment":["../images/pnk_blu.png","../images/gry_blk.png","../images/org_blu.png","../images/cyn_red.png","../images/ylw_slt.png","../images/blu_wht.png"],"mutagen_generator_assignment":[0,1],"goal":3,"start":4,"action_noise":0,"location_history":"[4,2,1,5,4,0,1,3]","action_history":"[1,0,1,0,0,1,0]","mutagen_history":"[1,0,1,0,0,1,0]","location_rts":"[297,174,441,237,407,427,336]","trial_type":"fractal-mutation","trial_index":102,"time_elapsed":3135335,"internal_node_id":"0.0-5.0-48.0"},{"group":"hexagon_tri","fractal_assignment":["../images/pnk_blu.png","../images/gry_blk.png","../images/org_blu.png","../images/cyn_red.png","../images/ylw_slt.png","../images/blu_wht.png"],"mutagen_generator_assignment":[0,1],"goal":5,"start":3,"action_noise":0,"location_history":"[3,2,3,4,0,1,3,4,0,1,3,2,1,5]","action_history":"[0,1,1,0,1,0,1,0,1,0,0,0,1]","mutagen_history":"[0,1,1,0,1,0,1,0,1,0,0,0,1]","location_rts":"[577,257,372,268,301,361,434,443,486,346,207,424,267]","trial_type":"fractal-mutation","trial_index":103,"time_elapsed":3157578,"internal_node_id":"0.0-5.0-49.0"},{"view_history":"[{\"page_index\":0,\"viewing_time\":4734}]","rt":4734,"trial_type":"instructions","trial_index":104,"time_elapsed":3163313,"internal_node_id":"0.0-6.0"},{"rt":60536,"responses":"{\"Q0\":\"a longer hit timer helps everyone. although the actual hit may take 30 minutes, a 4 to 6 to 10 hour hit timer lets one do the HIT when they have more time for it.\"}","trial_type":"survey-text","trial_index":105,"time_elapsed":3224855,"internal_node_id":"0.0-7.0"}]