[{"view_history":"[{\"page_index\":0,\"viewing_time\":1878},{\"page_index\":1,\"viewing_time\":14834},{\"page_index\":2,\"viewing_time\":15754}]","rt":32468,"trial_type":"instructions","trial_index":0,"time_elapsed":32471,"internal_node_id":"0.0-0.0"},{"view_history":"[{\"page_index\":0,\"viewing_time\":25939},{\"page_index\":1,\"viewing_time\":48156}]","rt":74096,"trial_type":"instructions","trial_index":1,"time_elapsed":107569,"internal_node_id":"0.0-1.0"},{"group":"hexagon_tri","room_assignment":["grey","yellow","blue","green","red","purple"],"door_color_assignment":["black","white"],"door_generator_assignment":[1,0],"goal":4,"start":0,"action_noise":0,"location_history":"[0,1,5,4]","action_history":"[1,1,0]","door_history":"[0,0,1]","location_rts":"[7042,1779,2026]","trial_type":"two-door-navigation","trial_index":2,"time_elapsed":125643,"internal_node_id":"0.0-2.0-0.0"},{"group":"hexagon_tri","room_assignment":["grey","yellow","blue","green","red","purple"],"door_color_assignment":["black","white"],"door_generator_assignment":[1,0],"goal":3,"start":4,"action_noise":0,"location_history":"[4,0,5,0,1,5,4,0,1,5,4,2,3]","action_history":"[0,0,1,1,1,0,0,1,1,0,1,1]","door_history":"[1,1,0,0,0,1,1,0,0,1,0,0]","location_rts":"[5188,1049,952,693,610,840,534,1084,600,1771,1693,963]","trial_type":"two-door-navigation","trial_index":3,"time_elapsed":158320,"internal_node_id":"0.0-2.0-1.0"},{"group":"hexagon_tri","room_assignment":["grey","yellow","blue","green","red","purple"],"door_color_assignment":["black","white"],"door_generator_assignment":[1,0],"goal":5,"start":3,"action_noise":0,"location_history":"[3,4,2,1,3,2,1,3,4,0,1,5]","action_history":"[1,1,0,0,0,0,0,1,0,1,1]","door_history":"[0,0,1,1,1,1,1,0,1,0,0]","location_rts":"[3530,1602,1804,510,499,558,480,622,1049,750,762]","trial_type":"two-door-navigation","trial_index":4,"time_elapsed":186142,"internal_node_id":"0.0-2.0-2.0"},{"group":"hexagon_tri","room_assignment":["grey","yellow","blue","green","red","purple"],"door_color_assignment":["black","white"],"door_generator_assignment":[1,0],"goal":2,"start":5,"action_noise":0,"location_history":"[5,4,0,5,0,1,5,0,5,4,0,1,3,2]","action_history":"[0,0,0,1,1,1,1,0,0,0,1,0,0]","door_history":"[1,1,1,0,0,0,0,1,1,1,0,1,1]","location_rts":"[3899,661,1374,1175,622,503,485,1250,624,1246,1119,1048,983]","trial_type":"two-door-navigation","trial_index":5,"time_elapsed":218822,"internal_node_id":"0.0-2.0-3.0"},{"group":"hexagon_tri","room_assignment":["grey","yellow","blue","green","red","purple"],"door_color_assignment":["black","white"],"door_generator_assignment":[1,0],"goal":1,"start":2,"action_noise":0,"location_history":"[2,1]","action_history":"[0]","door_history":"[1]","location_rts":"[3410]","trial_type":"two-door-navigation","trial_index":6,"time_elapsed":227425,"internal_node_id":"0.0-2.0-4.0"},{"group":"hexagon_tri","room_assignment":["grey","yellow","blue","green","red","purple"],"door_color_assignment":["black","white"],"door_generator_assignment":[1,0],"goal":4,"start":1,"action_noise":0,"location_history":"[1,3,2,1,3,4]","action_history":"[0,0,0,0,1]","door_history":"[1,1,1,1,0]","location_rts":"[4649,457,555,898,664]","trial_type":"two-door-navigation","trial_index":7,"time_elapsed":243954,"internal_node_id":"0.0-2.0-5.0"},{"group":"hexagon_tri","room_assignment":["grey","yellow","blue","green","red","purple"],"door_color_assignment":["black","white"],"door_generator_assignment":[1,0],"goal":1,"start":4,"action_noise":0,"location_history":"[4,2,1]","action_history":"[1,0]","door_history":"[0,1]","location_rts":"[4694,1171]","trial_type":"two-door-navigation","trial_index":8,"time_elapsed":255930,"internal_node_id":"0.0-2.0-6.0"},{"group":"hexagon_tri","room_assignment":["grey","yellow","blue","green","red","purple"],"door_color_assignment":["black","white"],"door_generator_assignment":[1,0],"goal":5,"start":1,"action_noise":0,"location_history":"[1,5]","action_history":"[1]","door_history":"[0]","location_rts":"[11531]","trial_type":"two-door-navigation","trial_index":9,"time_elapsed":272510,"internal_node_id":"0.0-2.0-7.0"},{"group":"hexagon_tri","room_assignment":["grey","yellow","blue","green","red","purple"],"door_color_assignment":["black","white"],"door_generator_assignment":[1,0],"goal":0,"start":5,"action_noise":0,"location_history":"[5,4,0]","action_history":"[0,0]","door_history":"[1,1]","location_rts":"[3059,1156]","trial_type":"two-door-navigation","trial_index":10,"time_elapsed":282825,"internal_node_id":"0.0-2.0-8.0"},{"group":"hexagon_tri","room_assignment":["grey","yellow","blue","green","red","purple"],"door_color_assignment":["black","white"],"door_generator_assignment":[1,0],"goal":2,"start":0,"action_noise":0,"location_history":"[0,1,5,0,5,4,0,5,0,1,5,4,0,1,3,2]","action_history":"[1,1,1,0,0,0,0,1,1,1,0,0,1,0,0]","door_history":"[0,0,0,1,1,1,1,0,0,0,1,1,0,1,1]","location_rts":"[4335,688,556,1115,501,697,976,1110,681,554,865,462,1290,581,957]","trial_type":"two-door-navigation","trial_index":11,"time_elapsed":317975,"internal_node_id":"0.0-2.0-9.0"},{"group":"hexagon_tri","room_assignment":["grey","yellow","blue","green","red","purple"],"door_color_assignment":["black","white"],"door_generator_assignment":[1,0],"goal":3,"start":2,"action_noise":0,"location_history":"[2,3]","action_history":"[1]","door_history":"[0]","location_rts":"[24517]","trial_type":"two-door-navigation","trial_index":12,"time_elapsed":347539,"internal_node_id":"0.0-2.0-10.0"},{"group":"hexagon_tri","room_assignment":["grey","yellow","blue","green","red","purple"],"door_color_assignment":["black","white"],"door_generator_assignment":[1,0],"goal":0,"start":3,"action_noise":0,"location_history":"[3,2,1,3,2,3,4,2,3,2,3,2,1,3,4,2,1,3,4,0]","action_history":"[0,0,0,0,1,1,1,1,0,1,0,0,0,1,1,0,0,1,0]","door_history":"[1,1,1,1,0,0,0,0,1,0,1,1,1,0,0,1,1,0,1]","location_rts":"[10496,577,519,727,428,638,561,490,908,1520,682,709,1319,1199,921,691,808,751,12375]","trial_type":"two-door-navigation","trial_index":13,"time_elapsed":407877,"internal_node_id":"0.0-2.0-11.0"},{"group":"hexagon_tri","room_assignment":["grey","yellow","blue","green","red","purple"],"door_color_assignment":["black","white"],"door_generator_assignment":[1,0],"goal":2,"start":0,"action_noise":0,"location_history":"[0,1,3,2]","action_history":"[1,0,0]","door_history":"[0,1,1]","location_rts":"[3792,748,628]","trial_type":"two-door-navigation","trial_index":14,"time_elapsed":420181,"internal_node_id":"0.0-2.0-12.0"},{"group":"hexagon_tri","room_assignment":["grey","yellow","blue","green","red","purple"],"door_color_assignment":["black","white"],"door_generator_assignment":[1,0],"goal":5,"start":2,"action_noise":0,"location_history":"[2,3,4,0,5]","action_history":"[1,1,0,0]","door_history":"[0,0,1,1]","location_rts":"[5530,567,1643,1085]","trial_type":"two-door-navigation","trial_index":15,"time_elapsed":437198,"internal_node_id":"0.0-2.0-13.0"},{"group":"hexagon_tri","room_assignment":["grey","yellow","blue","green","red","purple"],"door_color_assignment":["black","white"],"door_generator_assignment":[1,0],"goal":4,"start":5,"action_noise":0,"location_history":"[5,0,1,5,4]","action_history":"[1,1,1,0]","door_history":"[0,0,0,1]","location_rts":"[4481,630,854,795]","trial_type":"two-door-navigation","trial_index":16,"time_elapsed":452191,"internal_node_id":"0.0-2.0-14.0"},{"group":"hexagon_tri","room_assignment":["grey","yellow","blue","green","red","purple"],"door_color_assignment":["black","white"],"door_generator_assignment":[1,0],"goal":3,"start":4,"action_noise":0,"location_history":"[4,0,5,4,2,3]","action_history":"[0,0,0,1,1]","door_history":"[1,1,1,0,0]","location_rts":"[5224,560,642,435,1454]","trial_type":"two-door-navigation","trial_index":17,"time_elapsed":469797,"internal_node_id":"0.0-2.0-15.0"},{"group":"hexagon_tri","room_assignment":["grey","yellow","blue","green","red","purple"],"door_color_assignment":["black","white"],"door_generator_assignment":[1,0],"goal":1,"start":3,"action_noise":0,"location_history":"[3,4,0,5,4,2,3,4,0,5,4,2,3,2,3,4,2,1]","action_history":"[1,0,0,0,1,1,1,0,0,0,1,1,0,1,1,1,0]","door_history":"[0,1,1,1,0,0,0,1,1,1,0,0,1,0,0,0,1]","location_rts":"[3987,2121,433,510,610,394,465,791,783,743,2203,791,904,1554,718,1352,2466]","trial_type":"two-door-navigation","trial_index":18,"time_elapsed":512407,"internal_node_id":"0.0-2.0-16.0"},{"group":"hexagon_tri","room_assignment":["grey","yellow","blue","green","red","purple"],"door_color_assignment":["black","white"],"door_generator_assignment":[1,0],"goal":5,"start":1,"action_noise":0,"location_history":"[1,5]","action_history":"[1]","door_history":"[0]","location_rts":"[7636]","trial_type":"two-door-navigation","trial_index":19,"time_elapsed":525106,"internal_node_id":"0.0-2.0-17.0"},{"group":"hexagon_tri","room_assignment":["grey","yellow","blue","green","red","purple"],"door_color_assignment":["black","white"],"door_generator_assignment":[1,0],"goal":4,"start":5,"action_noise":0,"location_history":"[5,0,5,4]","action_history":"[1,0,0]","door_history":"[0,1,1]","location_rts":"[4051,911,699]","trial_type":"two-door-navigation","trial_index":20,"time_elapsed":537902,"internal_node_id":"0.0-2.0-18.0"},{"group":"hexagon_tri","room_assignment":["grey","yellow","blue","green","red","purple"],"door_color_assignment":["black","white"],"door_generator_assignment":[1,0],"goal":0,"start":4,"action_noise":0,"location_history":"[4,2,1,3,2,1,5,0]","action_history":"[1,0,0,0,0,1,1]","door_history":"[0,1,1,1,1,0,0]","location_rts":"[46848,971,695,501,534,1105,407]","trial_type":"two-door-navigation","trial_index":21,"time_elapsed":600333,"internal_node_id":"0.0-2.0-19.0"},{"group":"hexagon_tri","room_assignment":["grey","yellow","blue","green","red","purple"],"door_color_assignment":["black","white"],"door_generator_assignment":[1,0],"goal":1,"start":0,"action_noise":0,"location_history":"[0,1]","action_history":"[1]","door_history":"[0]","location_rts":"[7414]","trial_type":"two-door-navigation","trial_index":22,"time_elapsed":612812,"internal_node_id":"0.0-2.0-20.0"},{"group":"hexagon_tri","room_assignment":["grey","yellow","blue","green","red","purple"],"door_color_assignment":["black","white"],"door_generator_assignment":[1,0],"goal":3,"start":1,"action_noise":0,"location_history":"[1,3]","action_history":"[0]","door_history":"[1]","location_rts":"[4121]","trial_type":"two-door-navigation","trial_index":23,"time_elapsed":621994,"internal_node_id":"0.0-2.0-21.0"},{"group":"hexagon_tri","room_assignment":["grey","yellow","blue","green","red","purple"],"door_color_assignment":["black","white"],"door_generator_assignment":[1,0],"goal":2,"start":3,"action_noise":0,"location_history":"[3,4,2]","action_history":"[1,1]","door_history":"[0,0]","location_rts":"[9080,10350]","trial_type":"two-door-navigation","trial_index":24,"time_elapsed":647515,"internal_node_id":"0.0-2.0-22.0"},{"group":"hexagon_tri","room_assignment":["grey","yellow","blue","green","red","purple"],"door_color_assignment":["black","white"],"door_generator_assignment":[1,0],"goal":0,"start":2,"action_noise":0,"location_history":"[2,3,4,0]","action_history":"[1,1,0]","door_history":"[0,0,1]","location_rts":"[12480,626,745]","trial_type":"two-door-navigation","trial_index":25,"time_elapsed":668529,"internal_node_id":"0.0-2.0-23.0"},{"group":"hexagon_tri","room_assignment":["grey","yellow","blue","green","red","purple"],"door_color_assignment":["black","white"],"door_generator_assignment":[1,0],"goal":3,"start":0,"action_noise":0,"location_history":"[0,5,4,2,3]","action_history":"[0,0,1,1]","door_history":"[1,1,0,0]","location_rts":"[2965,502,1075,642]","trial_type":"two-door-navigation","trial_index":26,"time_elapsed":681906,"internal_node_id":"0.0-2.0-24.0"},{"group":"hexagon_tri","room_assignment":["grey","yellow","blue","green","red","purple"],"door_color_assignment":["black","white"],"door_generator_assignment":[1,0],"goal":1,"start":3,"action_noise":0,"location_history":"[3,2,3,4,2,3,2,1]","action_history":"[0,1,1,1,1,0,0]","door_history":"[1,0,0,0,0,1,1]","location_rts":"[3680,1111,1112,538,479,614,975]","trial_type":"two-door-navigation","trial_index":27,"time_elapsed":702432,"internal_node_id":"0.0-2.0-25.0"},{"group":"hexagon_tri","room_assignment":["grey","yellow","blue","green","red","purple"],"door_color_assignment":["black","white"],"door_generator_assignment":[1,0],"goal":2,"start":1,"action_noise":0,"location_history":"[1,5,4,0,5,0,1,5,4,0,5,4,2]","action_history":"[1,0,0,0,1,1,1,0,0,0,0,1]","door_history":"[0,1,1,1,0,0,0,1,1,1,1,0]","location_rts":"[3325,649,390,533,652,7639,638,1081,644,718,713,1432]","trial_type":"two-door-navigation","trial_index":28,"time_elapsed":738472,"internal_node_id":"0.0-2.0-26.0"},{"group":"hexagon_tri","room_assignment":["grey","yellow","blue","green","red","purple"],"door_color_assignment":["black","white"],"door_generator_assignment":[1,0],"goal":5,"start":2,"action_noise":0,"location_history":"[2,1,3,4,2,3,2,1,3,4,0,5]","action_history":"[0,0,1,1,1,0,0,0,1,0,0]","door_history":"[1,1,0,0,0,1,1,1,0,1,1]","location_rts":"[4669,12051,3686,354,447,399,480,793,1104,1617,666]","trial_type":"two-door-navigation","trial_index":29,"time_elapsed":780383,"internal_node_id":"0.0-2.0-27.0"},{"group":"hexagon_tri","room_assignment":["grey","yellow","blue","green","red","purple"],"door_color_assignment":["black","white"],"door_generator_assignment":[1,0],"goal":4,"start":5,"action_noise":0,"location_history":"[5,0,5,4]","action_history":"[1,0,0]","door_history":"[0,1,1]","location_rts":"[5160,1343,500]","trial_type":"two-door-navigation","trial_index":30,"time_elapsed":794560,"internal_node_id":"0.0-2.0-28.0"},{"group":"hexagon_tri","room_assignment":["grey","yellow","blue","green","red","purple"],"door_color_assignment":["black","white"],"door_generator_assignment":[1,0],"goal":5,"start":4,"action_noise":0,"location_history":"[4,2,3,2,1,3,2,3,4,2,1,3,4,2,1,5]","action_history":"[1,1,0,0,0,0,1,1,1,0,0,1,1,0,1]","door_history":"[0,0,1,1,1,1,0,0,0,1,1,0,0,1,0]","location_rts":"[8861,562,1201,723,428,564,999,650,658,542,713,1502,686,1137,562]","trial_type":"two-door-navigation","trial_index":31,"time_elapsed":834164,"internal_node_id":"0.0-2.0-29.0"},{"group":"hexagon_tri","room_assignment":["grey","yellow","blue","green","red","purple"],"door_color_assignment":["black","white"],"door_generator_assignment":[1,0],"goal":3,"start":5,"action_noise":0,"location_history":"[5,4,2,3]","action_history":"[0,1,1]","door_history":"[1,0,0]","location_rts":"[5568,1069,1762]","trial_type":"two-door-navigation","trial_index":32,"time_elapsed":849757,"internal_node_id":"0.0-2.0-30.0"},{"group":"hexagon_tri","room_assignment":["grey","yellow","blue","green","red","purple"],"door_color_assignment":["black","white"],"door_generator_assignment":[1,0],"goal":0,"start":3,"action_noise":0,"location_history":"[3,2,1,3,4,2,3,4,0]","action_history":"[0,0,0,1,1,1,1,0]","door_history":"[1,1,1,0,0,0,0,1]","location_rts":"[3570,933,745,631,395,411,522,545]","trial_type":"two-door-navigation","trial_index":33,"time_elapsed":870434,"internal_node_id":"0.0-2.0-31.0"},{"group":"hexagon_tri","room_assignment":["grey","yellow","blue","green","red","purple"],"door_color_assignment":["black","white"],"door_generator_assignment":[1,0],"goal":4,"start":0,"action_noise":0,"location_history":"[0,5,0,1,5,4]","action_history":"[0,1,1,1,0]","door_history":"[1,0,0,0,1]","location_rts":"[6597,759,407,445,1407]","trial_type":"two-door-navigation","trial_index":34,"time_elapsed":889448,"internal_node_id":"0.0-2.0-32.0"},{"group":"hexagon_tri","room_assignment":["grey","yellow","blue","green","red","purple"],"door_color_assignment":["black","white"],"door_generator_assignment":[1,0],"goal":1,"start":4,"action_noise":0,"location_history":"[4,2,1]","action_history":"[1,0]","door_history":"[0,1]","location_rts":"[4051,778]","trial_type":"two-door-navigation","trial_index":35,"time_elapsed":900412,"internal_node_id":"0.0-2.0-33.0"},{"group":"hexagon_tri","room_assignment":["grey","yellow","blue","green","red","purple"],"door_color_assignment":["black","white"],"door_generator_assignment":[1,0],"goal":2,"start":1,"action_noise":0,"location_history":"[1,5,4,0,1,5,0,5,4,0,1,5,0,5,4,2]","action_history":"[1,0,0,1,1,1,0,0,0,1,1,1,0,0,1]","door_history":"[0,1,1,0,0,0,1,1,1,0,0,0,1,1,0]","location_rts":"[1339,2316,583,1266,456,529,705,556,535,1130,562,442,428,631,345]","trial_type":"two-door-navigation","trial_index":36,"time_elapsed":932029,"internal_node_id":"0.0-2.0-34.0"},{"group":"hexagon_tri","room_assignment":["grey","yellow","blue","green","red","purple"],"door_color_assignment":["black","white"],"door_generator_assignment":[1,0],"goal":0,"start":2,"action_noise":0,"location_history":"[2,3,4,0]","action_history":"[1,1,0]","door_history":"[0,0,1]","location_rts":"[14478,11410,1000]","trial_type":"two-door-navigation","trial_index":37,"time_elapsed":966097,"internal_node_id":"0.0-2.0-35.0"},{"group":"hexagon_tri","room_assignment":["grey","yellow","blue","green","red","purple"],"door_color_assignment":["black","white"],"door_generator_assignment":[1,0],"goal":5,"start":0,"action_noise":0,"location_history":"[0,1,3,2,3,4,2,3,2,1,3,4,0,5]","action_history":"[1,0,0,1,1,1,1,0,0,0,1,0,0]","door_history":"[0,1,1,0,0,0,0,1,1,1,0,1,1]","location_rts":"[2387,3262,867,1324,444,407,448,905,672,686,1622,745,673]","trial_type":"two-door-navigation","trial_index":38,"time_elapsed":998245,"internal_node_id":"0.0-2.0-36.0"},{"group":"hexagon_tri","room_assignment":["grey","yellow","blue","green","red","purple"],"door_color_assignment":["black","white"],"door_generator_assignment":[1,0],"goal":2,"start":5,"action_noise":0,"location_history":"[5,0,5,4,0,5,0,1,5,4,2]","action_history":"[1,0,0,0,0,1,1,1,0,1]","door_history":"[0,1,1,1,1,0,0,0,1,0]","location_rts":"[8267,961,506,491,832,1914,590,559,1314,912]","trial_type":"two-door-navigation","trial_index":39,"time_elapsed":1029091,"internal_node_id":"0.0-2.0-37.0"},{"group":"hexagon_tri","room_assignment":["grey","yellow","blue","green","red","purple"],"door_color_assignment":["black","white"],"door_generator_assignment":[1,0],"goal":1,"start":2,"action_noise":0,"location_history":"[2,3,2,3,2,1]","action_history":"[1,0,1,0,0]","door_history":"[0,1,0,1,1]","location_rts":"[2084,10076,1885,1145,798]","trial_type":"two-door-navigation","trial_index":40,"time_elapsed":1054498,"internal_node_id":"0.0-2.0-38.0"},{"group":"hexagon_tri","room_assignment":["grey","yellow","blue","green","red","purple"],"door_color_assignment":["black","white"],"door_generator_assignment":[1,0],"goal":4,"start":1,"action_noise":0,"location_history":"[1,3,4]","action_history":"[0,1]","door_history":"[1,0]","location_rts":"[4434,806]","trial_type":"two-door-navigation","trial_index":41,"time_elapsed":1065843,"internal_node_id":"0.0-2.0-39.0"},{"group":"hexagon_tri","room_assignment":["grey","yellow","blue","green","red","purple"],"door_color_assignment":["black","white"],"door_generator_assignment":[1,0],"goal":3,"start":4,"action_noise":0,"location_history":"[4,0,1,5,0,5,4,0,5,0,1,3]","action_history":"[0,1,1,1,0,0,0,0,1,1,0]","door_history":"[1,0,0,0,1,1,1,1,0,0,1]","location_rts":"[4929,1328,360,455,984,570,648,608,463,461,1067]","trial_type":"two-door-navigation","trial_index":42,"time_elapsed":1093271,"internal_node_id":"0.0-2.0-40.0"},{"group":"hexagon_tri","room_assignment":["grey","yellow","blue","green","red","purple"],"door_color_assignment":["black","white"],"door_generator_assignment":[1,0],"goal":5,"start":3,"action_noise":0,"location_history":"[3,4,0,5]","action_history":"[1,0,0]","door_history":"[0,1,1]","location_rts":"[4057,1123,483]","trial_type":"two-door-navigation","trial_index":43,"time_elapsed":1106100,"internal_node_id":"0.0-2.0-41.0"},{"group":"hexagon_tri","room_assignment":["grey","yellow","blue","green","red","purple"],"door_color_assignment":["black","white"],"door_generator_assignment":[1,0],"goal":3,"start":5,"action_noise":0,"location_history":"[5,0,1,3]","action_history":"[1,1,0]","door_history":"[0,0,1]","location_rts":"[4497,1309,752]","trial_type":"two-door-navigation","trial_index":44,"time_elapsed":1119848,"internal_node_id":"0.0-2.0-42.0"},{"group":"hexagon_tri","room_assignment":["grey","yellow","blue","green","red","purple"],"door_color_assignment":["black","white"],"door_generator_assignment":[1,0],"goal":0,"start":3,"action_noise":0,"location_history":"[3,2,3,4,2,1,3,2,1,5,4,0]","action_history":"[0,1,1,1,0,0,0,0,1,0,0]","door_history":"[1,0,0,0,1,1,1,1,0,1,1]","location_rts":"[3522,949,513,591,1034,879,560,951,552,1507,1685]","trial_type":"two-door-navigation","trial_index":45,"time_elapsed":1148223,"internal_node_id":"0.0-2.0-43.0"},{"group":"hexagon_tri","room_assignment":["grey","yellow","blue","green","red","purple"],"door_color_assignment":["black","white"],"door_generator_assignment":[1,0],"goal":2,"start":0,"action_noise":0,"location_history":"[0,1,3,2]","action_history":"[1,0,0]","door_history":"[0,1,1]","location_rts":"[4553,778,408]","trial_type":"two-door-navigation","trial_index":46,"time_elapsed":1161105,"internal_node_id":"0.0-2.0-44.0"},{"group":"hexagon_tri","room_assignment":["grey","yellow","blue","green","red","purple"],"door_color_assignment":["black","white"],"door_generator_assignment":[1,0],"goal":4,"start":2,"action_noise":0,"location_history":"[2,1,5,0,1,3,2,1,5,0,1,3,2,3,4]","action_history":"[0,1,1,1,0,0,0,1,1,1,0,0,1,1]","door_history":"[1,0,0,0,1,1,1,0,0,0,1,1,0,0]","location_rts":"[3828,526,386,600,792,540,584,1101,722,619,1650,1245,1231,607]","trial_type":"two-door-navigation","trial_index":47,"time_elapsed":1194297,"internal_node_id":"0.0-2.0-45.0"},{"group":"hexagon_tri","room_assignment":["grey","yellow","blue","green","red","purple"],"door_color_assignment":["black","white"],"door_generator_assignment":[1,0],"goal":1,"start":4,"action_noise":0,"location_history":"[4,0,5,0,5,0,5,4,2,3,4,0,5,0,1]","action_history":"[0,0,1,0,1,0,0,1,1,1,0,0,1,1]","door_history":"[1,1,0,1,0,1,1,0,0,0,1,1,0,0]","location_rts":"[4878,948,770,1270,1432,1708,626,1021,528,673,1387,643,1085,700]","trial_type":"two-door-navigation","trial_index":48,"time_elapsed":1230878,"internal_node_id":"0.0-2.0-46.0"},{"group":"hexagon_tri","room_assignment":["grey","yellow","blue","green","red","purple"],"door_color_assignment":["black","white"],"door_generator_assignment":[1,0],"goal":4,"start":1,"action_noise":0,"location_history":"[1,3,4]","action_history":"[0,1]","door_history":"[1,0]","location_rts":"[3787,799]","trial_type":"two-door-navigation","trial_index":49,"time_elapsed":1241589,"internal_node_id":"0.0-2.0-47.0"},{"group":"hexagon_tri","room_assignment":["grey","yellow","blue","green","red","purple"],"door_color_assignment":["black","white"],"door_generator_assignment":[1,0],"goal":3,"start":4,"action_noise":0,"location_history":"[4,2,1,3]","action_history":"[1,0,0]","door_history":"[0,1,1]","location_rts":"[3826,1275,380]","trial_type":"two-door-navigation","trial_index":50,"time_elapsed":1254241,"internal_node_id":"0.0-2.0-48.0"},{"group":"hexagon_tri","room_assignment":["grey","yellow","blue","green","red","purple"],"door_color_assignment":["black","white"],"door_generator_assignment":[1,0],"goal":5,"start":3,"action_noise":0,"location_history":"[3,4,0,5]","action_history":"[1,0,0]","door_history":"[0,1,1]","location_rts":"[4875,914,428]","trial_type":"two-door-navigation","trial_index":51,"time_elapsed":1267654,"internal_node_id":"0.0-2.0-49.0"},{"view_history":"[{\"page_index\":0,\"viewing_time\":2123}]","rt":2123,"trial_type":"instructions","trial_index":52,"time_elapsed":1270780,"internal_node_id":"0.0-3.0"},{"view_history":"[{\"page_index\":0,\"viewing_time\":1956},{\"page_index\":1,\"viewing_time\":38202}]","rt":40163,"trial_type":"instructions","trial_index":53,"time_elapsed":1311947,"internal_node_id":"0.0-4.0"},{"group":"hexagon_bi","fractal_assignment":["../images/ylw_slt.png","../images/org_blu.png","../images/blu_wht.png","../images/pnk_blu.png","../images/gry_blk.png","../images/cyn_red.png"],"mutagen_generator_assignment":[1,0],"goal":4,"start":0,"action_noise":0,"location_history":"[0,1,2,3,2,1,2,3,4]","action_history":"[1,0,1,1,0,0,1,0]","mutagen_history":"[0,1,0,0,1,1,0,1]","location_rts":"[7671,3449,1163,897,907,225,1799,754]","trial_type":"fractal-mutation","trial_index":54,"time_elapsed":1341601,"internal_node_id":"0.0-5.0-0.0"},{"group":"hexagon_bi","fractal_assignment":["../images/ylw_slt.png","../images/org_blu.png","../images/blu_wht.png","../images/pnk_blu.png","../images/gry_blk.png","../images/cyn_red.png"],"mutagen_generator_assignment":[1,0],"goal":3,"start":4,"action_noise":0,"location_history":"[4,5,4,3]","action_history":"[1,1,0]","mutagen_history":"[0,0,1]","location_rts":"[2186,655,931]","trial_type":"fractal-mutation","trial_index":55,"time_elapsed":1352652,"internal_node_id":"0.0-5.0-1.0"},{"group":"hexagon_bi","fractal_assignment":["../images/ylw_slt.png","../images/org_blu.png","../images/blu_wht.png","../images/pnk_blu.png","../images/gry_blk.png","../images/cyn_red.png"],"mutagen_generator_assignment":[1,0],"goal":5,"start":3,"action_noise":0,"location_history":"[3,2,3,4,3,4,5]","action_history":"[1,1,0,0,0,1]","mutagen_history":"[0,0,1,1,1,0]","location_rts":"[1615,1301,658,588,699,514]","trial_type":"fractal-mutation","trial_index":56,"time_elapsed":1368618,"internal_node_id":"0.0-5.0-2.0"},{"group":"hexagon_bi","fractal_assignment":["../images/ylw_slt.png","../images/org_blu.png","../images/blu_wht.png","../images/pnk_blu.png","../images/gry_blk.png","../images/cyn_red.png"],"mutagen_generator_assignment":[1,0],"goal":2,"start":5,"action_noise":0,"location_history":"[5,4,5,0,5,0,5,4,5,4,5,0,1,0,5,0,5,4,5,0,5,0,5,0,5,0,1,2]","action_history":"[1,1,0,0,0,0,1,1,1,1,0,1,1,0,0,0,1,1,0,0,0,0,0,0,0,1,0]","mutagen_history":"[0,0,1,1,1,1,0,0,0,0,1,0,0,1,1,1,0,0,1,1,1,1,1,1,1,0,1]","location_rts":"[9919,603,1380,560,676,511,1135,7353,1828,742,1237,1644,1775,1812,1302,1184,1463,1253,1898,584,555,1095,764,852,1275,663,1742]","trial_type":"fractal-mutation","trial_index":57,"time_elapsed":1447827,"internal_node_id":"0.0-5.0-3.0"},{"group":"hexagon_bi","fractal_assignment":["../images/ylw_slt.png","../images/org_blu.png","../images/blu_wht.png","../images/pnk_blu.png","../images/gry_blk.png","../images/cyn_red.png"],"mutagen_generator_assignment":[1,0],"goal":1,"start":2,"action_noise":0,"location_history":"[2,3,2,1]","action_history":"[1,1,0]","mutagen_history":"[0,0,1]","location_rts":"[1489,1193,1315]","trial_type":"fractal-mutation","trial_index":58,"time_elapsed":1459052,"internal_node_id":"0.0-5.0-4.0"},{"group":"hexagon_bi","fractal_assignment":["../images/ylw_slt.png","../images/org_blu.png","../images/blu_wht.png","../images/pnk_blu.png","../images/gry_blk.png","../images/cyn_red.png"],"mutagen_generator_assignment":[1,0],"goal":4,"start":1,"action_noise":0,"location_history":"[1,0,1,2,1,2,3,2,1,2,1,0,1,0,5,0,1,0,5,4]","action_history":"[1,1,0,0,0,1,1,0,0,0,1,1,1,0,0,1,1,0,1]","mutagen_history":"[0,0,1,1,1,0,0,1,1,1,0,0,0,1,1,0,0,1,0]","location_rts":"[1434,616,1001,3601,1025,868,1379,1105,759,703,1273,912,1334,1066,1105,1168,972,1358,988]","trial_type":"fractal-mutation","trial_index":59,"time_elapsed":1506250,"internal_node_id":"0.0-5.0-5.0"},{"group":"hexagon_bi","fractal_assignment":["../images/ylw_slt.png","../images/org_blu.png","../images/blu_wht.png","../images/pnk_blu.png","../images/gry_blk.png","../images/cyn_red.png"],"mutagen_generator_assignment":[1,0],"goal":1,"start":4,"action_noise":0,"location_history":"[4,3,4,5,4,5,0,1]","action_history":"[0,0,1,1,1,0,1]","mutagen_history":"[1,1,0,0,0,1,0]","location_rts":"[3340,671,827,691,825,748,904]","trial_type":"fractal-mutation","trial_index":60,"time_elapsed":1525872,"internal_node_id":"0.0-5.0-6.0"},{"group":"hexagon_bi","fractal_assignment":["../images/ylw_slt.png","../images/org_blu.png","../images/blu_wht.png","../images/pnk_blu.png","../images/gry_blk.png","../images/cyn_red.png"],"mutagen_generator_assignment":[1,0],"goal":5,"start":1,"action_noise":0,"location_history":"[1,2,3,2,3,2,3,4,3,4,5]","action_history":"[0,1,1,1,1,1,0,0,0,1]","mutagen_history":"[1,0,0,0,0,0,1,1,1,0]","location_rts":"[810,695,644,475,477,782,518,647,640,698]","trial_type":"fractal-mutation","trial_index":61,"time_elapsed":1547143,"internal_node_id":"0.0-5.0-7.0"},{"group":"hexagon_bi","fractal_assignment":["../images/ylw_slt.png","../images/org_blu.png","../images/blu_wht.png","../images/pnk_blu.png","../images/gry_blk.png","../images/cyn_red.png"],"mutagen_generator_assignment":[1,0],"goal":0,"start":5,"action_noise":0,"location_history":"[5,4,5,4,3,4,5,0]","action_history":"[1,1,1,0,0,1,0]","mutagen_history":"[0,0,0,1,1,0,1]","location_rts":"[783,671,1001,496,555,342,393]","trial_type":"fractal-mutation","trial_index":62,"time_elapsed":1563019,"internal_node_id":"0.0-5.0-8.0"},{"group":"hexagon_bi","fractal_assignment":["../images/ylw_slt.png","../images/org_blu.png","../images/blu_wht.png","../images/pnk_blu.png","../images/gry_blk.png","../images/cyn_red.png"],"mutagen_generator_assignment":[1,0],"goal":2,"start":0,"action_noise":0,"location_history":"[0,1,2]","action_history":"[1,0]","mutagen_history":"[0,1]","location_rts":"[1018,1493]","trial_type":"fractal-mutation","trial_index":63,"time_elapsed":1571723,"internal_node_id":"0.0-5.0-9.0"},{"group":"hexagon_bi","fractal_assignment":["../images/ylw_slt.png","../images/org_blu.png","../images/blu_wht.png","../images/pnk_blu.png","../images/gry_blk.png","../images/cyn_red.png"],"mutagen_generator_assignment":[1,0],"goal":3,"start":2,"action_noise":0,"location_history":"[2,3]","action_history":"[1]","mutagen_history":"[0]","location_rts":"[1177]","trial_type":"fractal-mutation","trial_index":64,"time_elapsed":1577985,"internal_node_id":"0.0-5.0-10.0"},{"group":"hexagon_bi","fractal_assignment":["../images/ylw_slt.png","../images/org_blu.png","../images/blu_wht.png","../images/pnk_blu.png","../images/gry_blk.png","../images/cyn_red.png"],"mutagen_generator_assignment":[1,0],"goal":0,"start":3,"action_noise":0,"location_history":"[3,2,3,2,3,4,5,0]","action_history":"[1,1,1,1,0,1,0]","mutagen_history":"[0,0,0,0,1,0,1]","location_rts":"[700,624,548,896,799,701,1334]","trial_type":"fractal-mutation","trial_index":65,"time_elapsed":1595181,"internal_node_id":"0.0-5.0-11.0"},{"group":"hexagon_bi","fractal_assignment":["../images/ylw_slt.png","../images/org_blu.png","../images/blu_wht.png","../images/pnk_blu.png","../images/gry_blk.png","../images/cyn_red.png"],"mutagen_generator_assignment":[1,0],"goal":2,"start":0,"action_noise":0,"location_history":"[0,1,2]","action_history":"[1,0]","mutagen_history":"[0,1]","location_rts":"[1560,694]","trial_type":"fractal-mutation","trial_index":66,"time_elapsed":1603605,"internal_node_id":"0.0-5.0-12.0"},{"group":"hexagon_bi","fractal_assignment":["../images/ylw_slt.png","../images/org_blu.png","../images/blu_wht.png","../images/pnk_blu.png","../images/gry_blk.png","../images/cyn_red.png"],"mutagen_generator_assignment":[1,0],"goal":5,"start":2,"action_noise":0,"location_history":"[2,3,2,1,2,1,0,5]","action_history":"[1,1,0,0,0,1,0]","mutagen_history":"[0,0,1,1,1,0,1]","location_rts":"[919,686,425,780,535,537,600]","trial_type":"fractal-mutation","trial_index":67,"time_elapsed":1619736,"internal_node_id":"0.0-5.0-13.0"},{"group":"hexagon_bi","fractal_assignment":["../images/ylw_slt.png","../images/org_blu.png","../images/blu_wht.png","../images/pnk_blu.png","../images/gry_blk.png","../images/cyn_red.png"],"mutagen_generator_assignment":[1,0],"goal":4,"start":5,"action_noise":0,"location_history":"[5,4]","action_history":"[1]","mutagen_history":"[0]","location_rts":"[1002]","trial_type":"fractal-mutation","trial_index":68,"time_elapsed":1625808,"internal_node_id":"0.0-5.0-14.0"},{"group":"hexagon_bi","fractal_assignment":["../images/ylw_slt.png","../images/org_blu.png","../images/blu_wht.png","../images/pnk_blu.png","../images/gry_blk.png","../images/cyn_red.png"],"mutagen_generator_assignment":[1,0],"goal":3,"start":4,"action_noise":0,"location_history":"[4,3]","action_history":"[0]","mutagen_history":"[1]","location_rts":"[1116]","trial_type":"fractal-mutation","trial_index":69,"time_elapsed":1632040,"internal_node_id":"0.0-5.0-15.0"},{"group":"hexagon_bi","fractal_assignment":["../images/ylw_slt.png","../images/org_blu.png","../images/blu_wht.png","../images/pnk_blu.png","../images/gry_blk.png","../images/cyn_red.png"],"mutagen_generator_assignment":[1,0],"goal":1,"start":3,"action_noise":0,"location_history":"[3,2,3,4,3,4,3,2,3,4,5,0,5,4,5,4,5,0,5,0,1]","action_history":"[1,1,0,0,0,0,1,1,0,1,0,0,1,1,1,1,0,0,0,1]","mutagen_history":"[0,0,1,1,1,1,0,0,1,0,1,1,0,0,0,0,1,1,1,0]","location_rts":"[1040,674,896,478,2209,580,661,656,1216,700,744,605,821,417,652,535,899,1292,746,679]","trial_type":"fractal-mutation","trial_index":70,"time_elapsed":1674336,"internal_node_id":"0.0-5.0-16.0"},{"group":"hexagon_bi","fractal_assignment":["../images/ylw_slt.png","../images/org_blu.png","../images/blu_wht.png","../images/pnk_blu.png","../images/gry_blk.png","../images/cyn_red.png"],"mutagen_generator_assignment":[1,0],"goal":5,"start":1,"action_noise":0,"location_history":"[1,0,1,2,1,2,1,0,1,0,1,2,1,2,3,2,1,0,1,0,1,2,1,0,5]","action_history":"[1,1,0,0,0,0,1,1,1,1,0,0,0,1,1,0,1,1,1,1,0,0,1,0]","mutagen_history":"[0,0,1,1,1,1,0,0,0,0,1,1,1,0,0,1,0,0,0,0,1,1,0,1]","location_rts":"[2997,779,669,551,504,516,563,510,503,597,828,492,500,680,625,623,838,565,961,570,695,1364,578,2710]","trial_type":"fractal-mutation","trial_index":71,"time_elapsed":1724462,"internal_node_id":"0.0-5.0-17.0"},{"group":"hexagon_bi","fractal_assignment":["../images/ylw_slt.png","../images/org_blu.png","../images/blu_wht.png","../images/pnk_blu.png","../images/gry_blk.png","../images/cyn_red.png"],"mutagen_generator_assignment":[1,0],"goal":4,"start":5,"action_noise":0,"location_history":"[5,4]","action_history":"[1]","mutagen_history":"[0]","location_rts":"[875]","trial_type":"fractal-mutation","trial_index":72,"time_elapsed":1730407,"internal_node_id":"0.0-5.0-18.0"},{"group":"hexagon_bi","fractal_assignment":["../images/ylw_slt.png","../images/org_blu.png","../images/blu_wht.png","../images/pnk_blu.png","../images/gry_blk.png","../images/cyn_red.png"],"mutagen_generator_assignment":[1,0],"goal":0,"start":4,"action_noise":0,"location_history":"[4,3,2,1,2,1,2,3,2,3,4,3,2,3,2,1,0]","action_history":"[0,1,0,0,0,0,1,1,1,0,0,1,1,1,0,1]","mutagen_history":"[1,0,1,1,1,1,0,0,0,1,1,0,0,0,1,0]","location_rts":"[728,756,604,563,623,618,540,1359,696,500,1196,986,617,1078,1139,1293]","trial_type":"fractal-mutation","trial_index":73,"time_elapsed":1765112,"internal_node_id":"0.0-5.0-19.0"},{"group":"hexagon_bi","fractal_assignment":["../images/ylw_slt.png","../images/org_blu.png","../images/blu_wht.png","../images/pnk_blu.png","../images/gry_blk.png","../images/cyn_red.png"],"mutagen_generator_assignment":[1,0],"goal":1,"start":0,"action_noise":0,"location_history":"[0,5,4,5,0,5,4,5,0,1]","action_history":"[0,1,1,0,0,1,1,0,1]","mutagen_history":"[1,0,0,1,1,0,0,1,0]","location_rts":"[753,478,476,664,546,675,678,1301,765]","trial_type":"fractal-mutation","trial_index":74,"time_elapsed":1785266,"internal_node_id":"0.0-5.0-20.0"},{"group":"hexagon_bi","fractal_assignment":["../images/ylw_slt.png","../images/org_blu.png","../images/blu_wht.png","../images/pnk_blu.png","../images/gry_blk.png","../images/cyn_red.png"],"mutagen_generator_assignment":[1,0],"goal":3,"start":1,"action_noise":0,"location_history":"[1,0,1,2,1,0,5,0,5,4,5,0,5,0,5,4,3]","action_history":"[1,1,0,0,1,0,0,0,1,1,0,0,0,0,1,0]","mutagen_history":"[0,0,1,1,0,1,1,1,0,0,1,1,1,1,0,1]","location_rts":"[868,682,599,483,530,465,738,567,630,797,742,565,506,475,654,807]","trial_type":"fractal-mutation","trial_index":75,"time_elapsed":1816782,"internal_node_id":"0.0-5.0-21.0"},{"group":"hexagon_bi","fractal_assignment":["../images/ylw_slt.png","../images/org_blu.png","../images/blu_wht.png","../images/pnk_blu.png","../images/gry_blk.png","../images/cyn_red.png"],"mutagen_generator_assignment":[1,0],"goal":2,"start":3,"action_noise":0,"location_history":"[3,2]","action_history":"[1]","mutagen_history":"[0]","location_rts":"[1410]","trial_type":"fractal-mutation","trial_index":76,"time_elapsed":1823265,"internal_node_id":"0.0-5.0-22.0"},{"group":"hexagon_bi","fractal_assignment":["../images/ylw_slt.png","../images/org_blu.png","../images/blu_wht.png","../images/pnk_blu.png","../images/gry_blk.png","../images/cyn_red.png"],"mutagen_generator_assignment":[1,0],"goal":0,"start":2,"action_noise":0,"location_history":"[2,1,2,3,2,3,2,1,0]","action_history":"[0,0,1,1,1,1,0,1]","mutagen_history":"[1,1,0,0,0,0,1,0]","location_rts":"[1030,492,628,512,449,596,484,407]","trial_type":"fractal-mutation","trial_index":77,"time_elapsed":1840479,"internal_node_id":"0.0-5.0-23.0"},{"group":"hexagon_bi","fractal_assignment":["../images/ylw_slt.png","../images/org_blu.png","../images/blu_wht.png","../images/pnk_blu.png","../images/gry_blk.png","../images/cyn_red.png"],"mutagen_generator_assignment":[1,0],"goal":3,"start":0,"action_noise":0,"location_history":"[0,5,4,5,4,3]","action_history":"[0,1,1,1,0]","mutagen_history":"[1,0,0,0,1]","location_rts":"[1378,368,653,509,384]","trial_type":"fractal-mutation","trial_index":78,"time_elapsed":1853187,"internal_node_id":"0.0-5.0-24.0"},{"group":"hexagon_bi","fractal_assignment":["../images/ylw_slt.png","../images/org_blu.png","../images/blu_wht.png","../images/pnk_blu.png","../images/gry_blk.png","../images/cyn_red.png"],"mutagen_generator_assignment":[1,0],"goal":1,"start":3,"action_noise":0,"location_history":"[3,4,5,0,5,4,5,4,3,4,5,4,5,0,5,0,1]","action_history":"[0,1,0,0,1,1,1,0,0,1,1,1,0,0,0,1]","mutagen_history":"[1,0,1,1,0,0,0,1,1,0,0,0,1,1,1,0]","location_rts":"[679,376,639,540,547,588,513,313,587,555,19263,466,891,674,1305,401]","trial_type":"fractal-mutation","trial_index":79,"time_elapsed":1903000,"internal_node_id":"0.0-5.0-25.0"},{"group":"hexagon_bi","fractal_assignment":["../images/ylw_slt.png","../images/org_blu.png","../images/blu_wht.png","../images/pnk_blu.png","../images/gry_blk.png","../images/cyn_red.png"],"mutagen_generator_assignment":[1,0],"goal":2,"start":1,"action_noise":0,"location_history":"[1,0,5,4,5,4,3,4,5,0,1,0,5,0,5,4,5,0,1,2]","action_history":"[1,0,1,1,1,0,0,1,0,1,1,0,0,0,1,1,0,1,0]","mutagen_history":"[0,1,0,0,0,1,1,0,1,0,0,1,1,1,0,0,1,0,1]","location_rts":"[1718,1197,479,573,2316,336,1276,762,304,961,588,966,519,470,847,1267,721,716,887]","trial_type":"fractal-mutation","trial_index":80,"time_elapsed":1944569,"internal_node_id":"0.0-5.0-26.0"},{"group":"hexagon_bi","fractal_assignment":["../images/ylw_slt.png","../images/org_blu.png","../images/blu_wht.png","../images/pnk_blu.png","../images/gry_blk.png","../images/cyn_red.png"],"mutagen_generator_assignment":[1,0],"goal":5,"start":2,"action_noise":0,"location_history":"[2,3,4,3,2,3,2,1,0,5]","action_history":"[1,0,0,1,1,1,0,1,0]","mutagen_history":"[0,1,1,0,0,0,1,0,1]","location_rts":"[906,608,510,703,595,607,635,967,611]","trial_type":"fractal-mutation","trial_index":81,"time_elapsed":1964497,"internal_node_id":"0.0-5.0-27.0"},{"group":"hexagon_bi","fractal_assignment":["../images/ylw_slt.png","../images/org_blu.png","../images/blu_wht.png","../images/pnk_blu.png","../images/gry_blk.png","../images/cyn_red.png"],"mutagen_generator_assignment":[1,0],"goal":4,"start":5,"action_noise":0,"location_history":"[5,0,1,0,1,2,3,4]","action_history":"[0,1,1,1,0,1,0]","mutagen_history":"[1,0,0,0,1,0,1]","location_rts":"[756,413,368,434,728,865,631]","trial_type":"fractal-mutation","trial_index":82,"time_elapsed":1980227,"internal_node_id":"0.0-5.0-28.0"},{"group":"hexagon_bi","fractal_assignment":["../images/ylw_slt.png","../images/org_blu.png","../images/blu_wht.png","../images/pnk_blu.png","../images/gry_blk.png","../images/cyn_red.png"],"mutagen_generator_assignment":[1,0],"goal":5,"start":4,"action_noise":0,"location_history":"[4,3,2,3,2,1,2,3,4,3,4,5]","action_history":"[0,1,1,1,0,0,1,0,0,0,1]","mutagen_history":"[1,0,0,0,1,1,0,1,1,1,0]","location_rts":"[763,415,444,458,435,531,362,387,614,550,525]","trial_type":"fractal-mutation","trial_index":83,"time_elapsed":2001549,"internal_node_id":"0.0-5.0-29.0"},{"group":"hexagon_bi","fractal_assignment":["../images/ylw_slt.png","../images/org_blu.png","../images/blu_wht.png","../images/pnk_blu.png","../images/gry_blk.png","../images/cyn_red.png"],"mutagen_generator_assignment":[1,0],"goal":3,"start":5,"action_noise":0,"location_history":"[5,0,5,4,5,4,3]","action_history":"[0,0,1,1,1,0]","mutagen_history":"[1,1,0,0,0,1]","location_rts":"[1162,582,608,615,486,443]","trial_type":"fractal-mutation","trial_index":84,"time_elapsed":2016033,"internal_node_id":"0.0-5.0-30.0"},{"group":"hexagon_bi","fractal_assignment":["../images/ylw_slt.png","../images/org_blu.png","../images/blu_wht.png","../images/pnk_blu.png","../images/gry_blk.png","../images/cyn_red.png"],"mutagen_generator_assignment":[1,0],"goal":0,"start":3,"action_noise":0,"location_history":"[3,2,3,4,3,4,5,0]","action_history":"[1,1,0,0,0,1,0]","mutagen_history":"[0,0,1,1,1,0,1]","location_rts":"[875,586,480,477,510,904,539]","trial_type":"fractal-mutation","trial_index":85,"time_elapsed":2032001,"internal_node_id":"0.0-5.0-31.0"},{"group":"hexagon_bi","fractal_assignment":["../images/ylw_slt.png","../images/org_blu.png","../images/blu_wht.png","../images/pnk_blu.png","../images/gry_blk.png","../images/cyn_red.png"],"mutagen_generator_assignment":[1,0],"goal":4,"start":0,"action_noise":0,"location_history":"[0,1,0,1,2,1,2,3,4]","action_history":"[1,1,1,0,0,0,1,0]","mutagen_history":"[0,0,0,1,1,1,0,1]","location_rts":"[711,530,76,435,443,425,525,554]","trial_type":"fractal-mutation","trial_index":86,"time_elapsed":2048381,"internal_node_id":"0.0-5.0-32.0"},{"group":"hexagon_bi","fractal_assignment":["../images/ylw_slt.png","../images/org_blu.png","../images/blu_wht.png","../images/pnk_blu.png","../images/gry_blk.png","../images/cyn_red.png"],"mutagen_generator_assignment":[1,0],"goal":1,"start":4,"action_noise":0,"location_history":"[4,5,4,3,4,3,4,5,0,5,0,1]","action_history":"[1,1,0,0,0,0,1,0,0,0,1]","mutagen_history":"[0,0,1,1,1,1,0,1,1,1,0]","location_rts":"[1800,377,381,538,497,600,409,383,513,555,337]","trial_type":"fractal-mutation","trial_index":87,"time_elapsed":2070936,"internal_node_id":"0.0-5.0-33.0"},{"group":"hexagon_bi","fractal_assignment":["../images/ylw_slt.png","../images/org_blu.png","../images/blu_wht.png","../images/pnk_blu.png","../images/gry_blk.png","../images/cyn_red.png"],"mutagen_generator_assignment":[1,0],"goal":2,"start":1,"action_noise":0,"location_history":"[1,2]","action_history":"[0]","mutagen_history":"[1]","location_rts":"[831]","trial_type":"fractal-mutation","trial_index":88,"time_elapsed":2076911,"internal_node_id":"0.0-5.0-34.0"},{"group":"hexagon_bi","fractal_assignment":["../images/ylw_slt.png","../images/org_blu.png","../images/blu_wht.png","../images/pnk_blu.png","../images/gry_blk.png","../images/cyn_red.png"],"mutagen_generator_assignment":[1,0],"goal":0,"start":2,"action_noise":0,"location_history":"[2,3,4,3,4,5,0]","action_history":"[1,0,0,0,1,0]","mutagen_history":"[0,1,1,1,0,1]","location_rts":"[959,469,546,452,430,374]","trial_type":"fractal-mutation","trial_index":89,"time_elapsed":2090710,"internal_node_id":"0.0-5.0-35.0"},{"group":"hexagon_bi","fractal_assignment":["../images/ylw_slt.png","../images/org_blu.png","../images/blu_wht.png","../images/pnk_blu.png","../images/gry_blk.png","../images/cyn_red.png"],"mutagen_generator_assignment":[1,0],"goal":5,"start":0,"action_noise":0,"location_history":"[0,5]","action_history":"[0]","mutagen_history":"[1]","location_rts":"[533]","trial_type":"fractal-mutation","trial_index":90,"time_elapsed":2096349,"internal_node_id":"0.0-5.0-36.0"},{"group":"hexagon_bi","fractal_assignment":["../images/ylw_slt.png","../images/org_blu.png","../images/blu_wht.png","../images/pnk_blu.png","../images/gry_blk.png","../images/cyn_red.png"],"mutagen_generator_assignment":[1,0],"goal":2,"start":5,"action_noise":0,"location_history":"[5,0,1,2]","action_history":"[0,1,0]","mutagen_history":"[1,0,1]","location_rts":"[730,3142,853]","trial_type":"fractal-mutation","trial_index":91,"time_elapsed":2108399,"internal_node_id":"0.0-5.0-37.0"},{"group":"hexagon_bi","fractal_assignment":["../images/ylw_slt.png","../images/org_blu.png","../images/blu_wht.png","../images/pnk_blu.png","../images/gry_blk.png","../images/cyn_red.png"],"mutagen_generator_assignment":[1,0],"goal":1,"start":2,"action_noise":0,"location_history":"[2,3,4,5,4,5,0,5,4,3,2,1]","action_history":"[1,0,1,1,1,0,0,1,0,1,0]","mutagen_history":"[0,1,0,0,0,1,1,0,1,0,1]","location_rts":"[915,715,408,399,387,942,673,526,416,452,387]","trial_type":"fractal-mutation","trial_index":92,"time_elapsed":2130551,"internal_node_id":"0.0-5.0-38.0"},{"group":"hexagon_bi","fractal_assignment":["../images/ylw_slt.png","../images/org_blu.png","../images/blu_wht.png","../images/pnk_blu.png","../images/gry_blk.png","../images/cyn_red.png"],"mutagen_generator_assignment":[1,0],"goal":4,"start":1,"action_noise":0,"location_history":"[1,0,1,2,1,2,3,4]","action_history":"[1,1,0,0,0,1,0]","mutagen_history":"[0,0,1,1,1,0,1]","location_rts":"[822,625,448,460,568,476,477]","trial_type":"fractal-mutation","trial_index":93,"time_elapsed":2146048,"internal_node_id":"0.0-5.0-39.0"},{"group":"hexagon_bi","fractal_assignment":["../images/ylw_slt.png","../images/org_blu.png","../images/blu_wht.png","../images/pnk_blu.png","../images/gry_blk.png","../images/cyn_red.png"],"mutagen_generator_assignment":[1,0],"goal":3,"start":4,"action_noise":0,"location_history":"[4,5,4,3]","action_history":"[1,1,0]","mutagen_history":"[0,0,1]","location_rts":"[735,524,311]","trial_type":"fractal-mutation","trial_index":94,"time_elapsed":2154997,"internal_node_id":"0.0-5.0-40.0"},{"group":"hexagon_bi","fractal_assignment":["../images/ylw_slt.png","../images/org_blu.png","../images/blu_wht.png","../images/pnk_blu.png","../images/gry_blk.png","../images/cyn_red.png"],"mutagen_generator_assignment":[1,0],"goal":5,"start":3,"action_noise":0,"location_history":"[3,2,3,4,3,2,1,2,1,2,3,4,3,2,3,4,3,4,3,2,3,2,1,0,1,2,1,2,1,0,5]","action_history":"[1,1,0,0,1,0,0,0,0,1,0,0,1,1,0,0,0,0,1,1,1,0,1,1,0,0,0,0,1,0]","mutagen_history":"[0,0,1,1,0,1,1,1,1,0,1,1,0,0,1,1,1,1,0,0,0,1,0,0,1,1,1,1,0,1]","location_rts":"[3481,489,496,590,831,396,774,508,520,565,389,813,602,308,733,965,1159,762,596,768,2279,525,1102,666,616,362,676,665,566,468]","trial_type":"fractal-mutation","trial_index":95,"time_elapsed":2215147,"internal_node_id":"0.0-5.0-41.0"},{"group":"hexagon_bi","fractal_assignment":["../images/ylw_slt.png","../images/org_blu.png","../images/blu_wht.png","../images/pnk_blu.png","../images/gry_blk.png","../images/cyn_red.png"],"mutagen_generator_assignment":[1,0],"goal":3,"start":5,"action_noise":0,"location_history":"[5,0,5,4,5,0,5,0,5,4,5,4,3]","action_history":"[0,0,1,1,0,0,0,0,1,1,1,0]","mutagen_history":"[1,1,0,0,1,1,1,1,0,0,0,1]","location_rts":"[893,627,438,498,659,491,454,653,323,504,837,475]","trial_type":"fractal-mutation","trial_index":96,"time_elapsed":2239055,"internal_node_id":"0.0-5.0-42.0"},{"group":"hexagon_bi","fractal_assignment":["../images/ylw_slt.png","../images/org_blu.png","../images/blu_wht.png","../images/pnk_blu.png","../images/gry_blk.png","../images/cyn_red.png"],"mutagen_generator_assignment":[1,0],"goal":0,"start":3,"action_noise":0,"location_history":"[3,2,1,2,1,0]","action_history":"[1,0,0,0,1]","mutagen_history":"[0,1,1,1,0]","location_rts":"[642,563,520,417,351]","trial_type":"fractal-mutation","trial_index":97,"time_elapsed":2251017,"internal_node_id":"0.0-5.0-43.0"},{"group":"hexagon_bi","fractal_assignment":["../images/ylw_slt.png","../images/org_blu.png","../images/blu_wht.png","../images/pnk_blu.png","../images/gry_blk.png","../images/cyn_red.png"],"mutagen_generator_assignment":[1,0],"goal":2,"start":0,"action_noise":0,"location_history":"[0,5,4,5,4,5,0,5,4,5,4,3,4,3,2]","action_history":"[0,1,1,1,1,0,0,1,1,1,0,0,0,1]","mutagen_history":"[1,0,0,0,0,1,1,0,0,0,1,1,1,0]","location_rts":"[814,550,565,492,489,353,561,642,8695,1670,11509,405,574,704]","trial_type":"fractal-mutation","trial_index":98,"time_elapsed":2298210,"internal_node_id":"0.0-5.0-44.0"},{"group":"hexagon_bi","fractal_assignment":["../images/ylw_slt.png","../images/org_blu.png","../images/blu_wht.png","../images/pnk_blu.png","../images/gry_blk.png","../images/cyn_red.png"],"mutagen_generator_assignment":[1,0],"goal":4,"start":2,"action_noise":0,"location_history":"[2,3,2,1,2,1,2,1,0,1,0,5,0,5,4]","action_history":"[1,1,0,0,0,0,0,1,1,1,0,0,0,1]","mutagen_history":"[0,0,1,1,1,1,1,0,0,0,1,1,1,0]","location_rts":"[897,447,433,377,481,613,420,303,424,631,386,465,423,309]","trial_type":"fractal-mutation","trial_index":99,"time_elapsed":2324063,"internal_node_id":"0.0-5.0-45.0"},{"group":"hexagon_bi","fractal_assignment":["../images/ylw_slt.png","../images/org_blu.png","../images/blu_wht.png","../images/pnk_blu.png","../images/gry_blk.png","../images/cyn_red.png"],"mutagen_generator_assignment":[1,0],"goal":1,"start":4,"action_noise":0,"location_history":"[4,3,2,3,2,1]","action_history":"[0,1,1,1,0]","mutagen_history":"[1,0,0,0,1]","location_rts":"[694,396,451,479,1006]","trial_type":"fractal-mutation","trial_index":100,"time_elapsed":2336485,"internal_node_id":"0.0-5.0-46.0"},{"group":"hexagon_bi","fractal_assignment":["../images/ylw_slt.png","../images/org_blu.png","../images/blu_wht.png","../images/pnk_blu.png","../images/gry_blk.png","../images/cyn_red.png"],"mutagen_generator_assignment":[1,0],"goal":4,"start":1,"action_noise":0,"location_history":"[1,0,1,2,1,0,1,2,1,0,1,0,1,2,1,0,1,0,1,2,1,0,5,0,1,0,1,0,5,0,1,0,1,2,3,2,1,2,1,0,5,0,5,4]","action_history":"[1,1,0,0,1,1,0,0,1,1,1,1,0,0,1,1,1,1,0,0,1,0,0,1,1,1,1,0,0,1,1,1,0,1,1,0,0,0,1,0,0,0,1]","mutagen_history":"[0,0,1,1,0,0,1,1,0,0,0,0,1,1,0,0,0,0,1,1,0,1,1,0,0,0,0,1,1,0,0,0,1,0,0,1,1,1,0,1,1,1,0]","location_rts":"[928,579,458,780,567,526,440,505,333,337,394,508,355,518,598,711,686,781,430,554,404,479,537,744,394,549,423,377,635,421,358,475,366,950,925,704,361,595,522,506,1081,3318,1310]","trial_type":"fractal-mutation","trial_index":101,"time_elapsed":2414311,"internal_node_id":"0.0-5.0-47.0"},{"group":"hexagon_bi","fractal_assignment":["../images/ylw_slt.png","../images/org_blu.png","../images/blu_wht.png","../images/pnk_blu.png","../images/gry_blk.png","../images/cyn_red.png"],"mutagen_generator_assignment":[1,0],"goal":3,"start":4,"action_noise":0,"location_history":"[4,5,4,3]","action_history":"[1,1,0]","mutagen_history":"[0,0,1]","location_rts":"[1195,733,1134]","trial_type":"fractal-mutation","trial_index":102,"time_elapsed":2424580,"internal_node_id":"0.0-5.0-48.0"},{"group":"hexagon_bi","fractal_assignment":["../images/ylw_slt.png","../images/org_blu.png","../images/blu_wht.png","../images/pnk_blu.png","../images/gry_blk.png","../images/cyn_red.png"],"mutagen_generator_assignment":[1,0],"goal":5,"start":3,"action_noise":0,"location_history":"[3,2,1,2,1,0,5]","action_history":"[1,0,0,0,1,0]","mutagen_history":"[0,1,1,1,0,1]","location_rts":"[658,1840,796,494,815,662]","trial_type":"fractal-mutation","trial_index":103,"time_elapsed":2440430,"internal_node_id":"0.0-5.0-49.0"},{"view_history":"[{\"page_index\":0,\"viewing_time\":3254}]","rt":3256,"trial_type":"instructions","trial_index":104,"time_elapsed":2444691,"internal_node_id":"0.0-6.0"},{"rt":2259,"responses":"{\"Q0\":\"\"}","trial_type":"survey-text","trial_index":105,"time_elapsed":2447963,"internal_node_id":"0.0-7.0"}]