[{"view_history":"[{\"page_index\":0,\"viewing_time\":2535},{\"page_index\":1,\"viewing_time\":953},{\"page_index\":2,\"viewing_time\":1307}]","rt":4798,"trial_type":"instructions","trial_index":0,"time_elapsed":4844,"internal_node_id":"0.0-0.0"},{"view_history":"[{\"page_index\":0,\"viewing_time\":1642},{\"page_index\":1,\"viewing_time\":1657}]","rt":3301,"trial_type":"instructions","trial_index":1,"time_elapsed":9149,"internal_node_id":"0.0-1.0"},{"group":"hexagon_tri","room_assignment":["purple","yellow","red","blue","grey","green"],"door_color_assignment":["black","white"],"door_generator_assignment":[0,1],"goal":4,"start":0,"action_noise":0,"location_history":"[0,5,4]","action_history":"[0,0]","door_history":"[0,0]","location_rts":"[7128,5015]","trial_type":"two-door-navigation","trial_index":2,"time_elapsed":27576,"internal_node_id":"0.0-2.0-0.0"},{"group":"hexagon_tri","room_assignment":["purple","yellow","red","blue","grey","green"],"door_color_assignment":["black","white"],"door_generator_assignment":[0,1],"goal":3,"start":4,"action_noise":0,"location_history":"[4,2,3]","action_history":"[1,1]","door_history":"[1,1]","location_rts":"[4922,932]","trial_type":"two-door-navigation","trial_index":3,"time_elapsed":39577,"internal_node_id":"0.0-2.0-1.0"},{"group":"hexagon_tri","room_assignment":["purple","yellow","red","blue","grey","green"],"door_color_assignment":["black","white"],"door_generator_assignment":[0,1],"goal":5,"start":3,"action_noise":0,"location_history":"[3,4,2,1,3,2,1,3,2,3,4,2,3,2,3,4,2,3,4,2,3,4,0,1,5]","action_history":"[1,1,0,0,0,0,0,0,1,1,1,1,0,1,1,1,1,1,1,1,1,0,1,1]","door_history":"[1,1,0,0,0,0,0,0,1,1,1,1,0,1,1,1,1,1,1,1,1,0,1,1]","location_rts":"[5568,478,2015,3879,438,538,421,443,648,851,1601,806,1310,1588,624,281,322,478,347,468,5921,2599,3293,1304]","trial_type":"two-door-navigation","trial_index":4,"time_elapsed":106182,"internal_node_id":"0.0-2.0-2.0"},{"group":"hexagon_tri","room_assignment":["purple","yellow","red","blue","grey","green"],"door_color_assignment":["black","white"],"door_generator_assignment":[0,1],"goal":2,"start":5,"action_noise":0,"location_history":"[5,0,1,5,4,0,5,4,0,5,4,0,5,0,1,5,0,1,3,4,2]","action_history":"[1,1,1,0,0,0,0,0,0,0,0,0,1,1,1,1,1,0,1,1]","door_history":"[1,1,1,0,0,0,0,0,0,0,0,0,1,1,1,1,1,0,1,1]","location_rts":"[4819,1008,784,809,630,616,2364,975,367,332,316,282,1296,289,352,292,377,1757,1408,1116]","trial_type":"two-door-navigation","trial_index":5,"time_elapsed":151937,"internal_node_id":"0.0-2.0-3.0"},{"group":"hexagon_tri","room_assignment":["purple","yellow","red","blue","grey","green"],"door_color_assignment":["black","white"],"door_generator_assignment":[0,1],"goal":1,"start":2,"action_noise":0,"location_history":"[2,1]","action_history":"[0]","door_history":"[0]","location_rts":"[2334]","trial_type":"two-door-navigation","trial_index":6,"time_elapsed":159381,"internal_node_id":"0.0-2.0-4.0"},{"group":"hexagon_tri","room_assignment":["purple","yellow","red","blue","grey","green"],"door_color_assignment":["black","white"],"door_generator_assignment":[0,1],"goal":4,"start":1,"action_noise":0,"location_history":"[1,5,0,1,5,0,1,5,4]","action_history":"[1,1,1,1,1,1,1,0]","door_history":"[1,1,1,1,1,1,1,0]","location_rts":"[6263,1369,648,503,1616,592,351,854]","trial_type":"two-door-navigation","trial_index":7,"time_elapsed":184541,"internal_node_id":"0.0-2.0-5.0"},{"group":"hexagon_tri","room_assignment":["purple","yellow","red","blue","grey","green"],"door_color_assignment":["black","white"],"door_generator_assignment":[0,1],"goal":1,"start":4,"action_noise":0,"location_history":"[4,2,1]","action_history":"[1,0]","door_history":"[1,0]","location_rts":"[3883,2314]","trial_type":"two-door-navigation","trial_index":8,"time_elapsed":196834,"internal_node_id":"0.0-2.0-6.0"},{"group":"hexagon_tri","room_assignment":["purple","yellow","red","blue","grey","green"],"door_color_assignment":["black","white"],"door_generator_assignment":[0,1],"goal":5,"start":1,"action_noise":0,"location_history":"[1,3,2,1,5]","action_history":"[0,0,0,1]","door_history":"[0,0,0,1]","location_rts":"[2911,1436,370,842]","trial_type":"two-door-navigation","trial_index":9,"time_elapsed":210665,"internal_node_id":"0.0-2.0-7.0"},{"group":"hexagon_tri","room_assignment":["purple","yellow","red","blue","grey","green"],"door_color_assignment":["black","white"],"door_generator_assignment":[0,1],"goal":0,"start":5,"action_noise":0,"location_history":"[5,4,0]","action_history":"[0,0]","door_history":"[0,0]","location_rts":"[9372,1036]","trial_type":"two-door-navigation","trial_index":10,"time_elapsed":227203,"internal_node_id":"0.0-2.0-8.0"},{"group":"hexagon_tri","room_assignment":["purple","yellow","red","blue","grey","green"],"door_color_assignment":["black","white"],"door_generator_assignment":[0,1],"goal":2,"start":0,"action_noise":0,"location_history":"[0,1,5,0,1,3,2]","action_history":"[1,1,1,1,0,0]","door_history":"[1,1,1,1,0,0]","location_rts":"[2898,1908,501,333,750,549]","trial_type":"two-door-navigation","trial_index":11,"time_elapsed":244548,"internal_node_id":"0.0-2.0-9.0"},{"group":"hexagon_tri","room_assignment":["purple","yellow","red","blue","grey","green"],"door_color_assignment":["black","white"],"door_generator_assignment":[0,1],"goal":3,"start":2,"action_noise":0,"location_history":"[2,1,3]","action_history":"[0,0]","door_history":"[0,0]","location_rts":"[3229,406]","trial_type":"two-door-navigation","trial_index":12,"time_elapsed":254297,"internal_node_id":"0.0-2.0-10.0"},{"group":"hexagon_tri","room_assignment":["purple","yellow","red","blue","grey","green"],"door_color_assignment":["black","white"],"door_generator_assignment":[0,1],"goal":0,"start":3,"action_noise":0,"location_history":"[3,4,2,3,4,0]","action_history":"[1,1,1,1,0]","door_history":"[1,1,1,1,0]","location_rts":"[2092,725,1781,1353,365]","trial_type":"two-door-navigation","trial_index":13,"time_elapsed":269886,"internal_node_id":"0.0-2.0-11.0"},{"group":"hexagon_tri","room_assignment":["purple","yellow","red","blue","grey","green"],"door_color_assignment":["black","white"],"door_generator_assignment":[0,1],"goal":2,"start":0,"action_noise":0,"location_history":"[0,5,0,5,4,0,5,4,2]","action_history":"[0,1,0,0,0,0,0,1]","door_history":"[0,1,0,0,0,0,0,1]","location_rts":"[4173,3539,1837,770,494,643,348,732]","trial_type":"two-door-navigation","trial_index":14,"time_elapsed":294930,"internal_node_id":"0.0-2.0-12.0"},{"group":"hexagon_tri","room_assignment":["purple","yellow","red","blue","grey","green"],"door_color_assignment":["black","white"],"door_generator_assignment":[0,1],"goal":5,"start":2,"action_noise":0,"location_history":"[2,3,4,2,1,3,2,1,3,2,1,5]","action_history":"[1,1,1,0,0,0,0,0,0,0,1]","door_history":"[1,1,1,0,0,0,0,0,0,0,1]","location_rts":"[3403,784,721,1714,442,768,381,394,314,538,799]","trial_type":"two-door-navigation","trial_index":15,"time_elapsed":320811,"internal_node_id":"0.0-2.0-13.0"},{"group":"hexagon_tri","room_assignment":["purple","yellow","red","blue","grey","green"],"door_color_assignment":["black","white"],"door_generator_assignment":[0,1],"goal":4,"start":5,"action_noise":0,"location_history":"[5,0,1,5,4]","action_history":"[1,1,1,0]","door_history":"[1,1,1,0]","location_rts":"[4165,1319,841,585]","trial_type":"two-door-navigation","trial_index":16,"time_elapsed":335968,"internal_node_id":"0.0-2.0-14.0"},{"group":"hexagon_tri","room_assignment":["purple","yellow","red","blue","grey","green"],"door_color_assignment":["black","white"],"door_generator_assignment":[0,1],"goal":3,"start":4,"action_noise":0,"location_history":"[4,0,5,4,0,5,0,1,5,0,1,3]","action_history":"[0,0,0,0,0,1,1,1,1,1,0]","door_history":"[0,0,0,0,0,1,1,1,1,1,0]","location_rts":"[5667,603,5846,505,552,382,564,394,419,302,482]","trial_type":"two-door-navigation","trial_index":17,"time_elapsed":369194,"internal_node_id":"0.0-2.0-15.0"},{"group":"hexagon_tri","room_assignment":["purple","yellow","red","blue","grey","green"],"door_color_assignment":["black","white"],"door_generator_assignment":[0,1],"goal":1,"start":3,"action_noise":0,"location_history":"[3,2,1]","action_history":"[0,0]","door_history":"[0,0]","location_rts":"[3525,354]","trial_type":"two-door-navigation","trial_index":18,"time_elapsed":379259,"internal_node_id":"0.0-2.0-16.0"},{"group":"hexagon_tri","room_assignment":["purple","yellow","red","blue","grey","green"],"door_color_assignment":["black","white"],"door_generator_assignment":[0,1],"goal":5,"start":1,"action_noise":0,"location_history":"[1,3,2,1,5]","action_history":"[0,0,0,1]","door_history":"[0,0,0,1]","location_rts":"[2693,2608,1333,956]","trial_type":"two-door-navigation","trial_index":19,"time_elapsed":395066,"internal_node_id":"0.0-2.0-17.0"},{"group":"hexagon_tri","room_assignment":["purple","yellow","red","blue","grey","green"],"door_color_assignment":["black","white"],"door_generator_assignment":[0,1],"goal":4,"start":5,"action_noise":0,"location_history":"[5,4]","action_history":"[0]","door_history":"[0]","location_rts":"[4972]","trial_type":"two-door-navigation","trial_index":20,"time_elapsed":407027,"internal_node_id":"0.0-2.0-18.0"},{"group":"hexagon_tri","room_assignment":["purple","yellow","red","blue","grey","green"],"door_color_assignment":["black","white"],"door_generator_assignment":[0,1],"goal":0,"start":4,"action_noise":0,"location_history":"[4,2,3,4,2,1,3,2,1,5,0]","action_history":"[1,1,1,1,0,0,0,0,1,1]","door_history":"[1,1,1,1,0,0,0,0,1,1]","location_rts":"[3535,405,1134,1052,797,512,754,347,615,805]","trial_type":"two-door-navigation","trial_index":21,"time_elapsed":431651,"internal_node_id":"0.0-2.0-19.0"},{"group":"hexagon_tri","room_assignment":["purple","yellow","red","blue","grey","green"],"door_color_assignment":["black","white"],"door_generator_assignment":[0,1],"goal":1,"start":0,"action_noise":0,"location_history":"[0,5,4,2,1]","action_history":"[0,0,1,0]","door_history":"[0,0,1,0]","location_rts":"[5047,468,1696,829]","trial_type":"two-door-navigation","trial_index":22,"time_elapsed":447900,"internal_node_id":"0.0-2.0-20.0"},{"group":"hexagon_tri","room_assignment":["purple","yellow","red","blue","grey","green"],"door_color_assignment":["black","white"],"door_generator_assignment":[0,1],"goal":3,"start":1,"action_noise":0,"location_history":"[1,3]","action_history":"[0]","door_history":"[0]","location_rts":"[3136]","trial_type":"two-door-navigation","trial_index":23,"time_elapsed":456203,"internal_node_id":"0.0-2.0-21.0"},{"group":"hexagon_tri","room_assignment":["purple","yellow","red","blue","grey","green"],"door_color_assignment":["black","white"],"door_generator_assignment":[0,1],"goal":2,"start":3,"action_noise":0,"location_history":"[3,2]","action_history":"[0]","door_history":"[0]","location_rts":"[2698]","trial_type":"two-door-navigation","trial_index":24,"time_elapsed":463964,"internal_node_id":"0.0-2.0-22.0"},{"group":"hexagon_tri","room_assignment":["purple","yellow","red","blue","grey","green"],"door_color_assignment":["black","white"],"door_generator_assignment":[0,1],"goal":0,"start":2,"action_noise":0,"location_history":"[2,1,3,2,3,4,2,3,4,0]","action_history":"[0,0,0,1,1,1,1,1,0]","door_history":"[0,0,0,1,1,1,1,1,0]","location_rts":"[2171,429,959,1117,709,394,437,512,566]","trial_type":"two-door-navigation","trial_index":25,"time_elapsed":485025,"internal_node_id":"0.0-2.0-23.0"},{"group":"hexagon_tri","room_assignment":["purple","yellow","red","blue","grey","green"],"door_color_assignment":["black","white"],"door_generator_assignment":[0,1],"goal":3,"start":0,"action_noise":0,"location_history":"[0,5,4,0,5,0,1,5,4,0,5,0,1,5,0,1,3]","action_history":"[0,0,0,0,1,1,1,0,0,0,1,1,1,1,1,0]","door_history":"[0,0,0,0,1,1,1,0,0,0,1,1,1,1,1,0]","location_rts":"[2257,510,437,707,984,1436,450,662,571,375,619,362,391,666,354,574]","trial_type":"two-door-navigation","trial_index":26,"time_elapsed":517454,"internal_node_id":"0.0-2.0-24.0"},{"group":"hexagon_tri","room_assignment":["purple","yellow","red","blue","grey","green"],"door_color_assignment":["black","white"],"door_generator_assignment":[0,1],"goal":1,"start":3,"action_noise":0,"location_history":"[3,2,1]","action_history":"[0,0]","door_history":"[0,0]","location_rts":"[2933,2717]","trial_type":"two-door-navigation","trial_index":27,"time_elapsed":529424,"internal_node_id":"0.0-2.0-25.0"},{"group":"hexagon_tri","room_assignment":["purple","yellow","red","blue","grey","green"],"door_color_assignment":["black","white"],"door_generator_assignment":[0,1],"goal":2,"start":1,"action_noise":0,"location_history":"[1,5,0,5,4,0,5,0,1,5,4,2]","action_history":"[1,1,0,0,0,0,1,1,1,0,1]","door_history":"[1,1,0,0,0,0,1,1,1,0,1]","location_rts":"[2763,3354,863,478,1618,3710,1031,392,344,688,328]","trial_type":"two-door-navigation","trial_index":28,"time_elapsed":561372,"internal_node_id":"0.0-2.0-26.0"},{"group":"hexagon_tri","room_assignment":["purple","yellow","red","blue","grey","green"],"door_color_assignment":["black","white"],"door_generator_assignment":[0,1],"goal":5,"start":2,"action_noise":0,"location_history":"[2,1,3,2,1,5]","action_history":"[0,0,0,0,1]","door_history":"[0,0,0,0,1]","location_rts":"[2218,743,754,539,662]","trial_type":"two-door-navigation","trial_index":29,"time_elapsed":575670,"internal_node_id":"0.0-2.0-27.0"},{"group":"hexagon_tri","room_assignment":["purple","yellow","red","blue","grey","green"],"door_color_assignment":["black","white"],"door_generator_assignment":[0,1],"goal":4,"start":5,"action_noise":0,"location_history":"[5,4]","action_history":"[0]","door_history":"[0]","location_rts":"[7780]","trial_type":"two-door-navigation","trial_index":30,"time_elapsed":588584,"internal_node_id":"0.0-2.0-28.0"},{"group":"hexagon_tri","room_assignment":["purple","yellow","red","blue","grey","green"],"door_color_assignment":["black","white"],"door_generator_assignment":[0,1],"goal":5,"start":4,"action_noise":0,"location_history":"[4,0,1,5]","action_history":"[0,1,1]","door_history":"[0,1,1]","location_rts":"[4033,1494,974]","trial_type":"two-door-navigation","trial_index":31,"time_elapsed":602360,"internal_node_id":"0.0-2.0-29.0"},{"group":"hexagon_tri","room_assignment":["purple","yellow","red","blue","grey","green"],"door_color_assignment":["black","white"],"door_generator_assignment":[0,1],"goal":3,"start":5,"action_noise":0,"location_history":"[5,0,1,3]","action_history":"[1,1,0]","door_history":"[1,1,0]","location_rts":"[3081,1062,1221]","trial_type":"two-door-navigation","trial_index":32,"time_elapsed":614936,"internal_node_id":"0.0-2.0-30.0"},{"group":"hexagon_tri","room_assignment":["purple","yellow","red","blue","grey","green"],"door_color_assignment":["black","white"],"door_generator_assignment":[0,1],"goal":0,"start":3,"action_noise":0,"location_history":"[3,2,1,3,4,0]","action_history":"[0,0,0,1,0]","door_history":"[0,0,0,1,0]","location_rts":"[3382,1077,690,1591,604]","trial_type":"two-door-navigation","trial_index":33,"time_elapsed":632563,"internal_node_id":"0.0-2.0-31.0"},{"group":"hexagon_tri","room_assignment":["purple","yellow","red","blue","grey","green"],"door_color_assignment":["black","white"],"door_generator_assignment":[0,1],"goal":4,"start":0,"action_noise":0,"location_history":"[0,1,5,4]","action_history":"[1,1,0]","door_history":"[1,1,0]","location_rts":"[6973,451,570]","trial_type":"two-door-navigation","trial_index":34,"time_elapsed":648284,"internal_node_id":"0.0-2.0-32.0"},{"group":"hexagon_tri","room_assignment":["purple","yellow","red","blue","grey","green"],"door_color_assignment":["black","white"],"door_generator_assignment":[0,1],"goal":1,"start":4,"action_noise":0,"location_history":"[4,0,5,0,5,4,0,5,0,5,0,1]","action_history":"[0,0,1,0,0,0,0,1,0,1,1]","door_history":"[0,0,1,0,0,0,0,1,0,1,1]","location_rts":"[6101,447,624,1083,589,1454,398,849,901,358,304]","trial_type":"two-door-navigation","trial_index":35,"time_elapsed":677449,"internal_node_id":"0.0-2.0-33.0"},{"group":"hexagon_tri","room_assignment":["purple","yellow","red","blue","grey","green"],"door_color_assignment":["black","white"],"door_generator_assignment":[0,1],"goal":2,"start":1,"action_noise":0,"location_history":"[1,3,2]","action_history":"[0,0]","door_history":"[0,0]","location_rts":"[1597,1943]","trial_type":"two-door-navigation","trial_index":36,"time_elapsed":687299,"internal_node_id":"0.0-2.0-34.0"},{"group":"hexagon_tri","room_assignment":["purple","yellow","red","blue","grey","green"],"door_color_assignment":["black","white"],"door_generator_assignment":[0,1],"goal":0,"start":2,"action_noise":0,"location_history":"[2,3,4,2,3,4,0]","action_history":"[1,1,1,1,1,0]","door_history":"[1,1,1,1,1,0]","location_rts":"[1831,1192,1093,647,517,347]","trial_type":"two-door-navigation","trial_index":37,"time_elapsed":703460,"internal_node_id":"0.0-2.0-35.0"},{"group":"hexagon_tri","room_assignment":["purple","yellow","red","blue","grey","green"],"door_color_assignment":["black","white"],"door_generator_assignment":[0,1],"goal":5,"start":0,"action_noise":0,"location_history":"[0,5]","action_history":"[0]","door_history":"[0]","location_rts":"[1956]","trial_type":"two-door-navigation","trial_index":38,"time_elapsed":710546,"internal_node_id":"0.0-2.0-36.0"},{"group":"hexagon_tri","room_assignment":["purple","yellow","red","blue","grey","green"],"door_color_assignment":["black","white"],"door_generator_assignment":[0,1],"goal":2,"start":5,"action_noise":0,"location_history":"[5,4,2]","action_history":"[0,1]","door_history":"[0,1]","location_rts":"[3808,1580]","trial_type":"two-door-navigation","trial_index":39,"time_elapsed":722067,"internal_node_id":"0.0-2.0-37.0"},{"group":"hexagon_tri","room_assignment":["purple","yellow","red","blue","grey","green"],"door_color_assignment":["black","white"],"door_generator_assignment":[0,1],"goal":1,"start":2,"action_noise":0,"location_history":"[2,1]","action_history":"[0]","door_history":"[0]","location_rts":"[3686]","trial_type":"two-door-navigation","trial_index":40,"time_elapsed":730843,"internal_node_id":"0.0-2.0-38.0"},{"group":"hexagon_tri","room_assignment":["purple","yellow","red","blue","grey","green"],"door_color_assignment":["black","white"],"door_generator_assignment":[0,1],"goal":4,"start":1,"action_noise":0,"location_history":"[1,3,2,1,5,0,5,4]","action_history":"[0,0,0,1,1,0,0]","door_history":"[0,0,0,1,1,0,0]","location_rts":"[3412,2291,1122,2112,1391,8028,550]","trial_type":"two-door-navigation","trial_index":41,"time_elapsed":761743,"internal_node_id":"0.0-2.0-39.0"},{"group":"hexagon_tri","room_assignment":["purple","yellow","red","blue","grey","green"],"door_color_assignment":["black","white"],"door_generator_assignment":[0,1],"goal":3,"start":4,"action_noise":0,"location_history":"[4,2,3]","action_history":"[1,1]","door_history":"[1,1]","location_rts":"[1966,2063]","trial_type":"two-door-navigation","trial_index":42,"time_elapsed":771878,"internal_node_id":"0.0-2.0-40.0"},{"group":"hexagon_tri","room_assignment":["purple","yellow","red","blue","grey","green"],"door_color_assignment":["black","white"],"door_generator_assignment":[0,1],"goal":5,"start":3,"action_noise":0,"location_history":"[3,2,1,3,4,2,3,2,3,2,1,3,2,1,5]","action_history":"[0,0,0,1,1,1,0,1,0,0,0,0,0,1]","door_history":"[0,0,0,1,1,1,0,1,0,0,0,0,0,1]","location_rts":"[2685,468,608,338,1314,576,842,926,457,218,497,433,82,435]","trial_type":"two-door-navigation","trial_index":43,"time_elapsed":800945,"internal_node_id":"0.0-2.0-41.0"},{"group":"hexagon_tri","room_assignment":["purple","yellow","red","blue","grey","green"],"door_color_assignment":["black","white"],"door_generator_assignment":[0,1],"goal":3,"start":5,"action_noise":0,"location_history":"[5,0,1,3]","action_history":"[1,1,0]","door_history":"[1,1,0]","location_rts":"[2498,645,888]","trial_type":"two-door-navigation","trial_index":44,"time_elapsed":814524,"internal_node_id":"0.0-2.0-42.0"},{"group":"hexagon_tri","room_assignment":["purple","yellow","red","blue","grey","green"],"door_color_assignment":["black","white"],"door_generator_assignment":[0,1],"goal":0,"start":3,"action_noise":0,"location_history":"[3,2,1,3,4,0]","action_history":"[0,0,0,1,0]","door_history":"[0,0,0,1,0]","location_rts":"[22145,501,491,660,3376]","trial_type":"two-door-navigation","trial_index":45,"time_elapsed":854628,"internal_node_id":"0.0-2.0-43.0"},{"group":"hexagon_tri","room_assignment":["purple","yellow","red","blue","grey","green"],"door_color_assignment":["black","white"],"door_generator_assignment":[0,1],"goal":2,"start":0,"action_noise":0,"location_history":"[0,5,4,2]","action_history":"[0,0,1]","door_history":"[0,0,1]","location_rts":"[2362,3187,1181]","trial_type":"two-door-navigation","trial_index":46,"time_elapsed":869206,"internal_node_id":"0.0-2.0-44.0"},{"group":"hexagon_tri","room_assignment":["purple","yellow","red","blue","grey","green"],"door_color_assignment":["black","white"],"door_generator_assignment":[0,1],"goal":4,"start":2,"action_noise":0,"location_history":"[2,1,3,2,1,5,0,5,4]","action_history":"[0,0,0,0,1,1,0,0]","door_history":"[0,0,0,0,1,1,0,0]","location_rts":"[18076,1258,341,479,520,3592,828,863]","trial_type":"two-door-navigation","trial_index":47,"time_elapsed":907875,"internal_node_id":"0.0-2.0-45.0"},{"group":"hexagon_tri","room_assignment":["purple","yellow","red","blue","grey","green"],"door_color_assignment":["black","white"],"door_generator_assignment":[0,1],"goal":1,"start":4,"action_noise":0,"location_history":"[4,0,5,4,2,3,4,2,1]","action_history":"[0,0,0,1,1,1,1,0]","door_history":"[0,0,0,1,1,1,1,0]","location_rts":"[1591,532,417,361,950,444,452,441]","trial_type":"two-door-navigation","trial_index":48,"time_elapsed":925577,"internal_node_id":"0.0-2.0-46.0"},{"group":"hexagon_tri","room_assignment":["purple","yellow","red","blue","grey","green"],"door_color_assignment":["black","white"],"door_generator_assignment":[0,1],"goal":4,"start":1,"action_noise":0,"location_history":"[1,3,2,1,5,0,1,3,2,1,3,4]","action_history":"[0,0,0,1,1,1,0,0,0,0,1]","door_history":"[0,0,0,1,1,1,0,0,0,0,1]","location_rts":"[2050,417,368,787,559,357,431,351,303,602,473]","trial_type":"two-door-navigation","trial_index":49,"time_elapsed":948156,"internal_node_id":"0.0-2.0-47.0"},{"group":"hexagon_tri","room_assignment":["purple","yellow","red","blue","grey","green"],"door_color_assignment":["black","white"],"door_generator_assignment":[0,1],"goal":3,"start":4,"action_noise":0,"location_history":"[4,2,3]","action_history":"[1,1]","door_history":"[1,1]","location_rts":"[2261,905]","trial_type":"two-door-navigation","trial_index":50,"time_elapsed":957484,"internal_node_id":"0.0-2.0-48.0"},{"group":"hexagon_tri","room_assignment":["purple","yellow","red","blue","grey","green"],"door_color_assignment":["black","white"],"door_generator_assignment":[0,1],"goal":5,"start":3,"action_noise":0,"location_history":"[3,4,0,1,5]","action_history":"[1,0,1,1]","door_history":"[1,0,1,1]","location_rts":"[856,777,494,749]","trial_type":"two-door-navigation","trial_index":51,"time_elapsed":968611,"internal_node_id":"0.0-2.0-49.0"},{"view_history":"[{\"page_index\":0,\"viewing_time\":3188}]","rt":3189,"trial_type":"instructions","trial_index":52,"time_elapsed":972800,"internal_node_id":"0.0-3.0"},{"view_history":"[{\"page_index\":0,\"viewing_time\":2793},{\"page_index\":1,\"viewing_time\":57819}]","rt":60613,"trial_type":"instructions","trial_index":53,"time_elapsed":1034416,"internal_node_id":"0.0-4.0"},{"group":"hexagon_tri","fractal_assignment":["../images/gry_blk.png","../images/org_blu.png","../images/cyn_red.png","../images/blu_wht.png","../images/pnk_blu.png","../images/ylw_slt.png"],"mutagen_generator_assignment":[1,0],"goal":4,"start":0,"action_noise":0,"location_history":"[0,1,3,4]","action_history":"[1,0,1]","mutagen_history":"[0,1,0]","location_rts":"[16668,5846,2196]","trial_type":"fractal-mutation","trial_index":54,"time_elapsed":1066875,"internal_node_id":"0.0-5.0-0.0"},{"group":"hexagon_tri","fractal_assignment":["../images/gry_blk.png","../images/org_blu.png","../images/cyn_red.png","../images/blu_wht.png","../images/pnk_blu.png","../images/ylw_slt.png"],"mutagen_generator_assignment":[1,0],"goal":3,"start":4,"action_noise":0,"location_history":"[4,0,1,3]","action_history":"[0,1,0]","mutagen_history":"[1,0,1]","location_rts":"[2080,1973,1054]","trial_type":"fractal-mutation","trial_index":55,"time_elapsed":1080447,"internal_node_id":"0.0-5.0-1.0"},{"group":"hexagon_tri","fractal_assignment":["../images/gry_blk.png","../images/org_blu.png","../images/cyn_red.png","../images/blu_wht.png","../images/pnk_blu.png","../images/ylw_slt.png"],"mutagen_generator_assignment":[1,0],"goal":5,"start":3,"action_noise":0,"location_history":"[3,4,2,3,2,1,3,4,0,5]","action_history":"[1,1,1,0,0,0,1,0,0]","mutagen_history":"[0,0,0,1,1,1,0,1,1]","location_rts":"[11196,837,588,812,750,1062,1286,1275,565]","trial_type":"fractal-mutation","trial_index":56,"time_elapsed":1114599,"internal_node_id":"0.0-5.0-2.0"},{"group":"hexagon_tri","fractal_assignment":["../images/gry_blk.png","../images/org_blu.png","../images/cyn_red.png","../images/blu_wht.png","../images/pnk_blu.png","../images/ylw_slt.png"],"mutagen_generator_assignment":[1,0],"goal":2,"start":5,"action_noise":0,"location_history":"[5,4,0,5,4,2]","action_history":"[0,0,0,0,1]","mutagen_history":"[1,1,1,1,0]","location_rts":"[1998,656,1152,1227,643]","trial_type":"fractal-mutation","trial_index":57,"time_elapsed":1130529,"internal_node_id":"0.0-5.0-3.0"},{"group":"hexagon_tri","fractal_assignment":["../images/gry_blk.png","../images/org_blu.png","../images/cyn_red.png","../images/blu_wht.png","../images/pnk_blu.png","../images/ylw_slt.png"],"mutagen_generator_assignment":[1,0],"goal":1,"start":2,"action_noise":0,"location_history":"[2,3,4,0,1]","action_history":"[1,1,0,1]","mutagen_history":"[0,0,1,0]","location_rts":"[2146,731,1318,618]","trial_type":"fractal-mutation","trial_index":58,"time_elapsed":1145096,"internal_node_id":"0.0-5.0-4.0"},{"group":"hexagon_tri","fractal_assignment":["../images/gry_blk.png","../images/org_blu.png","../images/cyn_red.png","../images/blu_wht.png","../images/pnk_blu.png","../images/ylw_slt.png"],"mutagen_generator_assignment":[1,0],"goal":4,"start":1,"action_noise":0,"location_history":"[1,3,4]","action_history":"[0,1]","mutagen_history":"[1,0]","location_rts":"[3957,2110]","trial_type":"fractal-mutation","trial_index":59,"time_elapsed":1157411,"internal_node_id":"0.0-5.0-5.0"},{"group":"hexagon_tri","fractal_assignment":["../images/gry_blk.png","../images/org_blu.png","../images/cyn_red.png","../images/blu_wht.png","../images/pnk_blu.png","../images/ylw_slt.png"],"mutagen_generator_assignment":[1,0],"goal":1,"start":4,"action_noise":0,"location_history":"[4,2,1]","action_history":"[1,0]","mutagen_history":"[0,1]","location_rts":"[2215,1251]","trial_type":"fractal-mutation","trial_index":60,"time_elapsed":1167346,"internal_node_id":"0.0-5.0-6.0"},{"group":"hexagon_tri","fractal_assignment":["../images/gry_blk.png","../images/org_blu.png","../images/cyn_red.png","../images/blu_wht.png","../images/pnk_blu.png","../images/ylw_slt.png"],"mutagen_generator_assignment":[1,0],"goal":5,"start":1,"action_noise":0,"location_history":"[1,3,4,2,1,3,4,2,1,5]","action_history":"[0,1,1,0,0,1,1,0,1]","mutagen_history":"[1,0,0,1,1,0,0,1,0]","location_rts":"[2265,773,1482,680,715,506,543,895,450]","trial_type":"fractal-mutation","trial_index":61,"time_elapsed":1191556,"internal_node_id":"0.0-5.0-7.0"},{"group":"hexagon_tri","fractal_assignment":["../images/gry_blk.png","../images/org_blu.png","../images/cyn_red.png","../images/blu_wht.png","../images/pnk_blu.png","../images/ylw_slt.png"],"mutagen_generator_assignment":[1,0],"goal":0,"start":5,"action_noise":0,"location_history":"[5,4,2,3,2,1,3,4,0]","action_history":"[0,1,1,0,0,0,1,0]","mutagen_history":"[1,0,0,1,1,1,0,1]","location_rts":"[2181,898,937,651,375,721,1010,485]","trial_type":"fractal-mutation","trial_index":62,"time_elapsed":1212495,"internal_node_id":"0.0-5.0-8.0"},{"group":"hexagon_tri","fractal_assignment":["../images/gry_blk.png","../images/org_blu.png","../images/cyn_red.png","../images/blu_wht.png","../images/pnk_blu.png","../images/ylw_slt.png"],"mutagen_generator_assignment":[1,0],"goal":2,"start":0,"action_noise":0,"location_history":"[0,1,3,4,0,5,4,0,1,5,0,1,3,4,0,5,4,0,5,0,5,4,0,5,0,1,3,4,0,5,4,0,1,5,0,5,0,1,5,4,0,5,4,2]","action_history":"[1,0,1,0,0,0,0,1,1,1,1,0,1,0,0,0,0,0,1,0,0,0,0,1,1,0,1,0,0,0,0,1,1,1,0,1,1,1,0,0,0,0,1]","mutagen_history":"[0,1,0,1,1,1,1,0,0,0,0,1,0,1,1,1,1,1,0,1,1,1,1,0,0,1,0,1,1,1,1,0,0,0,1,0,0,0,1,1,1,1,0]","location_rts":"[1334,1086,721,476,932,572,641,681,906,467,994,552,793,225,530,890,367,298,894,819,475,298,264,394,425,355,426,285,429,21,318,399,415,916,313,373,392,825,417,432,384,338,360]","trial_type":"fractal-mutation","trial_index":63,"time_elapsed":1294553,"internal_node_id":"0.0-5.0-9.0"},{"group":"hexagon_tri","fractal_assignment":["../images/gry_blk.png","../images/org_blu.png","../images/cyn_red.png","../images/blu_wht.png","../images/pnk_blu.png","../images/ylw_slt.png"],"mutagen_generator_assignment":[1,0],"goal":3,"start":2,"action_noise":0,"location_history":"[2,3]","action_history":"[1]","mutagen_history":"[0]","location_rts":"[4815]","trial_type":"fractal-mutation","trial_index":64,"time_elapsed":1306032,"internal_node_id":"0.0-5.0-10.0"},{"group":"hexagon_tri","fractal_assignment":["../images/gry_blk.png","../images/org_blu.png","../images/cyn_red.png","../images/blu_wht.png","../images/pnk_blu.png","../images/ylw_slt.png"],"mutagen_generator_assignment":[1,0],"goal":0,"start":3,"action_noise":0,"location_history":"[3,2,1,5,0]","action_history":"[0,0,1,1]","mutagen_history":"[1,1,0,0]","location_rts":"[1479,1218,516,6009]","trial_type":"fractal-mutation","trial_index":65,"time_elapsed":1324591,"internal_node_id":"0.0-5.0-11.0"},{"group":"hexagon_tri","fractal_assignment":["../images/gry_blk.png","../images/org_blu.png","../images/cyn_red.png","../images/blu_wht.png","../images/pnk_blu.png","../images/ylw_slt.png"],"mutagen_generator_assignment":[1,0],"goal":2,"start":0,"action_noise":0,"location_history":"[0,1,5,4,2]","action_history":"[1,1,0,1]","mutagen_history":"[0,0,1,0]","location_rts":"[10231,1768,419,391]","trial_type":"fractal-mutation","trial_index":66,"time_elapsed":1345916,"internal_node_id":"0.0-5.0-12.0"},{"group":"hexagon_tri","fractal_assignment":["../images/gry_blk.png","../images/org_blu.png","../images/cyn_red.png","../images/blu_wht.png","../images/pnk_blu.png","../images/ylw_slt.png"],"mutagen_generator_assignment":[1,0],"goal":5,"start":2,"action_noise":0,"location_history":"[2,1,3,4,2,3,2,1,3,4,2,3,4,2,3,4,0,5]","action_history":"[0,0,1,1,1,0,0,0,1,1,1,1,1,1,1,0,0]","mutagen_history":"[1,1,0,0,0,1,1,1,0,0,0,0,0,0,0,1,1]","location_rts":"[2088,621,453,625,373,365,484,800,614,442,319,19891,1125,1700,987,431,583]","trial_type":"fractal-mutation","trial_index":67,"time_elapsed":1409704,"internal_node_id":"0.0-5.0-13.0"},{"group":"hexagon_tri","fractal_assignment":["../images/gry_blk.png","../images/org_blu.png","../images/cyn_red.png","../images/blu_wht.png","../images/pnk_blu.png","../images/ylw_slt.png"],"mutagen_generator_assignment":[1,0],"goal":4,"start":5,"action_noise":0,"location_history":"[5,0,1,3,2,1,3,2,1,5,0,1,5,4]","action_history":"[1,1,0,0,0,0,0,0,1,1,1,1,0]","mutagen_history":"[0,0,1,1,1,1,1,1,0,0,0,0,1]","location_rts":"[1873,913,1109,551,797,1424,859,1051,422,992,767,1235,367]","trial_type":"fractal-mutation","trial_index":68,"time_elapsed":1442898,"internal_node_id":"0.0-5.0-14.0"},{"group":"hexagon_tri","fractal_assignment":["../images/gry_blk.png","../images/org_blu.png","../images/cyn_red.png","../images/blu_wht.png","../images/pnk_blu.png","../images/ylw_slt.png"],"mutagen_generator_assignment":[1,0],"goal":3,"start":4,"action_noise":0,"location_history":"[4,0,5,0,5,0,1,3]","action_history":"[0,0,1,0,1,1,0]","mutagen_history":"[1,1,0,1,0,0,1]","location_rts":"[1702,638,982,807,497,339,1078]","trial_type":"fractal-mutation","trial_index":69,"time_elapsed":1461264,"internal_node_id":"0.0-5.0-15.0"},{"group":"hexagon_tri","fractal_assignment":["../images/gry_blk.png","../images/org_blu.png","../images/cyn_red.png","../images/blu_wht.png","../images/pnk_blu.png","../images/ylw_slt.png"],"mutagen_generator_assignment":[1,0],"goal":1,"start":3,"action_noise":0,"location_history":"[3,4,0,5,4,0,1]","action_history":"[1,0,0,0,0,1]","mutagen_history":"[0,1,1,1,1,0]","location_rts":"[610,497,554,417,426,689]","trial_type":"fractal-mutation","trial_index":70,"time_elapsed":1476282,"internal_node_id":"0.0-5.0-16.0"},{"group":"hexagon_tri","fractal_assignment":["../images/gry_blk.png","../images/org_blu.png","../images/cyn_red.png","../images/blu_wht.png","../images/pnk_blu.png","../images/ylw_slt.png"],"mutagen_generator_assignment":[1,0],"goal":5,"start":1,"action_noise":0,"location_history":"[1,3,2,1,5]","action_history":"[0,0,0,1]","mutagen_history":"[1,1,1,0]","location_rts":"[1495,541,391,1115]","trial_type":"fractal-mutation","trial_index":71,"time_elapsed":1489415,"internal_node_id":"0.0-5.0-17.0"},{"group":"hexagon_tri","fractal_assignment":["../images/gry_blk.png","../images/org_blu.png","../images/cyn_red.png","../images/blu_wht.png","../images/pnk_blu.png","../images/ylw_slt.png"],"mutagen_generator_assignment":[1,0],"goal":4,"start":5,"action_noise":0,"location_history":"[5,0,5,4]","action_history":"[1,0,0]","mutagen_history":"[0,1,1]","location_rts":"[2796,457,688]","trial_type":"fractal-mutation","trial_index":72,"time_elapsed":1500776,"internal_node_id":"0.0-5.0-18.0"},{"group":"hexagon_tri","fractal_assignment":["../images/gry_blk.png","../images/org_blu.png","../images/cyn_red.png","../images/blu_wht.png","../images/pnk_blu.png","../images/ylw_slt.png"],"mutagen_generator_assignment":[1,0],"goal":0,"start":4,"action_noise":0,"location_history":"[4,0]","action_history":"[0]","mutagen_history":"[1]","location_rts":"[921]","trial_type":"fractal-mutation","trial_index":73,"time_elapsed":1506914,"internal_node_id":"0.0-5.0-19.0"},{"group":"hexagon_tri","fractal_assignment":["../images/gry_blk.png","../images/org_blu.png","../images/cyn_red.png","../images/blu_wht.png","../images/pnk_blu.png","../images/ylw_slt.png"],"mutagen_generator_assignment":[1,0],"goal":1,"start":0,"action_noise":0,"location_history":"[0,1]","action_history":"[1]","mutagen_history":"[0]","location_rts":"[1153]","trial_type":"fractal-mutation","trial_index":74,"time_elapsed":1513259,"internal_node_id":"0.0-5.0-20.0"},{"group":"hexagon_tri","fractal_assignment":["../images/gry_blk.png","../images/org_blu.png","../images/cyn_red.png","../images/blu_wht.png","../images/pnk_blu.png","../images/ylw_slt.png"],"mutagen_generator_assignment":[1,0],"goal":3,"start":1,"action_noise":0,"location_history":"[1,5,0,5,0,1,5,0,5,4,2,1,3]","action_history":"[1,1,0,1,1,1,1,0,0,1,0,0]","mutagen_history":"[0,0,1,0,0,0,0,1,1,0,1,1]","location_rts":"[1498,1165,1098,322,354,406,831,815,1097,1790,785,324]","trial_type":"fractal-mutation","trial_index":75,"time_elapsed":1541876,"internal_node_id":"0.0-5.0-21.0"},{"group":"hexagon_tri","fractal_assignment":["../images/gry_blk.png","../images/org_blu.png","../images/cyn_red.png","../images/blu_wht.png","../images/pnk_blu.png","../images/ylw_slt.png"],"mutagen_generator_assignment":[1,0],"goal":2,"start":3,"action_noise":0,"location_history":"[3,2]","action_history":"[0]","mutagen_history":"[1]","location_rts":"[1479]","trial_type":"fractal-mutation","trial_index":76,"time_elapsed":1548496,"internal_node_id":"0.0-5.0-22.0"},{"group":"hexagon_tri","fractal_assignment":["../images/gry_blk.png","../images/org_blu.png","../images/cyn_red.png","../images/blu_wht.png","../images/pnk_blu.png","../images/ylw_slt.png"],"mutagen_generator_assignment":[1,0],"goal":0,"start":2,"action_noise":0,"location_history":"[2,3,4,0]","action_history":"[1,1,0]","mutagen_history":"[0,0,1]","location_rts":"[1457,778,1498]","trial_type":"fractal-mutation","trial_index":77,"time_elapsed":1561060,"internal_node_id":"0.0-5.0-23.0"},{"group":"hexagon_tri","fractal_assignment":["../images/gry_blk.png","../images/org_blu.png","../images/cyn_red.png","../images/blu_wht.png","../images/pnk_blu.png","../images/ylw_slt.png"],"mutagen_generator_assignment":[1,0],"goal":3,"start":0,"action_noise":0,"location_history":"[0,5,0,1,5,4,0,5,4,0,5,0,1,3]","action_history":"[0,1,1,1,0,0,0,0,0,0,1,1,0]","mutagen_history":"[1,0,0,0,1,1,1,1,1,1,0,0,1]","location_rts":"[5332,1543,579,397,790,336,391,1028,619,465,390,476,1505]","trial_type":"fractal-mutation","trial_index":78,"time_elapsed":1599572,"internal_node_id":"0.0-5.0-24.0"},{"group":"hexagon_tri","fractal_assignment":["../images/gry_blk.png","../images/org_blu.png","../images/cyn_red.png","../images/blu_wht.png","../images/pnk_blu.png","../images/ylw_slt.png"],"mutagen_generator_assignment":[1,0],"goal":1,"start":3,"action_noise":0,"location_history":"[3,2,1]","action_history":"[0,0]","mutagen_history":"[1,1]","location_rts":"[6590,838]","trial_type":"fractal-mutation","trial_index":79,"time_elapsed":1613325,"internal_node_id":"0.0-5.0-25.0"},{"group":"hexagon_tri","fractal_assignment":["../images/gry_blk.png","../images/org_blu.png","../images/cyn_red.png","../images/blu_wht.png","../images/pnk_blu.png","../images/ylw_slt.png"],"mutagen_generator_assignment":[1,0],"goal":2,"start":1,"action_noise":0,"location_history":"[1,5,4,2]","action_history":"[1,0,1]","mutagen_history":"[0,1,0]","location_rts":"[676,505,589]","trial_type":"fractal-mutation","trial_index":80,"time_elapsed":1622615,"internal_node_id":"0.0-5.0-26.0"},{"group":"hexagon_tri","fractal_assignment":["../images/gry_blk.png","../images/org_blu.png","../images/cyn_red.png","../images/blu_wht.png","../images/pnk_blu.png","../images/ylw_slt.png"],"mutagen_generator_assignment":[1,0],"goal":5,"start":2,"action_noise":0,"location_history":"[2,1,5]","action_history":"[0,1]","mutagen_history":"[1,0]","location_rts":"[778,716]","trial_type":"fractal-mutation","trial_index":81,"time_elapsed":1630340,"internal_node_id":"0.0-5.0-27.0"},{"group":"hexagon_tri","fractal_assignment":["../images/gry_blk.png","../images/org_blu.png","../images/cyn_red.png","../images/blu_wht.png","../images/pnk_blu.png","../images/ylw_slt.png"],"mutagen_generator_assignment":[1,0],"goal":4,"start":5,"action_noise":0,"location_history":"[5,4]","action_history":"[0]","mutagen_history":"[1]","location_rts":"[801]","trial_type":"fractal-mutation","trial_index":82,"time_elapsed":1636256,"internal_node_id":"0.0-5.0-28.0"},{"group":"hexagon_tri","fractal_assignment":["../images/gry_blk.png","../images/org_blu.png","../images/cyn_red.png","../images/blu_wht.png","../images/pnk_blu.png","../images/ylw_slt.png"],"mutagen_generator_assignment":[1,0],"goal":5,"start":4,"action_noise":0,"location_history":"[4,0,1,5]","action_history":"[0,1,1]","mutagen_history":"[1,0,0]","location_rts":"[1052,379,388]","trial_type":"fractal-mutation","trial_index":83,"time_elapsed":1645411,"internal_node_id":"0.0-5.0-29.0"},{"group":"hexagon_tri","fractal_assignment":["../images/gry_blk.png","../images/org_blu.png","../images/cyn_red.png","../images/blu_wht.png","../images/pnk_blu.png","../images/ylw_slt.png"],"mutagen_generator_assignment":[1,0],"goal":3,"start":5,"action_noise":0,"location_history":"[5,4,2,1,3]","action_history":"[0,1,0,0]","mutagen_history":"[1,0,1,1]","location_rts":"[972,816,646,677]","trial_type":"fractal-mutation","trial_index":84,"time_elapsed":1659708,"internal_node_id":"0.0-5.0-30.0"},{"group":"hexagon_tri","fractal_assignment":["../images/gry_blk.png","../images/org_blu.png","../images/cyn_red.png","../images/blu_wht.png","../images/pnk_blu.png","../images/ylw_slt.png"],"mutagen_generator_assignment":[1,0],"goal":0,"start":3,"action_noise":0,"location_history":"[3,2,3,2,1,5,0]","action_history":"[0,1,0,0,1,1]","mutagen_history":"[1,0,1,1,0,0]","location_rts":"[2193,1784,970,346,467,416]","trial_type":"fractal-mutation","trial_index":85,"time_elapsed":1677466,"internal_node_id":"0.0-5.0-31.0"},{"group":"hexagon_tri","fractal_assignment":["../images/gry_blk.png","../images/org_blu.png","../images/cyn_red.png","../images/blu_wht.png","../images/pnk_blu.png","../images/ylw_slt.png"],"mutagen_generator_assignment":[1,0],"goal":4,"start":0,"action_noise":0,"location_history":"[0,5,4]","action_history":"[0,0]","mutagen_history":"[1,1]","location_rts":"[794,667]","trial_type":"fractal-mutation","trial_index":86,"time_elapsed":1685335,"internal_node_id":"0.0-5.0-32.0"},{"group":"hexagon_tri","fractal_assignment":["../images/gry_blk.png","../images/org_blu.png","../images/cyn_red.png","../images/blu_wht.png","../images/pnk_blu.png","../images/ylw_slt.png"],"mutagen_generator_assignment":[1,0],"goal":1,"start":4,"action_noise":0,"location_history":"[4,2,1]","action_history":"[1,0]","mutagen_history":"[0,1]","location_rts":"[760,661]","trial_type":"fractal-mutation","trial_index":87,"time_elapsed":1693026,"internal_node_id":"0.0-5.0-33.0"},{"group":"hexagon_tri","fractal_assignment":["../images/gry_blk.png","../images/org_blu.png","../images/cyn_red.png","../images/blu_wht.png","../images/pnk_blu.png","../images/ylw_slt.png"],"mutagen_generator_assignment":[1,0],"goal":2,"start":1,"action_noise":0,"location_history":"[1,5,4,0,5,0,1,5,4,2]","action_history":"[1,0,0,0,1,1,1,0,1]","mutagen_history":"[0,1,1,1,0,0,0,1,0]","location_rts":"[661,560,344,363,343,531,779,542,441]","trial_type":"fractal-mutation","trial_index":88,"time_elapsed":1711859,"internal_node_id":"0.0-5.0-34.0"},{"group":"hexagon_tri","fractal_assignment":["../images/gry_blk.png","../images/org_blu.png","../images/cyn_red.png","../images/blu_wht.png","../images/pnk_blu.png","../images/ylw_slt.png"],"mutagen_generator_assignment":[1,0],"goal":0,"start":2,"action_noise":0,"location_history":"[2,1,5,4,2,3,4,2,3,2,1,3,2,1,5,0]","action_history":"[0,1,0,1,1,1,1,1,0,0,0,0,0,1,1]","mutagen_history":"[1,0,1,0,0,0,0,0,1,1,1,1,1,0,0]","location_rts":"[667,501,651,376,389,497,673,388,381,403,362,453,440,405,420]","trial_type":"fractal-mutation","trial_index":89,"time_elapsed":1742520,"internal_node_id":"0.0-5.0-35.0"},{"group":"hexagon_tri","fractal_assignment":["../images/gry_blk.png","../images/org_blu.png","../images/cyn_red.png","../images/blu_wht.png","../images/pnk_blu.png","../images/ylw_slt.png"],"mutagen_generator_assignment":[1,0],"goal":5,"start":0,"action_noise":0,"location_history":"[0,5]","action_history":"[0]","mutagen_history":"[1]","location_rts":"[4342]","trial_type":"fractal-mutation","trial_index":90,"time_elapsed":1755445,"internal_node_id":"0.0-5.0-36.0"},{"group":"hexagon_tri","fractal_assignment":["../images/gry_blk.png","../images/org_blu.png","../images/cyn_red.png","../images/blu_wht.png","../images/pnk_blu.png","../images/ylw_slt.png"],"mutagen_generator_assignment":[1,0],"goal":2,"start":5,"action_noise":0,"location_history":"[5,0,5,0,1,5,4,2]","action_history":"[1,0,1,1,1,0,1]","mutagen_history":"[0,1,0,0,0,1,0]","location_rts":"[904,417,363,266,712,366,365]","trial_type":"fractal-mutation","trial_index":91,"time_elapsed":1770959,"internal_node_id":"0.0-5.0-37.0"},{"group":"hexagon_tri","fractal_assignment":["../images/gry_blk.png","../images/org_blu.png","../images/cyn_red.png","../images/blu_wht.png","../images/pnk_blu.png","../images/ylw_slt.png"],"mutagen_generator_assignment":[1,0],"goal":1,"start":2,"action_noise":0,"location_history":"[2,1]","action_history":"[0]","mutagen_history":"[1]","location_rts":"[986]","trial_type":"fractal-mutation","trial_index":92,"time_elapsed":1777184,"internal_node_id":"0.0-5.0-38.0"},{"group":"hexagon_tri","fractal_assignment":["../images/gry_blk.png","../images/org_blu.png","../images/cyn_red.png","../images/blu_wht.png","../images/pnk_blu.png","../images/ylw_slt.png"],"mutagen_generator_assignment":[1,0],"goal":4,"start":1,"action_noise":0,"location_history":"[1,5,4]","action_history":"[1,0]","mutagen_history":"[0,1]","location_rts":"[907,413]","trial_type":"fractal-mutation","trial_index":93,"time_elapsed":1784769,"internal_node_id":"0.0-5.0-39.0"},{"group":"hexagon_tri","fractal_assignment":["../images/gry_blk.png","../images/org_blu.png","../images/cyn_red.png","../images/blu_wht.png","../images/pnk_blu.png","../images/ylw_slt.png"],"mutagen_generator_assignment":[1,0],"goal":3,"start":4,"action_noise":0,"location_history":"[4,2,1,3]","action_history":"[1,0,0]","mutagen_history":"[0,1,1]","location_rts":"[1027,388,452]","trial_type":"fractal-mutation","trial_index":94,"time_elapsed":1794610,"internal_node_id":"0.0-5.0-40.0"},{"group":"hexagon_tri","fractal_assignment":["../images/gry_blk.png","../images/org_blu.png","../images/cyn_red.png","../images/blu_wht.png","../images/pnk_blu.png","../images/ylw_slt.png"],"mutagen_generator_assignment":[1,0],"goal":5,"start":3,"action_noise":0,"location_history":"[3,4,0,5]","action_history":"[1,0,0]","mutagen_history":"[0,1,1]","location_rts":"[704,521,458]","trial_type":"fractal-mutation","trial_index":95,"time_elapsed":1803653,"internal_node_id":"0.0-5.0-41.0"},{"group":"hexagon_tri","fractal_assignment":["../images/gry_blk.png","../images/org_blu.png","../images/cyn_red.png","../images/blu_wht.png","../images/pnk_blu.png","../images/ylw_slt.png"],"mutagen_generator_assignment":[1,0],"goal":3,"start":5,"action_noise":0,"location_history":"[5,0,5,4,2,1,3]","action_history":"[1,0,0,1,0,0]","mutagen_history":"[0,1,1,0,1,1]","location_rts":"[604,394,299,412,331,299]","trial_type":"fractal-mutation","trial_index":96,"time_elapsed":1816968,"internal_node_id":"0.0-5.0-42.0"},{"group":"hexagon_tri","fractal_assignment":["../images/gry_blk.png","../images/org_blu.png","../images/cyn_red.png","../images/blu_wht.png","../images/pnk_blu.png","../images/ylw_slt.png"],"mutagen_generator_assignment":[1,0],"goal":0,"start":3,"action_noise":0,"location_history":"[3,4,2,1,5,0]","action_history":"[1,1,0,1,1]","mutagen_history":"[0,0,1,0,0]","location_rts":"[1349,516,398,284,519]","trial_type":"fractal-mutation","trial_index":97,"time_elapsed":1829851,"internal_node_id":"0.0-5.0-43.0"},{"group":"hexagon_tri","fractal_assignment":["../images/gry_blk.png","../images/org_blu.png","../images/cyn_red.png","../images/blu_wht.png","../images/pnk_blu.png","../images/ylw_slt.png"],"mutagen_generator_assignment":[1,0],"goal":2,"start":0,"action_noise":0,"location_history":"[0,5,4,0,1,3,2]","action_history":"[0,0,0,1,0,0]","mutagen_history":"[1,1,1,0,1,1]","location_rts":"[660,347,537,507,246,394]","trial_type":"fractal-mutation","trial_index":98,"time_elapsed":1843565,"internal_node_id":"0.0-5.0-44.0"},{"group":"hexagon_tri","fractal_assignment":["../images/gry_blk.png","../images/org_blu.png","../images/cyn_red.png","../images/blu_wht.png","../images/pnk_blu.png","../images/ylw_slt.png"],"mutagen_generator_assignment":[1,0],"goal":4,"start":2,"action_noise":0,"location_history":"[2,3,2,1,3,2,1,5,0,1,3,2,1,3,2,3,4]","action_history":"[1,0,0,0,0,0,1,1,1,0,0,0,0,0,1,1]","mutagen_history":"[0,1,1,1,1,1,0,0,0,1,1,1,1,1,0,0]","location_rts":"[683,307,1019,361,408,796,478,740,546,546,247,336,540,708,420,476]","trial_type":"fractal-mutation","trial_index":99,"time_elapsed":1875320,"internal_node_id":"0.0-5.0-45.0"},{"group":"hexagon_tri","fractal_assignment":["../images/gry_blk.png","../images/org_blu.png","../images/cyn_red.png","../images/blu_wht.png","../images/pnk_blu.png","../images/ylw_slt.png"],"mutagen_generator_assignment":[1,0],"goal":1,"start":4,"action_noise":0,"location_history":"[4,2,1]","action_history":"[1,0]","mutagen_history":"[0,1]","location_rts":"[799,553]","trial_type":"fractal-mutation","trial_index":100,"time_elapsed":1883043,"internal_node_id":"0.0-5.0-46.0"},{"group":"hexagon_tri","fractal_assignment":["../images/gry_blk.png","../images/org_blu.png","../images/cyn_red.png","../images/blu_wht.png","../images/pnk_blu.png","../images/ylw_slt.png"],"mutagen_generator_assignment":[1,0],"goal":4,"start":1,"action_noise":0,"location_history":"[1,3,2,1,5,0,1,3,2,1,3,4]","action_history":"[0,0,0,1,1,1,0,0,0,0,1]","mutagen_history":"[1,1,1,0,0,0,1,1,1,1,0]","location_rts":"[613,434,420,436,516,422,298,490,451,363,1371]","trial_type":"fractal-mutation","trial_index":101,"time_elapsed":1906284,"internal_node_id":"0.0-5.0-47.0"},{"group":"hexagon_tri","fractal_assignment":["../images/gry_blk.png","../images/org_blu.png","../images/cyn_red.png","../images/blu_wht.png","../images/pnk_blu.png","../images/ylw_slt.png"],"mutagen_generator_assignment":[1,0],"goal":3,"start":4,"action_noise":0,"location_history":"[4,0,5,0,5,4,0,5,0,1,5,0,1,3]","action_history":"[0,0,1,0,0,0,0,1,1,1,1,1,0]","mutagen_history":"[1,1,0,1,1,1,1,0,0,0,0,0,1]","location_rts":"[730,416,584,427,309,594,995,357,310,313,263,338,318]","trial_type":"fractal-mutation","trial_index":102,"time_elapsed":1931148,"internal_node_id":"0.0-5.0-48.0"},{"group":"hexagon_tri","fractal_assignment":["../images/gry_blk.png","../images/org_blu.png","../images/cyn_red.png","../images/blu_wht.png","../images/pnk_blu.png","../images/ylw_slt.png"],"mutagen_generator_assignment":[1,0],"goal":5,"start":3,"action_noise":0,"location_history":"[3,4,0,5]","action_history":"[1,0,0]","mutagen_history":"[0,1,1]","location_rts":"[1048,358,280]","trial_type":"fractal-mutation","trial_index":103,"time_elapsed":1940806,"internal_node_id":"0.0-5.0-49.0"},{"view_history":"[{\"page_index\":0,\"viewing_time\":9060}]","rt":9062,"trial_type":"instructions","trial_index":104,"time_elapsed":1950882,"internal_node_id":"0.0-6.0"},{"rt":1585,"responses":"{\"Q0\":\"\"}","trial_type":"survey-text","trial_index":105,"time_elapsed":1953486,"internal_node_id":"0.0-7.0"}]