[{"view_history":"[{\"page_index\":0,\"viewing_time\":3433},{\"page_index\":1,\"viewing_time\":9548},{\"page_index\":2,\"viewing_time\":12472}]","rt":25455,"trial_type":"instructions","trial_index":0,"time_elapsed":25458,"internal_node_id":"0.0-0.0"},{"view_history":"[{\"page_index\":0,\"viewing_time\":325258},{\"page_index\":1,\"viewing_time\":312461}]","rt":637720,"trial_type":"instructions","trial_index":1,"time_elapsed":664182,"internal_node_id":"0.0-1.0"},{"group":"hexagon_tri","room_assignment":["yellow","blue","green","purple","red","grey"],"door_color_assignment":["black","white"],"door_generator_assignment":[0,1],"goal":4,"start":0,"action_noise":0,"location_history":"[0,5,4]","action_history":"[0,0]","door_history":"[0,0]","location_rts":"[4898,2500]","trial_type":"two-door-navigation","trial_index":2,"time_elapsed":677726,"internal_node_id":"0.0-2.0-0.0"},{"group":"hexagon_tri","room_assignment":["yellow","blue","green","purple","red","grey"],"door_color_assignment":["black","white"],"door_generator_assignment":[0,1],"goal":3,"start":4,"action_noise":0,"location_history":"[4,2,3]","action_history":"[1,1]","door_history":"[1,1]","location_rts":"[2348,2814]","trial_type":"two-door-navigation","trial_index":3,"time_elapsed":688982,"internal_node_id":"0.0-2.0-1.0"},{"group":"hexagon_tri","room_assignment":["yellow","blue","green","purple","red","grey"],"door_color_assignment":["black","white"],"door_generator_assignment":[0,1],"goal":5,"start":3,"action_noise":0,"location_history":"[3,4,2,3,4,0,5]","action_history":"[1,1,1,1,0,0]","door_history":"[1,1,1,1,0,0]","location_rts":"[3141,3620,1462,1524,828,659]","trial_type":"two-door-navigation","trial_index":4,"time_elapsed":710501,"internal_node_id":"0.0-2.0-2.0"},{"group":"hexagon_tri","room_assignment":["yellow","blue","green","purple","red","grey"],"door_color_assignment":["black","white"],"door_generator_assignment":[0,1],"goal":2,"start":5,"action_noise":0,"location_history":"[5,0,1,3,2]","action_history":"[1,1,0,0]","door_history":"[1,1,0,0]","location_rts":"[2227,1926,1536,436]","trial_type":"two-door-navigation","trial_index":5,"time_elapsed":724815,"internal_node_id":"0.0-2.0-3.0"},{"group":"hexagon_tri","room_assignment":["yellow","blue","green","purple","red","grey"],"door_color_assignment":["black","white"],"door_generator_assignment":[0,1],"goal":1,"start":2,"action_noise":0,"location_history":"[2,1]","action_history":"[0]","door_history":"[0]","location_rts":"[6042]","trial_type":"two-door-navigation","trial_index":6,"time_elapsed":735908,"internal_node_id":"0.0-2.0-4.0"},{"group":"hexagon_tri","room_assignment":["yellow","blue","green","purple","red","grey"],"door_color_assignment":["black","white"],"door_generator_assignment":[0,1],"goal":4,"start":1,"action_noise":0,"location_history":"[1,5,0,5,4]","action_history":"[1,1,0,0]","door_history":"[1,1,0,0]","location_rts":"[2892,1061,900,791]","trial_type":"two-door-navigation","trial_index":7,"time_elapsed":749743,"internal_node_id":"0.0-2.0-5.0"},{"group":"hexagon_tri","room_assignment":["yellow","blue","green","purple","red","grey"],"door_color_assignment":["black","white"],"door_generator_assignment":[0,1],"goal":1,"start":4,"action_noise":0,"location_history":"[4,2,1]","action_history":"[1,0]","door_history":"[1,0]","location_rts":"[3097,1143]","trial_type":"two-door-navigation","trial_index":8,"time_elapsed":760078,"internal_node_id":"0.0-2.0-6.0"},{"group":"hexagon_tri","room_assignment":["yellow","blue","green","purple","red","grey"],"door_color_assignment":["black","white"],"door_generator_assignment":[0,1],"goal":5,"start":1,"action_noise":0,"location_history":"[1,3,2,3,4,0,5]","action_history":"[0,0,1,1,0,0]","door_history":"[0,0,1,1,0,0]","location_rts":"[3392,712,577,507,950,813]","trial_type":"two-door-navigation","trial_index":9,"time_elapsed":777286,"internal_node_id":"0.0-2.0-7.0"},{"group":"hexagon_tri","room_assignment":["yellow","blue","green","purple","red","grey"],"door_color_assignment":["black","white"],"door_generator_assignment":[0,1],"goal":0,"start":5,"action_noise":0,"location_history":"[5,0]","action_history":"[1]","door_history":"[1]","location_rts":"[2112]","trial_type":"two-door-navigation","trial_index":10,"time_elapsed":784455,"internal_node_id":"0.0-2.0-8.0"},{"group":"hexagon_tri","room_assignment":["yellow","blue","green","purple","red","grey"],"door_color_assignment":["black","white"],"door_generator_assignment":[0,1],"goal":2,"start":0,"action_noise":0,"location_history":"[0,1,5,4,0,1,3,2]","action_history":"[1,1,0,0,1,0,0]","door_history":"[1,1,0,0,1,0,0]","location_rts":"[2528,4633,650,972,1118,1115,1375]","trial_type":"two-door-navigation","trial_index":11,"time_elapsed":808155,"internal_node_id":"0.0-2.0-9.0"},{"group":"hexagon_tri","room_assignment":["yellow","blue","green","purple","red","grey"],"door_color_assignment":["black","white"],"door_generator_assignment":[0,1],"goal":3,"start":2,"action_noise":0,"location_history":"[2,3]","action_history":"[1]","door_history":"[1]","location_rts":"[4603]","trial_type":"two-door-navigation","trial_index":12,"time_elapsed":817810,"internal_node_id":"0.0-2.0-10.0"},{"group":"hexagon_tri","room_assignment":["yellow","blue","green","purple","red","grey"],"door_color_assignment":["black","white"],"door_generator_assignment":[0,1],"goal":0,"start":3,"action_noise":0,"location_history":"[3,2,3,2,1,3,2,3,4,2,3,2,1,3,4,2,1,3,4,2,1,5,4,2,3,2,1,3,2,1,3,2,1,5,0]","action_history":"[0,1,0,0,0,0,1,1,1,1,0,0,0,1,1,0,0,1,1,0,1,0,1,1,0,0,0,0,0,0,0,0,1,1]","door_history":"[0,1,0,0,0,0,1,1,1,1,0,0,0,1,1,0,0,1,1,0,1,0,1,1,0,0,0,0,0,0,0,0,1,1]","location_rts":"[4645,1503,1207,764,948,1670,906,594,805,782,865,788,713,592,661,1452,1007,464,402,365,606,782,927,526,479,779,1258,1064,413,465,638,400,390,1016]","trial_type":"two-door-navigation","trial_index":13,"time_elapsed":888087,"internal_node_id":"0.0-2.0-11.0"},{"group":"hexagon_tri","room_assignment":["yellow","blue","green","purple","red","grey"],"door_color_assignment":["black","white"],"door_generator_assignment":[0,1],"goal":2,"start":0,"action_noise":0,"location_history":"[0,1,3,2]","action_history":"[1,0,0]","door_history":"[1,0,0]","location_rts":"[5200,1431,967]","trial_type":"two-door-navigation","trial_index":14,"time_elapsed":902816,"internal_node_id":"0.0-2.0-12.0"},{"group":"hexagon_tri","room_assignment":["yellow","blue","green","purple","red","grey"],"door_color_assignment":["black","white"],"door_generator_assignment":[0,1],"goal":5,"start":2,"action_noise":0,"location_history":"[2,1,5]","action_history":"[0,1]","door_history":"[0,1]","location_rts":"[6702,709]","trial_type":"two-door-navigation","trial_index":15,"time_elapsed":916322,"internal_node_id":"0.0-2.0-13.0"},{"group":"hexagon_tri","room_assignment":["yellow","blue","green","purple","red","grey"],"door_color_assignment":["black","white"],"door_generator_assignment":[0,1],"goal":4,"start":5,"action_noise":0,"location_history":"[5,0,5,4]","action_history":"[1,0,0]","door_history":"[1,0,0]","location_rts":"[4230,608,812]","trial_type":"two-door-navigation","trial_index":16,"time_elapsed":929108,"internal_node_id":"0.0-2.0-14.0"},{"group":"hexagon_tri","room_assignment":["yellow","blue","green","purple","red","grey"],"door_color_assignment":["black","white"],"door_generator_assignment":[0,1],"goal":3,"start":4,"action_noise":0,"location_history":"[4,2,1,3]","action_history":"[1,0,0]","door_history":"[1,0,0]","location_rts":"[4028,1201,622]","trial_type":"two-door-navigation","trial_index":17,"time_elapsed":942085,"internal_node_id":"0.0-2.0-15.0"},{"group":"hexagon_tri","room_assignment":["yellow","blue","green","purple","red","grey"],"door_color_assignment":["black","white"],"door_generator_assignment":[0,1],"goal":1,"start":3,"action_noise":0,"location_history":"[3,2,1]","action_history":"[0,0]","door_history":"[0,0]","location_rts":"[6235,823]","trial_type":"two-door-navigation","trial_index":18,"time_elapsed":955233,"internal_node_id":"0.0-2.0-16.0"},{"group":"hexagon_tri","room_assignment":["yellow","blue","green","purple","red","grey"],"door_color_assignment":["black","white"],"door_generator_assignment":[0,1],"goal":5,"start":1,"action_noise":0,"location_history":"[1,5]","action_history":"[1]","door_history":"[1]","location_rts":"[1727]","trial_type":"two-door-navigation","trial_index":19,"time_elapsed":962007,"internal_node_id":"0.0-2.0-17.0"},{"group":"hexagon_tri","room_assignment":["yellow","blue","green","purple","red","grey"],"door_color_assignment":["black","white"],"door_generator_assignment":[0,1],"goal":4,"start":5,"action_noise":0,"location_history":"[5,4]","action_history":"[0]","door_history":"[0]","location_rts":"[2241]","trial_type":"two-door-navigation","trial_index":20,"time_elapsed":969295,"internal_node_id":"0.0-2.0-18.0"},{"group":"hexagon_tri","room_assignment":["yellow","blue","green","purple","red","grey"],"door_color_assignment":["black","white"],"door_generator_assignment":[0,1],"goal":0,"start":4,"action_noise":0,"location_history":"[4,0]","action_history":"[0]","door_history":"[0]","location_rts":"[5979]","trial_type":"two-door-navigation","trial_index":21,"time_elapsed":980325,"internal_node_id":"0.0-2.0-19.0"},{"group":"hexagon_tri","room_assignment":["yellow","blue","green","purple","red","grey"],"door_color_assignment":["black","white"],"door_generator_assignment":[0,1],"goal":1,"start":0,"action_noise":0,"location_history":"[0,1]","action_history":"[1]","door_history":"[1]","location_rts":"[2341]","trial_type":"two-door-navigation","trial_index":22,"time_elapsed":987715,"internal_node_id":"0.0-2.0-20.0"},{"group":"hexagon_tri","room_assignment":["yellow","blue","green","purple","red","grey"],"door_color_assignment":["black","white"],"door_generator_assignment":[0,1],"goal":3,"start":1,"action_noise":0,"location_history":"[1,3]","action_history":"[0]","door_history":"[0]","location_rts":"[1694]","trial_type":"two-door-navigation","trial_index":23,"time_elapsed":994457,"internal_node_id":"0.0-2.0-21.0"},{"group":"hexagon_tri","room_assignment":["yellow","blue","green","purple","red","grey"],"door_color_assignment":["black","white"],"door_generator_assignment":[0,1],"goal":2,"start":3,"action_noise":0,"location_history":"[3,2]","action_history":"[0]","door_history":"[0]","location_rts":"[1522]","trial_type":"two-door-navigation","trial_index":24,"time_elapsed":1001028,"internal_node_id":"0.0-2.0-22.0"},{"group":"hexagon_tri","room_assignment":["yellow","blue","green","purple","red","grey"],"door_color_assignment":["black","white"],"door_generator_assignment":[0,1],"goal":0,"start":2,"action_noise":0,"location_history":"[2,1,3,2,1,3,4,2,1,5,0]","action_history":"[0,0,0,0,0,1,1,0,1,1]","door_history":"[0,0,0,0,0,1,1,0,1,1]","location_rts":"[1861,857,774,885,525,463,951,370,326,1622]","trial_type":"two-door-navigation","trial_index":25,"time_elapsed":1024084,"internal_node_id":"0.0-2.0-23.0"},{"group":"hexagon_tri","room_assignment":["yellow","blue","green","purple","red","grey"],"door_color_assignment":["black","white"],"door_generator_assignment":[0,1],"goal":3,"start":0,"action_noise":0,"location_history":"[0,5,4,0,1,3]","action_history":"[0,0,0,1,0]","door_history":"[0,0,0,1,0]","location_rts":"[43151,1530,1036,1789,798]","trial_type":"two-door-navigation","trial_index":26,"time_elapsed":1081603,"internal_node_id":"0.0-2.0-24.0"},{"group":"hexagon_tri","room_assignment":["yellow","blue","green","purple","red","grey"],"door_color_assignment":["black","white"],"door_generator_assignment":[0,1],"goal":1,"start":3,"action_noise":0,"location_history":"[3,2,1]","action_history":"[0,0]","door_history":"[0,0]","location_rts":"[4441,525]","trial_type":"two-door-navigation","trial_index":27,"time_elapsed":1092661,"internal_node_id":"0.0-2.0-25.0"},{"group":"hexagon_tri","room_assignment":["yellow","blue","green","purple","red","grey"],"door_color_assignment":["black","white"],"door_generator_assignment":[0,1],"goal":2,"start":1,"action_noise":0,"location_history":"[1,3,2]","action_history":"[0,0]","door_history":"[0,0]","location_rts":"[8110,639]","trial_type":"two-door-navigation","trial_index":28,"time_elapsed":1107499,"internal_node_id":"0.0-2.0-26.0"},{"group":"hexagon_tri","room_assignment":["yellow","blue","green","purple","red","grey"],"door_color_assignment":["black","white"],"door_generator_assignment":[0,1],"goal":5,"start":2,"action_noise":0,"location_history":"[2,1,3,4,2,3,4,2,1,5]","action_history":"[0,0,1,1,1,1,1,0,1]","door_history":"[0,0,1,1,1,1,1,0,1]","location_rts":"[2312,1880,913,911,1332,741,886,326,569]","trial_type":"two-door-navigation","trial_index":29,"time_elapsed":1130743,"internal_node_id":"0.0-2.0-27.0"},{"group":"hexagon_tri","room_assignment":["yellow","blue","green","purple","red","grey"],"door_color_assignment":["black","white"],"door_generator_assignment":[0,1],"goal":4,"start":5,"action_noise":0,"location_history":"[5,4]","action_history":"[0]","door_history":"[0]","location_rts":"[3760]","trial_type":"two-door-navigation","trial_index":30,"time_elapsed":1139549,"internal_node_id":"0.0-2.0-28.0"},{"group":"hexagon_tri","room_assignment":["yellow","blue","green","purple","red","grey"],"door_color_assignment":["black","white"],"door_generator_assignment":[0,1],"goal":5,"start":4,"action_noise":0,"location_history":"[4,2,3,4,0,1,5]","action_history":"[1,1,1,0,1,1]","door_history":"[1,1,1,0,1,1]","location_rts":"[4885,1024,654,1165,749,1106]","trial_type":"two-door-navigation","trial_index":31,"time_elapsed":1159398,"internal_node_id":"0.0-2.0-29.0"},{"group":"hexagon_tri","room_assignment":["yellow","blue","green","purple","red","grey"],"door_color_assignment":["black","white"],"door_generator_assignment":[0,1],"goal":3,"start":5,"action_noise":0,"location_history":"[5,4,2,1,3]","action_history":"[0,1,0,0]","door_history":"[0,1,0,0]","location_rts":"[1973,537,427,532]","trial_type":"two-door-navigation","trial_index":32,"time_elapsed":1171058,"internal_node_id":"0.0-2.0-30.0"},{"group":"hexagon_tri","room_assignment":["yellow","blue","green","purple","red","grey"],"door_color_assignment":["black","white"],"door_generator_assignment":[0,1],"goal":0,"start":3,"action_noise":0,"location_history":"[3,2,3,4,0]","action_history":"[0,1,1,0]","door_history":"[0,1,1,0]","location_rts":"[3827,929,1332,772]","trial_type":"two-door-navigation","trial_index":33,"time_elapsed":1186093,"internal_node_id":"0.0-2.0-31.0"},{"group":"hexagon_tri","room_assignment":["yellow","blue","green","purple","red","grey"],"door_color_assignment":["black","white"],"door_generator_assignment":[0,1],"goal":4,"start":0,"action_noise":0,"location_history":"[0,5,4]","action_history":"[0,0]","door_history":"[0,0]","location_rts":"[3264,1470]","trial_type":"two-door-navigation","trial_index":34,"time_elapsed":1196919,"internal_node_id":"0.0-2.0-32.0"},{"group":"hexagon_tri","room_assignment":["yellow","blue","green","purple","red","grey"],"door_color_assignment":["black","white"],"door_generator_assignment":[0,1],"goal":1,"start":4,"action_noise":0,"location_history":"[4,2,1]","action_history":"[1,0]","door_history":"[1,0]","location_rts":"[6592,689]","trial_type":"two-door-navigation","trial_index":35,"time_elapsed":1210288,"internal_node_id":"0.0-2.0-33.0"},{"group":"hexagon_tri","room_assignment":["yellow","blue","green","purple","red","grey"],"door_color_assignment":["black","white"],"door_generator_assignment":[0,1],"goal":2,"start":1,"action_noise":0,"location_history":"[1,3,2]","action_history":"[0,0]","door_history":"[0,0]","location_rts":"[2287,745]","trial_type":"two-door-navigation","trial_index":36,"time_elapsed":1219410,"internal_node_id":"0.0-2.0-34.0"},{"group":"hexagon_tri","room_assignment":["yellow","blue","green","purple","red","grey"],"door_color_assignment":["black","white"],"door_generator_assignment":[0,1],"goal":0,"start":2,"action_noise":0,"location_history":"[2,1,5,0]","action_history":"[0,1,1]","door_history":"[0,1,1]","location_rts":"[2004,607,367]","trial_type":"two-door-navigation","trial_index":37,"time_elapsed":1229520,"internal_node_id":"0.0-2.0-35.0"},{"group":"hexagon_tri","room_assignment":["yellow","blue","green","purple","red","grey"],"door_color_assignment":["black","white"],"door_generator_assignment":[0,1],"goal":5,"start":0,"action_noise":0,"location_history":"[0,5]","action_history":"[0]","door_history":"[0]","location_rts":"[2398]","trial_type":"two-door-navigation","trial_index":38,"time_elapsed":1236965,"internal_node_id":"0.0-2.0-36.0"},{"group":"hexagon_tri","room_assignment":["yellow","blue","green","purple","red","grey"],"door_color_assignment":["black","white"],"door_generator_assignment":[0,1],"goal":2,"start":5,"action_noise":0,"location_history":"[5,4,0,1,3,2]","action_history":"[0,0,1,0,0]","door_history":"[0,0,1,0,0]","location_rts":"[2089,794,1323,805,368]","trial_type":"two-door-navigation","trial_index":39,"time_elapsed":1251558,"internal_node_id":"0.0-2.0-37.0"},{"group":"hexagon_tri","room_assignment":["yellow","blue","green","purple","red","grey"],"door_color_assignment":["black","white"],"door_generator_assignment":[0,1],"goal":1,"start":2,"action_noise":0,"location_history":"[2,1]","action_history":"[0]","door_history":"[0]","location_rts":"[2513]","trial_type":"two-door-navigation","trial_index":40,"time_elapsed":1259118,"internal_node_id":"0.0-2.0-38.0"},{"group":"hexagon_tri","room_assignment":["yellow","blue","green","purple","red","grey"],"door_color_assignment":["black","white"],"door_generator_assignment":[0,1],"goal":4,"start":1,"action_noise":0,"location_history":"[1,5,0,5,4]","action_history":"[1,1,0,0]","door_history":"[1,1,0,0]","location_rts":"[7865,1687,1473,855]","trial_type":"two-door-navigation","trial_index":41,"time_elapsed":1279167,"internal_node_id":"0.0-2.0-39.0"},{"group":"hexagon_tri","room_assignment":["yellow","blue","green","purple","red","grey"],"door_color_assignment":["black","white"],"door_generator_assignment":[0,1],"goal":3,"start":4,"action_noise":0,"location_history":"[4,0,5,0,5,4,0,5,4,2,1,3]","action_history":"[0,0,1,0,0,0,0,0,1,0,0]","door_history":"[0,0,1,0,0,0,0,0,1,0,0]","location_rts":"[2615,943,718,740,615,1023,830,844,442,656,438]","trial_type":"two-door-navigation","trial_index":42,"time_elapsed":1304494,"internal_node_id":"0.0-2.0-40.0"},{"group":"hexagon_tri","room_assignment":["yellow","blue","green","purple","red","grey"],"door_color_assignment":["black","white"],"door_generator_assignment":[0,1],"goal":5,"start":3,"action_noise":0,"location_history":"[3,2,1,5]","action_history":"[0,0,1]","door_history":"[0,0,1]","location_rts":"[3563,586,505]","trial_type":"two-door-navigation","trial_index":43,"time_elapsed":1316284,"internal_node_id":"0.0-2.0-41.0"},{"group":"hexagon_tri","room_assignment":["yellow","blue","green","purple","red","grey"],"door_color_assignment":["black","white"],"door_generator_assignment":[0,1],"goal":3,"start":5,"action_noise":0,"location_history":"[5,0,1,3]","action_history":"[1,1,0]","door_history":"[1,1,0]","location_rts":"[3835,599,1292]","trial_type":"two-door-navigation","trial_index":44,"time_elapsed":1329145,"internal_node_id":"0.0-2.0-42.0"},{"group":"hexagon_tri","room_assignment":["yellow","blue","green","purple","red","grey"],"door_color_assignment":["black","white"],"door_generator_assignment":[0,1],"goal":0,"start":3,"action_noise":0,"location_history":"[3,2,1,5,0]","action_history":"[0,0,1,1]","door_history":"[0,0,1,1]","location_rts":"[3407,2616,711,415]","trial_type":"two-door-navigation","trial_index":45,"time_elapsed":1344467,"internal_node_id":"0.0-2.0-43.0"},{"group":"hexagon_tri","room_assignment":["yellow","blue","green","purple","red","grey"],"door_color_assignment":["black","white"],"door_generator_assignment":[0,1],"goal":2,"start":0,"action_noise":0,"location_history":"[0,5,0,1,3,2]","action_history":"[0,1,1,0,0]","door_history":"[0,1,1,0,0]","location_rts":"[16046,850,714,677,376]","trial_type":"two-door-navigation","trial_index":46,"time_elapsed":1372345,"internal_node_id":"0.0-2.0-44.0"},{"group":"hexagon_tri","room_assignment":["yellow","blue","green","purple","red","grey"],"door_color_assignment":["black","white"],"door_generator_assignment":[0,1],"goal":4,"start":2,"action_noise":0,"location_history":"[2,3,4]","action_history":"[1,1]","door_history":"[1,1]","location_rts":"[3882,1002]","trial_type":"two-door-navigation","trial_index":47,"time_elapsed":1383320,"internal_node_id":"0.0-2.0-45.0"},{"group":"hexagon_tri","room_assignment":["yellow","blue","green","purple","red","grey"],"door_color_assignment":["black","white"],"door_generator_assignment":[0,1],"goal":1,"start":4,"action_noise":0,"location_history":"[4,2,3,4,0,1]","action_history":"[1,1,1,0,1]","door_history":"[1,1,1,0,1]","location_rts":"[6471,1303,654,448,1454]","trial_type":"two-door-navigation","trial_index":48,"time_elapsed":1402865,"internal_node_id":"0.0-2.0-46.0"},{"group":"hexagon_tri","room_assignment":["yellow","blue","green","purple","red","grey"],"door_color_assignment":["black","white"],"door_generator_assignment":[0,1],"goal":4,"start":1,"action_noise":0,"location_history":"[1,3,4]","action_history":"[0,1]","door_history":"[0,1]","location_rts":"[5280,815]","trial_type":"two-door-navigation","trial_index":49,"time_elapsed":1415051,"internal_node_id":"0.0-2.0-47.0"},{"group":"hexagon_tri","room_assignment":["yellow","blue","green","purple","red","grey"],"door_color_assignment":["black","white"],"door_generator_assignment":[0,1],"goal":3,"start":4,"action_noise":0,"location_history":"[4,0,5,0,1,3]","action_history":"[0,0,1,1,0]","door_history":"[0,0,1,1,0]","location_rts":"[5231,864,278,1030,504]","trial_type":"two-door-navigation","trial_index":50,"time_elapsed":1432160,"internal_node_id":"0.0-2.0-48.0"},{"group":"hexagon_tri","room_assignment":["yellow","blue","green","purple","red","grey"],"door_color_assignment":["black","white"],"door_generator_assignment":[0,1],"goal":5,"start":3,"action_noise":0,"location_history":"[3,2,1,5]","action_history":"[0,0,1]","door_history":"[0,0,1]","location_rts":"[6299,2425,428]","trial_type":"two-door-navigation","trial_index":51,"time_elapsed":1448445,"internal_node_id":"0.0-2.0-49.0"},{"view_history":"[{\"page_index\":0,\"viewing_time\":2690}]","rt":2692,"trial_type":"instructions","trial_index":52,"time_elapsed":1452139,"internal_node_id":"0.0-3.0"},{"view_history":"[{\"page_index\":0,\"viewing_time\":1695},{\"page_index\":1,\"viewing_time\":18872}]","rt":20568,"trial_type":"instructions","trial_index":53,"time_elapsed":1473708,"internal_node_id":"0.0-4.0"},{"group":"hexagon_bi","fractal_assignment":["../images/blu_wht.png","../images/pnk_blu.png","../images/org_blu.png","../images/ylw_slt.png","../images/gry_blk.png","../images/cyn_red.png"],"mutagen_generator_assignment":[1,0],"goal":4,"start":0,"action_noise":0,"location_history":"[0,1,0,5,4]","action_history":"[1,1,0,1]","mutagen_history":"[0,0,1,0]","location_rts":"[19419,7827,1614,792]","trial_type":"fractal-mutation","trial_index":54,"time_elapsed":1511498,"internal_node_id":"0.0-5.0-0.0"},{"group":"hexagon_bi","fractal_assignment":["../images/blu_wht.png","../images/pnk_blu.png","../images/org_blu.png","../images/ylw_slt.png","../images/gry_blk.png","../images/cyn_red.png"],"mutagen_generator_assignment":[1,0],"goal":3,"start":4,"action_noise":0,"location_history":"[4,3]","action_history":"[0]","mutagen_history":"[1]","location_rts":"[2146]","trial_type":"fractal-mutation","trial_index":55,"time_elapsed":1518681,"internal_node_id":"0.0-5.0-1.0"},{"group":"hexagon_bi","fractal_assignment":["../images/blu_wht.png","../images/pnk_blu.png","../images/org_blu.png","../images/ylw_slt.png","../images/gry_blk.png","../images/cyn_red.png"],"mutagen_generator_assignment":[1,0],"goal":5,"start":3,"action_noise":0,"location_history":"[3,2,3,4,5]","action_history":"[1,1,0,1]","mutagen_history":"[0,0,1,0]","location_rts":"[1994,1337,1118,466]","trial_type":"fractal-mutation","trial_index":56,"time_elapsed":1531680,"internal_node_id":"0.0-5.0-2.0"},{"group":"hexagon_bi","fractal_assignment":["../images/blu_wht.png","../images/pnk_blu.png","../images/org_blu.png","../images/ylw_slt.png","../images/gry_blk.png","../images/cyn_red.png"],"mutagen_generator_assignment":[1,0],"goal":2,"start":5,"action_noise":0,"location_history":"[5,4,5,4,3,4,3,4,5,0,1,0,5,4,5,0,5,0,1,0,1,0,1,2]","action_history":"[1,1,1,0,0,0,0,1,0,1,1,0,1,1,0,0,0,1,1,1,1,1,0]","mutagen_history":"[0,0,0,1,1,1,1,0,1,0,0,1,0,0,1,1,1,0,0,0,0,0,1]","location_rts":"[3268,767,795,536,967,1089,856,438,647,441,541,789,474,426,588,622,629,272,533,574,468,554,494]","trial_type":"fractal-mutation","trial_index":57,"time_elapsed":1575959,"internal_node_id":"0.0-5.0-3.0"},{"group":"hexagon_bi","fractal_assignment":["../images/blu_wht.png","../images/pnk_blu.png","../images/org_blu.png","../images/ylw_slt.png","../images/gry_blk.png","../images/cyn_red.png"],"mutagen_generator_assignment":[1,0],"goal":1,"start":2,"action_noise":0,"location_history":"[2,1]","action_history":"[0]","mutagen_history":"[1]","location_rts":"[2532]","trial_type":"fractal-mutation","trial_index":58,"time_elapsed":1583531,"internal_node_id":"0.0-5.0-4.0"},{"group":"hexagon_bi","fractal_assignment":["../images/blu_wht.png","../images/pnk_blu.png","../images/org_blu.png","../images/ylw_slt.png","../images/gry_blk.png","../images/cyn_red.png"],"mutagen_generator_assignment":[1,0],"goal":4,"start":1,"action_noise":0,"location_history":"[1,2,1,0,1,0,1,2,1,2,3,4]","action_history":"[0,0,1,1,1,1,0,0,0,1,0]","mutagen_history":"[1,1,0,0,0,0,1,1,1,0,1]","location_rts":"[3746,592,755,695,532,483,859,479,448,340,1266]","trial_type":"fractal-mutation","trial_index":59,"time_elapsed":1608988,"internal_node_id":"0.0-5.0-5.0"},{"group":"hexagon_bi","fractal_assignment":["../images/blu_wht.png","../images/pnk_blu.png","../images/org_blu.png","../images/ylw_slt.png","../images/gry_blk.png","../images/cyn_red.png"],"mutagen_generator_assignment":[1,0],"goal":1,"start":4,"action_noise":0,"location_history":"[4,5,0,5,0,5,0,5,4,3,2,1]","action_history":"[1,0,0,0,0,0,0,1,0,1,0]","mutagen_history":"[0,1,1,1,1,1,1,0,1,0,1]","location_rts":"[3018,387,516,628,1244,633,1093,799,2308,959,1278]","trial_type":"fractal-mutation","trial_index":60,"time_elapsed":1637161,"internal_node_id":"0.0-5.0-6.0"},{"group":"hexagon_bi","fractal_assignment":["../images/blu_wht.png","../images/pnk_blu.png","../images/org_blu.png","../images/ylw_slt.png","../images/gry_blk.png","../images/cyn_red.png"],"mutagen_generator_assignment":[1,0],"goal":5,"start":1,"action_noise":0,"location_history":"[1,0,1,2,1,0,1,0,5]","action_history":"[1,1,0,0,1,1,1,0]","mutagen_history":"[0,0,1,1,0,0,0,1]","location_rts":"[1519,953,922,700,669,530,693,995]","trial_type":"fractal-mutation","trial_index":61,"time_elapsed":1656302,"internal_node_id":"0.0-5.0-7.0"},{"group":"hexagon_bi","fractal_assignment":["../images/blu_wht.png","../images/pnk_blu.png","../images/org_blu.png","../images/ylw_slt.png","../images/gry_blk.png","../images/cyn_red.png"],"mutagen_generator_assignment":[1,0],"goal":0,"start":5,"action_noise":0,"location_history":"[5,4,5,0]","action_history":"[1,1,0]","mutagen_history":"[0,0,1]","location_rts":"[2020,736,987]","trial_type":"fractal-mutation","trial_index":62,"time_elapsed":1667111,"internal_node_id":"0.0-5.0-8.0"},{"group":"hexagon_bi","fractal_assignment":["../images/blu_wht.png","../images/pnk_blu.png","../images/org_blu.png","../images/ylw_slt.png","../images/gry_blk.png","../images/cyn_red.png"],"mutagen_generator_assignment":[1,0],"goal":2,"start":0,"action_noise":0,"location_history":"[0,5,4,5,0,5,0,5,4,5,4,3,4,3,2]","action_history":"[0,1,1,0,0,0,0,1,1,1,0,0,0,1]","mutagen_history":"[1,0,0,1,1,1,1,0,0,0,1,1,1,0]","location_rts":"[1750,1148,726,600,414,858,1914,406,370,527,394,1390,685,782]","trial_type":"fractal-mutation","trial_index":63,"time_elapsed":1697465,"internal_node_id":"0.0-5.0-9.0"},{"group":"hexagon_bi","fractal_assignment":["../images/blu_wht.png","../images/pnk_blu.png","../images/org_blu.png","../images/ylw_slt.png","../images/gry_blk.png","../images/cyn_red.png"],"mutagen_generator_assignment":[1,0],"goal":3,"start":2,"action_noise":0,"location_history":"[2,1,2,1,0,5,4,5,0,5,0,1,0,5,4,5,4,5,4,3]","action_history":"[0,0,0,1,0,1,1,0,0,0,1,1,0,1,1,1,1,1,0]","mutagen_history":"[1,1,1,0,1,0,0,1,1,1,0,0,1,0,0,0,0,0,1]","location_rts":"[4439,670,463,280,887,325,1048,595,435,454,847,443,476,354,636,857,720,811,513]","trial_type":"fractal-mutation","trial_index":64,"time_elapsed":1736139,"internal_node_id":"0.0-5.0-10.0"},{"group":"hexagon_bi","fractal_assignment":["../images/blu_wht.png","../images/pnk_blu.png","../images/org_blu.png","../images/ylw_slt.png","../images/gry_blk.png","../images/cyn_red.png"],"mutagen_generator_assignment":[1,0],"goal":0,"start":3,"action_noise":0,"location_history":"[3,2,3,4,3,4,5,0]","action_history":"[1,1,0,0,0,1,0]","mutagen_history":"[0,0,1,1,1,0,1]","location_rts":"[2160,422,466,398,472,1317,502]","trial_type":"fractal-mutation","trial_index":65,"time_elapsed":1753031,"internal_node_id":"0.0-5.0-11.0"},{"group":"hexagon_bi","fractal_assignment":["../images/blu_wht.png","../images/pnk_blu.png","../images/org_blu.png","../images/ylw_slt.png","../images/gry_blk.png","../images/cyn_red.png"],"mutagen_generator_assignment":[1,0],"goal":2,"start":0,"action_noise":0,"location_history":"[0,1,2]","action_history":"[1,0]","mutagen_history":"[0,1]","location_rts":"[4293,763]","trial_type":"fractal-mutation","trial_index":66,"time_elapsed":1764141,"internal_node_id":"0.0-5.0-12.0"},{"group":"hexagon_bi","fractal_assignment":["../images/blu_wht.png","../images/pnk_blu.png","../images/org_blu.png","../images/ylw_slt.png","../images/gry_blk.png","../images/cyn_red.png"],"mutagen_generator_assignment":[1,0],"goal":5,"start":2,"action_noise":0,"location_history":"[2,3,2,3,4,5]","action_history":"[1,1,1,0,1]","mutagen_history":"[0,0,0,1,0]","location_rts":"[3553,768,1067,1815,771]","trial_type":"fractal-mutation","trial_index":67,"time_elapsed":1781245,"internal_node_id":"0.0-5.0-13.0"},{"group":"hexagon_bi","fractal_assignment":["../images/blu_wht.png","../images/pnk_blu.png","../images/org_blu.png","../images/ylw_slt.png","../images/gry_blk.png","../images/cyn_red.png"],"mutagen_generator_assignment":[1,0],"goal":4,"start":5,"action_noise":0,"location_history":"[5,0,1,2,1,0,1,0,1,2,1,2,3,2,1,2,3,2,3,4]","action_history":"[0,1,0,0,1,1,1,1,0,0,0,1,1,0,0,1,1,1,0]","mutagen_history":"[1,0,1,1,0,0,0,0,1,1,1,0,0,1,1,0,0,0,1]","location_rts":"[4623,1411,352,589,458,584,990,695,845,644,659,648,988,674,905,409,239,461,314]","trial_type":"fractal-mutation","trial_index":68,"time_elapsed":1821269,"internal_node_id":"0.0-5.0-14.0"},{"group":"hexagon_bi","fractal_assignment":["../images/blu_wht.png","../images/pnk_blu.png","../images/org_blu.png","../images/ylw_slt.png","../images/gry_blk.png","../images/cyn_red.png"],"mutagen_generator_assignment":[1,0],"goal":3,"start":4,"action_noise":0,"location_history":"[4,3]","action_history":"[0]","mutagen_history":"[1]","location_rts":"[3115]","trial_type":"fractal-mutation","trial_index":69,"time_elapsed":1829433,"internal_node_id":"0.0-5.0-15.0"},{"group":"hexagon_bi","fractal_assignment":["../images/blu_wht.png","../images/pnk_blu.png","../images/org_blu.png","../images/ylw_slt.png","../images/gry_blk.png","../images/cyn_red.png"],"mutagen_generator_assignment":[1,0],"goal":1,"start":3,"action_noise":0,"location_history":"[3,2,3,4,3,2,1]","action_history":"[1,1,0,0,1,0]","mutagen_history":"[0,0,1,1,0,1]","location_rts":"[2850,608,488,607,439,335]","trial_type":"fractal-mutation","trial_index":70,"time_elapsed":1844940,"internal_node_id":"0.0-5.0-16.0"},{"group":"hexagon_bi","fractal_assignment":["../images/blu_wht.png","../images/pnk_blu.png","../images/org_blu.png","../images/ylw_slt.png","../images/gry_blk.png","../images/cyn_red.png"],"mutagen_generator_assignment":[1,0],"goal":5,"start":1,"action_noise":0,"location_history":"[1,2,3,2,3,4,3,2,1,0,1,0,5]","action_history":"[0,1,1,1,0,0,1,0,1,1,1,0]","mutagen_history":"[1,0,0,0,1,1,0,1,0,0,0,1]","location_rts":"[4497,447,238,685,423,438,618,691,1667,451,719,944]","trial_type":"fractal-mutation","trial_index":71,"time_elapsed":1873065,"internal_node_id":"0.0-5.0-17.0"},{"group":"hexagon_bi","fractal_assignment":["../images/blu_wht.png","../images/pnk_blu.png","../images/org_blu.png","../images/ylw_slt.png","../images/gry_blk.png","../images/cyn_red.png"],"mutagen_generator_assignment":[1,0],"goal":4,"start":5,"action_noise":0,"location_history":"[5,0,1,2,3,4]","action_history":"[0,1,0,1,0]","mutagen_history":"[1,0,1,0,1]","location_rts":"[2404,796,1287,1354,716]","trial_type":"fractal-mutation","trial_index":72,"time_elapsed":1888832,"internal_node_id":"0.0-5.0-18.0"},{"group":"hexagon_bi","fractal_assignment":["../images/blu_wht.png","../images/pnk_blu.png","../images/org_blu.png","../images/ylw_slt.png","../images/gry_blk.png","../images/cyn_red.png"],"mutagen_generator_assignment":[1,0],"goal":0,"start":4,"action_noise":0,"location_history":"[4,3,4,5,4,3,2,1,2,1,0]","action_history":"[0,0,1,1,0,1,0,0,0,1]","mutagen_history":"[1,1,0,0,1,0,1,1,1,0]","location_rts":"[2956,909,697,584,806,486,496,411,622,1136]","trial_type":"fractal-mutation","trial_index":73,"time_elapsed":1912289,"internal_node_id":"0.0-5.0-19.0"},{"group":"hexagon_bi","fractal_assignment":["../images/blu_wht.png","../images/pnk_blu.png","../images/org_blu.png","../images/ylw_slt.png","../images/gry_blk.png","../images/cyn_red.png"],"mutagen_generator_assignment":[1,0],"goal":1,"start":0,"action_noise":0,"location_history":"[0,1]","action_history":"[1]","mutagen_history":"[0]","location_rts":"[1870]","trial_type":"fractal-mutation","trial_index":74,"time_elapsed":1919178,"internal_node_id":"0.0-5.0-20.0"},{"group":"hexagon_bi","fractal_assignment":["../images/blu_wht.png","../images/pnk_blu.png","../images/org_blu.png","../images/ylw_slt.png","../images/gry_blk.png","../images/cyn_red.png"],"mutagen_generator_assignment":[1,0],"goal":3,"start":1,"action_noise":0,"location_history":"[1,2,3]","action_history":"[0,1]","mutagen_history":"[1,0]","location_rts":"[2908,654]","trial_type":"fractal-mutation","trial_index":75,"time_elapsed":1928787,"internal_node_id":"0.0-5.0-21.0"},{"group":"hexagon_bi","fractal_assignment":["../images/blu_wht.png","../images/pnk_blu.png","../images/org_blu.png","../images/ylw_slt.png","../images/gry_blk.png","../images/cyn_red.png"],"mutagen_generator_assignment":[1,0],"goal":2,"start":3,"action_noise":0,"location_history":"[3,2]","action_history":"[1]","mutagen_history":"[0]","location_rts":"[2211]","trial_type":"fractal-mutation","trial_index":76,"time_elapsed":1936052,"internal_node_id":"0.0-5.0-22.0"},{"group":"hexagon_bi","fractal_assignment":["../images/blu_wht.png","../images/pnk_blu.png","../images/org_blu.png","../images/ylw_slt.png","../images/gry_blk.png","../images/cyn_red.png"],"mutagen_generator_assignment":[1,0],"goal":0,"start":2,"action_noise":0,"location_history":"[2,3,4,3,2,3,2,3,2,1,2,1,0]","action_history":"[1,0,0,1,1,1,1,1,0,0,0,1]","mutagen_history":"[0,1,1,0,0,0,0,0,1,1,1,0]","location_rts":"[2671,408,368,148,206,802,713,915,471,473,653,337]","trial_type":"fractal-mutation","trial_index":77,"time_elapsed":1960599,"internal_node_id":"0.0-5.0-23.0"},{"group":"hexagon_bi","fractal_assignment":["../images/blu_wht.png","../images/pnk_blu.png","../images/org_blu.png","../images/ylw_slt.png","../images/gry_blk.png","../images/cyn_red.png"],"mutagen_generator_assignment":[1,0],"goal":3,"start":0,"action_noise":0,"location_history":"[0,1,0,5,4,3]","action_history":"[1,1,0,1,0]","mutagen_history":"[0,0,1,0,1]","location_rts":"[2503,1547,1146,995,1952]","trial_type":"fractal-mutation","trial_index":78,"time_elapsed":1977866,"internal_node_id":"0.0-5.0-24.0"},{"group":"hexagon_bi","fractal_assignment":["../images/blu_wht.png","../images/pnk_blu.png","../images/org_blu.png","../images/ylw_slt.png","../images/gry_blk.png","../images/cyn_red.png"],"mutagen_generator_assignment":[1,0],"goal":1,"start":3,"action_noise":0,"location_history":"[3,2,3,2,1]","action_history":"[1,1,1,0]","mutagen_history":"[0,0,0,1]","location_rts":"[2834,457,580,410]","trial_type":"fractal-mutation","trial_index":79,"time_elapsed":1990246,"internal_node_id":"0.0-5.0-25.0"},{"group":"hexagon_bi","fractal_assignment":["../images/blu_wht.png","../images/pnk_blu.png","../images/org_blu.png","../images/ylw_slt.png","../images/gry_blk.png","../images/cyn_red.png"],"mutagen_generator_assignment":[1,0],"goal":2,"start":1,"action_noise":0,"location_history":"[1,0,5,0,5,4,3,2]","action_history":"[1,0,0,0,1,0,1]","mutagen_history":"[0,1,1,1,0,1,0]","location_rts":"[1607,594,844,565,534,672,366]","trial_type":"fractal-mutation","trial_index":80,"time_elapsed":2006617,"internal_node_id":"0.0-5.0-26.0"},{"group":"hexagon_bi","fractal_assignment":["../images/blu_wht.png","../images/pnk_blu.png","../images/org_blu.png","../images/ylw_slt.png","../images/gry_blk.png","../images/cyn_red.png"],"mutagen_generator_assignment":[1,0],"goal":5,"start":2,"action_noise":0,"location_history":"[2,1,0,5]","action_history":"[0,1,0]","mutagen_history":"[1,0,1]","location_rts":"[7184,719,578]","trial_type":"fractal-mutation","trial_index":81,"time_elapsed":2022169,"internal_node_id":"0.0-5.0-27.0"},{"group":"hexagon_bi","fractal_assignment":["../images/blu_wht.png","../images/pnk_blu.png","../images/org_blu.png","../images/ylw_slt.png","../images/gry_blk.png","../images/cyn_red.png"],"mutagen_generator_assignment":[1,0],"goal":4,"start":5,"action_noise":0,"location_history":"[5,4]","action_history":"[1]","mutagen_history":"[0]","location_rts":"[39115]","trial_type":"fractal-mutation","trial_index":82,"time_elapsed":2066307,"internal_node_id":"0.0-5.0-28.0"},{"group":"hexagon_bi","fractal_assignment":["../images/blu_wht.png","../images/pnk_blu.png","../images/org_blu.png","../images/ylw_slt.png","../images/gry_blk.png","../images/cyn_red.png"],"mutagen_generator_assignment":[1,0],"goal":5,"start":4,"action_noise":0,"location_history":"[4,5]","action_history":"[1]","mutagen_history":"[0]","location_rts":"[4819]","trial_type":"fractal-mutation","trial_index":83,"time_elapsed":2076165,"internal_node_id":"0.0-5.0-29.0"},{"group":"hexagon_bi","fractal_assignment":["../images/blu_wht.png","../images/pnk_blu.png","../images/org_blu.png","../images/ylw_slt.png","../images/gry_blk.png","../images/cyn_red.png"],"mutagen_generator_assignment":[1,0],"goal":3,"start":5,"action_noise":0,"location_history":"[5,0,1,2,3]","action_history":"[0,1,0,1]","mutagen_history":"[1,0,1,0]","location_rts":"[6028,989,625,936]","trial_type":"fractal-mutation","trial_index":84,"time_elapsed":2092847,"internal_node_id":"0.0-5.0-30.0"},{"group":"hexagon_bi","fractal_assignment":["../images/blu_wht.png","../images/pnk_blu.png","../images/org_blu.png","../images/ylw_slt.png","../images/gry_blk.png","../images/cyn_red.png"],"mutagen_generator_assignment":[1,0],"goal":0,"start":3,"action_noise":0,"location_history":"[3,2,3,4,3,4,5,4,3,4,5,4,5,0]","action_history":"[1,1,0,0,0,1,1,0,0,1,1,1,0]","mutagen_history":"[0,0,1,1,1,0,0,1,1,0,0,0,1]","location_rts":"[4579,419,458,1228,835,269,398,730,294,244,386,789,394]","trial_type":"fractal-mutation","trial_index":85,"time_elapsed":2121218,"internal_node_id":"0.0-5.0-31.0"},{"group":"hexagon_bi","fractal_assignment":["../images/blu_wht.png","../images/pnk_blu.png","../images/org_blu.png","../images/ylw_slt.png","../images/gry_blk.png","../images/cyn_red.png"],"mutagen_generator_assignment":[1,0],"goal":4,"start":0,"action_noise":0,"location_history":"[0,5,4]","action_history":"[0,1]","mutagen_history":"[1,0]","location_rts":"[5259,697]","trial_type":"fractal-mutation","trial_index":86,"time_elapsed":2133235,"internal_node_id":"0.0-5.0-32.0"},{"group":"hexagon_bi","fractal_assignment":["../images/blu_wht.png","../images/pnk_blu.png","../images/org_blu.png","../images/ylw_slt.png","../images/gry_blk.png","../images/cyn_red.png"],"mutagen_generator_assignment":[1,0],"goal":1,"start":4,"action_noise":0,"location_history":"[4,5,4,3,2,1]","action_history":"[1,1,0,1,0]","mutagen_history":"[0,0,1,0,1]","location_rts":"[2362,1546,536,1129,679]","trial_type":"fractal-mutation","trial_index":87,"time_elapsed":2148609,"internal_node_id":"0.0-5.0-33.0"},{"group":"hexagon_bi","fractal_assignment":["../images/blu_wht.png","../images/pnk_blu.png","../images/org_blu.png","../images/ylw_slt.png","../images/gry_blk.png","../images/cyn_red.png"],"mutagen_generator_assignment":[1,0],"goal":2,"start":1,"action_noise":0,"location_history":"[1,2]","action_history":"[0]","mutagen_history":"[1]","location_rts":"[2728]","trial_type":"fractal-mutation","trial_index":88,"time_elapsed":2156377,"internal_node_id":"0.0-5.0-34.0"},{"group":"hexagon_bi","fractal_assignment":["../images/blu_wht.png","../images/pnk_blu.png","../images/org_blu.png","../images/ylw_slt.png","../images/gry_blk.png","../images/cyn_red.png"],"mutagen_generator_assignment":[1,0],"goal":0,"start":2,"action_noise":0,"location_history":"[2,1,2,3,4,5,4,3,4,3,2,3,4,3,4,5,4,3,4,5,4,5,0]","action_history":"[0,0,1,0,1,1,0,0,0,1,1,0,0,0,1,1,0,0,1,1,1,0]","mutagen_history":"[1,1,0,1,0,0,1,1,1,0,0,1,1,1,0,0,1,1,0,0,0,1]","location_rts":"[4117,2436,9573,13657,1030,408,649,1364,304,50,401,850,390,501,514,798,1021,481,311,113,558,1956]","trial_type":"fractal-mutation","trial_index":89,"time_elapsed":2224522,"internal_node_id":"0.0-5.0-35.0"},{"group":"hexagon_bi","fractal_assignment":["../images/blu_wht.png","../images/pnk_blu.png","../images/org_blu.png","../images/ylw_slt.png","../images/gry_blk.png","../images/cyn_red.png"],"mutagen_generator_assignment":[1,0],"goal":5,"start":0,"action_noise":0,"location_history":"[0,5]","action_history":"[0]","mutagen_history":"[1]","location_rts":"[2711]","trial_type":"fractal-mutation","trial_index":90,"time_elapsed":2232264,"internal_node_id":"0.0-5.0-36.0"},{"group":"hexagon_bi","fractal_assignment":["../images/blu_wht.png","../images/pnk_blu.png","../images/org_blu.png","../images/ylw_slt.png","../images/gry_blk.png","../images/cyn_red.png"],"mutagen_generator_assignment":[1,0],"goal":2,"start":5,"action_noise":0,"location_history":"[5,0,5,0,1,2]","action_history":"[0,0,0,1,0]","mutagen_history":"[1,1,1,0,1]","location_rts":"[3081,612,1483,357,681]","trial_type":"fractal-mutation","trial_index":91,"time_elapsed":2247598,"internal_node_id":"0.0-5.0-37.0"},{"group":"hexagon_bi","fractal_assignment":["../images/blu_wht.png","../images/pnk_blu.png","../images/org_blu.png","../images/ylw_slt.png","../images/gry_blk.png","../images/cyn_red.png"],"mutagen_generator_assignment":[1,0],"goal":1,"start":2,"action_noise":0,"location_history":"[2,1]","action_history":"[0]","mutagen_history":"[1]","location_rts":"[2753]","trial_type":"fractal-mutation","trial_index":92,"time_elapsed":2255464,"internal_node_id":"0.0-5.0-38.0"},{"group":"hexagon_bi","fractal_assignment":["../images/blu_wht.png","../images/pnk_blu.png","../images/org_blu.png","../images/ylw_slt.png","../images/gry_blk.png","../images/cyn_red.png"],"mutagen_generator_assignment":[1,0],"goal":4,"start":1,"action_noise":0,"location_history":"[1,0,5,4]","action_history":"[1,0,1]","mutagen_history":"[0,1,0]","location_rts":"[9118,878,875]","trial_type":"fractal-mutation","trial_index":93,"time_elapsed":2273448,"internal_node_id":"0.0-5.0-39.0"},{"group":"hexagon_bi","fractal_assignment":["../images/blu_wht.png","../images/pnk_blu.png","../images/org_blu.png","../images/ylw_slt.png","../images/gry_blk.png","../images/cyn_red.png"],"mutagen_generator_assignment":[1,0],"goal":3,"start":4,"action_noise":0,"location_history":"[4,3]","action_history":"[0]","mutagen_history":"[1]","location_rts":"[3110]","trial_type":"fractal-mutation","trial_index":94,"time_elapsed":2281610,"internal_node_id":"0.0-5.0-40.0"},{"group":"hexagon_bi","fractal_assignment":["../images/blu_wht.png","../images/pnk_blu.png","../images/org_blu.png","../images/ylw_slt.png","../images/gry_blk.png","../images/cyn_red.png"],"mutagen_generator_assignment":[1,0],"goal":5,"start":3,"action_noise":0,"location_history":"[3,2,1,2,3,2,3,4,3,2,1,2,3,2,3,2,1,2,3,4,3,2,1,2,3,2,3,2,1,2,1,0,5]","action_history":"[1,0,0,1,1,1,0,0,1,0,0,1,1,1,1,0,0,1,0,0,1,0,0,1,1,1,1,0,0,0,1,0]","mutagen_history":"[0,1,1,0,0,0,1,1,0,1,1,0,0,0,0,1,1,0,1,1,0,1,1,0,0,0,0,1,1,1,0,1]","location_rts":"[2813,1752,2345,1236,746,1244,456,441,300,632,195,688,843,515,707,388,264,621,517,281,447,294,667,489,430,311,620,519,1854,733,717,1313]","trial_type":"fractal-mutation","trial_index":95,"time_elapsed":2344027,"internal_node_id":"0.0-5.0-41.0"},{"group":"hexagon_bi","fractal_assignment":["../images/blu_wht.png","../images/pnk_blu.png","../images/org_blu.png","../images/ylw_slt.png","../images/gry_blk.png","../images/cyn_red.png"],"mutagen_generator_assignment":[1,0],"goal":3,"start":5,"action_noise":0,"location_history":"[5,4,3]","action_history":"[1,0]","mutagen_history":"[0,1]","location_rts":"[3401,1118]","trial_type":"fractal-mutation","trial_index":96,"time_elapsed":2354621,"internal_node_id":"0.0-5.0-42.0"},{"group":"hexagon_bi","fractal_assignment":["../images/blu_wht.png","../images/pnk_blu.png","../images/org_blu.png","../images/ylw_slt.png","../images/gry_blk.png","../images/cyn_red.png"],"mutagen_generator_assignment":[1,0],"goal":0,"start":3,"action_noise":0,"location_history":"[3,2,1,0]","action_history":"[1,0,1]","mutagen_history":"[0,1,0]","location_rts":"[5844,1307,1229]","trial_type":"fractal-mutation","trial_index":97,"time_elapsed":2370062,"internal_node_id":"0.0-5.0-43.0"},{"group":"hexagon_bi","fractal_assignment":["../images/blu_wht.png","../images/pnk_blu.png","../images/org_blu.png","../images/ylw_slt.png","../images/gry_blk.png","../images/cyn_red.png"],"mutagen_generator_assignment":[1,0],"goal":2,"start":0,"action_noise":0,"location_history":"[0,5,4,5,4,3,2]","action_history":"[0,1,1,1,0,1]","mutagen_history":"[1,0,0,0,1,0]","location_rts":"[3202,1831,784,731,451,337]","trial_type":"fractal-mutation","trial_index":98,"time_elapsed":2387554,"internal_node_id":"0.0-5.0-44.0"},{"group":"hexagon_bi","fractal_assignment":["../images/blu_wht.png","../images/pnk_blu.png","../images/org_blu.png","../images/ylw_slt.png","../images/gry_blk.png","../images/cyn_red.png"],"mutagen_generator_assignment":[1,0],"goal":4,"start":2,"action_noise":0,"location_history":"[2,1,0,5,0,1,2,1,0,1,0,1,2,3,4]","action_history":"[0,1,0,0,1,0,0,1,1,1,1,0,1,0]","mutagen_history":"[1,0,1,1,0,1,1,0,0,0,0,1,0,1]","location_rts":"[3300,572,977,453,1104,500,745,615,571,1195,1332,431,1593,597]","trial_type":"fractal-mutation","trial_index":99,"time_elapsed":2419944,"internal_node_id":"0.0-5.0-45.0"},{"group":"hexagon_bi","fractal_assignment":["../images/blu_wht.png","../images/pnk_blu.png","../images/org_blu.png","../images/ylw_slt.png","../images/gry_blk.png","../images/cyn_red.png"],"mutagen_generator_assignment":[1,0],"goal":1,"start":4,"action_noise":0,"location_history":"[4,3,2,3,2,1]","action_history":"[0,1,1,1,0]","mutagen_history":"[1,0,0,0,1]","location_rts":"[4679,288,783,1447,360]","trial_type":"fractal-mutation","trial_index":100,"time_elapsed":2436627,"internal_node_id":"0.0-5.0-46.0"},{"group":"hexagon_bi","fractal_assignment":["../images/blu_wht.png","../images/pnk_blu.png","../images/org_blu.png","../images/ylw_slt.png","../images/gry_blk.png","../images/cyn_red.png"],"mutagen_generator_assignment":[1,0],"goal":4,"start":1,"action_noise":0,"location_history":"[1,2,3,4]","action_history":"[0,1,0]","mutagen_history":"[1,0,1]","location_rts":"[7501,467,1054]","trial_type":"fractal-mutation","trial_index":101,"time_elapsed":2452743,"internal_node_id":"0.0-5.0-47.0"},{"group":"hexagon_bi","fractal_assignment":["../images/blu_wht.png","../images/pnk_blu.png","../images/org_blu.png","../images/ylw_slt.png","../images/gry_blk.png","../images/cyn_red.png"],"mutagen_generator_assignment":[1,0],"goal":3,"start":4,"action_noise":0,"location_history":"[4,3]","action_history":"[0]","mutagen_history":"[1]","location_rts":"[3543]","trial_type":"fractal-mutation","trial_index":102,"time_elapsed":2461324,"internal_node_id":"0.0-5.0-48.0"},{"group":"hexagon_bi","fractal_assignment":["../images/blu_wht.png","../images/pnk_blu.png","../images/org_blu.png","../images/ylw_slt.png","../images/gry_blk.png","../images/cyn_red.png"],"mutagen_generator_assignment":[1,0],"goal":5,"start":3,"action_noise":0,"location_history":"[3,4,5]","action_history":"[0,1]","mutagen_history":"[1,0]","location_rts":"[3127,737]","trial_type":"fractal-mutation","trial_index":103,"time_elapsed":2471290,"internal_node_id":"0.0-5.0-49.0"},{"view_history":"[{\"page_index\":0,\"viewing_time\":7452}]","rt":7453,"trial_type":"instructions","trial_index":104,"time_elapsed":2479745,"internal_node_id":"0.0-6.0"},{"rt":22055,"responses":"{\"Q0\":\"Very challenging and interesting study.  Thanks.\"}","trial_type":"survey-text","trial_index":105,"time_elapsed":2502815,"internal_node_id":"0.0-7.0"}]