[{"view_history":"[{\"page_index\":0,\"viewing_time\":4321},{\"page_index\":1,\"viewing_time\":5603},{\"page_index\":2,\"viewing_time\":20238}]","rt":30164,"trial_type":"instructions","trial_index":0,"time_elapsed":30167,"internal_node_id":"0.0-0.0"},{"view_history":"[{\"page_index\":0,\"viewing_time\":2933},{\"page_index\":1,\"viewing_time\":12268}]","rt":15202,"trial_type":"instructions","trial_index":1,"time_elapsed":46370,"internal_node_id":"0.0-1.0"},{"group":"hexagon_bi","room_assignment":["yellow","red","blue","purple","green","grey"],"door_color_assignment":["black","white"],"door_generator_assignment":[0,1],"goal":4,"start":0,"action_noise":0,"location_history":"[0,5,0,5,0,5,0,5,0,1,0,1,0,1,2,3,2,3,4]","action_history":"[0,0,0,0,0,0,0,0,1,1,1,1,1,0,1,1,1,0]","door_history":"[0,0,0,0,0,0,0,0,1,1,1,1,1,0,1,1,1,0]","location_rts":"[2869,2608,2093,1519,1374,1684,1282,1078,1448,1949,884,1305,1585,2421,912,2957,543,605]","trial_type":"two-door-navigation","trial_index":2,"time_elapsed":97948,"internal_node_id":"0.0-2.0-0.0"},{"group":"hexagon_bi","room_assignment":["yellow","red","blue","purple","green","grey"],"door_color_assignment":["black","white"],"door_generator_assignment":[0,1],"goal":3,"start":4,"action_noise":0,"location_history":"[4,3]","action_history":"[0]","door_history":"[0]","location_rts":"[1773]","trial_type":"two-door-navigation","trial_index":3,"time_elapsed":104754,"internal_node_id":"0.0-2.0-1.0"},{"group":"hexagon_bi","room_assignment":["yellow","red","blue","purple","green","grey"],"door_color_assignment":["black","white"],"door_generator_assignment":[0,1],"goal":5,"start":3,"action_noise":0,"location_history":"[3,2,1,2,3,2,3,4,3,2,1,0,5]","action_history":"[1,0,0,1,1,1,0,0,1,0,1,0]","door_history":"[1,0,0,1,1,1,0,0,1,0,1,0]","location_rts":"[362,448,1826,597,361,345,324,515,512,745,874,652]","trial_type":"two-door-navigation","trial_index":4,"time_elapsed":128591,"internal_node_id":"0.0-2.0-2.0"},{"group":"hexagon_bi","room_assignment":["yellow","red","blue","purple","green","grey"],"door_color_assignment":["black","white"],"door_generator_assignment":[0,1],"goal":2,"start":5,"action_noise":0,"location_history":"[5,4,5,0,5,4,3,2]","action_history":"[1,1,0,0,1,0,1]","door_history":"[1,1,0,0,1,0,1]","location_rts":"[1226,598,772,370,319,316,385]","trial_type":"two-door-navigation","trial_index":5,"time_elapsed":143737,"internal_node_id":"0.0-2.0-3.0"},{"group":"hexagon_bi","room_assignment":["yellow","red","blue","purple","green","grey"],"door_color_assignment":["black","white"],"door_generator_assignment":[0,1],"goal":1,"start":2,"action_noise":0,"location_history":"[2,1]","action_history":"[0]","door_history":"[0]","location_rts":"[2357]","trial_type":"two-door-navigation","trial_index":6,"time_elapsed":151120,"internal_node_id":"0.0-2.0-4.0"},{"group":"hexagon_bi","room_assignment":["yellow","red","blue","purple","green","grey"],"door_color_assignment":["black","white"],"door_generator_assignment":[0,1],"goal":4,"start":1,"action_noise":0,"location_history":"[1,0,5,4]","action_history":"[1,0,1]","door_history":"[1,0,1]","location_rts":"[295,309,331]","trial_type":"two-door-navigation","trial_index":7,"time_elapsed":159123,"internal_node_id":"0.0-2.0-5.0"},{"group":"hexagon_bi","room_assignment":["yellow","red","blue","purple","green","grey"],"door_color_assignment":["black","white"],"door_generator_assignment":[0,1],"goal":1,"start":4,"action_noise":0,"location_history":"[4,5,0,1]","action_history":"[1,0,1]","door_history":"[1,0,1]","location_rts":"[650,315,472]","trial_type":"two-door-navigation","trial_index":8,"time_elapsed":167629,"internal_node_id":"0.0-2.0-6.0"},{"group":"hexagon_bi","room_assignment":["yellow","red","blue","purple","green","grey"],"door_color_assignment":["black","white"],"door_generator_assignment":[0,1],"goal":5,"start":1,"action_noise":0,"location_history":"[1,0,5]","action_history":"[1,0]","door_history":"[1,0]","location_rts":"[477,286]","trial_type":"two-door-navigation","trial_index":9,"time_elapsed":174441,"internal_node_id":"0.0-2.0-7.0"},{"group":"hexagon_bi","room_assignment":["yellow","red","blue","purple","green","grey"],"door_color_assignment":["black","white"],"door_generator_assignment":[0,1],"goal":0,"start":5,"action_noise":0,"location_history":"[5,0]","action_history":"[0]","door_history":"[0]","location_rts":"[16701]","trial_type":"two-door-navigation","trial_index":10,"time_elapsed":196170,"internal_node_id":"0.0-2.0-8.0"},{"group":"hexagon_bi","room_assignment":["yellow","red","blue","purple","green","grey"],"door_color_assignment":["black","white"],"door_generator_assignment":[0,1],"goal":2,"start":0,"action_noise":0,"location_history":"[0,1,2]","action_history":"[1,0]","door_history":"[1,0]","location_rts":"[288,305]","trial_type":"two-door-navigation","trial_index":11,"time_elapsed":202810,"internal_node_id":"0.0-2.0-9.0"},{"group":"hexagon_bi","room_assignment":["yellow","red","blue","purple","green","grey"],"door_color_assignment":["black","white"],"door_generator_assignment":[0,1],"goal":3,"start":2,"action_noise":0,"location_history":"[2,1,0,1,0,5,0,1,2,3]","action_history":"[0,1,1,1,0,0,1,0,1]","door_history":"[0,1,1,1,0,0,1,0,1]","location_rts":"[322,418,362,298,726,379,402,363,439]","trial_type":"two-door-navigation","trial_index":12,"time_elapsed":219723,"internal_node_id":"0.0-2.0-10.0"},{"group":"hexagon_bi","room_assignment":["yellow","red","blue","purple","green","grey"],"door_color_assignment":["black","white"],"door_generator_assignment":[0,1],"goal":0,"start":3,"action_noise":0,"location_history":"[3,2,3,4,5,0]","action_history":"[1,1,0,1,0]","door_history":"[1,1,0,1,0]","location_rts":"[2804,2802,329,513,606]","trial_type":"two-door-navigation","trial_index":13,"time_elapsed":235890,"internal_node_id":"0.0-2.0-11.0"},{"group":"hexagon_bi","room_assignment":["yellow","red","blue","purple","green","grey"],"door_color_assignment":["black","white"],"door_generator_assignment":[0,1],"goal":2,"start":0,"action_noise":0,"location_history":"[0,5,4,5,0,1,2]","action_history":"[0,1,1,0,1,0]","door_history":"[0,1,1,0,1,0]","location_rts":"[341,347,384,284,347,293]","trial_type":"two-door-navigation","trial_index":14,"time_elapsed":248022,"internal_node_id":"0.0-2.0-12.0"},{"group":"hexagon_bi","room_assignment":["yellow","red","blue","purple","green","grey"],"door_color_assignment":["black","white"],"door_generator_assignment":[0,1],"goal":5,"start":2,"action_noise":0,"location_history":"[2,3,4,3,2,3,4,5]","action_history":"[1,0,0,1,1,0,1]","door_history":"[1,0,0,1,1,0,1]","location_rts":"[18341,320,389,352,287,386,325]","trial_type":"two-door-navigation","trial_index":15,"time_elapsed":279573,"internal_node_id":"0.0-2.0-13.0"},{"group":"hexagon_bi","room_assignment":["yellow","red","blue","purple","green","grey"],"door_color_assignment":["black","white"],"door_generator_assignment":[0,1],"goal":4,"start":5,"action_noise":0,"location_history":"[5,4]","action_history":"[1]","door_history":"[1]","location_rts":"[15887]","trial_type":"two-door-navigation","trial_index":16,"time_elapsed":300492,"internal_node_id":"0.0-2.0-14.0"},{"group":"hexagon_bi","room_assignment":["yellow","red","blue","purple","green","grey"],"door_color_assignment":["black","white"],"door_generator_assignment":[0,1],"goal":3,"start":4,"action_noise":0,"location_history":"[4,5,0,1,2,3]","action_history":"[1,0,1,0,1]","door_history":"[1,0,1,0,1]","location_rts":"[264,369,323,334,365]","trial_type":"two-door-navigation","trial_index":17,"time_elapsed":311265,"internal_node_id":"0.0-2.0-15.0"},{"group":"hexagon_bi","room_assignment":["yellow","red","blue","purple","green","grey"],"door_color_assignment":["black","white"],"door_generator_assignment":[0,1],"goal":1,"start":3,"action_noise":0,"location_history":"[3,2,1]","action_history":"[1,0]","door_history":"[1,0]","location_rts":"[5730,347]","trial_type":"two-door-navigation","trial_index":18,"time_elapsed":323391,"internal_node_id":"0.0-2.0-16.0"},{"group":"hexagon_bi","room_assignment":["yellow","red","blue","purple","green","grey"],"door_color_assignment":["black","white"],"door_generator_assignment":[0,1],"goal":5,"start":1,"action_noise":0,"location_history":"[1,2,3,4,5]","action_history":"[0,1,0,1]","door_history":"[0,1,0,1]","location_rts":"[8273,346,512,339]","trial_type":"two-door-navigation","trial_index":19,"time_elapsed":340947,"internal_node_id":"0.0-2.0-17.0"},{"group":"hexagon_bi","room_assignment":["yellow","red","blue","purple","green","grey"],"door_color_assignment":["black","white"],"door_generator_assignment":[0,1],"goal":4,"start":5,"action_noise":0,"location_history":"[5,4]","action_history":"[1]","door_history":"[1]","location_rts":"[299]","trial_type":"two-door-navigation","trial_index":20,"time_elapsed":346270,"internal_node_id":"0.0-2.0-18.0"},{"group":"hexagon_bi","room_assignment":["yellow","red","blue","purple","green","grey"],"door_color_assignment":["black","white"],"door_generator_assignment":[0,1],"goal":0,"start":4,"action_noise":0,"location_history":"[4,3,2,1,0]","action_history":"[0,1,0,1]","door_history":"[0,1,0,1]","location_rts":"[5692,471,330,293]","trial_type":"two-door-navigation","trial_index":21,"time_elapsed":361147,"internal_node_id":"0.0-2.0-19.0"},{"group":"hexagon_bi","room_assignment":["yellow","red","blue","purple","green","grey"],"door_color_assignment":["black","white"],"door_generator_assignment":[0,1],"goal":1,"start":0,"action_noise":0,"location_history":"[0,1]","action_history":"[1]","door_history":"[1]","location_rts":"[335]","trial_type":"two-door-navigation","trial_index":22,"time_elapsed":366513,"internal_node_id":"0.0-2.0-20.0"},{"group":"hexagon_bi","room_assignment":["yellow","red","blue","purple","green","grey"],"door_color_assignment":["black","white"],"door_generator_assignment":[0,1],"goal":3,"start":1,"action_noise":0,"location_history":"[1,2,3]","action_history":"[0,1]","door_history":"[0,1]","location_rts":"[14234,944]","trial_type":"two-door-navigation","trial_index":23,"time_elapsed":387739,"internal_node_id":"0.0-2.0-21.0"},{"group":"hexagon_bi","room_assignment":["yellow","red","blue","purple","green","grey"],"door_color_assignment":["black","white"],"door_generator_assignment":[0,1],"goal":2,"start":3,"action_noise":0,"location_history":"[3,2]","action_history":"[1]","door_history":"[1]","location_rts":"[324]","trial_type":"two-door-navigation","trial_index":24,"time_elapsed":393091,"internal_node_id":"0.0-2.0-22.0"},{"group":"hexagon_bi","room_assignment":["yellow","red","blue","purple","green","grey"],"door_color_assignment":["black","white"],"door_generator_assignment":[0,1],"goal":0,"start":2,"action_noise":0,"location_history":"[2,1,2,1,0]","action_history":"[0,0,0,1]","door_history":"[0,0,0,1]","location_rts":"[1423,1336,1494,335]","trial_type":"two-door-navigation","trial_index":25,"time_elapsed":405767,"internal_node_id":"0.0-2.0-23.0"},{"group":"hexagon_bi","room_assignment":["yellow","red","blue","purple","green","grey"],"door_color_assignment":["black","white"],"door_generator_assignment":[0,1],"goal":3,"start":0,"action_noise":0,"location_history":"[0,1,2,1,0,5,4,5,0,5,4,5,4,3]","action_history":"[1,0,0,1,0,1,1,0,0,1,1,1,0]","door_history":"[1,0,0,1,0,1,1,0,0,1,1,1,0]","location_rts":"[1690,1033,291,370,643,493,338,630,402,600,364,1154,570]","trial_type":"two-door-navigation","trial_index":26,"time_elapsed":431622,"internal_node_id":"0.0-2.0-24.0"},{"group":"hexagon_bi","room_assignment":["yellow","red","blue","purple","green","grey"],"door_color_assignment":["black","white"],"door_generator_assignment":[0,1],"goal":1,"start":3,"action_noise":0,"location_history":"[3,2,1]","action_history":"[1,0]","door_history":"[1,0]","location_rts":"[304,353]","trial_type":"two-door-navigation","trial_index":27,"time_elapsed":438328,"internal_node_id":"0.0-2.0-25.0"},{"group":"hexagon_bi","room_assignment":["yellow","red","blue","purple","green","grey"],"door_color_assignment":["black","white"],"door_generator_assignment":[0,1],"goal":2,"start":1,"action_noise":0,"location_history":"[1,0,5,4,3,2]","action_history":"[1,0,1,0,1]","door_history":"[1,0,1,0,1]","location_rts":"[1061,621,540,669,513]","trial_type":"two-door-navigation","trial_index":28,"time_elapsed":450846,"internal_node_id":"0.0-2.0-26.0"},{"group":"hexagon_bi","room_assignment":["yellow","red","blue","purple","green","grey"],"door_color_assignment":["black","white"],"door_generator_assignment":[0,1],"goal":5,"start":2,"action_noise":0,"location_history":"[2,1,0,5]","action_history":"[0,1,0]","door_history":"[0,1,0]","location_rts":"[11166,1451,310]","trial_type":"two-door-navigation","trial_index":29,"time_elapsed":470843,"internal_node_id":"0.0-2.0-27.0"},{"group":"hexagon_bi","room_assignment":["yellow","red","blue","purple","green","grey"],"door_color_assignment":["black","white"],"door_generator_assignment":[0,1],"goal":4,"start":5,"action_noise":0,"location_history":"[5,0,1,2,1,2,3,2,3,4]","action_history":"[0,1,0,0,0,1,1,1,0]","door_history":"[0,1,0,0,0,1,1,1,0]","location_rts":"[13159,598,339,349,314,323,277,375,299]","trial_type":"two-door-navigation","trial_index":30,"time_elapsed":500100,"internal_node_id":"0.0-2.0-28.0"},{"group":"hexagon_bi","room_assignment":["yellow","red","blue","purple","green","grey"],"door_color_assignment":["black","white"],"door_generator_assignment":[0,1],"goal":5,"start":4,"action_noise":0,"location_history":"[4,3,2,3,4,5]","action_history":"[0,1,1,0,1]","door_history":"[0,1,1,0,1]","location_rts":"[13139,313,363,348,310]","trial_type":"two-door-navigation","trial_index":31,"time_elapsed":523682,"internal_node_id":"0.0-2.0-29.0"},{"group":"hexagon_bi","room_assignment":["yellow","red","blue","purple","green","grey"],"door_color_assignment":["black","white"],"door_generator_assignment":[0,1],"goal":3,"start":5,"action_noise":0,"location_history":"[5,4,3]","action_history":"[1,0]","door_history":"[1,0]","location_rts":"[2893,299]","trial_type":"two-door-navigation","trial_index":32,"time_elapsed":532923,"internal_node_id":"0.0-2.0-30.0"},{"group":"hexagon_bi","room_assignment":["yellow","red","blue","purple","green","grey"],"door_color_assignment":["black","white"],"door_generator_assignment":[0,1],"goal":0,"start":3,"action_noise":0,"location_history":"[3,2,1,0]","action_history":"[1,0,1]","door_history":"[1,0,1]","location_rts":"[1626,305,916]","trial_type":"two-door-navigation","trial_index":33,"time_elapsed":542841,"internal_node_id":"0.0-2.0-31.0"},{"group":"hexagon_bi","room_assignment":["yellow","red","blue","purple","green","grey"],"door_color_assignment":["black","white"],"door_generator_assignment":[0,1],"goal":4,"start":0,"action_noise":0,"location_history":"[0,5,4]","action_history":"[0,1]","door_history":"[0,1]","location_rts":"[548,308]","trial_type":"two-door-navigation","trial_index":34,"time_elapsed":549742,"internal_node_id":"0.0-2.0-32.0"},{"group":"hexagon_bi","room_assignment":["yellow","red","blue","purple","green","grey"],"door_color_assignment":["black","white"],"door_generator_assignment":[0,1],"goal":1,"start":4,"action_noise":0,"location_history":"[4,3,2,1]","action_history":"[0,1,0]","door_history":"[0,1,0]","location_rts":"[3081,450,262]","trial_type":"two-door-navigation","trial_index":35,"time_elapsed":560622,"internal_node_id":"0.0-2.0-33.0"},{"group":"hexagon_bi","room_assignment":["yellow","red","blue","purple","green","grey"],"door_color_assignment":["black","white"],"door_generator_assignment":[0,1],"goal":2,"start":1,"action_noise":0,"location_history":"[1,2]","action_history":"[0]","door_history":"[0]","location_rts":"[5398]","trial_type":"two-door-navigation","trial_index":36,"time_elapsed":571047,"internal_node_id":"0.0-2.0-34.0"},{"group":"hexagon_bi","room_assignment":["yellow","red","blue","purple","green","grey"],"door_color_assignment":["black","white"],"door_generator_assignment":[0,1],"goal":0,"start":2,"action_noise":0,"location_history":"[2,1,2,3,4,5,4,3,2,3,4,3,4,5,0]","action_history":"[0,0,1,0,1,1,0,1,1,0,0,0,1,0]","door_history":"[0,0,1,0,1,1,0,1,1,0,0,0,1,0]","location_rts":"[2286,461,304,303,322,394,814,741,427,354,301,818,339,355]","trial_type":"two-door-navigation","trial_index":37,"time_elapsed":597573,"internal_node_id":"0.0-2.0-35.0"},{"group":"hexagon_bi","room_assignment":["yellow","red","blue","purple","green","grey"],"door_color_assignment":["black","white"],"door_generator_assignment":[0,1],"goal":5,"start":0,"action_noise":0,"location_history":"[0,1,0,5]","action_history":"[1,1,0]","door_history":"[1,1,0]","location_rts":"[14053,1099,630]","trial_type":"two-door-navigation","trial_index":38,"time_elapsed":620427,"internal_node_id":"0.0-2.0-36.0"},{"group":"hexagon_bi","room_assignment":["yellow","red","blue","purple","green","grey"],"door_color_assignment":["black","white"],"door_generator_assignment":[0,1],"goal":2,"start":5,"action_noise":0,"location_history":"[5,0,1,2]","action_history":"[0,1,0]","door_history":"[0,1,0]","location_rts":"[7021,421,528]","trial_type":"two-door-navigation","trial_index":39,"time_elapsed":635479,"internal_node_id":"0.0-2.0-37.0"},{"group":"hexagon_bi","room_assignment":["yellow","red","blue","purple","green","grey"],"door_color_assignment":["black","white"],"door_generator_assignment":[0,1],"goal":1,"start":2,"action_noise":0,"location_history":"[2,3,4,5,0,1]","action_history":"[1,0,1,0,1]","door_history":"[1,0,1,0,1]","location_rts":"[6002,371,551,426,331]","trial_type":"two-door-navigation","trial_index":40,"time_elapsed":652273,"internal_node_id":"0.0-2.0-38.0"},{"group":"hexagon_bi","room_assignment":["yellow","red","blue","purple","green","grey"],"door_color_assignment":["black","white"],"door_generator_assignment":[0,1],"goal":4,"start":1,"action_noise":0,"location_history":"[1,0,5,4]","action_history":"[1,0,1]","door_history":"[1,0,1]","location_rts":"[618,479,393]","trial_type":"two-door-navigation","trial_index":41,"time_elapsed":660858,"internal_node_id":"0.0-2.0-39.0"},{"group":"hexagon_bi","room_assignment":["yellow","red","blue","purple","green","grey"],"door_color_assignment":["black","white"],"door_generator_assignment":[0,1],"goal":3,"start":4,"action_noise":0,"location_history":"[4,3]","action_history":"[0]","door_history":"[0]","location_rts":"[1596]","trial_type":"two-door-navigation","trial_index":42,"time_elapsed":667477,"internal_node_id":"0.0-2.0-40.0"},{"group":"hexagon_bi","room_assignment":["yellow","red","blue","purple","green","grey"],"door_color_assignment":["black","white"],"door_generator_assignment":[0,1],"goal":5,"start":3,"action_noise":0,"location_history":"[3,4,5]","action_history":"[0,1]","door_history":"[0,1]","location_rts":"[9667,801]","trial_type":"two-door-navigation","trial_index":43,"time_elapsed":683992,"internal_node_id":"0.0-2.0-41.0"},{"group":"hexagon_bi","room_assignment":["yellow","red","blue","purple","green","grey"],"door_color_assignment":["black","white"],"door_generator_assignment":[0,1],"goal":3,"start":5,"action_noise":0,"location_history":"[5,0,1,2,3]","action_history":"[0,1,0,1]","door_history":"[0,1,0,1]","location_rts":"[2991,327,289,759]","trial_type":"two-door-navigation","trial_index":44,"time_elapsed":696445,"internal_node_id":"0.0-2.0-42.0"},{"group":"hexagon_bi","room_assignment":["yellow","red","blue","purple","green","grey"],"door_color_assignment":["black","white"],"door_generator_assignment":[0,1],"goal":0,"start":3,"action_noise":0,"location_history":"[3,2,1,2,3,4,5,0]","action_history":"[1,0,0,1,0,1,0]","door_history":"[1,0,0,1,0,1,0]","location_rts":"[2609,314,441,263,348,353,442]","trial_type":"two-door-navigation","trial_index":45,"time_elapsed":712367,"internal_node_id":"0.0-2.0-43.0"},{"group":"hexagon_bi","room_assignment":["yellow","red","blue","purple","green","grey"],"door_color_assignment":["black","white"],"door_generator_assignment":[0,1],"goal":2,"start":0,"action_noise":0,"location_history":"[0,5,4,3,2]","action_history":"[0,1,0,1]","door_history":"[0,1,0,1]","location_rts":"[9504,877,349,387]","trial_type":"two-door-navigation","trial_index":46,"time_elapsed":731575,"internal_node_id":"0.0-2.0-44.0"},{"group":"hexagon_bi","room_assignment":["yellow","red","blue","purple","green","grey"],"door_color_assignment":["black","white"],"door_generator_assignment":[0,1],"goal":4,"start":2,"action_noise":0,"location_history":"[2,1,0,5,4]","action_history":"[0,1,0,1]","door_history":"[0,1,0,1]","location_rts":"[8787,332,372,725]","trial_type":"two-door-navigation","trial_index":47,"time_elapsed":749886,"internal_node_id":"0.0-2.0-45.0"},{"group":"hexagon_bi","room_assignment":["yellow","red","blue","purple","green","grey"],"door_color_assignment":["black","white"],"door_generator_assignment":[0,1],"goal":1,"start":4,"action_noise":0,"location_history":"[4,5,0,1]","action_history":"[1,0,1]","door_history":"[1,0,1]","location_rts":"[5242,565,307]","trial_type":"two-door-navigation","trial_index":48,"time_elapsed":763069,"internal_node_id":"0.0-2.0-46.0"},{"group":"hexagon_bi","room_assignment":["yellow","red","blue","purple","green","grey"],"door_color_assignment":["black","white"],"door_generator_assignment":[0,1],"goal":4,"start":1,"action_noise":0,"location_history":"[1,0,5,4]","action_history":"[1,0,1]","door_history":"[1,0,1]","location_rts":"[16027,369,339]","trial_type":"two-door-navigation","trial_index":49,"time_elapsed":786873,"internal_node_id":"0.0-2.0-47.0"},{"group":"hexagon_bi","room_assignment":["yellow","red","blue","purple","green","grey"],"door_color_assignment":["black","white"],"door_generator_assignment":[0,1],"goal":3,"start":4,"action_noise":0,"location_history":"[4,3]","action_history":"[0]","door_history":"[0]","location_rts":"[11414]","trial_type":"two-door-navigation","trial_index":50,"time_elapsed":803312,"internal_node_id":"0.0-2.0-48.0"},{"group":"hexagon_bi","room_assignment":["yellow","red","blue","purple","green","grey"],"door_color_assignment":["black","white"],"door_generator_assignment":[0,1],"goal":5,"start":3,"action_noise":0,"location_history":"[3,4,5]","action_history":"[0,1]","door_history":"[0,1]","location_rts":"[3683,445]","trial_type":"two-door-navigation","trial_index":51,"time_elapsed":813510,"internal_node_id":"0.0-2.0-49.0"},{"view_history":"[{\"page_index\":0,\"viewing_time\":2922}]","rt":2923,"trial_type":"instructions","trial_index":52,"time_elapsed":817434,"internal_node_id":"0.0-3.0"},{"view_history":"[{\"page_index\":0,\"viewing_time\":21569},{\"page_index\":1,\"viewing_time\":17321}]","rt":38891,"trial_type":"instructions","trial_index":53,"time_elapsed":857327,"internal_node_id":"0.0-4.0"},{"group":"hexagon_tri","fractal_assignment":["../images/org_blu.png","../images/ylw_slt.png","../images/gry_blk.png","../images/pnk_blu.png","../images/cyn_red.png","../images/blu_wht.png"],"mutagen_generator_assignment":[1,0],"goal":4,"start":0,"action_noise":0,"location_history":"[0,1,3,2,3,4]","action_history":"[1,0,0,1,1]","mutagen_history":"[0,1,1,0,0]","location_rts":"[5546,1203,93,403,782]","trial_type":"fractal-mutation","trial_index":54,"time_elapsed":874594,"internal_node_id":"0.0-5.0-0.0"},{"group":"hexagon_tri","fractal_assignment":["../images/org_blu.png","../images/ylw_slt.png","../images/gry_blk.png","../images/pnk_blu.png","../images/cyn_red.png","../images/blu_wht.png"],"mutagen_generator_assignment":[1,0],"goal":3,"start":4,"action_noise":0,"location_history":"[4,0,5,0,1,5,0,5,4,0,5,4,0,1,3]","action_history":"[0,0,1,1,1,1,0,0,0,0,0,0,1,0]","mutagen_history":"[1,1,0,0,0,0,1,1,1,1,1,1,0,1]","location_rts":"[1957,913,359,1124,440,114,20,418,325,387,407,449,492,426]","trial_type":"fractal-mutation","trial_index":55,"time_elapsed":900969,"internal_node_id":"0.0-5.0-1.0"},{"group":"hexagon_tri","fractal_assignment":["../images/org_blu.png","../images/ylw_slt.png","../images/gry_blk.png","../images/pnk_blu.png","../images/cyn_red.png","../images/blu_wht.png"],"mutagen_generator_assignment":[1,0],"goal":5,"start":3,"action_noise":0,"location_history":"[3,2,3,4,0,5]","action_history":"[0,1,1,0,0]","mutagen_history":"[1,0,0,1,1]","location_rts":"[10712,2059,2154,1068,722]","trial_type":"fractal-mutation","trial_index":56,"time_elapsed":926860,"internal_node_id":"0.0-5.0-2.0"},{"group":"hexagon_tri","fractal_assignment":["../images/org_blu.png","../images/ylw_slt.png","../images/gry_blk.png","../images/pnk_blu.png","../images/cyn_red.png","../images/blu_wht.png"],"mutagen_generator_assignment":[1,0],"goal":2,"start":5,"action_noise":0,"location_history":"[5,4,0,5,0,1,3,4,0,1,5,0,5,4,2]","action_history":"[0,0,0,1,1,0,1,0,1,1,1,0,0,1]","mutagen_history":"[1,1,1,0,0,1,0,1,0,0,0,1,1,0]","location_rts":"[435,2132,1335,898,739,1178,684,1101,4283,2709,613,565,1183,647]","trial_type":"fractal-mutation","trial_index":57,"time_elapsed":963846,"internal_node_id":"0.0-5.0-3.0"},{"group":"hexagon_tri","fractal_assignment":["../images/org_blu.png","../images/ylw_slt.png","../images/gry_blk.png","../images/pnk_blu.png","../images/cyn_red.png","../images/blu_wht.png"],"mutagen_generator_assignment":[1,0],"goal":1,"start":2,"action_noise":0,"location_history":"[2,3,4,0,5,0,5,0,5,0,5,0,1]","action_history":"[1,1,0,0,1,0,1,0,1,0,1,1]","mutagen_history":"[0,0,1,1,0,1,0,1,0,1,0,0]","location_rts":"[345,2345,1609,1635,430,2079,87,647,337,5,446,420]","trial_type":"fractal-mutation","trial_index":58,"time_elapsed":990641,"internal_node_id":"0.0-5.0-4.0"},{"group":"hexagon_tri","fractal_assignment":["../images/org_blu.png","../images/ylw_slt.png","../images/gry_blk.png","../images/pnk_blu.png","../images/cyn_red.png","../images/blu_wht.png"],"mutagen_generator_assignment":[1,0],"goal":4,"start":1,"action_noise":0,"location_history":"[1,3,4]","action_history":"[0,1]","mutagen_history":"[1,0]","location_rts":"[343,375]","trial_type":"fractal-mutation","trial_index":59,"time_elapsed":997438,"internal_node_id":"0.0-5.0-5.0"},{"group":"hexagon_tri","fractal_assignment":["../images/org_blu.png","../images/ylw_slt.png","../images/gry_blk.png","../images/pnk_blu.png","../images/cyn_red.png","../images/blu_wht.png"],"mutagen_generator_assignment":[1,0],"goal":1,"start":4,"action_noise":0,"location_history":"[4,0,1]","action_history":"[0,1]","mutagen_history":"[1,0]","location_rts":"[495,96]","trial_type":"fractal-mutation","trial_index":60,"time_elapsed":1004104,"internal_node_id":"0.0-5.0-6.0"},{"group":"hexagon_tri","fractal_assignment":["../images/org_blu.png","../images/ylw_slt.png","../images/gry_blk.png","../images/pnk_blu.png","../images/cyn_red.png","../images/blu_wht.png"],"mutagen_generator_assignment":[1,0],"goal":5,"start":1,"action_noise":0,"location_history":"[1,3,2,1,5]","action_history":"[0,0,0,1]","mutagen_history":"[1,1,1,0]","location_rts":"[646,189,56,209]","trial_type":"fractal-mutation","trial_index":61,"time_elapsed":1013357,"internal_node_id":"0.0-5.0-7.0"},{"group":"hexagon_tri","fractal_assignment":["../images/org_blu.png","../images/ylw_slt.png","../images/gry_blk.png","../images/pnk_blu.png","../images/cyn_red.png","../images/blu_wht.png"],"mutagen_generator_assignment":[1,0],"goal":0,"start":5,"action_noise":0,"location_history":"[5,0]","action_history":"[1]","mutagen_history":"[0]","location_rts":"[1392]","trial_type":"fractal-mutation","trial_index":62,"time_elapsed":1019784,"internal_node_id":"0.0-5.0-8.0"},{"group":"hexagon_tri","fractal_assignment":["../images/org_blu.png","../images/ylw_slt.png","../images/gry_blk.png","../images/pnk_blu.png","../images/cyn_red.png","../images/blu_wht.png"],"mutagen_generator_assignment":[1,0],"goal":2,"start":0,"action_noise":0,"location_history":"[0,5,4,2]","action_history":"[0,0,1]","mutagen_history":"[1,1,0]","location_rts":"[303,185,279]","trial_type":"fractal-mutation","trial_index":63,"time_elapsed":1027665,"internal_node_id":"0.0-5.0-9.0"},{"group":"hexagon_tri","fractal_assignment":["../images/org_blu.png","../images/ylw_slt.png","../images/gry_blk.png","../images/pnk_blu.png","../images/cyn_red.png","../images/blu_wht.png"],"mutagen_generator_assignment":[1,0],"goal":3,"start":2,"action_noise":0,"location_history":"[2,1,3]","action_history":"[0,0]","mutagen_history":"[1,1]","location_rts":"[590,828]","trial_type":"fractal-mutation","trial_index":64,"time_elapsed":1035155,"internal_node_id":"0.0-5.0-10.0"},{"group":"hexagon_tri","fractal_assignment":["../images/org_blu.png","../images/ylw_slt.png","../images/gry_blk.png","../images/pnk_blu.png","../images/cyn_red.png","../images/blu_wht.png"],"mutagen_generator_assignment":[1,0],"goal":0,"start":3,"action_noise":0,"location_history":"[3,2,3,4,0]","action_history":"[0,1,1,0]","mutagen_history":"[1,0,0,1]","location_rts":"[121,447,136,396]","trial_type":"fractal-mutation","trial_index":65,"time_elapsed":1044392,"internal_node_id":"0.0-5.0-11.0"},{"group":"hexagon_tri","fractal_assignment":["../images/org_blu.png","../images/ylw_slt.png","../images/gry_blk.png","../images/pnk_blu.png","../images/cyn_red.png","../images/blu_wht.png"],"mutagen_generator_assignment":[1,0],"goal":2,"start":0,"action_noise":0,"location_history":"[0,5,4,2]","action_history":"[0,0,1]","mutagen_history":"[1,1,0]","location_rts":"[329,65,180]","trial_type":"fractal-mutation","trial_index":66,"time_elapsed":1052057,"internal_node_id":"0.0-5.0-12.0"},{"group":"hexagon_tri","fractal_assignment":["../images/org_blu.png","../images/ylw_slt.png","../images/gry_blk.png","../images/pnk_blu.png","../images/cyn_red.png","../images/blu_wht.png"],"mutagen_generator_assignment":[1,0],"goal":5,"start":2,"action_noise":0,"location_history":"[2,3,4,0,5]","action_history":"[1,1,0,0]","mutagen_history":"[0,0,1,1]","location_rts":"[327,60,134,120]","trial_type":"fractal-mutation","trial_index":67,"time_elapsed":1060823,"internal_node_id":"0.0-5.0-13.0"},{"group":"hexagon_tri","fractal_assignment":["../images/org_blu.png","../images/ylw_slt.png","../images/gry_blk.png","../images/pnk_blu.png","../images/cyn_red.png","../images/blu_wht.png"],"mutagen_generator_assignment":[1,0],"goal":4,"start":5,"action_noise":0,"location_history":"[5,0,5,0,1,3,2,1,3,4]","action_history":"[1,0,1,1,0,0,0,0,1]","mutagen_history":"[0,1,0,0,1,1,1,1,0]","location_rts":"[1633,698,400,368,546,235,74,275,96]","trial_type":"fractal-mutation","trial_index":68,"time_elapsed":1078454,"internal_node_id":"0.0-5.0-14.0"},{"group":"hexagon_tri","fractal_assignment":["../images/org_blu.png","../images/ylw_slt.png","../images/gry_blk.png","../images/pnk_blu.png","../images/cyn_red.png","../images/blu_wht.png"],"mutagen_generator_assignment":[1,0],"goal":3,"start":4,"action_noise":0,"location_history":"[4,2,3]","action_history":"[1,1]","mutagen_history":"[0,0]","location_rts":"[594,68]","trial_type":"fractal-mutation","trial_index":69,"time_elapsed":1085192,"internal_node_id":"0.0-5.0-15.0"},{"group":"hexagon_tri","fractal_assignment":["../images/org_blu.png","../images/ylw_slt.png","../images/gry_blk.png","../images/pnk_blu.png","../images/cyn_red.png","../images/blu_wht.png"],"mutagen_generator_assignment":[1,0],"goal":1,"start":3,"action_noise":0,"location_history":"[3,4,2,1]","action_history":"[1,1,0]","mutagen_history":"[0,0,1]","location_rts":"[553,115,258]","trial_type":"fractal-mutation","trial_index":70,"time_elapsed":1093254,"internal_node_id":"0.0-5.0-16.0"},{"group":"hexagon_tri","fractal_assignment":["../images/org_blu.png","../images/ylw_slt.png","../images/gry_blk.png","../images/pnk_blu.png","../images/cyn_red.png","../images/blu_wht.png"],"mutagen_generator_assignment":[1,0],"goal":5,"start":1,"action_noise":0,"location_history":"[1,3,4,2,3,2,1,3,4,2,1,3,4,0,5]","action_history":"[0,1,1,1,0,0,0,1,1,0,0,1,0,0]","mutagen_history":"[1,0,0,0,1,1,1,0,0,1,1,0,1,1]","location_rts":"[194,376,977,77,148,123,62,33,232,194,138,99,21,350]","trial_type":"fractal-mutation","trial_index":71,"time_elapsed":1114816,"internal_node_id":"0.0-5.0-17.0"},{"group":"hexagon_tri","fractal_assignment":["../images/org_blu.png","../images/ylw_slt.png","../images/gry_blk.png","../images/pnk_blu.png","../images/cyn_red.png","../images/blu_wht.png"],"mutagen_generator_assignment":[1,0],"goal":4,"start":5,"action_noise":0,"location_history":"[5,0,1,5,0,5,4]","action_history":"[1,1,1,1,0,0]","mutagen_history":"[0,0,0,0,1,1]","location_rts":"[566,44,190,486,161,355]","trial_type":"fractal-mutation","trial_index":72,"time_elapsed":1126823,"internal_node_id":"0.0-5.0-18.0"},{"group":"hexagon_tri","fractal_assignment":["../images/org_blu.png","../images/ylw_slt.png","../images/gry_blk.png","../images/pnk_blu.png","../images/cyn_red.png","../images/blu_wht.png"],"mutagen_generator_assignment":[1,0],"goal":0,"start":4,"action_noise":0,"location_history":"[4,0]","action_history":"[0]","mutagen_history":"[1]","location_rts":"[394]","trial_type":"fractal-mutation","trial_index":73,"time_elapsed":1132264,"internal_node_id":"0.0-5.0-19.0"},{"group":"hexagon_tri","fractal_assignment":["../images/org_blu.png","../images/ylw_slt.png","../images/gry_blk.png","../images/pnk_blu.png","../images/cyn_red.png","../images/blu_wht.png"],"mutagen_generator_assignment":[1,0],"goal":1,"start":0,"action_noise":0,"location_history":"[0,1]","action_history":"[1]","mutagen_history":"[0]","location_rts":"[693]","trial_type":"fractal-mutation","trial_index":74,"time_elapsed":1137989,"internal_node_id":"0.0-5.0-20.0"},{"group":"hexagon_tri","fractal_assignment":["../images/org_blu.png","../images/ylw_slt.png","../images/gry_blk.png","../images/pnk_blu.png","../images/cyn_red.png","../images/blu_wht.png"],"mutagen_generator_assignment":[1,0],"goal":3,"start":1,"action_noise":0,"location_history":"[1,5,4,2,1,3]","action_history":"[1,0,1,0,0]","mutagen_history":"[0,1,0,1,1]","location_rts":"[2267,352,91,1040,18]","trial_type":"fractal-mutation","trial_index":75,"time_elapsed":1150946,"internal_node_id":"0.0-5.0-21.0"},{"group":"hexagon_tri","fractal_assignment":["../images/org_blu.png","../images/ylw_slt.png","../images/gry_blk.png","../images/pnk_blu.png","../images/cyn_red.png","../images/blu_wht.png"],"mutagen_generator_assignment":[1,0],"goal":2,"start":3,"action_noise":0,"location_history":"[3,4,0,5,0,5,4,0,5,4,2]","action_history":"[1,0,0,1,0,0,0,0,0,1]","mutagen_history":"[0,1,1,0,1,1,1,1,1,0]","location_rts":"[516,324,90,35,174,102,62,135,180,541]","trial_type":"fractal-mutation","trial_index":76,"time_elapsed":1167473,"internal_node_id":"0.0-5.0-22.0"},{"group":"hexagon_tri","fractal_assignment":["../images/org_blu.png","../images/ylw_slt.png","../images/gry_blk.png","../images/pnk_blu.png","../images/cyn_red.png","../images/blu_wht.png"],"mutagen_generator_assignment":[1,0],"goal":0,"start":2,"action_noise":0,"location_history":"[2,1,3,4,2,1,5,4,0]","action_history":"[0,0,1,1,0,1,0,0]","mutagen_history":"[1,1,0,0,1,0,1,1]","location_rts":"[422,88,261,286,10,69,82,75]","trial_type":"fractal-mutation","trial_index":77,"time_elapsed":1181052,"internal_node_id":"0.0-5.0-23.0"},{"group":"hexagon_tri","fractal_assignment":["../images/org_blu.png","../images/ylw_slt.png","../images/gry_blk.png","../images/pnk_blu.png","../images/cyn_red.png","../images/blu_wht.png"],"mutagen_generator_assignment":[1,0],"goal":3,"start":0,"action_noise":0,"location_history":"[0,5,4,0,5,4,0,1,3]","action_history":"[0,0,0,0,0,0,1,0]","mutagen_history":"[1,1,1,1,1,1,0,1]","location_rts":"[411,61,183,65,377,292,30,141]","trial_type":"fractal-mutation","trial_index":78,"time_elapsed":1194926,"internal_node_id":"0.0-5.0-24.0"},{"group":"hexagon_tri","fractal_assignment":["../images/org_blu.png","../images/ylw_slt.png","../images/gry_blk.png","../images/pnk_blu.png","../images/cyn_red.png","../images/blu_wht.png"],"mutagen_generator_assignment":[1,0],"goal":1,"start":3,"action_noise":0,"location_history":"[3,2,3,4,2,3,2,3,2,1]","action_history":"[0,1,1,1,1,0,1,0,0]","mutagen_history":"[1,0,0,0,0,1,0,1,1]","location_rts":"[405,56,1382,550,158,323,17,43,197]","trial_type":"fractal-mutation","trial_index":79,"time_elapsed":1211344,"internal_node_id":"0.0-5.0-25.0"},{"group":"hexagon_tri","fractal_assignment":["../images/org_blu.png","../images/ylw_slt.png","../images/gry_blk.png","../images/pnk_blu.png","../images/cyn_red.png","../images/blu_wht.png"],"mutagen_generator_assignment":[1,0],"goal":2,"start":1,"action_noise":0,"location_history":"[1,3,2]","action_history":"[0,0]","mutagen_history":"[1,1]","location_rts":"[501,262]","trial_type":"fractal-mutation","trial_index":80,"time_elapsed":1218173,"internal_node_id":"0.0-5.0-26.0"},{"group":"hexagon_tri","fractal_assignment":["../images/org_blu.png","../images/ylw_slt.png","../images/gry_blk.png","../images/pnk_blu.png","../images/cyn_red.png","../images/blu_wht.png"],"mutagen_generator_assignment":[1,0],"goal":5,"start":2,"action_noise":0,"location_history":"[2,1,3,2,1,5]","action_history":"[0,0,0,0,1]","mutagen_history":"[1,1,1,1,0]","location_rts":"[383,102,187,1422,171]","trial_type":"fractal-mutation","trial_index":81,"time_elapsed":1229623,"internal_node_id":"0.0-5.0-27.0"},{"group":"hexagon_tri","fractal_assignment":["../images/org_blu.png","../images/ylw_slt.png","../images/gry_blk.png","../images/pnk_blu.png","../images/cyn_red.png","../images/blu_wht.png"],"mutagen_generator_assignment":[1,0],"goal":4,"start":5,"action_noise":0,"location_history":"[5,4]","action_history":"[0]","mutagen_history":"[1]","location_rts":"[1717]","trial_type":"fractal-mutation","trial_index":82,"time_elapsed":1236386,"internal_node_id":"0.0-5.0-28.0"},{"group":"hexagon_tri","fractal_assignment":["../images/org_blu.png","../images/ylw_slt.png","../images/gry_blk.png","../images/pnk_blu.png","../images/cyn_red.png","../images/blu_wht.png"],"mutagen_generator_assignment":[1,0],"goal":5,"start":4,"action_noise":0,"location_history":"[4,2,1,3,2,1,3,2,1,5]","action_history":"[1,0,0,0,0,0,0,0,1]","mutagen_history":"[0,1,1,1,1,1,1,1,0]","location_rts":"[418,130,254,192,619,824,266,85,50]","trial_type":"fractal-mutation","trial_index":83,"time_elapsed":1252553,"internal_node_id":"0.0-5.0-29.0"},{"group":"hexagon_tri","fractal_assignment":["../images/org_blu.png","../images/ylw_slt.png","../images/gry_blk.png","../images/pnk_blu.png","../images/cyn_red.png","../images/blu_wht.png"],"mutagen_generator_assignment":[1,0],"goal":3,"start":5,"action_noise":0,"location_history":"[5,4,2,1,3]","action_history":"[0,1,0,0]","mutagen_history":"[1,0,1,1]","location_rts":"[456,21468,794,82]","trial_type":"fractal-mutation","trial_index":84,"time_elapsed":1283477,"internal_node_id":"0.0-5.0-30.0"},{"group":"hexagon_tri","fractal_assignment":["../images/org_blu.png","../images/ylw_slt.png","../images/gry_blk.png","../images/pnk_blu.png","../images/cyn_red.png","../images/blu_wht.png"],"mutagen_generator_assignment":[1,0],"goal":0,"start":3,"action_noise":0,"location_history":"[3,4,0]","action_history":"[1,0]","mutagen_history":"[0,1]","location_rts":"[388,78]","trial_type":"fractal-mutation","trial_index":85,"time_elapsed":1289998,"internal_node_id":"0.0-5.0-31.0"},{"group":"hexagon_tri","fractal_assignment":["../images/org_blu.png","../images/ylw_slt.png","../images/gry_blk.png","../images/pnk_blu.png","../images/cyn_red.png","../images/blu_wht.png"],"mutagen_generator_assignment":[1,0],"goal":4,"start":0,"action_noise":0,"location_history":"[0,5,0,5,4]","action_history":"[0,1,0,0]","mutagen_history":"[1,0,1,1]","location_rts":"[969,112,305,99]","trial_type":"fractal-mutation","trial_index":86,"time_elapsed":1299627,"internal_node_id":"0.0-5.0-32.0"},{"group":"hexagon_tri","fractal_assignment":["../images/org_blu.png","../images/ylw_slt.png","../images/gry_blk.png","../images/pnk_blu.png","../images/cyn_red.png","../images/blu_wht.png"],"mutagen_generator_assignment":[1,0],"goal":1,"start":4,"action_noise":0,"location_history":"[4,0,5,4,0,5,4,0,5,0,1]","action_history":"[0,0,0,0,0,0,0,0,1,1]","mutagen_history":"[1,1,1,1,1,1,1,1,0,0]","location_rts":"[521,256,331,72,149,468,311,392,67,407]","trial_type":"fractal-mutation","trial_index":87,"time_elapsed":1316978,"internal_node_id":"0.0-5.0-33.0"},{"group":"hexagon_tri","fractal_assignment":["../images/org_blu.png","../images/ylw_slt.png","../images/gry_blk.png","../images/pnk_blu.png","../images/cyn_red.png","../images/blu_wht.png"],"mutagen_generator_assignment":[1,0],"goal":2,"start":1,"action_noise":0,"location_history":"[1,3,4,2]","action_history":"[0,1,1]","mutagen_history":"[1,0,0]","location_rts":"[477,7,208]","trial_type":"fractal-mutation","trial_index":88,"time_elapsed":1324773,"internal_node_id":"0.0-5.0-34.0"},{"group":"hexagon_tri","fractal_assignment":["../images/org_blu.png","../images/ylw_slt.png","../images/gry_blk.png","../images/pnk_blu.png","../images/cyn_red.png","../images/blu_wht.png"],"mutagen_generator_assignment":[1,0],"goal":0,"start":2,"action_noise":0,"location_history":"[2,3,4,2,1,3,4,2,1,3,2,3,2,1,3,4,2,1,3,4,0]","action_history":"[1,1,1,0,0,1,1,0,0,0,1,0,0,0,1,1,0,0,1,0]","mutagen_history":"[0,0,0,1,1,0,0,1,1,1,0,1,1,1,0,0,1,1,0,1]","location_rts":"[306,455,306,269,4,30,133,23,8,164,459,90,197,251,67,78,110,116,66,57]","trial_type":"fractal-mutation","trial_index":89,"time_elapsed":1352653,"internal_node_id":"0.0-5.0-35.0"},{"group":"hexagon_tri","fractal_assignment":["../images/org_blu.png","../images/ylw_slt.png","../images/gry_blk.png","../images/pnk_blu.png","../images/cyn_red.png","../images/blu_wht.png"],"mutagen_generator_assignment":[1,0],"goal":5,"start":0,"action_noise":0,"location_history":"[0,5]","action_history":"[0]","mutagen_history":"[1]","location_rts":"[325]","trial_type":"fractal-mutation","trial_index":90,"time_elapsed":1358018,"internal_node_id":"0.0-5.0-36.0"},{"group":"hexagon_tri","fractal_assignment":["../images/org_blu.png","../images/ylw_slt.png","../images/gry_blk.png","../images/pnk_blu.png","../images/cyn_red.png","../images/blu_wht.png"],"mutagen_generator_assignment":[1,0],"goal":2,"start":5,"action_noise":0,"location_history":"[5,0,5,0,5,4,2]","action_history":"[1,0,1,0,0,1]","mutagen_history":"[0,1,0,1,1,0]","location_rts":"[548,282,187,157,113,770]","trial_type":"fractal-mutation","trial_index":91,"time_elapsed":1370287,"internal_node_id":"0.0-5.0-37.0"},{"group":"hexagon_tri","fractal_assignment":["../images/org_blu.png","../images/ylw_slt.png","../images/gry_blk.png","../images/pnk_blu.png","../images/cyn_red.png","../images/blu_wht.png"],"mutagen_generator_assignment":[1,0],"goal":1,"start":2,"action_noise":0,"location_history":"[2,1]","action_history":"[0]","mutagen_history":"[1]","location_rts":"[1007]","trial_type":"fractal-mutation","trial_index":92,"time_elapsed":1376326,"internal_node_id":"0.0-5.0-38.0"},{"group":"hexagon_tri","fractal_assignment":["../images/org_blu.png","../images/ylw_slt.png","../images/gry_blk.png","../images/pnk_blu.png","../images/cyn_red.png","../images/blu_wht.png"],"mutagen_generator_assignment":[1,0],"goal":4,"start":1,"action_noise":0,"location_history":"[1,3,4]","action_history":"[0,1]","mutagen_history":"[1,0]","location_rts":"[3588,290]","trial_type":"fractal-mutation","trial_index":93,"time_elapsed":1386275,"internal_node_id":"0.0-5.0-39.0"},{"group":"hexagon_tri","fractal_assignment":["../images/org_blu.png","../images/ylw_slt.png","../images/gry_blk.png","../images/pnk_blu.png","../images/cyn_red.png","../images/blu_wht.png"],"mutagen_generator_assignment":[1,0],"goal":3,"start":4,"action_noise":0,"location_history":"[4,0,5,4,0,1,3]","action_history":"[0,0,0,0,1,0]","mutagen_history":"[1,1,1,1,0,1]","location_rts":"[404,290,12,124,253,340]","trial_type":"fractal-mutation","trial_index":94,"time_elapsed":1397909,"internal_node_id":"0.0-5.0-40.0"},{"group":"hexagon_tri","fractal_assignment":["../images/org_blu.png","../images/ylw_slt.png","../images/gry_blk.png","../images/pnk_blu.png","../images/cyn_red.png","../images/blu_wht.png"],"mutagen_generator_assignment":[1,0],"goal":5,"start":3,"action_noise":0,"location_history":"[3,2,1,3,2,3,4,2,1,5]","action_history":"[0,0,0,0,1,1,1,0,1]","mutagen_history":"[1,1,1,1,0,0,0,1,0]","location_rts":"[443,125,35,47,210,73,10,116,153]","trial_type":"fractal-mutation","trial_index":95,"time_elapsed":1412407,"internal_node_id":"0.0-5.0-41.0"},{"group":"hexagon_tri","fractal_assignment":["../images/org_blu.png","../images/ylw_slt.png","../images/gry_blk.png","../images/pnk_blu.png","../images/cyn_red.png","../images/blu_wht.png"],"mutagen_generator_assignment":[1,0],"goal":3,"start":5,"action_noise":0,"location_history":"[5,4,2,3]","action_history":"[0,1,1]","mutagen_history":"[1,0,0]","location_rts":"[404,295,135]","trial_type":"fractal-mutation","trial_index":96,"time_elapsed":1420339,"internal_node_id":"0.0-5.0-42.0"},{"group":"hexagon_tri","fractal_assignment":["../images/org_blu.png","../images/ylw_slt.png","../images/gry_blk.png","../images/pnk_blu.png","../images/cyn_red.png","../images/blu_wht.png"],"mutagen_generator_assignment":[1,0],"goal":0,"start":3,"action_noise":0,"location_history":"[3,2,1,3,4,2,1,3,2,3,2,1,5,4,2,3,4,0]","action_history":"[0,0,0,1,1,0,0,0,1,0,0,1,0,1,1,1,0]","mutagen_history":"[1,1,1,0,0,1,1,1,0,1,1,0,1,0,0,0,1]","location_rts":"[307,138,74,133,129,214,93,375,137,268,198,9,136,146,406,240,39]","trial_type":"fractal-mutation","trial_index":97,"time_elapsed":1444930,"internal_node_id":"0.0-5.0-43.0"},{"group":"hexagon_tri","fractal_assignment":["../images/org_blu.png","../images/ylw_slt.png","../images/gry_blk.png","../images/pnk_blu.png","../images/cyn_red.png","../images/blu_wht.png"],"mutagen_generator_assignment":[1,0],"goal":2,"start":0,"action_noise":0,"location_history":"[0,5,0,5,4,0,5,4,2]","action_history":"[0,1,0,0,0,0,0,1]","mutagen_history":"[1,0,1,1,1,1,1,0]","location_rts":"[175,75,97,102,10,208,277,88]","trial_type":"fractal-mutation","trial_index":98,"time_elapsed":1458247,"internal_node_id":"0.0-5.0-44.0"},{"group":"hexagon_tri","fractal_assignment":["../images/org_blu.png","../images/ylw_slt.png","../images/gry_blk.png","../images/pnk_blu.png","../images/cyn_red.png","../images/blu_wht.png"],"mutagen_generator_assignment":[1,0],"goal":4,"start":2,"action_noise":0,"location_history":"[2,3,4]","action_history":"[1,1]","mutagen_history":"[0,0]","location_rts":"[861,422]","trial_type":"fractal-mutation","trial_index":99,"time_elapsed":1465590,"internal_node_id":"0.0-5.0-45.0"},{"group":"hexagon_tri","fractal_assignment":["../images/org_blu.png","../images/ylw_slt.png","../images/gry_blk.png","../images/pnk_blu.png","../images/cyn_red.png","../images/blu_wht.png"],"mutagen_generator_assignment":[1,0],"goal":1,"start":4,"action_noise":0,"location_history":"[4,0,5,0,5,4,0,5,0,1]","action_history":"[0,0,1,0,0,0,0,1,1]","mutagen_history":"[1,1,0,1,1,1,1,0,0]","location_rts":"[1020,328,2656,21,260,235,270,15,351]","trial_type":"fractal-mutation","trial_index":100,"time_elapsed":1484059,"internal_node_id":"0.0-5.0-46.0"},{"group":"hexagon_tri","fractal_assignment":["../images/org_blu.png","../images/ylw_slt.png","../images/gry_blk.png","../images/pnk_blu.png","../images/cyn_red.png","../images/blu_wht.png"],"mutagen_generator_assignment":[1,0],"goal":4,"start":1,"action_noise":0,"location_history":"[1,3,2,1,3,2,3,4]","action_history":"[0,0,0,0,0,1,1]","mutagen_history":"[1,1,1,1,1,0,0]","location_rts":"[3614,38,64,162,98,21,7]","trial_type":"fractal-mutation","trial_index":101,"time_elapsed":1499328,"internal_node_id":"0.0-5.0-47.0"},{"group":"hexagon_tri","fractal_assignment":["../images/org_blu.png","../images/ylw_slt.png","../images/gry_blk.png","../images/pnk_blu.png","../images/cyn_red.png","../images/blu_wht.png"],"mutagen_generator_assignment":[1,0],"goal":3,"start":4,"action_noise":0,"location_history":"[4,0,5,4,2,1,5,4,2,1,5,4,2,1,3]","action_history":"[0,0,0,1,0,1,0,1,0,1,0,1,0,0]","mutagen_history":"[1,1,1,0,1,0,1,0,1,0,1,0,1,1]","location_rts":"[313,308,368,22,291,160,253,33,24,162,44,28,125,58]","trial_type":"fractal-mutation","trial_index":102,"time_elapsed":1520009,"internal_node_id":"0.0-5.0-48.0"},{"group":"hexagon_tri","fractal_assignment":["../images/org_blu.png","../images/ylw_slt.png","../images/gry_blk.png","../images/pnk_blu.png","../images/cyn_red.png","../images/blu_wht.png"],"mutagen_generator_assignment":[1,0],"goal":5,"start":3,"action_noise":0,"location_history":"[3,4,0,5]","action_history":"[1,0,0]","mutagen_history":"[0,1,1]","location_rts":"[734,186,201]","trial_type":"fractal-mutation","trial_index":103,"time_elapsed":1528237,"internal_node_id":"0.0-5.0-49.0"},{"view_history":"[{\"page_index\":0,\"viewing_time\":5653}]","rt":5653,"trial_type":"instructions","trial_index":104,"time_elapsed":1534890,"internal_node_id":"0.0-6.0"},{"rt":3010,"responses":"{\"Q0\":\"no\"}","trial_type":"survey-text","trial_index":105,"time_elapsed":1538914,"internal_node_id":"0.0-7.0"}]