[{"view_history":"[{\"page_index\":0,\"viewing_time\":11029},{\"page_index\":1,\"viewing_time\":21766},{\"page_index\":2,\"viewing_time\":28639}]","rt":61434,"trial_type":"instructions","trial_index":0,"time_elapsed":61434,"internal_node_id":"0.0-0.0"},{"view_history":"[{\"page_index\":0,\"viewing_time\":4286},{\"page_index\":1,\"viewing_time\":59088}]","rt":63374,"trial_type":"instructions","trial_index":1,"time_elapsed":125810,"internal_node_id":"0.0-1.0"},{"group":"hexagon_bi","room_assignment":["grey","blue","purple","red","yellow","green"],"door_color_assignment":["black","white"],"door_generator_assignment":[1,0],"goal":4,"start":0,"action_noise":0,"location_history":"[0,1,2,1,0,1,0,5,0,5,0,1,2,1,0,1,0,5,0,5,0,5,4]","action_history":"[1,0,0,1,1,1,0,0,0,0,1,0,0,1,1,1,0,0,0,0,0,1]","door_history":"[0,1,1,0,0,0,1,1,1,1,0,1,1,0,0,0,1,1,1,1,1,0]","location_rts":"[7485,7599,3927,3225,6877,3953,2222,3712,3559,1912,2281,2344,1366,2022,1013,1081,3435,994,1000,1857,1892,1488]","trial_type":"two-door-navigation","trial_index":2,"time_elapsed":217434,"internal_node_id":"0.0-2.0-0.0"},{"group":"hexagon_bi","room_assignment":["grey","blue","purple","red","yellow","green"],"door_color_assignment":["black","white"],"door_generator_assignment":[1,0],"goal":3,"start":4,"action_noise":0,"location_history":"[4,5,4,3]","action_history":"[1,1,0]","door_history":"[0,0,1]","location_rts":"[10656,4821,1668]","trial_type":"two-door-navigation","trial_index":3,"time_elapsed":241631,"internal_node_id":"0.0-2.0-1.0"},{"group":"hexagon_bi","room_assignment":["grey","blue","purple","red","yellow","green"],"door_color_assignment":["black","white"],"door_generator_assignment":[1,0],"goal":5,"start":3,"action_noise":0,"location_history":"[3,2,3,4,3,4,5]","action_history":"[1,1,0,0,0,1]","door_history":"[0,0,1,1,1,0]","location_rts":"[3945,947,1638,1302,685,1454]","trial_type":"two-door-navigation","trial_index":4,"time_elapsed":261718,"internal_node_id":"0.0-2.0-2.0"},{"group":"hexagon_bi","room_assignment":["grey","blue","purple","red","yellow","green"],"door_color_assignment":["black","white"],"door_generator_assignment":[1,0],"goal":2,"start":5,"action_noise":0,"location_history":"[5,0,5,4,5,4,3,4,3,4,5,4,5,4,3,2]","action_history":"[0,0,1,1,1,0,0,0,0,1,1,1,1,0,1]","door_history":"[1,1,0,0,0,1,1,1,1,0,0,0,0,1,0]","location_rts":"[10972,3229,1585,850,1398,1470,1407,719,1499,1281,1127,640,1031,2030,2160]","trial_type":"two-door-navigation","trial_index":5,"time_elapsed":312375,"internal_node_id":"0.0-2.0-3.0"},{"group":"hexagon_bi","room_assignment":["grey","blue","purple","red","yellow","green"],"door_color_assignment":["black","white"],"door_generator_assignment":[1,0],"goal":1,"start":2,"action_noise":0,"location_history":"[2,1]","action_history":"[0]","door_history":"[1]","location_rts":"[8010]","trial_type":"two-door-navigation","trial_index":6,"time_elapsed":325412,"internal_node_id":"0.0-2.0-4.0"},{"group":"hexagon_bi","room_assignment":["grey","blue","purple","red","yellow","green"],"door_color_assignment":["black","white"],"door_generator_assignment":[1,0],"goal":4,"start":1,"action_noise":0,"location_history":"[1,0,5,0,5,4]","action_history":"[1,0,0,0,1]","door_history":"[0,1,1,1,0]","location_rts":"[8141,1869,1073,665,1522]","trial_type":"two-door-navigation","trial_index":7,"time_elapsed":347761,"internal_node_id":"0.0-2.0-5.0"},{"group":"hexagon_bi","room_assignment":["grey","blue","purple","red","yellow","green"],"door_color_assignment":["black","white"],"door_generator_assignment":[1,0],"goal":1,"start":4,"action_noise":0,"location_history":"[4,3,4,5,0,1]","action_history":"[0,0,1,0,1]","door_history":"[1,1,0,1,0]","location_rts":"[6519,639,1146,3017,1859]","trial_type":"two-door-navigation","trial_index":8,"time_elapsed":370022,"internal_node_id":"0.0-2.0-6.0"},{"group":"hexagon_bi","room_assignment":["grey","blue","purple","red","yellow","green"],"door_color_assignment":["black","white"],"door_generator_assignment":[1,0],"goal":5,"start":1,"action_noise":0,"location_history":"[1,2,1,2,3,4,3,2,3,2,1,2,1,0,5]","action_history":"[0,0,0,1,0,0,1,1,1,0,0,0,1,0]","door_history":"[1,1,1,0,1,1,0,0,0,1,1,1,0,1]","location_rts":"[3155,607,1704,900,2379,504,1276,498,552,867,1220,905,1556,1624]","trial_type":"two-door-navigation","trial_index":9,"time_elapsed":405964,"internal_node_id":"0.0-2.0-7.0"},{"group":"hexagon_bi","room_assignment":["grey","blue","purple","red","yellow","green"],"door_color_assignment":["black","white"],"door_generator_assignment":[1,0],"goal":0,"start":5,"action_noise":0,"location_history":"[5,0]","action_history":"[0]","door_history":"[1]","location_rts":"[3957]","trial_type":"two-door-navigation","trial_index":10,"time_elapsed":414941,"internal_node_id":"0.0-2.0-8.0"},{"group":"hexagon_bi","room_assignment":["grey","blue","purple","red","yellow","green"],"door_color_assignment":["black","white"],"door_generator_assignment":[1,0],"goal":2,"start":0,"action_noise":0,"location_history":"[0,1,2]","action_history":"[1,0]","door_history":"[0,1]","location_rts":"[4739,1953]","trial_type":"two-door-navigation","trial_index":11,"time_elapsed":427668,"internal_node_id":"0.0-2.0-9.0"},{"group":"hexagon_bi","room_assignment":["grey","blue","purple","red","yellow","green"],"door_color_assignment":["black","white"],"door_generator_assignment":[1,0],"goal":3,"start":2,"action_noise":0,"location_history":"[2,1,0,1,2,3]","action_history":"[0,1,1,0,1]","door_history":"[1,0,0,1,0]","location_rts":"[3611,879,672,888,893]","trial_type":"two-door-navigation","trial_index":12,"time_elapsed":443699,"internal_node_id":"0.0-2.0-10.0"},{"group":"hexagon_bi","room_assignment":["grey","blue","purple","red","yellow","green"],"door_color_assignment":["black","white"],"door_generator_assignment":[1,0],"goal":0,"start":3,"action_noise":0,"location_history":"[3,4,5,0]","action_history":"[0,1,0]","door_history":"[1,0,1]","location_rts":"[3309,1511,1274]","trial_type":"two-door-navigation","trial_index":13,"time_elapsed":456843,"internal_node_id":"0.0-2.0-11.0"},{"group":"hexagon_bi","room_assignment":["grey","blue","purple","red","yellow","green"],"door_color_assignment":["black","white"],"door_generator_assignment":[1,0],"goal":2,"start":0,"action_noise":0,"location_history":"[0,1,2]","action_history":"[1,0]","door_history":"[0,1]","location_rts":"[4990,1264]","trial_type":"two-door-navigation","trial_index":14,"time_elapsed":469135,"internal_node_id":"0.0-2.0-12.0"},{"group":"hexagon_bi","room_assignment":["grey","blue","purple","red","yellow","green"],"door_color_assignment":["black","white"],"door_generator_assignment":[1,0],"goal":5,"start":2,"action_noise":0,"location_history":"[2,3,4,3,2,1,2,1,0,5]","action_history":"[1,0,0,1,0,0,0,1,0]","door_history":"[0,1,1,0,1,1,1,0,1]","location_rts":"[3450,794,816,2071,1100,1001,1096,862,1988]","trial_type":"two-door-navigation","trial_index":15,"time_elapsed":495452,"internal_node_id":"0.0-2.0-13.0"},{"group":"hexagon_bi","room_assignment":["grey","blue","purple","red","yellow","green"],"door_color_assignment":["black","white"],"door_generator_assignment":[1,0],"goal":4,"start":5,"action_noise":0,"location_history":"[5,4]","action_history":"[1]","door_history":"[0]","location_rts":"[2974]","trial_type":"two-door-navigation","trial_index":16,"time_elapsed":503445,"internal_node_id":"0.0-2.0-14.0"},{"group":"hexagon_bi","room_assignment":["grey","blue","purple","red","yellow","green"],"door_color_assignment":["black","white"],"door_generator_assignment":[1,0],"goal":3,"start":4,"action_noise":0,"location_history":"[4,3]","action_history":"[0]","door_history":"[1]","location_rts":"[7194]","trial_type":"two-door-navigation","trial_index":17,"time_elapsed":515660,"internal_node_id":"0.0-2.0-15.0"},{"group":"hexagon_bi","room_assignment":["grey","blue","purple","red","yellow","green"],"door_color_assignment":["black","white"],"door_generator_assignment":[1,0],"goal":1,"start":3,"action_noise":0,"location_history":"[3,4,3,2,1]","action_history":"[0,0,1,0]","door_history":"[1,1,0,1]","location_rts":"[4550,781,1253,1067]","trial_type":"two-door-navigation","trial_index":18,"time_elapsed":531378,"internal_node_id":"0.0-2.0-16.0"},{"group":"hexagon_bi","room_assignment":["grey","blue","purple","red","yellow","green"],"door_color_assignment":["black","white"],"door_generator_assignment":[1,0],"goal":5,"start":1,"action_noise":0,"location_history":"[1,0,5]","action_history":"[1,0]","door_history":"[0,1]","location_rts":"[3088,950]","trial_type":"two-door-navigation","trial_index":19,"time_elapsed":541454,"internal_node_id":"0.0-2.0-17.0"},{"group":"hexagon_bi","room_assignment":["grey","blue","purple","red","yellow","green"],"door_color_assignment":["black","white"],"door_generator_assignment":[1,0],"goal":4,"start":5,"action_noise":0,"location_history":"[5,4]","action_history":"[1]","door_history":"[0]","location_rts":"[5924]","trial_type":"two-door-navigation","trial_index":20,"time_elapsed":552397,"internal_node_id":"0.0-2.0-18.0"},{"group":"hexagon_bi","room_assignment":["grey","blue","purple","red","yellow","green"],"door_color_assignment":["black","white"],"door_generator_assignment":[1,0],"goal":0,"start":4,"action_noise":0,"location_history":"[4,3,4,5,0]","action_history":"[0,0,1,0]","door_history":"[1,1,0,1]","location_rts":"[3348,1081,1296,792]","trial_type":"two-door-navigation","trial_index":21,"time_elapsed":566980,"internal_node_id":"0.0-2.0-19.0"},{"group":"hexagon_bi","room_assignment":["grey","blue","purple","red","yellow","green"],"door_color_assignment":["black","white"],"door_generator_assignment":[1,0],"goal":1,"start":0,"action_noise":0,"location_history":"[0,1]","action_history":"[1]","door_history":"[0]","location_rts":"[4405]","trial_type":"two-door-navigation","trial_index":22,"time_elapsed":576406,"internal_node_id":"0.0-2.0-20.0"},{"group":"hexagon_bi","room_assignment":["grey","blue","purple","red","yellow","green"],"door_color_assignment":["black","white"],"door_generator_assignment":[1,0],"goal":3,"start":1,"action_noise":0,"location_history":"[1,2,3]","action_history":"[0,1]","door_history":"[1,0]","location_rts":"[3473,1090]","trial_type":"two-door-navigation","trial_index":23,"time_elapsed":587005,"internal_node_id":"0.0-2.0-21.0"},{"group":"hexagon_bi","room_assignment":["grey","blue","purple","red","yellow","green"],"door_color_assignment":["black","white"],"door_generator_assignment":[1,0],"goal":2,"start":3,"action_noise":0,"location_history":"[3,2]","action_history":"[1]","door_history":"[0]","location_rts":"[4379]","trial_type":"two-door-navigation","trial_index":24,"time_elapsed":596406,"internal_node_id":"0.0-2.0-22.0"},{"group":"hexagon_bi","room_assignment":["grey","blue","purple","red","yellow","green"],"door_color_assignment":["black","white"],"door_generator_assignment":[1,0],"goal":0,"start":2,"action_noise":0,"location_history":"[2,3,4,5,0]","action_history":"[1,0,1,0]","door_history":"[0,1,0,1]","location_rts":"[3249,879,1934,1296]","trial_type":"two-door-navigation","trial_index":25,"time_elapsed":611838,"internal_node_id":"0.0-2.0-23.0"},{"group":"hexagon_bi","room_assignment":["grey","blue","purple","red","yellow","green"],"door_color_assignment":["black","white"],"door_generator_assignment":[1,0],"goal":3,"start":0,"action_noise":0,"location_history":"[0,1,0,1,2,3]","action_history":"[1,1,1,0,1]","door_history":"[0,0,0,1,0]","location_rts":"[5091,1615,3329,1105,1326]","trial_type":"two-door-navigation","trial_index":26,"time_elapsed":633389,"internal_node_id":"0.0-2.0-24.0"},{"group":"hexagon_bi","room_assignment":["grey","blue","purple","red","yellow","green"],"door_color_assignment":["black","white"],"door_generator_assignment":[1,0],"goal":1,"start":3,"action_noise":0,"location_history":"[3,2,1]","action_history":"[1,0]","door_history":"[0,1]","location_rts":"[4411,2990]","trial_type":"two-door-navigation","trial_index":27,"time_elapsed":646831,"internal_node_id":"0.0-2.0-25.0"},{"group":"hexagon_bi","room_assignment":["grey","blue","purple","red","yellow","green"],"door_color_assignment":["black","white"],"door_generator_assignment":[1,0],"goal":2,"start":1,"action_noise":0,"location_history":"[1,0,5,0,1,2]","action_history":"[1,0,0,1,0]","door_history":"[0,1,1,0,1]","location_rts":"[3729,868,1900,1119,3168]","trial_type":"two-door-navigation","trial_index":28,"time_elapsed":666707,"internal_node_id":"0.0-2.0-26.0"},{"group":"hexagon_bi","room_assignment":["grey","blue","purple","red","yellow","green"],"door_color_assignment":["black","white"],"door_generator_assignment":[1,0],"goal":5,"start":2,"action_noise":0,"location_history":"[2,3,4,3,4,5]","action_history":"[1,0,0,0,1]","door_history":"[0,1,1,1,0]","location_rts":"[3917,1252,1091,2040,1055]","trial_type":"two-door-navigation","trial_index":29,"time_elapsed":685159,"internal_node_id":"0.0-2.0-27.0"},{"group":"hexagon_bi","room_assignment":["grey","blue","purple","red","yellow","green"],"door_color_assignment":["black","white"],"door_generator_assignment":[1,0],"goal":4,"start":5,"action_noise":0,"location_history":"[5,4]","action_history":"[1]","door_history":"[0]","location_rts":"[4114]","trial_type":"two-door-navigation","trial_index":30,"time_elapsed":694295,"internal_node_id":"0.0-2.0-28.0"},{"group":"hexagon_bi","room_assignment":["grey","blue","purple","red","yellow","green"],"door_color_assignment":["black","white"],"door_generator_assignment":[1,0],"goal":5,"start":4,"action_noise":0,"location_history":"[4,3,2,1,0,5]","action_history":"[0,1,0,1,0]","door_history":"[1,0,1,0,1]","location_rts":"[4191,1135,3363,2413,1215]","trial_type":"two-door-navigation","trial_index":31,"time_elapsed":715702,"internal_node_id":"0.0-2.0-29.0"},{"group":"hexagon_bi","room_assignment":["grey","blue","purple","red","yellow","green"],"door_color_assignment":["black","white"],"door_generator_assignment":[1,0],"goal":3,"start":5,"action_noise":0,"location_history":"[5,4,3]","action_history":"[1,0]","door_history":"[0,1]","location_rts":"[3282,1648]","trial_type":"two-door-navigation","trial_index":32,"time_elapsed":726669,"internal_node_id":"0.0-2.0-30.0"},{"group":"hexagon_bi","room_assignment":["grey","blue","purple","red","yellow","green"],"door_color_assignment":["black","white"],"door_generator_assignment":[1,0],"goal":0,"start":3,"action_noise":0,"location_history":"[3,4,5,0]","action_history":"[0,1,0]","door_history":"[1,0,1]","location_rts":"[2740,1922,1031]","trial_type":"two-door-navigation","trial_index":33,"time_elapsed":739410,"internal_node_id":"0.0-2.0-31.0"},{"group":"hexagon_bi","room_assignment":["grey","blue","purple","red","yellow","green"],"door_color_assignment":["black","white"],"door_generator_assignment":[1,0],"goal":4,"start":0,"action_noise":0,"location_history":"[0,5,0,1,2,1,0,1,2,1,2,3,2,1,2,1,0,1,0,5,0,5,0,5,4]","action_history":"[0,0,1,0,0,1,1,0,0,0,1,1,0,0,0,1,1,1,0,0,0,0,0,1]","door_history":"[1,1,0,1,1,0,0,1,1,1,0,0,1,1,1,0,0,0,1,1,1,1,1,0]","location_rts":"[3351,1261,1566,768,1600,1089,1079,793,887,2126,937,702,1090,512,976,1623,937,1519,801,669,558,1344,1138,1208]","trial_type":"two-door-navigation","trial_index":34,"time_elapsed":796338,"internal_node_id":"0.0-2.0-32.0"},{"group":"hexagon_bi","room_assignment":["grey","blue","purple","red","yellow","green"],"door_color_assignment":["black","white"],"door_generator_assignment":[1,0],"goal":1,"start":4,"action_noise":0,"location_history":"[4,3,2,1]","action_history":"[0,1,0]","door_history":"[1,0,1]","location_rts":"[4773,2337,2447]","trial_type":"two-door-navigation","trial_index":35,"time_elapsed":812951,"internal_node_id":"0.0-2.0-33.0"},{"group":"hexagon_bi","room_assignment":["grey","blue","purple","red","yellow","green"],"door_color_assignment":["black","white"],"door_generator_assignment":[1,0],"goal":2,"start":1,"action_noise":0,"location_history":"[1,0,1,2]","action_history":"[1,1,0]","door_history":"[0,0,1]","location_rts":"[5108,1253,1386]","trial_type":"two-door-navigation","trial_index":36,"time_elapsed":827757,"internal_node_id":"0.0-2.0-34.0"},{"group":"hexagon_bi","room_assignment":["grey","blue","purple","red","yellow","green"],"door_color_assignment":["black","white"],"door_generator_assignment":[1,0],"goal":0,"start":2,"action_noise":0,"location_history":"[2,1,0]","action_history":"[0,1]","door_history":"[1,0]","location_rts":"[2261,1107]","trial_type":"two-door-navigation","trial_index":37,"time_elapsed":837162,"internal_node_id":"0.0-2.0-35.0"},{"group":"hexagon_bi","room_assignment":["grey","blue","purple","red","yellow","green"],"door_color_assignment":["black","white"],"door_generator_assignment":[1,0],"goal":5,"start":0,"action_noise":0,"location_history":"[0,1,0,5]","action_history":"[1,1,0]","door_history":"[0,0,1]","location_rts":"[2366,1910,1089]","trial_type":"two-door-navigation","trial_index":38,"time_elapsed":849580,"internal_node_id":"0.0-2.0-36.0"},{"group":"hexagon_bi","room_assignment":["grey","blue","purple","red","yellow","green"],"door_color_assignment":["black","white"],"door_generator_assignment":[1,0],"goal":2,"start":5,"action_noise":0,"location_history":"[5,4,3,2]","action_history":"[1,0,1]","door_history":"[0,1,0]","location_rts":"[3612,1562,1341]","trial_type":"two-door-navigation","trial_index":39,"time_elapsed":863150,"internal_node_id":"0.0-2.0-37.0"},{"group":"hexagon_bi","room_assignment":["grey","blue","purple","red","yellow","green"],"door_color_assignment":["black","white"],"door_generator_assignment":[1,0],"goal":1,"start":2,"action_noise":0,"location_history":"[2,3,4,3,2,1]","action_history":"[1,0,0,1,0]","door_history":"[0,1,1,0,1]","location_rts":"[5610,880,1073,898,1630]","trial_type":"two-door-navigation","trial_index":40,"time_elapsed":882325,"internal_node_id":"0.0-2.0-38.0"},{"group":"hexagon_bi","room_assignment":["grey","blue","purple","red","yellow","green"],"door_color_assignment":["black","white"],"door_generator_assignment":[1,0],"goal":4,"start":1,"action_noise":0,"location_history":"[1,0,1,2,1,0,1,2,1,2,3,2,3,4]","action_history":"[1,1,0,0,1,1,0,0,0,1,1,1,0]","door_history":"[0,0,1,1,0,0,1,1,1,0,0,0,1]","location_rts":"[3082,828,1253,701,2137,1016,911,982,1352,1096,601,2321,1328]","trial_type":"two-door-navigation","trial_index":41,"time_elapsed":917155,"internal_node_id":"0.0-2.0-39.0"},{"group":"hexagon_bi","room_assignment":["grey","blue","purple","red","yellow","green"],"door_color_assignment":["black","white"],"door_generator_assignment":[1,0],"goal":3,"start":4,"action_noise":0,"location_history":"[4,5,4,3]","action_history":"[1,1,0]","door_history":"[0,0,1]","location_rts":"[2701,1569,1071]","trial_type":"two-door-navigation","trial_index":42,"time_elapsed":929549,"internal_node_id":"0.0-2.0-40.0"},{"group":"hexagon_bi","room_assignment":["grey","blue","purple","red","yellow","green"],"door_color_assignment":["black","white"],"door_generator_assignment":[1,0],"goal":5,"start":3,"action_noise":0,"location_history":"[3,4,5]","action_history":"[0,1]","door_history":"[1,0]","location_rts":"[5043,1046]","trial_type":"two-door-navigation","trial_index":43,"time_elapsed":941675,"internal_node_id":"0.0-2.0-41.0"},{"group":"hexagon_bi","room_assignment":["grey","blue","purple","red","yellow","green"],"door_color_assignment":["black","white"],"door_generator_assignment":[1,0],"goal":3,"start":5,"action_noise":0,"location_history":"[5,4,3]","action_history":"[1,0]","door_history":"[0,1]","location_rts":"[4974,1447]","trial_type":"two-door-navigation","trial_index":44,"time_elapsed":954131,"internal_node_id":"0.0-2.0-42.0"},{"group":"hexagon_bi","room_assignment":["grey","blue","purple","red","yellow","green"],"door_color_assignment":["black","white"],"door_generator_assignment":[1,0],"goal":0,"start":3,"action_noise":0,"location_history":"[3,2,1,2,3,4,3,2,3,2,1,2,1,0]","action_history":"[1,0,0,1,0,0,1,1,1,0,0,0,1]","door_history":"[0,1,1,0,1,1,0,0,0,1,1,1,0]","location_rts":"[3614,1030,2961,957,1038,1334,1073,878,2065,472,648,480,3227]","trial_type":"two-door-navigation","trial_index":45,"time_elapsed":991127,"internal_node_id":"0.0-2.0-43.0"},{"group":"hexagon_bi","room_assignment":["grey","blue","purple","red","yellow","green"],"door_color_assignment":["black","white"],"door_generator_assignment":[1,0],"goal":2,"start":0,"action_noise":0,"location_history":"[0,1,2]","action_history":"[1,0]","door_history":"[0,1]","location_rts":"[2970,2320]","trial_type":"two-door-navigation","trial_index":46,"time_elapsed":1002452,"internal_node_id":"0.0-2.0-44.0"},{"group":"hexagon_bi","room_assignment":["grey","blue","purple","red","yellow","green"],"door_color_assignment":["black","white"],"door_generator_assignment":[1,0],"goal":4,"start":2,"action_noise":0,"location_history":"[2,1,0,1,2,1,0,1,2,1,0,1,0,5,0,5,4]","action_history":"[0,1,1,0,0,1,1,0,0,1,1,1,0,0,0,1]","door_history":"[1,0,0,1,1,0,0,1,1,0,0,0,1,1,1,0]","location_rts":"[5003,1150,2431,1352,1498,927,1109,1277,704,1432,759,746,647,544,1229,976]","trial_type":"two-door-navigation","trial_index":47,"time_elapsed":1044510,"internal_node_id":"0.0-2.0-45.0"},{"group":"hexagon_bi","room_assignment":["grey","blue","purple","red","yellow","green"],"door_color_assignment":["black","white"],"door_generator_assignment":[1,0],"goal":1,"start":4,"action_noise":0,"location_history":"[4,3,4,5,0,1]","action_history":"[0,0,1,0,1]","door_history":"[1,1,0,1,0]","location_rts":"[4145,1171,824,1610,1388]","trial_type":"two-door-navigation","trial_index":48,"time_elapsed":1062733,"internal_node_id":"0.0-2.0-46.0"},{"group":"hexagon_bi","room_assignment":["grey","blue","purple","red","yellow","green"],"door_color_assignment":["black","white"],"door_generator_assignment":[1,0],"goal":4,"start":1,"action_noise":0,"location_history":"[1,0,5,0,5,4]","action_history":"[1,0,0,0,1]","door_history":"[0,1,1,1,0]","location_rts":"[7810,762,897,822,855]","trial_type":"two-door-navigation","trial_index":49,"time_elapsed":1082970,"internal_node_id":"0.0-2.0-47.0"},{"group":"hexagon_bi","room_assignment":["grey","blue","purple","red","yellow","green"],"door_color_assignment":["black","white"],"door_generator_assignment":[1,0],"goal":3,"start":4,"action_noise":0,"location_history":"[4,5,4,3]","action_history":"[1,1,0]","door_history":"[0,0,1]","location_rts":"[2712,1350,822]","trial_type":"two-door-navigation","trial_index":50,"time_elapsed":1094910,"internal_node_id":"0.0-2.0-48.0"},{"group":"hexagon_bi","room_assignment":["grey","blue","purple","red","yellow","green"],"door_color_assignment":["black","white"],"door_generator_assignment":[1,0],"goal":5,"start":3,"action_noise":0,"location_history":"[3,2,1,2,3,2,1,0,5]","action_history":"[1,0,0,1,1,0,1,0]","door_history":"[0,1,1,0,0,1,0,1]","location_rts":"[3283,2131,1769,1009,1230,1055,1447,878]","trial_type":"two-door-navigation","trial_index":51,"time_elapsed":1119846,"internal_node_id":"0.0-2.0-49.0"},{"view_history":"[{\"page_index\":0,\"viewing_time\":8138}]","rt":8140,"trial_type":"instructions","trial_index":52,"time_elapsed":1128986,"internal_node_id":"0.0-3.0"},{"view_history":"[{\"page_index\":0,\"viewing_time\":6696},{\"page_index\":1,\"viewing_time\":52144}]","rt":58840,"trial_type":"instructions","trial_index":53,"time_elapsed":1188826,"internal_node_id":"0.0-4.0"},{"group":"hexagon_tri","fractal_assignment":["../images/ylw_slt.png","../images/blu_wht.png","../images/pnk_blu.png","../images/cyn_red.png","../images/org_blu.png","../images/gry_blk.png"],"mutagen_generator_assignment":[1,0],"goal":4,"start":0,"action_noise":0,"location_history":"[0,1,3,4]","action_history":"[1,0,1]","mutagen_history":"[0,1,0]","location_rts":"[8780,4729,20616]","trial_type":"fractal-mutation","trial_index":54,"time_elapsed":1230047,"internal_node_id":"0.0-5.0-0.0"},{"group":"hexagon_tri","fractal_assignment":["../images/ylw_slt.png","../images/blu_wht.png","../images/pnk_blu.png","../images/cyn_red.png","../images/org_blu.png","../images/gry_blk.png"],"mutagen_generator_assignment":[1,0],"goal":3,"start":4,"action_noise":0,"location_history":"[4,0,1,5,4,2,3]","action_history":"[0,1,1,0,1,1]","mutagen_history":"[1,0,0,1,0,0]","location_rts":"[4190,6570,4893,6201,9167,6245]","trial_type":"fractal-mutation","trial_index":55,"time_elapsed":1277481,"internal_node_id":"0.0-5.0-1.0"},{"group":"hexagon_tri","fractal_assignment":["../images/ylw_slt.png","../images/blu_wht.png","../images/pnk_blu.png","../images/cyn_red.png","../images/org_blu.png","../images/gry_blk.png"],"mutagen_generator_assignment":[1,0],"goal":5,"start":3,"action_noise":0,"location_history":"[3,2,3,4,0,5]","action_history":"[0,1,1,0,0]","mutagen_history":"[1,0,0,1,1]","location_rts":"[1478,2070,1632,1213,2597]","trial_type":"fractal-mutation","trial_index":56,"time_elapsed":1295619,"internal_node_id":"0.0-5.0-2.0"},{"group":"hexagon_tri","fractal_assignment":["../images/ylw_slt.png","../images/blu_wht.png","../images/pnk_blu.png","../images/cyn_red.png","../images/org_blu.png","../images/gry_blk.png"],"mutagen_generator_assignment":[1,0],"goal":2,"start":5,"action_noise":0,"location_history":"[5,4,0,1,5,4,2]","action_history":"[0,0,1,1,0,1]","mutagen_history":"[1,1,0,0,1,0]","location_rts":"[1289,2265,1914,1532,872,3441]","trial_type":"fractal-mutation","trial_index":57,"time_elapsed":1317107,"internal_node_id":"0.0-5.0-3.0"},{"group":"hexagon_tri","fractal_assignment":["../images/ylw_slt.png","../images/blu_wht.png","../images/pnk_blu.png","../images/cyn_red.png","../images/org_blu.png","../images/gry_blk.png"],"mutagen_generator_assignment":[1,0],"goal":1,"start":2,"action_noise":0,"location_history":"[2,1]","action_history":"[0]","mutagen_history":"[1]","location_rts":"[1732]","trial_type":"fractal-mutation","trial_index":58,"time_elapsed":1323872,"internal_node_id":"0.0-5.0-4.0"},{"group":"hexagon_tri","fractal_assignment":["../images/ylw_slt.png","../images/blu_wht.png","../images/pnk_blu.png","../images/cyn_red.png","../images/org_blu.png","../images/gry_blk.png"],"mutagen_generator_assignment":[1,0],"goal":4,"start":1,"action_noise":0,"location_history":"[1,5,4]","action_history":"[1,0]","mutagen_history":"[0,1]","location_rts":"[2550,952]","trial_type":"fractal-mutation","trial_index":59,"time_elapsed":1333430,"internal_node_id":"0.0-5.0-5.0"},{"group":"hexagon_tri","fractal_assignment":["../images/ylw_slt.png","../images/blu_wht.png","../images/pnk_blu.png","../images/cyn_red.png","../images/org_blu.png","../images/gry_blk.png"],"mutagen_generator_assignment":[1,0],"goal":1,"start":4,"action_noise":0,"location_history":"[4,2,1]","action_history":"[1,0]","mutagen_history":"[0,1]","location_rts":"[1825,819]","trial_type":"fractal-mutation","trial_index":60,"time_elapsed":1342129,"internal_node_id":"0.0-5.0-6.0"},{"group":"hexagon_tri","fractal_assignment":["../images/ylw_slt.png","../images/blu_wht.png","../images/pnk_blu.png","../images/cyn_red.png","../images/org_blu.png","../images/gry_blk.png"],"mutagen_generator_assignment":[1,0],"goal":5,"start":1,"action_noise":0,"location_history":"[1,3,4,0,5]","action_history":"[0,1,0,0]","mutagen_history":"[1,0,1,1]","location_rts":"[1278,935,1198,1325]","trial_type":"fractal-mutation","trial_index":61,"time_elapsed":1354972,"internal_node_id":"0.0-5.0-7.0"},{"group":"hexagon_tri","fractal_assignment":["../images/ylw_slt.png","../images/blu_wht.png","../images/pnk_blu.png","../images/cyn_red.png","../images/org_blu.png","../images/gry_blk.png"],"mutagen_generator_assignment":[1,0],"goal":0,"start":5,"action_noise":0,"location_history":"[5,0]","action_history":"[1]","mutagen_history":"[0]","location_rts":"[1986]","trial_type":"fractal-mutation","trial_index":62,"time_elapsed":1361987,"internal_node_id":"0.0-5.0-8.0"},{"group":"hexagon_tri","fractal_assignment":["../images/ylw_slt.png","../images/blu_wht.png","../images/pnk_blu.png","../images/cyn_red.png","../images/org_blu.png","../images/gry_blk.png"],"mutagen_generator_assignment":[1,0],"goal":2,"start":0,"action_noise":0,"location_history":"[0,5,0,5,4,2]","action_history":"[0,1,0,0,1]","mutagen_history":"[1,0,1,1,0]","location_rts":"[1627,1567,683,770,805]","trial_type":"fractal-mutation","trial_index":63,"time_elapsed":1376570,"internal_node_id":"0.0-5.0-9.0"},{"group":"hexagon_tri","fractal_assignment":["../images/ylw_slt.png","../images/blu_wht.png","../images/pnk_blu.png","../images/cyn_red.png","../images/org_blu.png","../images/gry_blk.png"],"mutagen_generator_assignment":[1,0],"goal":3,"start":2,"action_noise":0,"location_history":"[2,1,5,0,5,4,2,3]","action_history":"[0,1,1,0,0,1,1]","mutagen_history":"[1,0,0,1,1,0,0]","location_rts":"[1161,2125,1224,595,1965,859,1450]","trial_type":"fractal-mutation","trial_index":64,"time_elapsed":1397133,"internal_node_id":"0.0-5.0-10.0"},{"group":"hexagon_tri","fractal_assignment":["../images/ylw_slt.png","../images/blu_wht.png","../images/pnk_blu.png","../images/cyn_red.png","../images/org_blu.png","../images/gry_blk.png"],"mutagen_generator_assignment":[1,0],"goal":0,"start":3,"action_noise":0,"location_history":"[3,4,0]","action_history":"[1,0]","mutagen_history":"[0,1]","location_rts":"[2259,1539]","trial_type":"fractal-mutation","trial_index":65,"time_elapsed":1406980,"internal_node_id":"0.0-5.0-11.0"},{"group":"hexagon_tri","fractal_assignment":["../images/ylw_slt.png","../images/blu_wht.png","../images/pnk_blu.png","../images/cyn_red.png","../images/org_blu.png","../images/gry_blk.png"],"mutagen_generator_assignment":[1,0],"goal":2,"start":0,"action_noise":0,"location_history":"[0,1,3,2]","action_history":"[1,0,0]","mutagen_history":"[0,1,1]","location_rts":"[1355,2764,2063]","trial_type":"fractal-mutation","trial_index":66,"time_elapsed":1420247,"internal_node_id":"0.0-5.0-12.0"},{"group":"hexagon_tri","fractal_assignment":["../images/ylw_slt.png","../images/blu_wht.png","../images/pnk_blu.png","../images/cyn_red.png","../images/org_blu.png","../images/gry_blk.png"],"mutagen_generator_assignment":[1,0],"goal":5,"start":2,"action_noise":0,"location_history":"[2,3,2,3,2,3,4,0,5]","action_history":"[1,0,1,0,1,1,0,0]","mutagen_history":"[0,1,0,1,0,0,1,1]","location_rts":"[1232,905,888,1770,1780,65,716,734]","trial_type":"fractal-mutation","trial_index":67,"time_elapsed":1440533,"internal_node_id":"0.0-5.0-13.0"},{"group":"hexagon_tri","fractal_assignment":["../images/ylw_slt.png","../images/blu_wht.png","../images/pnk_blu.png","../images/cyn_red.png","../images/org_blu.png","../images/gry_blk.png"],"mutagen_generator_assignment":[1,0],"goal":4,"start":5,"action_noise":0,"location_history":"[5,4]","action_history":"[0]","mutagen_history":"[1]","location_rts":"[1271]","trial_type":"fractal-mutation","trial_index":68,"time_elapsed":1446835,"internal_node_id":"0.0-5.0-14.0"},{"group":"hexagon_tri","fractal_assignment":["../images/ylw_slt.png","../images/blu_wht.png","../images/pnk_blu.png","../images/cyn_red.png","../images/org_blu.png","../images/gry_blk.png"],"mutagen_generator_assignment":[1,0],"goal":3,"start":4,"action_noise":0,"location_history":"[4,2,1,3]","action_history":"[1,0,0]","mutagen_history":"[0,1,1]","location_rts":"[1994,232,1324]","trial_type":"fractal-mutation","trial_index":69,"time_elapsed":1457470,"internal_node_id":"0.0-5.0-15.0"},{"group":"hexagon_tri","fractal_assignment":["../images/ylw_slt.png","../images/blu_wht.png","../images/pnk_blu.png","../images/cyn_red.png","../images/org_blu.png","../images/gry_blk.png"],"mutagen_generator_assignment":[1,0],"goal":1,"start":3,"action_noise":0,"location_history":"[3,4,0,5,0,1]","action_history":"[1,0,0,1,1]","mutagen_history":"[0,1,1,0,0]","location_rts":"[1753,136,1456,1021,1340]","trial_type":"fractal-mutation","trial_index":70,"time_elapsed":1472305,"internal_node_id":"0.0-5.0-16.0"},{"group":"hexagon_tri","fractal_assignment":["../images/ylw_slt.png","../images/blu_wht.png","../images/pnk_blu.png","../images/cyn_red.png","../images/org_blu.png","../images/gry_blk.png"],"mutagen_generator_assignment":[1,0],"goal":5,"start":1,"action_noise":0,"location_history":"[1,3,2,3,2,1,5]","action_history":"[0,0,1,0,0,1]","mutagen_history":"[1,1,0,1,1,0]","location_rts":"[1437,941,725,1014,780,51]","trial_type":"fractal-mutation","trial_index":71,"time_elapsed":1487417,"internal_node_id":"0.0-5.0-17.0"},{"group":"hexagon_tri","fractal_assignment":["../images/ylw_slt.png","../images/blu_wht.png","../images/pnk_blu.png","../images/cyn_red.png","../images/org_blu.png","../images/gry_blk.png"],"mutagen_generator_assignment":[1,0],"goal":4,"start":5,"action_noise":0,"location_history":"[5,0,5,0,1,3,2,3,2,1,3,4]","action_history":"[1,0,1,1,0,0,1,0,0,0,1]","mutagen_history":"[0,1,0,0,1,1,0,1,1,1,0]","location_rts":"[3021,1485,923,880,2151,1502,1740,911,1220,2762,839]","trial_type":"fractal-mutation","trial_index":72,"time_elapsed":1520141,"internal_node_id":"0.0-5.0-18.0"},{"group":"hexagon_tri","fractal_assignment":["../images/ylw_slt.png","../images/blu_wht.png","../images/pnk_blu.png","../images/cyn_red.png","../images/org_blu.png","../images/gry_blk.png"],"mutagen_generator_assignment":[1,0],"goal":0,"start":4,"action_noise":0,"location_history":"[4,2,3,2,3,2,3,2,1,5,0]","action_history":"[1,1,0,1,0,1,0,0,1,1]","mutagen_history":"[0,0,1,0,1,0,1,1,0,0]","location_rts":"[4019,927,1026,1298,1559,2294,1840,1925,1785,1031]","trial_type":"fractal-mutation","trial_index":73,"time_elapsed":1552106,"internal_node_id":"0.0-5.0-19.0"},{"group":"hexagon_tri","fractal_assignment":["../images/ylw_slt.png","../images/blu_wht.png","../images/pnk_blu.png","../images/cyn_red.png","../images/org_blu.png","../images/gry_blk.png"],"mutagen_generator_assignment":[1,0],"goal":1,"start":0,"action_noise":0,"location_history":"[0,5,0,1]","action_history":"[0,1,1]","mutagen_history":"[1,0,0]","location_rts":"[3565,21,1694]","trial_type":"fractal-mutation","trial_index":74,"time_elapsed":1564466,"internal_node_id":"0.0-5.0-20.0"},{"group":"hexagon_tri","fractal_assignment":["../images/ylw_slt.png","../images/blu_wht.png","../images/pnk_blu.png","../images/cyn_red.png","../images/org_blu.png","../images/gry_blk.png"],"mutagen_generator_assignment":[1,0],"goal":3,"start":1,"action_noise":0,"location_history":"[1,5,4,2,1,5,4,0,5,0,1,5,4,2,1,3]","action_history":"[1,0,1,0,1,0,0,0,1,1,1,0,1,0,0]","mutagen_history":"[0,1,0,1,0,1,1,1,0,0,0,1,0,1,1]","location_rts":"[2500,1070,656,972,1683,1113,509,997,1798,2078,1263,3340,2358,1952,161]","trial_type":"fractal-mutation","trial_index":75,"time_elapsed":1606308,"internal_node_id":"0.0-5.0-21.0"},{"group":"hexagon_tri","fractal_assignment":["../images/ylw_slt.png","../images/blu_wht.png","../images/pnk_blu.png","../images/cyn_red.png","../images/org_blu.png","../images/gry_blk.png"],"mutagen_generator_assignment":[1,0],"goal":2,"start":3,"action_noise":0,"location_history":"[3,2]","action_history":"[0]","mutagen_history":"[1]","location_rts":"[3363]","trial_type":"fractal-mutation","trial_index":76,"time_elapsed":1614701,"internal_node_id":"0.0-5.0-22.0"},{"group":"hexagon_tri","fractal_assignment":["../images/ylw_slt.png","../images/blu_wht.png","../images/pnk_blu.png","../images/cyn_red.png","../images/org_blu.png","../images/gry_blk.png"],"mutagen_generator_assignment":[1,0],"goal":0,"start":2,"action_noise":0,"location_history":"[2,3,2,3,4,0]","action_history":"[1,0,1,1,0]","mutagen_history":"[0,1,0,0,1]","location_rts":"[1065,64,1691,178,673]","trial_type":"fractal-mutation","trial_index":77,"time_elapsed":1627498,"internal_node_id":"0.0-5.0-23.0"},{"group":"hexagon_tri","fractal_assignment":["../images/ylw_slt.png","../images/blu_wht.png","../images/pnk_blu.png","../images/cyn_red.png","../images/org_blu.png","../images/gry_blk.png"],"mutagen_generator_assignment":[1,0],"goal":3,"start":0,"action_noise":0,"location_history":"[0,5,0,5,0,1,5,4,0,5,4,2,3]","action_history":"[0,1,0,1,1,1,0,0,0,0,1,1]","mutagen_history":"[1,0,1,0,0,0,1,1,1,1,0,0]","location_rts":"[4772,1683,1585,1066,1757,1776,32,176,596,204,60,79]","trial_type":"fractal-mutation","trial_index":78,"time_elapsed":1657604,"internal_node_id":"0.0-5.0-24.0"},{"group":"hexagon_tri","fractal_assignment":["../images/ylw_slt.png","../images/blu_wht.png","../images/pnk_blu.png","../images/cyn_red.png","../images/org_blu.png","../images/gry_blk.png"],"mutagen_generator_assignment":[1,0],"goal":1,"start":3,"action_noise":0,"location_history":"[3,4,0,1]","action_history":"[1,0,1]","mutagen_history":"[0,1,0]","location_rts":"[3161,1935,1006]","trial_type":"fractal-mutation","trial_index":79,"time_elapsed":1670786,"internal_node_id":"0.0-5.0-25.0"},{"group":"hexagon_tri","fractal_assignment":["../images/ylw_slt.png","../images/blu_wht.png","../images/pnk_blu.png","../images/cyn_red.png","../images/org_blu.png","../images/gry_blk.png"],"mutagen_generator_assignment":[1,0],"goal":2,"start":1,"action_noise":0,"location_history":"[1,5,4,2]","action_history":"[1,0,1]","mutagen_history":"[0,1,0]","location_rts":"[2571,673,2172]","trial_type":"fractal-mutation","trial_index":80,"time_elapsed":1683284,"internal_node_id":"0.0-5.0-26.0"},{"group":"hexagon_tri","fractal_assignment":["../images/ylw_slt.png","../images/blu_wht.png","../images/pnk_blu.png","../images/cyn_red.png","../images/org_blu.png","../images/gry_blk.png"],"mutagen_generator_assignment":[1,0],"goal":5,"start":2,"action_noise":0,"location_history":"[2,3,2,1,3,4,0,5]","action_history":"[1,0,0,0,1,0,0]","mutagen_history":"[0,1,1,1,0,1,1]","location_rts":"[1841,833,579,83,525,713,57]","trial_type":"fractal-mutation","trial_index":81,"time_elapsed":1699110,"internal_node_id":"0.0-5.0-27.0"},{"group":"hexagon_tri","fractal_assignment":["../images/ylw_slt.png","../images/blu_wht.png","../images/pnk_blu.png","../images/cyn_red.png","../images/org_blu.png","../images/gry_blk.png"],"mutagen_generator_assignment":[1,0],"goal":4,"start":5,"action_noise":0,"location_history":"[5,0,1,5,4]","action_history":"[1,1,1,0]","mutagen_history":"[0,0,0,1]","location_rts":"[2031,494,529,1060]","trial_type":"fractal-mutation","trial_index":82,"time_elapsed":1711331,"internal_node_id":"0.0-5.0-28.0"},{"group":"hexagon_tri","fractal_assignment":["../images/ylw_slt.png","../images/blu_wht.png","../images/pnk_blu.png","../images/cyn_red.png","../images/org_blu.png","../images/gry_blk.png"],"mutagen_generator_assignment":[1,0],"goal":5,"start":4,"action_noise":0,"location_history":"[4,2,1,3,2,3,2,3,2,1,3,4,0,5]","action_history":"[1,0,0,0,1,0,1,0,0,0,1,0,0]","mutagen_history":"[0,1,1,1,0,1,0,1,1,1,0,1,1]","location_rts":"[2042,981,668,1186,555,220,1067,6,1264,249,669,1195,2861]","trial_type":"fractal-mutation","trial_index":83,"time_elapsed":1741668,"internal_node_id":"0.0-5.0-29.0"},{"group":"hexagon_tri","fractal_assignment":["../images/ylw_slt.png","../images/blu_wht.png","../images/pnk_blu.png","../images/cyn_red.png","../images/org_blu.png","../images/gry_blk.png"],"mutagen_generator_assignment":[1,0],"goal":3,"start":5,"action_noise":0,"location_history":"[5,4,0,1,3]","action_history":"[0,0,1,0]","mutagen_history":"[1,1,0,1]","location_rts":"[1570,648,285,222]","trial_type":"fractal-mutation","trial_index":84,"time_elapsed":1752500,"internal_node_id":"0.0-5.0-30.0"},{"group":"hexagon_tri","fractal_assignment":["../images/ylw_slt.png","../images/blu_wht.png","../images/pnk_blu.png","../images/cyn_red.png","../images/org_blu.png","../images/gry_blk.png"],"mutagen_generator_assignment":[1,0],"goal":0,"start":3,"action_noise":0,"location_history":"[3,4,2,1,5,4,0]","action_history":"[1,1,0,1,0,0]","mutagen_history":"[0,0,1,0,1,1]","location_rts":"[3482,736,4250,1120,574,57]","trial_type":"fractal-mutation","trial_index":85,"time_elapsed":1772879,"internal_node_id":"0.0-5.0-31.0"},{"group":"hexagon_tri","fractal_assignment":["../images/ylw_slt.png","../images/blu_wht.png","../images/pnk_blu.png","../images/cyn_red.png","../images/org_blu.png","../images/gry_blk.png"],"mutagen_generator_assignment":[1,0],"goal":4,"start":0,"action_noise":0,"location_history":"[0,5,0,1,5,4]","action_history":"[0,1,1,1,0]","mutagen_history":"[1,0,0,0,1]","location_rts":"[2166,298,475,471,330]","trial_type":"fractal-mutation","trial_index":86,"time_elapsed":1785752,"internal_node_id":"0.0-5.0-32.0"},{"group":"hexagon_tri","fractal_assignment":["../images/ylw_slt.png","../images/blu_wht.png","../images/pnk_blu.png","../images/cyn_red.png","../images/org_blu.png","../images/gry_blk.png"],"mutagen_generator_assignment":[1,0],"goal":1,"start":4,"action_noise":0,"location_history":"[4,2,3,4,2,3,2,3,4,0,5,0,5,0,1]","action_history":"[1,1,1,1,1,0,1,1,0,0,1,0,1,1]","mutagen_history":"[0,0,0,0,0,1,0,0,1,1,0,1,0,0]","location_rts":"[1494,290,168,2406,629,79,577,651,1454,565,155,2168,762,106]","trial_type":"fractal-mutation","trial_index":87,"time_elapsed":1815607,"internal_node_id":"0.0-5.0-33.0"},{"group":"hexagon_tri","fractal_assignment":["../images/ylw_slt.png","../images/blu_wht.png","../images/pnk_blu.png","../images/cyn_red.png","../images/org_blu.png","../images/gry_blk.png"],"mutagen_generator_assignment":[1,0],"goal":2,"start":1,"action_noise":0,"location_history":"[1,5,0,1,5,4,0,1,5,4,2]","action_history":"[1,1,1,1,0,0,1,1,0,1]","mutagen_history":"[0,0,0,0,1,1,0,0,1,0]","location_rts":"[1999,135,397,1545,420,2806,574,622,1893,582]","trial_type":"fractal-mutation","trial_index":88,"time_elapsed":1840827,"internal_node_id":"0.0-5.0-34.0"},{"group":"hexagon_tri","fractal_assignment":["../images/ylw_slt.png","../images/blu_wht.png","../images/pnk_blu.png","../images/cyn_red.png","../images/org_blu.png","../images/gry_blk.png"],"mutagen_generator_assignment":[1,0],"goal":0,"start":2,"action_noise":0,"location_history":"[2,3,2,3,2,3,2,3,4,2,1,3,4,0]","action_history":"[1,0,1,0,1,0,1,1,1,0,0,1,0]","mutagen_history":"[0,1,0,1,0,1,0,0,0,1,1,0,1]","location_rts":"[1282,216,661,840,858,64,154,29,792,105,942,79,199]","trial_type":"fractal-mutation","trial_index":89,"time_elapsed":1864388,"internal_node_id":"0.0-5.0-35.0"},{"group":"hexagon_tri","fractal_assignment":["../images/ylw_slt.png","../images/blu_wht.png","../images/pnk_blu.png","../images/cyn_red.png","../images/org_blu.png","../images/gry_blk.png"],"mutagen_generator_assignment":[1,0],"goal":5,"start":0,"action_noise":0,"location_history":"[0,5]","action_history":"[0]","mutagen_history":"[1]","location_rts":"[3521]","trial_type":"fractal-mutation","trial_index":90,"time_elapsed":1872943,"internal_node_id":"0.0-5.0-36.0"},{"group":"hexagon_tri","fractal_assignment":["../images/ylw_slt.png","../images/blu_wht.png","../images/pnk_blu.png","../images/cyn_red.png","../images/org_blu.png","../images/gry_blk.png"],"mutagen_generator_assignment":[1,0],"goal":2,"start":5,"action_noise":0,"location_history":"[5,4,0,5,0,5,4,2]","action_history":"[0,0,0,1,0,0,1]","mutagen_history":"[1,1,1,0,1,1,0]","location_rts":"[1222,1059,1468,663,39,680,954]","trial_type":"fractal-mutation","trial_index":91,"time_elapsed":1890215,"internal_node_id":"0.0-5.0-37.0"},{"group":"hexagon_tri","fractal_assignment":["../images/ylw_slt.png","../images/blu_wht.png","../images/pnk_blu.png","../images/cyn_red.png","../images/org_blu.png","../images/gry_blk.png"],"mutagen_generator_assignment":[1,0],"goal":1,"start":2,"action_noise":0,"location_history":"[2,1]","action_history":"[0]","mutagen_history":"[1]","location_rts":"[895]","trial_type":"fractal-mutation","trial_index":92,"time_elapsed":1896145,"internal_node_id":"0.0-5.0-38.0"},{"group":"hexagon_tri","fractal_assignment":["../images/ylw_slt.png","../images/blu_wht.png","../images/pnk_blu.png","../images/cyn_red.png","../images/org_blu.png","../images/gry_blk.png"],"mutagen_generator_assignment":[1,0],"goal":4,"start":1,"action_noise":0,"location_history":"[1,5,4]","action_history":"[1,0]","mutagen_history":"[0,1]","location_rts":"[1638,16]","trial_type":"fractal-mutation","trial_index":93,"time_elapsed":1903851,"internal_node_id":"0.0-5.0-39.0"},{"group":"hexagon_tri","fractal_assignment":["../images/ylw_slt.png","../images/blu_wht.png","../images/pnk_blu.png","../images/cyn_red.png","../images/org_blu.png","../images/gry_blk.png"],"mutagen_generator_assignment":[1,0],"goal":3,"start":4,"action_noise":0,"location_history":"[4,0,1,5,4,2,3]","action_history":"[0,1,1,0,1,1]","mutagen_history":"[1,0,0,1,0,0]","location_rts":"[1741,198,662,752,1390,684]","trial_type":"fractal-mutation","trial_index":94,"time_elapsed":1919427,"internal_node_id":"0.0-5.0-40.0"},{"group":"hexagon_tri","fractal_assignment":["../images/ylw_slt.png","../images/blu_wht.png","../images/pnk_blu.png","../images/cyn_red.png","../images/org_blu.png","../images/gry_blk.png"],"mutagen_generator_assignment":[1,0],"goal":5,"start":3,"action_noise":0,"location_history":"[3,4,2,1,3,2,1,5]","action_history":"[1,1,0,0,0,0,1]","mutagen_history":"[0,0,1,1,1,1,0]","location_rts":"[2380,1439,303,317,35,419,25]","trial_type":"fractal-mutation","trial_index":95,"time_elapsed":1935536,"internal_node_id":"0.0-5.0-41.0"},{"group":"hexagon_tri","fractal_assignment":["../images/ylw_slt.png","../images/blu_wht.png","../images/pnk_blu.png","../images/cyn_red.png","../images/org_blu.png","../images/gry_blk.png"],"mutagen_generator_assignment":[1,0],"goal":3,"start":5,"action_noise":0,"location_history":"[5,4,2,1,3]","action_history":"[0,1,0,0]","mutagen_history":"[1,0,1,1]","location_rts":"[1918,1228,14,129]","trial_type":"fractal-mutation","trial_index":96,"time_elapsed":1946927,"internal_node_id":"0.0-5.0-42.0"},{"group":"hexagon_tri","fractal_assignment":["../images/ylw_slt.png","../images/blu_wht.png","../images/pnk_blu.png","../images/cyn_red.png","../images/org_blu.png","../images/gry_blk.png"],"mutagen_generator_assignment":[1,0],"goal":0,"start":3,"action_noise":0,"location_history":"[3,4,0]","action_history":"[1,0]","mutagen_history":"[0,1]","location_rts":"[2135,39]","trial_type":"fractal-mutation","trial_index":97,"time_elapsed":1955155,"internal_node_id":"0.0-5.0-43.0"},{"group":"hexagon_tri","fractal_assignment":["../images/ylw_slt.png","../images/blu_wht.png","../images/pnk_blu.png","../images/cyn_red.png","../images/org_blu.png","../images/gry_blk.png"],"mutagen_generator_assignment":[1,0],"goal":2,"start":0,"action_noise":0,"location_history":"[0,5,4,2]","action_history":"[0,0,1]","mutagen_history":"[1,1,0]","location_rts":"[3275,198,18]","trial_type":"fractal-mutation","trial_index":98,"time_elapsed":1965729,"internal_node_id":"0.0-5.0-44.0"},{"group":"hexagon_tri","fractal_assignment":["../images/ylw_slt.png","../images/blu_wht.png","../images/pnk_blu.png","../images/cyn_red.png","../images/org_blu.png","../images/gry_blk.png"],"mutagen_generator_assignment":[1,0],"goal":4,"start":2,"action_noise":0,"location_history":"[2,3,2,3,4]","action_history":"[1,0,1,1]","mutagen_history":"[0,1,0,0]","location_rts":"[2957,216,957,991]","trial_type":"fractal-mutation","trial_index":99,"time_elapsed":1978950,"internal_node_id":"0.0-5.0-45.0"},{"group":"hexagon_tri","fractal_assignment":["../images/ylw_slt.png","../images/blu_wht.png","../images/pnk_blu.png","../images/cyn_red.png","../images/org_blu.png","../images/gry_blk.png"],"mutagen_generator_assignment":[1,0],"goal":1,"start":4,"action_noise":0,"location_history":"[4,0,1]","action_history":"[0,1]","mutagen_history":"[1,0]","location_rts":"[807,1299]","trial_type":"fractal-mutation","trial_index":100,"time_elapsed":1987120,"internal_node_id":"0.0-5.0-46.0"},{"group":"hexagon_tri","fractal_assignment":["../images/ylw_slt.png","../images/blu_wht.png","../images/pnk_blu.png","../images/cyn_red.png","../images/org_blu.png","../images/gry_blk.png"],"mutagen_generator_assignment":[1,0],"goal":4,"start":1,"action_noise":0,"location_history":"[1,5,0,1,3,4]","action_history":"[1,1,1,0,1]","mutagen_history":"[0,0,0,1,0]","location_rts":"[1461,762,24,49,116]","trial_type":"fractal-mutation","trial_index":101,"time_elapsed":1998668,"internal_node_id":"0.0-5.0-47.0"},{"group":"hexagon_tri","fractal_assignment":["../images/ylw_slt.png","../images/blu_wht.png","../images/pnk_blu.png","../images/cyn_red.png","../images/org_blu.png","../images/gry_blk.png"],"mutagen_generator_assignment":[1,0],"goal":3,"start":4,"action_noise":0,"location_history":"[4,2,3]","action_history":"[1,1]","mutagen_history":"[0,0]","location_rts":"[1681,437]","trial_type":"fractal-mutation","trial_index":102,"time_elapsed":2006842,"internal_node_id":"0.0-5.0-48.0"},{"group":"hexagon_tri","fractal_assignment":["../images/ylw_slt.png","../images/blu_wht.png","../images/pnk_blu.png","../images/cyn_red.png","../images/org_blu.png","../images/gry_blk.png"],"mutagen_generator_assignment":[1,0],"goal":5,"start":3,"action_noise":0,"location_history":"[3,4,2,1,3,2,3,2,1,5]","action_history":"[1,1,0,0,0,1,0,0,1]","mutagen_history":"[0,0,1,1,1,0,1,1,0]","location_rts":"[1667,926,439,31,1150,31,328,867,665]","trial_type":"fractal-mutation","trial_index":103,"time_elapsed":2026203,"internal_node_id":"0.0-5.0-49.0"},{"view_history":"[{\"page_index\":0,\"viewing_time\":13892}]","rt":13892,"trial_type":"instructions","trial_index":104,"time_elapsed":2041096,"internal_node_id":"0.0-6.0"},{"rt":4053,"responses":"{\"Q0\":\"\"}","trial_type":"survey-text","trial_index":105,"time_elapsed":2046153,"internal_node_id":"0.0-7.0"}]