[{"view_history":"[{\"page_index\":0,\"viewing_time\":1922},{\"page_index\":1,\"viewing_time\":8727},{\"page_index\":2,\"viewing_time\":28379},{\"page_index\":3,\"viewing_time\":3204}]","rt":42232,"trial_type":"instructions","trial_index":0,"time_elapsed":42234,"internal_node_id":"0.0-0.0"},{"view_history":"[{\"page_index\":0,\"viewing_time\":1139},{\"page_index\":1,\"viewing_time\":18553}]","rt":19692,"trial_type":"instructions","trial_index":1,"time_elapsed":62927,"internal_node_id":"0.0-1.0"},{"group":"hexagon_bi","room_assignment":["red","grey","green","yellow","blue","purple"],"door_color_assignment":["black","white"],"door_generator_assignment":[0,1],"goal":4,"start":0,"action_noise":0.2,"location_history":"[0,5,4]","action_history":"[1,1]","door_history":"[1,1]","location_rts":"[1310,952]","trial_type":"two-door-navigation","trial_index":2,"time_elapsed":70745,"internal_node_id":"0.0-2.0-0.0"},{"group":"hexagon_bi","room_assignment":["red","grey","green","yellow","blue","purple"],"door_color_assignment":["black","white"],"door_generator_assignment":[0,1],"goal":3,"start":4,"action_noise":0.2,"location_history":"[4,5,0,5,4,5,4,5,4,5,4,5,4,5,4,5,0,5,4,5,4,5,0,1,0,5,4,5,0,1,2,1,2,3]","action_history":"[1,0,0,0,1,1,1,1,0,0,0,1,0,0,1,1,0,1,1,1,1,0,1,1,1,1,0,0,1,0,0,0,1]","door_history":"[1,0,0,0,1,1,1,1,0,0,0,1,0,0,1,1,0,1,1,1,1,0,1,1,1,1,0,0,1,0,0,0,1]","location_rts":"[1578,494,763,519,1549,1294,365,343,293,676,475,572,2188,899,901,481,1749,834,394,1096,393,775,1233,1669,1737,1206,894,922,1486,690,1867,2000,409]","trial_type":"two-door-navigation","trial_index":3,"time_elapsed":140710,"internal_node_id":"0.0-2.0-1.0"},{"group":"hexagon_bi","room_assignment":["red","grey","green","yellow","blue","purple"],"door_color_assignment":["black","white"],"door_generator_assignment":[0,1],"goal":5,"start":3,"action_noise":0.2,"location_history":"[3,2,3,4,3,2,1,2,3,2,1,2,1,0,1,0,5]","action_history":"[1,1,1,0,1,1,1,1,1,0,0,0,1,0,1,1]","door_history":"[1,1,1,0,1,1,1,1,1,0,0,0,1,0,1,1]","location_rts":"[3046,425,484,114,1068,460,2132,598,614,1793,526,1205,863,1173,1124,386]","trial_type":"two-door-navigation","trial_index":4,"time_elapsed":176576,"internal_node_id":"0.0-2.0-2.0"},{"group":"hexagon_bi","room_assignment":["red","grey","green","yellow","blue","purple"],"door_color_assignment":["black","white"],"door_generator_assignment":[0,1],"goal":2,"start":5,"action_noise":0.2,"location_history":"[5,0,1,2]","action_history":"[0,1,0]","door_history":"[0,1,0]","location_rts":"[2773,1727,1114]","trial_type":"two-door-navigation","trial_index":5,"time_elapsed":188755,"internal_node_id":"0.0-2.0-3.0"},{"group":"hexagon_bi","room_assignment":["red","grey","green","yellow","blue","purple"],"door_color_assignment":["black","white"],"door_generator_assignment":[0,1],"goal":1,"start":2,"action_noise":0.2,"location_history":"[2,3,4,3,2,1]","action_history":"[1,0,0,1,0]","door_history":"[1,0,0,1,0]","location_rts":"[3690,912,796,1119,1597]","trial_type":"two-door-navigation","trial_index":6,"time_elapsed":205482,"internal_node_id":"0.0-2.0-4.0"},{"group":"hexagon_bi","room_assignment":["red","grey","green","yellow","blue","purple"],"door_color_assignment":["black","white"],"door_generator_assignment":[0,1],"goal":4,"start":1,"action_noise":0.2,"location_history":"[1,0,5,0,1,0,1,0,5,4]","action_history":"[1,1,0,1,1,1,0,0,1]","door_history":"[1,1,0,1,1,1,0,0,1]","location_rts":"[1030,435,1549,685,275,387,866,873,663]","trial_type":"two-door-navigation","trial_index":7,"time_elapsed":224921,"internal_node_id":"0.0-2.0-5.0"},{"group":"hexagon_bi","room_assignment":["red","grey","green","yellow","blue","purple"],"door_color_assignment":["black","white"],"door_generator_assignment":[0,1],"goal":1,"start":4,"action_noise":0.2,"location_history":"[4,3,4,5,0,1]","action_history":"[0,0,0,0,1]","door_history":"[0,0,0,0,1]","location_rts":"[1402,932,915,930,1412]","trial_type":"two-door-navigation","trial_index":8,"time_elapsed":239117,"internal_node_id":"0.0-2.0-6.0"},{"group":"hexagon_bi","room_assignment":["red","grey","green","yellow","blue","purple"],"door_color_assignment":["black","white"],"door_generator_assignment":[0,1],"goal":5,"start":1,"action_noise":0.2,"location_history":"[1,2,1,0,1,2,1,2,3,2,3,4,5]","action_history":"[1,0,1,1,0,0,0,1,1,1,0,1]","door_history":"[1,0,1,1,0,0,0,1,1,1,0,1]","location_rts":"[1025,949,754,339,1514,1039,667,461,711,981,1157,1428]","trial_type":"two-door-navigation","trial_index":9,"time_elapsed":265896,"internal_node_id":"0.0-2.0-7.0"},{"group":"hexagon_bi","room_assignment":["red","grey","green","yellow","blue","purple"],"door_color_assignment":["black","white"],"door_generator_assignment":[0,1],"goal":0,"start":5,"action_noise":0.2,"location_history":"[5,4,3,2,3,4,5,0]","action_history":"[0,1,1,1,0,0,0]","door_history":"[0,1,1,1,0,0,0]","location_rts":"[4838,7883,455,1076,459,592,795]","trial_type":"two-door-navigation","trial_index":10,"time_elapsed":292632,"internal_node_id":"0.0-2.0-8.0"},{"group":"hexagon_bi","room_assignment":["red","grey","green","yellow","blue","purple"],"door_color_assignment":["black","white"],"door_generator_assignment":[0,1],"goal":2,"start":0,"action_noise":0.2,"location_history":"[0,5,0,5,4,3,2]","action_history":"[1,0,0,1,0,1]","door_history":"[1,0,0,1,0,1]","location_rts":"[723,554,1186,847,880,2044]","trial_type":"two-door-navigation","trial_index":11,"time_elapsed":308476,"internal_node_id":"0.0-2.0-9.0"},{"group":"hexagon_bi","room_assignment":["red","grey","green","yellow","blue","purple"],"door_color_assignment":["black","white"],"door_generator_assignment":[0,1],"goal":3,"start":2,"action_noise":0.2,"location_history":"[2,3]","action_history":"[1]","door_history":"[1]","location_rts":"[1081]","trial_type":"two-door-navigation","trial_index":12,"time_elapsed":314077,"internal_node_id":"0.0-2.0-10.0"},{"group":"hexagon_bi","room_assignment":["red","grey","green","yellow","blue","purple"],"door_color_assignment":["black","white"],"door_generator_assignment":[0,1],"goal":0,"start":3,"action_noise":0.2,"location_history":"[3,2,1,0]","action_history":"[0,0,1]","door_history":"[0,0,1]","location_rts":"[2077,1126,949]","trial_type":"two-door-navigation","trial_index":13,"time_elapsed":324798,"internal_node_id":"0.0-2.0-11.0"},{"group":"hexagon_bi","room_assignment":["red","grey","green","yellow","blue","purple"],"door_color_assignment":["black","white"],"door_generator_assignment":[0,1],"goal":2,"start":0,"action_noise":0.2,"location_history":"[0,1,2]","action_history":"[1,0]","door_history":"[1,0]","location_rts":"[8574,1063]","trial_type":"two-door-navigation","trial_index":14,"time_elapsed":339982,"internal_node_id":"0.0-2.0-12.0"},{"group":"hexagon_bi","room_assignment":["red","grey","green","yellow","blue","purple"],"door_color_assignment":["black","white"],"door_generator_assignment":[0,1],"goal":5,"start":2,"action_noise":0.2,"location_history":"[2,3,4,5]","action_history":"[1,0,1]","door_history":"[1,0,1]","location_rts":"[3044,784,1190]","trial_type":"two-door-navigation","trial_index":15,"time_elapsed":351569,"internal_node_id":"0.0-2.0-13.0"},{"group":"hexagon_bi","room_assignment":["red","grey","green","yellow","blue","purple"],"door_color_assignment":["black","white"],"door_generator_assignment":[0,1],"goal":4,"start":5,"action_noise":0.2,"location_history":"[5,0,1,0,1,2,1,2,3,2,1,2,3,2,3,2,3,4]","action_history":"[1,1,1,0,0,0,0,1,1,0,0,1,1,1,1,1,0]","door_history":"[1,1,1,0,0,0,0,1,1,0,0,1,1,1,1,1,0]","location_rts":"[2893,393,569,1053,633,878,684,391,1262,1416,410,411,538,427,337,1108,248]","trial_type":"two-door-navigation","trial_index":16,"time_elapsed":386067,"internal_node_id":"0.0-2.0-14.0"},{"group":"hexagon_bi","room_assignment":["red","grey","green","yellow","blue","purple"],"door_color_assignment":["black","white"],"door_generator_assignment":[0,1],"goal":3,"start":4,"action_noise":0.2,"location_history":"[4,5,4,3]","action_history":"[1,0,0]","door_history":"[1,0,0]","location_rts":"[1374,794,766]","trial_type":"two-door-navigation","trial_index":17,"time_elapsed":395575,"internal_node_id":"0.0-2.0-15.0"},{"group":"hexagon_bi","room_assignment":["red","grey","green","yellow","blue","purple"],"door_color_assignment":["black","white"],"door_generator_assignment":[0,1],"goal":1,"start":3,"action_noise":0.2,"location_history":"[3,2,1]","action_history":"[1,0]","door_history":"[1,0]","location_rts":"[2142,558]","trial_type":"two-door-navigation","trial_index":18,"time_elapsed":403823,"internal_node_id":"0.0-2.0-16.0"},{"group":"hexagon_bi","room_assignment":["red","grey","green","yellow","blue","purple"],"door_color_assignment":["black","white"],"door_generator_assignment":[0,1],"goal":5,"start":1,"action_noise":0.2,"location_history":"[1,2,3,2,1,2,1,2,1,2,3,2,1,2,3,2,3,2,1,0,5]","action_history":"[0,1,0,0,1,1,0,0,0,1,0,1,0,1,1,1,1,1,0,0]","door_history":"[0,1,0,0,1,1,0,0,0,1,0,1,0,1,1,1,1,1,0,0]","location_rts":"[1692,733,1350,519,2098,754,430,594,1085,140,1730,1032,1147,452,313,683,686,507,475,16980]","trial_type":"two-door-navigation","trial_index":19,"time_elapsed":461146,"internal_node_id":"0.0-2.0-17.0"},{"group":"hexagon_bi","room_assignment":["red","grey","green","yellow","blue","purple"],"door_color_assignment":["black","white"],"door_generator_assignment":[0,1],"goal":4,"start":5,"action_noise":0.2,"location_history":"[5,0,5,4]","action_history":"[0,0,1]","door_history":"[0,0,1]","location_rts":"[671,1954,601]","trial_type":"two-door-navigation","trial_index":20,"time_elapsed":470934,"internal_node_id":"0.0-2.0-18.0"},{"group":"hexagon_bi","room_assignment":["red","grey","green","yellow","blue","purple"],"door_color_assignment":["black","white"],"door_generator_assignment":[0,1],"goal":0,"start":4,"action_noise":0.2,"location_history":"[4,5,4,3,4,5,0]","action_history":"[1,1,0,0,1,1]","door_history":"[1,1,0,0,1,1]","location_rts":"[1038,378,443,500,817,445]","trial_type":"two-door-navigation","trial_index":21,"time_elapsed":484168,"internal_node_id":"0.0-2.0-19.0"},{"group":"hexagon_bi","room_assignment":["red","grey","green","yellow","blue","purple"],"door_color_assignment":["black","white"],"door_generator_assignment":[0,1],"goal":1,"start":0,"action_noise":0.2,"location_history":"[0,5,0,5,4,3,2,3,2,3,4,3,4,5,0,5,4,5,4,3,2,3,4,3,4,5,0,1]","action_history":"[0,0,1,1,0,0,1,1,1,0,0,0,1,0,1,1,1,1,0,0,1,1,0,0,0,0,1]","door_history":"[0,0,1,1,0,0,1,1,1,0,0,0,1,0,1,1,1,1,0,0,1,1,0,0,0,0,1]","location_rts":"[887,434,391,474,423,491,389,393,467,450,489,449,492,453,1606,478,570,398,251,888,990,580,388,427,829,689,1397]","trial_type":"two-door-navigation","trial_index":22,"time_elapsed":531368,"internal_node_id":"0.0-2.0-20.0"},{"group":"hexagon_bi","room_assignment":["red","grey","green","yellow","blue","purple"],"door_color_assignment":["black","white"],"door_generator_assignment":[0,1],"goal":3,"start":1,"action_noise":0.2,"location_history":"[1,0,5,0,5,4,3]","action_history":"[1,0,0,0,1,0]","door_history":"[1,0,0,0,1,0]","location_rts":"[998,504,401,363,804,850]","trial_type":"two-door-navigation","trial_index":23,"time_elapsed":544904,"internal_node_id":"0.0-2.0-21.0"},{"group":"hexagon_bi","room_assignment":["red","grey","green","yellow","blue","purple"],"door_color_assignment":["black","white"],"door_generator_assignment":[0,1],"goal":2,"start":3,"action_noise":0.2,"location_history":"[3,2]","action_history":"[1]","door_history":"[1]","location_rts":"[2899]","trial_type":"two-door-navigation","trial_index":24,"time_elapsed":552329,"internal_node_id":"0.0-2.0-22.0"},{"group":"hexagon_bi","room_assignment":["red","grey","green","yellow","blue","purple"],"door_color_assignment":["black","white"],"door_generator_assignment":[0,1],"goal":0,"start":2,"action_noise":0.2,"location_history":"[2,1,0]","action_history":"[0,0]","door_history":"[0,0]","location_rts":"[2985,1451]","trial_type":"two-door-navigation","trial_index":25,"time_elapsed":562328,"internal_node_id":"0.0-2.0-23.0"},{"group":"hexagon_bi","room_assignment":["red","grey","green","yellow","blue","purple"],"door_color_assignment":["black","white"],"door_generator_assignment":[0,1],"goal":3,"start":0,"action_noise":0.2,"location_history":"[0,1,2,1,0,1,0,1,2,1,0,1,2,3]","action_history":"[1,0,0,1,1,1,0,0,1,1,0,0,1]","door_history":"[1,0,0,1,1,1,0,0,1,1,0,0,1]","location_rts":"[1818,801,495,479,420,483,382,1189,477,422,1240,988,434]","trial_type":"two-door-navigation","trial_index":26,"time_elapsed":588712,"internal_node_id":"0.0-2.0-24.0"},{"group":"hexagon_bi","room_assignment":["red","grey","green","yellow","blue","purple"],"door_color_assignment":["black","white"],"door_generator_assignment":[0,1],"goal":1,"start":3,"action_noise":0.2,"location_history":"[3,4,3,4,5,4,3,2,1]","action_history":"[0,0,0,1,0,0,1,0]","door_history":"[0,0,0,1,0,0,1,0]","location_rts":"[1259,427,409,155,1203,711,1261,667]","trial_type":"two-door-navigation","trial_index":27,"time_elapsed":606480,"internal_node_id":"0.0-2.0-25.0"},{"group":"hexagon_bi","room_assignment":["red","grey","green","yellow","blue","purple"],"door_color_assignment":["black","white"],"door_generator_assignment":[0,1],"goal":2,"start":1,"action_noise":0.2,"location_history":"[1,0,1,0,1,2]","action_history":"[0,1,1,1,0]","door_history":"[0,1,1,1,0]","location_rts":"[942,356,368,417,234]","trial_type":"two-door-navigation","trial_index":28,"time_elapsed":617408,"internal_node_id":"0.0-2.0-26.0"},{"group":"hexagon_bi","room_assignment":["red","grey","green","yellow","blue","purple"],"door_color_assignment":["black","white"],"door_generator_assignment":[0,1],"goal":5,"start":2,"action_noise":0.2,"location_history":"[2,1,0,1,0,1,0,5]","action_history":"[1,1,0,1,1,1,0]","door_history":"[1,1,0,1,1,1,0]","location_rts":"[890,418,774,621,228,70,161]","trial_type":"two-door-navigation","trial_index":29,"time_elapsed":631218,"internal_node_id":"0.0-2.0-27.0"},{"group":"hexagon_bi","room_assignment":["red","grey","green","yellow","blue","purple"],"door_color_assignment":["black","white"],"door_generator_assignment":[0,1],"goal":4,"start":5,"action_noise":0.2,"location_history":"[5,4]","action_history":"[1]","door_history":"[1]","location_rts":"[1124]","trial_type":"two-door-navigation","trial_index":30,"time_elapsed":636866,"internal_node_id":"0.0-2.0-28.0"},{"group":"hexagon_bi","room_assignment":["red","grey","green","yellow","blue","purple"],"door_color_assignment":["black","white"],"door_generator_assignment":[0,1],"goal":5,"start":4,"action_noise":0.2,"location_history":"[4,3,4,5]","action_history":"[0,1,0]","door_history":"[0,1,0]","location_rts":"[2801,1539,1277]","trial_type":"two-door-navigation","trial_index":31,"time_elapsed":649052,"internal_node_id":"0.0-2.0-29.0"},{"group":"hexagon_bi","room_assignment":["red","grey","green","yellow","blue","purple"],"door_color_assignment":["black","white"],"door_generator_assignment":[0,1],"goal":3,"start":5,"action_noise":0.2,"location_history":"[5,0,1,2,1,0,1,0,5,0,1,0,5,4,5,4,3]","action_history":"[1,0,0,1,1,1,0,0,0,0,1,0,1,1,1,0]","door_history":"[1,0,0,1,1,1,0,0,0,0,1,0,1,1,1,0]","location_rts":"[1640,491,640,414,452,1407,437,374,836,634,288,576,529,1190,544,513]","trial_type":"two-door-navigation","trial_index":32,"time_elapsed":679832,"internal_node_id":"0.0-2.0-30.0"},{"group":"hexagon_bi","room_assignment":["red","grey","green","yellow","blue","purple"],"door_color_assignment":["black","white"],"door_generator_assignment":[0,1],"goal":0,"start":3,"action_noise":0.2,"location_history":"[3,4,5,4,5,0]","action_history":"[0,1,1,1,0]","door_history":"[0,1,1,1,0]","location_rts":"[1283,1000,432,400,55]","trial_type":"two-door-navigation","trial_index":33,"time_elapsed":691602,"internal_node_id":"0.0-2.0-31.0"},{"group":"hexagon_bi","room_assignment":["red","grey","green","yellow","blue","purple"],"door_color_assignment":["black","white"],"door_generator_assignment":[0,1],"goal":4,"start":0,"action_noise":0.2,"location_history":"[0,5,4]","action_history":"[0,1]","door_history":"[0,1]","location_rts":"[3865,682]","trial_type":"two-door-navigation","trial_index":34,"time_elapsed":701699,"internal_node_id":"0.0-2.0-32.0"},{"group":"hexagon_bi","room_assignment":["red","grey","green","yellow","blue","purple"],"door_color_assignment":["black","white"],"door_generator_assignment":[0,1],"goal":1,"start":4,"action_noise":0.2,"location_history":"[4,5,4,3,2,1]","action_history":"[0,1,0,1,0]","door_history":"[0,1,0,1,0]","location_rts":"[2279,435,555,1931,1179]","trial_type":"two-door-navigation","trial_index":35,"time_elapsed":716680,"internal_node_id":"0.0-2.0-33.0"},{"group":"hexagon_bi","room_assignment":["red","grey","green","yellow","blue","purple"],"door_color_assignment":["black","white"],"door_generator_assignment":[0,1],"goal":2,"start":1,"action_noise":0.2,"location_history":"[1,0,1,2]","action_history":"[1,1,0]","door_history":"[1,1,0]","location_rts":"[1395,601,718]","trial_type":"two-door-navigation","trial_index":36,"time_elapsed":725973,"internal_node_id":"0.0-2.0-34.0"},{"group":"hexagon_bi","room_assignment":["red","grey","green","yellow","blue","purple"],"door_color_assignment":["black","white"],"door_generator_assignment":[0,1],"goal":0,"start":2,"action_noise":0.2,"location_history":"[2,1,0]","action_history":"[0,1]","door_history":"[0,1]","location_rts":"[2991,597]","trial_type":"two-door-navigation","trial_index":37,"time_elapsed":735104,"internal_node_id":"0.0-2.0-35.0"},{"group":"hexagon_bi","room_assignment":["red","grey","green","yellow","blue","purple"],"door_color_assignment":["black","white"],"door_generator_assignment":[0,1],"goal":5,"start":0,"action_noise":0.2,"location_history":"[0,5]","action_history":"[1]","door_history":"[1]","location_rts":"[1856]","trial_type":"two-door-navigation","trial_index":38,"time_elapsed":741484,"internal_node_id":"0.0-2.0-36.0"},{"group":"hexagon_bi","room_assignment":["red","grey","green","yellow","blue","purple"],"door_color_assignment":["black","white"],"door_generator_assignment":[0,1],"goal":2,"start":5,"action_noise":0.2,"location_history":"[5,0,1,2]","action_history":"[0,1,0]","door_history":"[0,1,0]","location_rts":"[3662,655,863]","trial_type":"two-door-navigation","trial_index":39,"time_elapsed":753219,"internal_node_id":"0.0-2.0-37.0"},{"group":"hexagon_bi","room_assignment":["red","grey","green","yellow","blue","purple"],"door_color_assignment":["black","white"],"door_generator_assignment":[0,1],"goal":1,"start":2,"action_noise":0.2,"location_history":"[2,3,4,3,2,1]","action_history":"[1,1,0,1,0]","door_history":"[1,1,0,1,0]","location_rts":"[755,480,676,817,672]","trial_type":"two-door-navigation","trial_index":40,"time_elapsed":765210,"internal_node_id":"0.0-2.0-38.0"},{"group":"hexagon_bi","room_assignment":["red","grey","green","yellow","blue","purple"],"door_color_assignment":["black","white"],"door_generator_assignment":[0,1],"goal":4,"start":1,"action_noise":0.2,"location_history":"[1,0,5,0,1,0,5,0,5,4]","action_history":"[1,1,0,1,1,0,0,0,1]","door_history":"[1,1,0,1,1,0,0,0,1]","location_rts":"[1555,238,958,431,159,654,824,1102,873]","trial_type":"two-door-navigation","trial_index":41,"time_elapsed":784666,"internal_node_id":"0.0-2.0-39.0"},{"group":"hexagon_bi","room_assignment":["red","grey","green","yellow","blue","purple"],"door_color_assignment":["black","white"],"door_generator_assignment":[0,1],"goal":3,"start":4,"action_noise":0.2,"location_history":"[4,5,4,5,0,1,2,1,2,3]","action_history":"[0,1,0,0,1,0,0,0,1]","door_history":"[0,1,0,0,1,0,0,0,1]","location_rts":"[1016,555,514,221,988,1266,469,496,62]","trial_type":"two-door-navigation","trial_index":42,"time_elapsed":802932,"internal_node_id":"0.0-2.0-40.0"},{"group":"hexagon_bi","room_assignment":["red","grey","green","yellow","blue","purple"],"door_color_assignment":["black","white"],"door_generator_assignment":[0,1],"goal":5,"start":3,"action_noise":0.2,"location_history":"[3,4,5]","action_history":"[0,1]","door_history":"[0,1]","location_rts":"[1501,480]","trial_type":"two-door-navigation","trial_index":43,"time_elapsed":810460,"internal_node_id":"0.0-2.0-41.0"},{"group":"hexagon_bi","room_assignment":["red","grey","green","yellow","blue","purple"],"door_color_assignment":["black","white"],"door_generator_assignment":[0,1],"goal":3,"start":5,"action_noise":0.2,"location_history":"[5,0,1,0,1,2,1,0,1,2,1,0,5,0,1,2,3]","action_history":"[0,1,1,0,0,1,1,1,1,0,1,0,0,0,0,1]","door_history":"[0,1,1,0,0,1,1,1,1,0,1,0,0,0,0,1]","location_rts":"[1663,494,392,461,573,439,648,1300,607,1560,751,543,451,614,646,250]","trial_type":"two-door-navigation","trial_index":44,"time_elapsed":841663,"internal_node_id":"0.0-2.0-42.0"},{"group":"hexagon_bi","room_assignment":["red","grey","green","yellow","blue","purple"],"door_color_assignment":["black","white"],"door_generator_assignment":[0,1],"goal":0,"start":3,"action_noise":0.2,"location_history":"[3,2,3,2,3,4,3,4,3,4,3,2,3,4,3,2,3,4,3,2,3,2,1,2,1,0]","action_history":"[1,1,0,0,1,0,0,1,0,0,1,1,1,0,1,0,0,0,1,1,1,0,0,1,1]","door_history":"[1,1,0,0,1,0,0,1,0,0,1,1,1,0,1,0,0,0,1,1,1,0,0,1,1]","location_rts":"[2122,419,636,500,963,1532,682,828,3483,696,871,619,772,161,367,475,736,766,839,459,1543,890,1067,935,1334]","trial_type":"two-door-navigation","trial_index":45,"time_elapsed":894355,"internal_node_id":"0.0-2.0-43.0"},{"group":"hexagon_bi","room_assignment":["red","grey","green","yellow","blue","purple"],"door_color_assignment":["black","white"],"door_generator_assignment":[0,1],"goal":2,"start":0,"action_noise":0.2,"location_history":"[0,1,0,1,2]","action_history":"[0,1,1,0]","door_history":"[0,1,1,0]","location_rts":"[2737,996,693,1310]","trial_type":"two-door-navigation","trial_index":46,"time_elapsed":907672,"internal_node_id":"0.0-2.0-44.0"},{"group":"hexagon_bi","room_assignment":["red","grey","green","yellow","blue","purple"],"door_color_assignment":["black","white"],"door_generator_assignment":[0,1],"goal":4,"start":2,"action_noise":0.2,"location_history":"[2,1,0,5,4]","action_history":"[1,0,0,1]","door_history":"[1,0,0,1]","location_rts":"[1435,493,752,1074]","trial_type":"two-door-navigation","trial_index":47,"time_elapsed":919017,"internal_node_id":"0.0-2.0-45.0"},{"group":"hexagon_bi","room_assignment":["red","grey","green","yellow","blue","purple"],"door_color_assignment":["black","white"],"door_generator_assignment":[0,1],"goal":1,"start":4,"action_noise":0.2,"location_history":"[4,5,0,5,0,1]","action_history":"[1,0,0,0,1]","door_history":"[1,0,0,0,1]","location_rts":"[1925,513,490,806,685]","trial_type":"two-door-navigation","trial_index":48,"time_elapsed":932040,"internal_node_id":"0.0-2.0-46.0"},{"group":"hexagon_bi","room_assignment":["red","grey","green","yellow","blue","purple"],"door_color_assignment":["black","white"],"door_generator_assignment":[0,1],"goal":4,"start":1,"action_noise":0.2,"location_history":"[1,2,1,2,3,2,3,2,1,2,3,2,3,4]","action_history":"[0,0,0,1,1,1,1,0,0,1,1,1,0]","door_history":"[0,0,0,1,1,1,1,0,0,1,1,1,0]","location_rts":"[1547,568,545,377,1092,520,494,271,1082,873,802,473,563]","trial_type":"two-door-navigation","trial_index":49,"time_elapsed":958023,"internal_node_id":"0.0-2.0-47.0"},{"group":"hexagon_bi","room_assignment":["red","grey","green","yellow","blue","purple"],"door_color_assignment":["black","white"],"door_generator_assignment":[0,1],"goal":1,"start":4,"action_noise":0.2,"location_history":"[4,5,0,1]","action_history":"[1,0,0]","door_history":"[1,0,0]","location_rts":"[1667,536,1238]","trial_type":"two-door-navigation","trial_index":50,"time_elapsed":968024,"internal_node_id":"0.0-2.0-48.0"},{"group":"hexagon_bi","room_assignment":["red","grey","green","yellow","blue","purple"],"door_color_assignment":["black","white"],"door_generator_assignment":[0,1],"goal":3,"start":1,"action_noise":0.2,"location_history":"[1,2,3]","action_history":"[0,1]","door_history":"[0,1]","location_rts":"[2774,5087]","trial_type":"two-door-navigation","trial_index":51,"time_elapsed":981431,"internal_node_id":"0.0-2.0-49.0"},{"group":"hexagon_bi","room_assignment":["red","grey","green","yellow","blue","purple"],"door_color_assignment":["black","white"],"door_generator_assignment":[0,1],"goal":5,"start":3,"action_noise":0.2,"location_history":"[3,2,3,4,5]","action_history":"[1,1,0,0]","door_history":"[1,1,0,0]","location_rts":"[844,492,565,708]","trial_type":"two-door-navigation","trial_index":52,"time_elapsed":991628,"internal_node_id":"0.0-2.0-50.0"},{"group":"hexagon_bi","room_assignment":["red","grey","green","yellow","blue","purple"],"door_color_assignment":["black","white"],"door_generator_assignment":[0,1],"goal":0,"start":5,"action_noise":0.2,"location_history":"[5,4,3,4,3,4,5,0]","action_history":"[1,0,0,0,1,1,0]","door_history":"[1,0,0,0,1,1,0]","location_rts":"[1192,874,517,812,363,1158,644]","trial_type":"two-door-navigation","trial_index":53,"time_elapsed":1007819,"internal_node_id":"0.0-2.0-51.0"},{"group":"hexagon_bi","room_assignment":["red","grey","green","yellow","blue","purple"],"door_color_assignment":["black","white"],"door_generator_assignment":[0,1],"goal":2,"start":0,"action_noise":0.2,"location_history":"[0,5,4,5,0,5,4,3,4,5,4,3,4,3,2]","action_history":"[0,1,1,0,0,1,0,0,0,1,0,0,0,1]","door_history":"[0,1,1,0,0,1,0,0,0,1,0,0,0,1]","location_rts":"[1900,1001,486,1153,675,1230,742,1362,469,246,1111,1002,767,402]","trial_type":"two-door-navigation","trial_index":54,"time_elapsed":1038160,"internal_node_id":"0.0-2.0-52.0"},{"group":"hexagon_bi","room_assignment":["red","grey","green","yellow","blue","purple"],"door_color_assignment":["black","white"],"door_generator_assignment":[0,1],"goal":1,"start":2,"action_noise":0.2,"location_history":"[2,1]","action_history":"[0]","door_history":"[0]","location_rts":"[2572]","trial_type":"two-door-navigation","trial_index":55,"time_elapsed":1045264,"internal_node_id":"0.0-2.0-53.0"},{"group":"hexagon_bi","room_assignment":["red","grey","green","yellow","blue","purple"],"door_color_assignment":["black","white"],"door_generator_assignment":[0,1],"goal":2,"start":1,"action_noise":0.2,"location_history":"[1,2]","action_history":"[0]","door_history":"[0]","location_rts":"[1644]","trial_type":"two-door-navigation","trial_index":56,"time_elapsed":1051431,"internal_node_id":"0.0-2.0-54.0"},{"group":"hexagon_bi","room_assignment":["red","grey","green","yellow","blue","purple"],"door_color_assignment":["black","white"],"door_generator_assignment":[0,1],"goal":5,"start":2,"action_noise":0.2,"location_history":"[2,1,2,3,2,3,2,3,4,5]","action_history":"[0,0,1,1,1,1,0,0,1]","door_history":"[0,0,1,1,1,1,0,0,1]","location_rts":"[1285,909,611,704,891,1348,249,624,1117]","trial_type":"two-door-navigation","trial_index":57,"time_elapsed":1071857,"internal_node_id":"0.0-2.0-55.0"},{"group":"hexagon_bi","room_assignment":["red","grey","green","yellow","blue","purple"],"door_color_assignment":["black","white"],"door_generator_assignment":[0,1],"goal":4,"start":5,"action_noise":0.2,"location_history":"[5,4]","action_history":"[1]","door_history":"[1]","location_rts":"[936]","trial_type":"two-door-navigation","trial_index":58,"time_elapsed":1077319,"internal_node_id":"0.0-2.0-56.0"},{"group":"hexagon_bi","room_assignment":["red","grey","green","yellow","blue","purple"],"door_color_assignment":["black","white"],"door_generator_assignment":[0,1],"goal":3,"start":4,"action_noise":0.2,"location_history":"[4,3]","action_history":"[0]","door_history":"[0]","location_rts":"[3661]","trial_type":"two-door-navigation","trial_index":59,"time_elapsed":1085506,"internal_node_id":"0.0-2.0-57.0"},{"group":"hexagon_bi","room_assignment":["red","grey","green","yellow","blue","purple"],"door_color_assignment":["black","white"],"door_generator_assignment":[0,1],"goal":0,"start":3,"action_noise":0.2,"location_history":"[3,2,1,2,1,2,3,4,5,0]","action_history":"[1,1,0,0,0,1,0,1,0]","door_history":"[1,1,0,0,0,1,0,1,0]","location_rts":"[2458,2080,1262,1806,1058,1258,1412,869,1023]","trial_type":"two-door-navigation","trial_index":60,"time_elapsed":1111414,"internal_node_id":"0.0-2.0-58.0"},{"group":"hexagon_bi","room_assignment":["red","grey","green","yellow","blue","purple"],"door_color_assignment":["black","white"],"door_generator_assignment":[0,1],"goal":2,"start":0,"action_noise":0.2,"location_history":"[0,1,2]","action_history":"[0,0]","door_history":"[0,0]","location_rts":"[1107,486]","trial_type":"two-door-navigation","trial_index":61,"time_elapsed":1118555,"internal_node_id":"0.0-2.0-59.0"},{"group":"hexagon_bi","room_assignment":["red","grey","green","yellow","blue","purple"],"door_color_assignment":["black","white"],"door_generator_assignment":[0,1],"goal":1,"start":2,"action_noise":0.2,"location_history":"[2,1]","action_history":"[0]","door_history":"[0]","location_rts":"[1524]","trial_type":"two-door-navigation","trial_index":62,"time_elapsed":1124599,"internal_node_id":"0.0-2.0-60.0"},{"group":"hexagon_bi","room_assignment":["red","grey","green","yellow","blue","purple"],"door_color_assignment":["black","white"],"door_generator_assignment":[0,1],"goal":0,"start":1,"action_noise":0.2,"location_history":"[1,2,1,0]","action_history":"[0,0,1]","door_history":"[0,0,1]","location_rts":"[1548,635,428]","trial_type":"two-door-navigation","trial_index":63,"time_elapsed":1133764,"internal_node_id":"0.0-2.0-61.0"},{"group":"hexagon_bi","room_assignment":["red","grey","green","yellow","blue","purple"],"door_color_assignment":["black","white"],"door_generator_assignment":[0,1],"goal":3,"start":0,"action_noise":0.2,"location_history":"[0,5,4,3]","action_history":"[0,1,0]","door_history":"[0,1,0]","location_rts":"[1764,9124,5522]","trial_type":"two-door-navigation","trial_index":64,"time_elapsed":1156739,"internal_node_id":"0.0-2.0-62.0"},{"group":"hexagon_bi","room_assignment":["red","grey","green","yellow","blue","purple"],"door_color_assignment":["black","white"],"door_generator_assignment":[0,1],"goal":5,"start":3,"action_noise":0.2,"location_history":"[3,2,1,2,3,2,1,0,1,0,5]","action_history":"[1,0,0,1,1,1,1,1,1,0]","door_history":"[1,0,0,1,1,1,1,1,1,0]","location_rts":"[1743,1478,960,236,215,351,892,1451,1039,580]","trial_type":"two-door-navigation","trial_index":65,"time_elapsed":1179388,"internal_node_id":"0.0-2.0-63.0"},{"group":"hexagon_bi","room_assignment":["red","grey","green","yellow","blue","purple"],"door_color_assignment":["black","white"],"door_generator_assignment":[0,1],"goal":4,"start":5,"action_noise":0.2,"location_history":"[5,4]","action_history":"[0]","door_history":"[0]","location_rts":"[1077]","trial_type":"two-door-navigation","trial_index":66,"time_elapsed":1184991,"internal_node_id":"0.0-2.0-64.0"},{"group":"hexagon_bi","room_assignment":["red","grey","green","yellow","blue","purple"],"door_color_assignment":["black","white"],"door_generator_assignment":[0,1],"goal":1,"start":4,"action_noise":0.2,"location_history":"[4,5,0,1]","action_history":"[1,0,0]","door_history":"[1,0,0]","location_rts":"[1448,3944,1158]","trial_type":"two-door-navigation","trial_index":67,"time_elapsed":1198118,"internal_node_id":"0.0-2.0-65.0"},{"group":"hexagon_bi","room_assignment":["red","grey","green","yellow","blue","purple"],"door_color_assignment":["black","white"],"door_generator_assignment":[0,1],"goal":5,"start":1,"action_noise":0.2,"location_history":"[1,0,5]","action_history":"[1,0]","door_history":"[1,0]","location_rts":"[3555,250]","trial_type":"two-door-navigation","trial_index":68,"time_elapsed":1207466,"internal_node_id":"0.0-2.0-66.0"},{"group":"hexagon_bi","room_assignment":["red","grey","green","yellow","blue","purple"],"door_color_assignment":["black","white"],"door_generator_assignment":[0,1],"goal":2,"start":5,"action_noise":0.2,"location_history":"[5,4,3,4,3,2]","action_history":"[1,0,0,0,1]","door_history":"[1,0,0,0,1]","location_rts":"[1537,1017,470,404,460]","trial_type":"two-door-navigation","trial_index":69,"time_elapsed":1219952,"internal_node_id":"0.0-2.0-67.0"},{"group":"hexagon_bi","room_assignment":["red","grey","green","yellow","blue","purple"],"door_color_assignment":["black","white"],"door_generator_assignment":[0,1],"goal":3,"start":2,"action_noise":0.2,"location_history":"[2,3]","action_history":"[1]","door_history":"[1]","location_rts":"[1039]","trial_type":"two-door-navigation","trial_index":70,"time_elapsed":1225512,"internal_node_id":"0.0-2.0-68.0"},{"group":"hexagon_bi","room_assignment":["red","grey","green","yellow","blue","purple"],"door_color_assignment":["black","white"],"door_generator_assignment":[0,1],"goal":4,"start":3,"action_noise":0.2,"location_history":"[3,2,3,4]","action_history":"[1,1,0]","door_history":"[1,1,0]","location_rts":"[10121,1008,2396]","trial_type":"two-door-navigation","trial_index":71,"time_elapsed":1245594,"internal_node_id":"0.0-2.0-69.0"},{"group":"hexagon_bi","room_assignment":["red","grey","green","yellow","blue","purple"],"door_color_assignment":["black","white"],"door_generator_assignment":[0,1],"goal":0,"start":4,"action_noise":0.2,"location_history":"[4,3,4,3,2,1,0]","action_history":"[0,0,0,1,0,0]","door_history":"[0,0,0,1,0,0]","location_rts":"[906,556,1438,257,2235,889]","trial_type":"two-door-navigation","trial_index":72,"time_elapsed":1261500,"internal_node_id":"0.0-2.0-70.0"},{"group":"hexagon_bi","room_assignment":["red","grey","green","yellow","blue","purple"],"door_color_assignment":["black","white"],"door_generator_assignment":[0,1],"goal":5,"start":0,"action_noise":0.2,"location_history":"[0,5]","action_history":"[1]","door_history":"[1]","location_rts":"[1127]","trial_type":"two-door-navigation","trial_index":73,"time_elapsed":1267149,"internal_node_id":"0.0-2.0-71.0"},{"group":"hexagon_bi","room_assignment":["red","grey","green","yellow","blue","purple"],"door_color_assignment":["black","white"],"door_generator_assignment":[0,1],"goal":0,"start":5,"action_noise":0.2,"location_history":"[5,4,3,2,3,4,3,2,1,2,1,0]","action_history":"[1,0,0,1,0,0,1,1,0,1,0]","door_history":"[1,0,0,1,0,0,1,1,0,1,0]","location_rts":"[1918,1414,1749,1043,842,928,309,984,727,1436,669]","trial_type":"two-door-navigation","trial_index":74,"time_elapsed":1293890,"internal_node_id":"0.0-2.0-72.0"},{"group":"hexagon_bi","room_assignment":["red","grey","green","yellow","blue","purple"],"door_color_assignment":["black","white"],"door_generator_assignment":[0,1],"goal":3,"start":0,"action_noise":0.2,"location_history":"[0,5,4,3]","action_history":"[0,1,0]","door_history":"[0,1,0]","location_rts":"[537,121,823]","trial_type":"two-door-navigation","trial_index":75,"time_elapsed":1301925,"internal_node_id":"0.0-2.0-73.0"},{"group":"hexagon_bi","room_assignment":["red","grey","green","yellow","blue","purple"],"door_color_assignment":["black","white"],"door_generator_assignment":[0,1],"goal":1,"start":3,"action_noise":0.2,"location_history":"[3,4,3,2,3,2,3,2,3,2,3,2,3,4,5,0,5,4,3,2,1]","action_history":"[0,0,1,1,0,1,1,0,1,1,0,0,0,1,0,0,0,1,1,1]","door_history":"[0,0,1,1,0,1,1,0,1,1,0,0,0,1,0,0,0,1,1,1]","location_rts":"[1142,1841,212,759,959,607,438,851,983,447,585,541,446,201,970,1254,1496,1147,508,1835]","trial_type":"two-door-navigation","trial_index":76,"time_elapsed":1343064,"internal_node_id":"0.0-2.0-74.0"},{"group":"hexagon_bi","room_assignment":["red","grey","green","yellow","blue","purple"],"door_color_assignment":["black","white"],"door_generator_assignment":[0,1],"goal":2,"start":1,"action_noise":0.2,"location_history":"[1,2]","action_history":"[0]","door_history":"[0]","location_rts":"[2951]","trial_type":"two-door-navigation","trial_index":77,"time_elapsed":1350540,"internal_node_id":"0.0-2.0-75.0"},{"group":"hexagon_bi","room_assignment":["red","grey","green","yellow","blue","purple"],"door_color_assignment":["black","white"],"door_generator_assignment":[0,1],"goal":4,"start":2,"action_noise":0.2,"location_history":"[2,3,4]","action_history":"[1,0]","door_history":"[1,0]","location_rts":"[1057,915]","trial_type":"two-door-navigation","trial_index":78,"time_elapsed":1358052,"internal_node_id":"0.0-2.0-76.0"},{"group":"hexagon_bi","room_assignment":["red","grey","green","yellow","blue","purple"],"door_color_assignment":["black","white"],"door_generator_assignment":[0,1],"goal":3,"start":4,"action_noise":0.2,"location_history":"[4,5,0,5,0,5,0,1,2,3]","action_history":"[1,0,0,0,1,0,1,0,1]","door_history":"[1,0,0,0,1,0,1,0,1]","location_rts":"[1619,1144,1048,887,1117,1058,1169,1111,928]","trial_type":"two-door-navigation","trial_index":79,"time_elapsed":1380802,"internal_node_id":"0.0-2.0-77.0"},{"group":"hexagon_bi","room_assignment":["red","grey","green","yellow","blue","purple"],"door_color_assignment":["black","white"],"door_generator_assignment":[0,1],"goal":0,"start":3,"action_noise":0.2,"location_history":"[3,2,1,2,1,0]","action_history":"[1,0,0,0,0]","door_history":"[1,0,0,0,0]","location_rts":"[1939,1131,728,903,1446]","trial_type":"two-door-navigation","trial_index":80,"time_elapsed":1395557,"internal_node_id":"0.0-2.0-78.0"},{"group":"hexagon_bi","room_assignment":["red","grey","green","yellow","blue","purple"],"door_color_assignment":["black","white"],"door_generator_assignment":[0,1],"goal":4,"start":0,"action_noise":0.2,"location_history":"[0,5,4]","action_history":"[0,1]","door_history":"[0,1]","location_rts":"[17185,837]","trial_type":"two-door-navigation","trial_index":81,"time_elapsed":1419122,"internal_node_id":"0.0-2.0-79.0"},{"group":"hexagon_bi","room_assignment":["red","grey","green","yellow","blue","purple"],"door_color_assignment":["black","white"],"door_generator_assignment":[0,1],"goal":5,"start":4,"action_noise":0.2,"location_history":"[4,5]","action_history":"[1]","door_history":"[1]","location_rts":"[1055]","trial_type":"two-door-navigation","trial_index":82,"time_elapsed":1424699,"internal_node_id":"0.0-2.0-80.0"},{"group":"hexagon_bi","room_assignment":["red","grey","green","yellow","blue","purple"],"door_color_assignment":["black","white"],"door_generator_assignment":[0,1],"goal":1,"start":5,"action_noise":0.2,"location_history":"[5,0,5,4,3,2,3,2,1]","action_history":"[0,1,1,0,1,1,1,0]","door_history":"[0,1,1,0,1,1,1,0]","location_rts":"[2556,1159,1374,461,807,1402,1262,722]","trial_type":"two-door-navigation","trial_index":83,"time_elapsed":1446111,"internal_node_id":"0.0-2.0-81.0"},{"group":"hexagon_bi","room_assignment":["red","grey","green","yellow","blue","purple"],"door_color_assignment":["black","white"],"door_generator_assignment":[0,1],"goal":2,"start":1,"action_noise":0.2,"location_history":"[1,0,1,0,5,0,1,2]","action_history":"[1,1,1,0,1,1,0]","door_history":"[1,1,1,0,1,1,0]","location_rts":"[1237,202,476,314,413,1039,1238]","trial_type":"two-door-navigation","trial_index":84,"time_elapsed":1461668,"internal_node_id":"0.0-2.0-82.0"},{"group":"hexagon_bi","room_assignment":["red","grey","green","yellow","blue","purple"],"door_color_assignment":["black","white"],"door_generator_assignment":[0,1],"goal":4,"start":2,"action_noise":0.2,"location_history":"[2,1,2,3,4]","action_history":"[0,0,1,1]","door_history":"[0,0,1,1]","location_rts":"[1144,1066,571,777]","trial_type":"two-door-navigation","trial_index":85,"time_elapsed":1472815,"internal_node_id":"0.0-2.0-83.0"},{"group":"hexagon_bi","room_assignment":["red","grey","green","yellow","blue","purple"],"door_color_assignment":["black","white"],"door_generator_assignment":[0,1],"goal":0,"start":4,"action_noise":0.2,"location_history":"[4,3,2,3,4,5,0]","action_history":"[0,0,1,0,1,0]","door_history":"[0,0,1,0,1,0]","location_rts":"[1676,497,844,1015,849,932]","trial_type":"two-door-navigation","trial_index":86,"time_elapsed":1488243,"internal_node_id":"0.0-2.0-84.0"},{"group":"hexagon_bi","room_assignment":["red","grey","green","yellow","blue","purple"],"door_color_assignment":["black","white"],"door_generator_assignment":[0,1],"goal":5,"start":0,"action_noise":0.2,"location_history":"[0,5]","action_history":"[0]","door_history":"[0]","location_rts":"[563]","trial_type":"two-door-navigation","trial_index":87,"time_elapsed":1493328,"internal_node_id":"0.0-2.0-85.0"},{"group":"hexagon_bi","room_assignment":["red","grey","green","yellow","blue","purple"],"door_color_assignment":["black","white"],"door_generator_assignment":[0,1],"goal":3,"start":5,"action_noise":0.2,"location_history":"[5,4,3]","action_history":"[1,0]","door_history":"[1,0]","location_rts":"[756,734]","trial_type":"two-door-navigation","trial_index":88,"time_elapsed":1500371,"internal_node_id":"0.0-2.0-86.0"},{"group":"hexagon_bi","room_assignment":["red","grey","green","yellow","blue","purple"],"door_color_assignment":["black","white"],"door_generator_assignment":[0,1],"goal":1,"start":3,"action_noise":0.2,"location_history":"[3,4,5,0,5,0,1]","action_history":"[0,1,0,0,0,1]","door_history":"[0,1,0,0,0,1]","location_rts":"[496,967,372,664,880,679]","trial_type":"two-door-navigation","trial_index":89,"time_elapsed":1514044,"internal_node_id":"0.0-2.0-87.0"},{"group":"hexagon_bi","room_assignment":["red","grey","green","yellow","blue","purple"],"door_color_assignment":["black","white"],"door_generator_assignment":[0,1],"goal":2,"start":1,"action_noise":0.2,"location_history":"[1,2]","action_history":"[0]","door_history":"[0]","location_rts":"[1120]","trial_type":"two-door-navigation","trial_index":90,"time_elapsed":1519706,"internal_node_id":"0.0-2.0-88.0"},{"group":"hexagon_bi","room_assignment":["red","grey","green","yellow","blue","purple"],"door_color_assignment":["black","white"],"door_generator_assignment":[0,1],"goal":0,"start":2,"action_noise":0.2,"location_history":"[2,3,4,3,2,3,4,3,4,5,0]","action_history":"[1,1,0,1,1,0,0,1,1,0]","door_history":"[1,1,0,1,1,0,0,1,1,0]","location_rts":"[2267,435,393,464,526,495,730,1310,1306,461]","trial_type":"two-door-navigation","trial_index":91,"time_elapsed":1541800,"internal_node_id":"0.0-2.0-89.0"},{"group":"hexagon_bi","room_assignment":["red","grey","green","yellow","blue","purple"],"door_color_assignment":["black","white"],"door_generator_assignment":[0,1],"goal":5,"start":0,"action_noise":0.2,"location_history":"[0,5]","action_history":"[1]","door_history":"[1]","location_rts":"[1619]","trial_type":"two-door-navigation","trial_index":92,"time_elapsed":1547939,"internal_node_id":"0.0-2.0-90.0"},{"group":"hexagon_bi","room_assignment":["red","grey","green","yellow","blue","purple"],"door_color_assignment":["black","white"],"door_generator_assignment":[0,1],"goal":1,"start":5,"action_noise":0.2,"location_history":"[5,0,1]","action_history":"[0,1]","door_history":"[0,1]","location_rts":"[2297,1985]","trial_type":"two-door-navigation","trial_index":93,"time_elapsed":1557761,"internal_node_id":"0.0-2.0-91.0"},{"group":"hexagon_bi","room_assignment":["red","grey","green","yellow","blue","purple"],"door_color_assignment":["black","white"],"door_generator_assignment":[0,1],"goal":3,"start":1,"action_noise":0.2,"location_history":"[1,0,5,4,3]","action_history":"[1,0,1,0]","door_history":"[1,0,1,0]","location_rts":"[1935,1068,1639,1901]","trial_type":"two-door-navigation","trial_index":94,"time_elapsed":1571892,"internal_node_id":"0.0-2.0-92.0"},{"group":"hexagon_bi","room_assignment":["red","grey","green","yellow","blue","purple"],"door_color_assignment":["black","white"],"door_generator_assignment":[0,1],"goal":4,"start":3,"action_noise":0.2,"location_history":"[3,4]","action_history":"[0]","door_history":"[0]","location_rts":"[6962]","trial_type":"two-door-navigation","trial_index":95,"time_elapsed":1583377,"internal_node_id":"0.0-2.0-93.0"},{"group":"hexagon_bi","room_assignment":["red","grey","green","yellow","blue","purple"],"door_color_assignment":["black","white"],"door_generator_assignment":[0,1],"goal":2,"start":4,"action_noise":0.2,"location_history":"[4,5,4,3,2]","action_history":"[1,0,0,1]","door_history":"[1,0,0,1]","location_rts":"[618,608,564,5219]","trial_type":"two-door-navigation","trial_index":96,"time_elapsed":1597979,"internal_node_id":"0.0-2.0-94.0"},{"group":"hexagon_bi","room_assignment":["red","grey","green","yellow","blue","purple"],"door_color_assignment":["black","white"],"door_generator_assignment":[0,1],"goal":4,"start":2,"action_noise":0.2,"location_history":"[2,3,2,3,4]","action_history":"[1,1,0,0]","door_history":"[1,1,0,0]","location_rts":"[851,409,622,668]","trial_type":"two-door-navigation","trial_index":97,"time_elapsed":1608110,"internal_node_id":"0.0-2.0-95.0"},{"group":"hexagon_bi","room_assignment":["red","grey","green","yellow","blue","purple"],"door_color_assignment":["black","white"],"door_generator_assignment":[0,1],"goal":0,"start":4,"action_noise":0.2,"location_history":"[4,5,0]","action_history":"[0,0]","door_history":"[0,0]","location_rts":"[2249,2059]","trial_type":"two-door-navigation","trial_index":98,"time_elapsed":1617961,"internal_node_id":"0.0-2.0-96.0"},{"group":"hexagon_bi","room_assignment":["red","grey","green","yellow","blue","purple"],"door_color_assignment":["black","white"],"door_generator_assignment":[0,1],"goal":5,"start":0,"action_noise":0.2,"location_history":"[0,5]","action_history":"[1]","door_history":"[1]","location_rts":"[4621]","trial_type":"two-door-navigation","trial_index":99,"time_elapsed":1627104,"internal_node_id":"0.0-2.0-97.0"},{"group":"hexagon_bi","room_assignment":["red","grey","green","yellow","blue","purple"],"door_color_assignment":["black","white"],"door_generator_assignment":[0,1],"goal":1,"start":5,"action_noise":0.2,"location_history":"[5,0,5,4,3,2,1]","action_history":"[0,1,1,0,1,1]","door_history":"[0,1,1,0,1,1]","location_rts":"[2184,1489,1010,799,1169,1133]","trial_type":"two-door-navigation","trial_index":100,"time_elapsed":1644516,"internal_node_id":"0.0-2.0-98.0"},{"group":"hexagon_bi","room_assignment":["red","grey","green","yellow","blue","purple"],"door_color_assignment":["black","white"],"door_generator_assignment":[0,1],"goal":3,"start":1,"action_noise":0.2,"location_history":"[1,0,5,0,5,4,5,4,3]","action_history":"[1,0,0,1,1,0,0,1]","door_history":"[1,0,0,1,1,0,0,1]","location_rts":"[1310,581,2327,1478,738,876,520,398]","trial_type":"two-door-navigation","trial_index":101,"time_elapsed":1664393,"internal_node_id":"0.0-2.0-99.0"},{"view_history":"[{\"page_index\":0,\"viewing_time\":2462}]","rt":2462,"trial_type":"instructions","trial_index":102,"time_elapsed":1667857,"internal_node_id":"0.0-3.0"},{"view_history":"[{\"page_index\":0,\"viewing_time\":2030},{\"page_index\":1,\"viewing_time\":17134}]","rt":19164,"trial_type":"instructions","trial_index":103,"time_elapsed":1688022,"internal_node_id":"0.0-4.0"},{"group":"hexagon_tri","fractal_assignment":["../images/ylw_slt.png","../images/pnk_blu.png","../images/gry_blk.png","../images/org_blu.png","../images/blu_wht.png","../images/cyn_red.png"],"mutagen_generator_assignment":[1,0],"goal":4,"start":0,"action_noise":0.2,"location_history":"[0,5,0,5,0,1,3,2,3,2,3,4]","action_history":"[0,1,0,0,1,0,0,1,0,0,1]","mutagen_history":"[1,0,1,1,0,1,1,0,1,1,0]","location_rts":"[225395,3679,1723,724,872,922,655,469,999,536,848]","trial_type":"fractal-mutation","trial_index":104,"time_elapsed":1940709,"internal_node_id":"0.0-5.0-0.0"},{"group":"hexagon_tri","fractal_assignment":["../images/ylw_slt.png","../images/pnk_blu.png","../images/gry_blk.png","../images/org_blu.png","../images/blu_wht.png","../images/cyn_red.png"],"mutagen_generator_assignment":[1,0],"goal":3,"start":4,"action_noise":0.2,"location_history":"[4,2,1,3]","action_history":"[0,0,0]","mutagen_history":"[1,1,1]","location_rts":"[2377,398,477]","trial_type":"fractal-mutation","trial_index":105,"time_elapsed":1950906,"internal_node_id":"0.0-5.0-1.0"},{"group":"hexagon_tri","fractal_assignment":["../images/ylw_slt.png","../images/pnk_blu.png","../images/gry_blk.png","../images/org_blu.png","../images/blu_wht.png","../images/cyn_red.png"],"mutagen_generator_assignment":[1,0],"goal":5,"start":3,"action_noise":0.2,"location_history":"[3,4,0,5]","action_history":"[1,1,1]","mutagen_history":"[0,0,0]","location_rts":"[539,690,432]","trial_type":"fractal-mutation","trial_index":106,"time_elapsed":1959308,"internal_node_id":"0.0-5.0-2.0"},{"group":"hexagon_tri","fractal_assignment":["../images/ylw_slt.png","../images/pnk_blu.png","../images/gry_blk.png","../images/org_blu.png","../images/blu_wht.png","../images/cyn_red.png"],"mutagen_generator_assignment":[1,0],"goal":2,"start":5,"action_noise":0.2,"location_history":"[5,0,5,0,1,5,0,5,0,1,3,4,2]","action_history":"[0,0,1,1,1,1,0,1,1,0,1,1]","mutagen_history":"[1,1,0,0,0,0,1,0,0,1,0,0]","location_rts":"[1382,481,694,872,913,874,942,872,596,579,1295,1025]","trial_type":"fractal-mutation","trial_index":107,"time_elapsed":1986501,"internal_node_id":"0.0-5.0-3.0"},{"group":"hexagon_tri","fractal_assignment":["../images/ylw_slt.png","../images/pnk_blu.png","../images/gry_blk.png","../images/org_blu.png","../images/blu_wht.png","../images/cyn_red.png"],"mutagen_generator_assignment":[1,0],"goal":1,"start":2,"action_noise":0.2,"location_history":"[2,1]","action_history":"[0]","mutagen_history":"[1]","location_rts":"[1663]","trial_type":"fractal-mutation","trial_index":108,"time_elapsed":1992790,"internal_node_id":"0.0-5.0-4.0"},{"group":"hexagon_tri","fractal_assignment":["../images/ylw_slt.png","../images/pnk_blu.png","../images/gry_blk.png","../images/org_blu.png","../images/blu_wht.png","../images/cyn_red.png"],"mutagen_generator_assignment":[1,0],"goal":4,"start":1,"action_noise":0.2,"location_history":"[1,5,4]","action_history":"[1,0]","mutagen_history":"[0,1]","location_rts":"[841,1251]","trial_type":"fractal-mutation","trial_index":109,"time_elapsed":2000578,"internal_node_id":"0.0-5.0-5.0"},{"group":"hexagon_tri","fractal_assignment":["../images/ylw_slt.png","../images/pnk_blu.png","../images/gry_blk.png","../images/org_blu.png","../images/blu_wht.png","../images/cyn_red.png"],"mutagen_generator_assignment":[1,0],"goal":1,"start":4,"action_noise":0.2,"location_history":"[4,2,1]","action_history":"[0,0]","mutagen_history":"[1,1]","location_rts":"[6091,980]","trial_type":"fractal-mutation","trial_index":110,"time_elapsed":2013427,"internal_node_id":"0.0-5.0-6.0"},{"group":"hexagon_tri","fractal_assignment":["../images/ylw_slt.png","../images/pnk_blu.png","../images/gry_blk.png","../images/org_blu.png","../images/blu_wht.png","../images/cyn_red.png"],"mutagen_generator_assignment":[1,0],"goal":5,"start":1,"action_noise":0.2,"location_history":"[1,3,4,2,1,5]","action_history":"[0,0,0,0,1]","mutagen_history":"[1,1,1,1,0]","location_rts":"[1546,702,697,608,1254]","trial_type":"fractal-mutation","trial_index":111,"time_elapsed":2027445,"internal_node_id":"0.0-5.0-7.0"},{"group":"hexagon_tri","fractal_assignment":["../images/ylw_slt.png","../images/pnk_blu.png","../images/gry_blk.png","../images/org_blu.png","../images/blu_wht.png","../images/cyn_red.png"],"mutagen_generator_assignment":[1,0],"goal":0,"start":5,"action_noise":0.2,"location_history":"[5,4,0]","action_history":"[0,0]","mutagen_history":"[1,1]","location_rts":"[1284,623]","trial_type":"fractal-mutation","trial_index":112,"time_elapsed":2035137,"internal_node_id":"0.0-5.0-8.0"},{"group":"hexagon_tri","fractal_assignment":["../images/ylw_slt.png","../images/pnk_blu.png","../images/gry_blk.png","../images/org_blu.png","../images/blu_wht.png","../images/cyn_red.png"],"mutagen_generator_assignment":[1,0],"goal":2,"start":0,"action_noise":0.2,"location_history":"[0,1,3,4,2]","action_history":"[1,1,1,1]","mutagen_history":"[0,0,0,0]","location_rts":"[3474,1185,689,828]","trial_type":"fractal-mutation","trial_index":113,"time_elapsed":2049158,"internal_node_id":"0.0-5.0-9.0"},{"group":"hexagon_tri","fractal_assignment":["../images/ylw_slt.png","../images/pnk_blu.png","../images/gry_blk.png","../images/org_blu.png","../images/blu_wht.png","../images/cyn_red.png"],"mutagen_generator_assignment":[1,0],"goal":3,"start":2,"action_noise":0.2,"location_history":"[2,1,5,0,5,0,5,0,5,4,2,1,5,4,2,3]","action_history":"[0,1,1,1,1,0,0,0,1,1,0,0,0,1,1]","mutagen_history":"[1,0,0,0,0,1,1,1,0,0,1,1,1,0,0]","location_rts":"[2067,1349,552,992,834,198,679,833,1528,867,2245,638,654,763,693]","trial_type":"fractal-mutation","trial_index":114,"time_elapsed":2084083,"internal_node_id":"0.0-5.0-10.0"},{"group":"hexagon_tri","fractal_assignment":["../images/ylw_slt.png","../images/pnk_blu.png","../images/gry_blk.png","../images/org_blu.png","../images/blu_wht.png","../images/cyn_red.png"],"mutagen_generator_assignment":[1,0],"goal":0,"start":3,"action_noise":0.2,"location_history":"[3,2,1,3,2,3,2,3,4,0]","action_history":"[0,0,0,1,0,0,1,1,0]","mutagen_history":"[1,1,1,0,1,1,0,0,1]","location_rts":"[1819,255,182,1050,506,85,405,463,749]","trial_type":"fractal-mutation","trial_index":115,"time_elapsed":2103106,"internal_node_id":"0.0-5.0-11.0"},{"group":"hexagon_tri","fractal_assignment":["../images/ylw_slt.png","../images/pnk_blu.png","../images/gry_blk.png","../images/org_blu.png","../images/blu_wht.png","../images/cyn_red.png"],"mutagen_generator_assignment":[1,0],"goal":2,"start":0,"action_noise":0.2,"location_history":"[0,1,5,0,5,4,0,1,5,0,5,4,2]","action_history":"[0,1,1,1,0,0,1,1,1,1,0,1]","mutagen_history":"[1,0,0,0,1,1,0,0,0,0,1,0]","location_rts":"[1445,293,671,754,876,243,655,751,585,724,946,1371]","trial_type":"fractal-mutation","trial_index":116,"time_elapsed":2129067,"internal_node_id":"0.0-5.0-12.0"},{"group":"hexagon_tri","fractal_assignment":["../images/ylw_slt.png","../images/pnk_blu.png","../images/gry_blk.png","../images/org_blu.png","../images/blu_wht.png","../images/cyn_red.png"],"mutagen_generator_assignment":[1,0],"goal":5,"start":2,"action_noise":0.2,"location_history":"[2,1,5]","action_history":"[0,1]","mutagen_history":"[1,0]","location_rts":"[1293,244]","trial_type":"fractal-mutation","trial_index":117,"time_elapsed":2136303,"internal_node_id":"0.0-5.0-13.0"},{"group":"hexagon_tri","fractal_assignment":["../images/ylw_slt.png","../images/pnk_blu.png","../images/gry_blk.png","../images/org_blu.png","../images/blu_wht.png","../images/cyn_red.png"],"mutagen_generator_assignment":[1,0],"goal":4,"start":5,"action_noise":0.2,"location_history":"[5,0,5,4]","action_history":"[1,1,0]","mutagen_history":"[0,0,1]","location_rts":"[2242,759,1032]","trial_type":"fractal-mutation","trial_index":118,"time_elapsed":2147144,"internal_node_id":"0.0-5.0-14.0"},{"group":"hexagon_tri","fractal_assignment":["../images/ylw_slt.png","../images/pnk_blu.png","../images/gry_blk.png","../images/org_blu.png","../images/blu_wht.png","../images/cyn_red.png"],"mutagen_generator_assignment":[1,0],"goal":3,"start":4,"action_noise":0.2,"location_history":"[4,2,1,5,0,1,5,0,5,4,2,1,3]","action_history":"[1,1,1,1,1,0,1,1,0,0,0,0]","mutagen_history":"[0,0,0,0,0,1,0,0,1,1,1,1]","location_rts":"[3190,5319,1844,1471,1137,740,1026,753,1265,264,1944,765]","trial_type":"fractal-mutation","trial_index":119,"time_elapsed":2183583,"internal_node_id":"0.0-5.0-15.0"},{"group":"hexagon_tri","fractal_assignment":["../images/ylw_slt.png","../images/pnk_blu.png","../images/gry_blk.png","../images/org_blu.png","../images/blu_wht.png","../images/cyn_red.png"],"mutagen_generator_assignment":[1,0],"goal":1,"start":3,"action_noise":0.2,"location_history":"[3,2,3,2,3,4,2,3,4,0,1]","action_history":"[0,0,0,1,1,1,1,0,0,1]","mutagen_history":"[1,1,1,0,0,0,0,1,1,0]","location_rts":"[2115,3444,1499,970,2717,1422,1082,1269,808,972]","trial_type":"fractal-mutation","trial_index":120,"time_elapsed":2214383,"internal_node_id":"0.0-5.0-16.0"},{"group":"hexagon_tri","fractal_assignment":["../images/ylw_slt.png","../images/pnk_blu.png","../images/gry_blk.png","../images/org_blu.png","../images/blu_wht.png","../images/cyn_red.png"],"mutagen_generator_assignment":[1,0],"goal":5,"start":1,"action_noise":0.2,"location_history":"[1,3,2,1,3,4,0,5]","action_history":"[0,1,0,1,1,0,0]","mutagen_history":"[1,0,1,0,0,1,1]","location_rts":"[1401,1216,1179,598,1192,978,740]","trial_type":"fractal-mutation","trial_index":121,"time_elapsed":2232867,"internal_node_id":"0.0-5.0-17.0"},{"group":"hexagon_tri","fractal_assignment":["../images/ylw_slt.png","../images/pnk_blu.png","../images/gry_blk.png","../images/org_blu.png","../images/blu_wht.png","../images/cyn_red.png"],"mutagen_generator_assignment":[1,0],"goal":4,"start":5,"action_noise":0.2,"location_history":"[5,0,5,0,1,5,0,1,3,4]","action_history":"[0,0,1,0,1,1,1,0,1]","mutagen_history":"[1,1,0,1,0,0,0,1,0]","location_rts":"[2084,1185,773,520,1466,954,582,983,1143]","trial_type":"fractal-mutation","trial_index":122,"time_elapsed":2256081,"internal_node_id":"0.0-5.0-18.0"},{"group":"hexagon_tri","fractal_assignment":["../images/ylw_slt.png","../images/pnk_blu.png","../images/gry_blk.png","../images/org_blu.png","../images/blu_wht.png","../images/cyn_red.png"],"mutagen_generator_assignment":[1,0],"goal":0,"start":4,"action_noise":0.2,"location_history":"[4,2,1,5,4,0]","action_history":"[1,1,0,0,0]","mutagen_history":"[0,0,1,1,1]","location_rts":"[1538,534,649,984,934]","trial_type":"fractal-mutation","trial_index":123,"time_elapsed":2269834,"internal_node_id":"0.0-5.0-19.0"},{"group":"hexagon_tri","fractal_assignment":["../images/ylw_slt.png","../images/pnk_blu.png","../images/gry_blk.png","../images/org_blu.png","../images/blu_wht.png","../images/cyn_red.png"],"mutagen_generator_assignment":[1,0],"goal":1,"start":0,"action_noise":0.2,"location_history":"[0,5,4,2,1]","action_history":"[1,0,0,1]","mutagen_history":"[0,1,1,0]","location_rts":"[2059,824,610,854]","trial_type":"fractal-mutation","trial_index":124,"time_elapsed":2282097,"internal_node_id":"0.0-5.0-20.0"},{"group":"hexagon_tri","fractal_assignment":["../images/ylw_slt.png","../images/pnk_blu.png","../images/gry_blk.png","../images/org_blu.png","../images/blu_wht.png","../images/cyn_red.png"],"mutagen_generator_assignment":[1,0],"goal":3,"start":1,"action_noise":0.2,"location_history":"[1,3]","action_history":"[1]","mutagen_history":"[0]","location_rts":"[1504]","trial_type":"fractal-mutation","trial_index":125,"time_elapsed":2288177,"internal_node_id":"0.0-5.0-21.0"},{"group":"hexagon_tri","fractal_assignment":["../images/ylw_slt.png","../images/pnk_blu.png","../images/gry_blk.png","../images/org_blu.png","../images/blu_wht.png","../images/cyn_red.png"],"mutagen_generator_assignment":[1,0],"goal":2,"start":3,"action_noise":0.2,"location_history":"[3,4,0,5,4,2]","action_history":"[1,0,0,0,1]","mutagen_history":"[0,1,1,1,0]","location_rts":"[1392,843,1202,907,977]","trial_type":"fractal-mutation","trial_index":126,"time_elapsed":2302524,"internal_node_id":"0.0-5.0-22.0"},{"group":"hexagon_tri","fractal_assignment":["../images/ylw_slt.png","../images/pnk_blu.png","../images/gry_blk.png","../images/org_blu.png","../images/blu_wht.png","../images/cyn_red.png"],"mutagen_generator_assignment":[1,0],"goal":0,"start":2,"action_noise":0.2,"location_history":"[2,1,3,4,0]","action_history":"[1,0,0,1]","mutagen_history":"[0,1,1,0]","location_rts":"[1539,717,740,697]","trial_type":"fractal-mutation","trial_index":127,"time_elapsed":2314101,"internal_node_id":"0.0-5.0-23.0"},{"group":"hexagon_tri","fractal_assignment":["../images/ylw_slt.png","../images/pnk_blu.png","../images/gry_blk.png","../images/org_blu.png","../images/blu_wht.png","../images/cyn_red.png"],"mutagen_generator_assignment":[1,0],"goal":3,"start":0,"action_noise":0.2,"location_history":"[0,1,3]","action_history":"[1,0]","mutagen_history":"[0,1]","location_rts":"[1523,1021]","trial_type":"fractal-mutation","trial_index":128,"time_elapsed":2322372,"internal_node_id":"0.0-5.0-24.0"},{"group":"hexagon_tri","fractal_assignment":["../images/ylw_slt.png","../images/pnk_blu.png","../images/gry_blk.png","../images/org_blu.png","../images/blu_wht.png","../images/cyn_red.png"],"mutagen_generator_assignment":[1,0],"goal":1,"start":3,"action_noise":0.2,"location_history":"[3,2,1]","action_history":"[0,0]","mutagen_history":"[1,1]","location_rts":"[1725,694]","trial_type":"fractal-mutation","trial_index":129,"time_elapsed":2330507,"internal_node_id":"0.0-5.0-25.0"},{"group":"hexagon_tri","fractal_assignment":["../images/ylw_slt.png","../images/pnk_blu.png","../images/gry_blk.png","../images/org_blu.png","../images/blu_wht.png","../images/cyn_red.png"],"mutagen_generator_assignment":[1,0],"goal":2,"start":1,"action_noise":0.2,"location_history":"[1,5,4,2]","action_history":"[1,0,1]","mutagen_history":"[0,1,0]","location_rts":"[1218,923,453]","trial_type":"fractal-mutation","trial_index":130,"time_elapsed":2339888,"internal_node_id":"0.0-5.0-26.0"},{"group":"hexagon_tri","fractal_assignment":["../images/ylw_slt.png","../images/pnk_blu.png","../images/gry_blk.png","../images/org_blu.png","../images/blu_wht.png","../images/cyn_red.png"],"mutagen_generator_assignment":[1,0],"goal":5,"start":2,"action_noise":0.2,"location_history":"[2,3,2,1,5]","action_history":"[1,0,0,1]","mutagen_history":"[0,1,1,0]","location_rts":"[2179,615,754,971]","trial_type":"fractal-mutation","trial_index":131,"time_elapsed":2352359,"internal_node_id":"0.0-5.0-27.0"},{"group":"hexagon_tri","fractal_assignment":["../images/ylw_slt.png","../images/pnk_blu.png","../images/gry_blk.png","../images/org_blu.png","../images/blu_wht.png","../images/cyn_red.png"],"mutagen_generator_assignment":[1,0],"goal":4,"start":5,"action_noise":0.2,"location_history":"[5,4]","action_history":"[1]","mutagen_history":"[0]","location_rts":"[1564]","trial_type":"fractal-mutation","trial_index":132,"time_elapsed":2358501,"internal_node_id":"0.0-5.0-28.0"},{"group":"hexagon_tri","fractal_assignment":["../images/ylw_slt.png","../images/pnk_blu.png","../images/gry_blk.png","../images/org_blu.png","../images/blu_wht.png","../images/cyn_red.png"],"mutagen_generator_assignment":[1,0],"goal":5,"start":4,"action_noise":0.2,"location_history":"[4,2,1,5]","action_history":"[0,0,1]","mutagen_history":"[1,1,0]","location_rts":"[1635,769,1739]","trial_type":"fractal-mutation","trial_index":133,"time_elapsed":2369463,"internal_node_id":"0.0-5.0-29.0"},{"group":"hexagon_tri","fractal_assignment":["../images/ylw_slt.png","../images/pnk_blu.png","../images/gry_blk.png","../images/org_blu.png","../images/blu_wht.png","../images/cyn_red.png"],"mutagen_generator_assignment":[1,0],"goal":3,"start":5,"action_noise":0.2,"location_history":"[5,4,2,3]","action_history":"[0,1,1]","mutagen_history":"[1,0,0]","location_rts":"[2329,520,790]","trial_type":"fractal-mutation","trial_index":134,"time_elapsed":2379892,"internal_node_id":"0.0-5.0-30.0"},{"group":"hexagon_tri","fractal_assignment":["../images/ylw_slt.png","../images/pnk_blu.png","../images/gry_blk.png","../images/org_blu.png","../images/blu_wht.png","../images/cyn_red.png"],"mutagen_generator_assignment":[1,0],"goal":0,"start":3,"action_noise":0.2,"location_history":"[3,2,3,2,1,5,4,2,1,3,2,3,4,0]","action_history":"[0,1,0,0,1,0,0,0,0,1,1,1,0]","mutagen_history":"[1,0,1,1,0,1,1,1,1,0,0,0,1]","location_rts":"[2204,603,511,412,532,1292,320,270,1111,1147,987,805,279]","trial_type":"fractal-mutation","trial_index":135,"time_elapsed":2408248,"internal_node_id":"0.0-5.0-31.0"},{"group":"hexagon_tri","fractal_assignment":["../images/ylw_slt.png","../images/pnk_blu.png","../images/gry_blk.png","../images/org_blu.png","../images/blu_wht.png","../images/cyn_red.png"],"mutagen_generator_assignment":[1,0],"goal":4,"start":0,"action_noise":0.2,"location_history":"[0,5,4]","action_history":"[0,0]","mutagen_history":"[1,1]","location_rts":"[2239,339]","trial_type":"fractal-mutation","trial_index":136,"time_elapsed":2416561,"internal_node_id":"0.0-5.0-32.0"},{"group":"hexagon_tri","fractal_assignment":["../images/ylw_slt.png","../images/pnk_blu.png","../images/gry_blk.png","../images/org_blu.png","../images/blu_wht.png","../images/cyn_red.png"],"mutagen_generator_assignment":[1,0],"goal":1,"start":4,"action_noise":0.2,"location_history":"[4,2,3,4,0,5,0,1]","action_history":"[1,1,0,0,1,1,0]","mutagen_history":"[0,0,1,1,0,0,1]","location_rts":"[2027,1798,272,1102,933,707,884]","trial_type":"fractal-mutation","trial_index":137,"time_elapsed":2435502,"internal_node_id":"0.0-5.0-33.0"},{"group":"hexagon_tri","fractal_assignment":["../images/ylw_slt.png","../images/pnk_blu.png","../images/gry_blk.png","../images/org_blu.png","../images/blu_wht.png","../images/cyn_red.png"],"mutagen_generator_assignment":[1,0],"goal":2,"start":1,"action_noise":0.2,"location_history":"[1,5,4,0,1,3,4,0,1,3,4,2]","action_history":"[1,0,1,1,0,1,0,1,0,1,1]","mutagen_history":"[0,1,0,0,1,0,1,0,1,0,0]","location_rts":"[1410,3673,995,857,1178,1030,951,825,1026,1400,1375]","trial_type":"fractal-mutation","trial_index":138,"time_elapsed":2465727,"internal_node_id":"0.0-5.0-34.0"},{"group":"hexagon_tri","fractal_assignment":["../images/ylw_slt.png","../images/pnk_blu.png","../images/gry_blk.png","../images/org_blu.png","../images/blu_wht.png","../images/cyn_red.png"],"mutagen_generator_assignment":[1,0],"goal":0,"start":2,"action_noise":0.2,"location_history":"[2,1,3,4,0]","action_history":"[1,0,1,0]","mutagen_history":"[0,1,0,1]","location_rts":"[4854,6092,3183,643]","trial_type":"fractal-mutation","trial_index":139,"time_elapsed":2488432,"internal_node_id":"0.0-5.0-35.0"},{"group":"hexagon_tri","fractal_assignment":["../images/ylw_slt.png","../images/pnk_blu.png","../images/gry_blk.png","../images/org_blu.png","../images/blu_wht.png","../images/cyn_red.png"],"mutagen_generator_assignment":[1,0],"goal":5,"start":0,"action_noise":0.2,"location_history":"[0,5]","action_history":"[0]","mutagen_history":"[1]","location_rts":"[1522]","trial_type":"fractal-mutation","trial_index":140,"time_elapsed":2494587,"internal_node_id":"0.0-5.0-36.0"},{"group":"hexagon_tri","fractal_assignment":["../images/ylw_slt.png","../images/pnk_blu.png","../images/gry_blk.png","../images/org_blu.png","../images/blu_wht.png","../images/cyn_red.png"],"mutagen_generator_assignment":[1,0],"goal":2,"start":5,"action_noise":0.2,"location_history":"[5,4,2]","action_history":"[0,1]","mutagen_history":"[1,0]","location_rts":"[1863,402]","trial_type":"fractal-mutation","trial_index":141,"time_elapsed":2502527,"internal_node_id":"0.0-5.0-37.0"},{"group":"hexagon_tri","fractal_assignment":["../images/ylw_slt.png","../images/pnk_blu.png","../images/gry_blk.png","../images/org_blu.png","../images/blu_wht.png","../images/cyn_red.png"],"mutagen_generator_assignment":[1,0],"goal":1,"start":2,"action_noise":0.2,"location_history":"[2,3,2,3,2,3,4,0,5,4,2,3,4,2,1]","action_history":"[1,0,0,0,1,1,0,0,0,0,1,1,0,1]","mutagen_history":"[0,1,1,1,0,0,1,1,1,1,0,0,1,0]","location_rts":"[1324,2163,1020,1130,361,733,890,799,480,469,748,578,760,831]","trial_type":"fractal-mutation","trial_index":142,"time_elapsed":2533899,"internal_node_id":"0.0-5.0-38.0"},{"group":"hexagon_tri","fractal_assignment":["../images/ylw_slt.png","../images/pnk_blu.png","../images/gry_blk.png","../images/org_blu.png","../images/blu_wht.png","../images/cyn_red.png"],"mutagen_generator_assignment":[1,0],"goal":4,"start":1,"action_noise":0.2,"location_history":"[1,5,4]","action_history":"[1,0]","mutagen_history":"[0,1]","location_rts":"[1806,861]","trial_type":"fractal-mutation","trial_index":143,"time_elapsed":2542338,"internal_node_id":"0.0-5.0-39.0"},{"group":"hexagon_tri","fractal_assignment":["../images/ylw_slt.png","../images/pnk_blu.png","../images/gry_blk.png","../images/org_blu.png","../images/blu_wht.png","../images/cyn_red.png"],"mutagen_generator_assignment":[1,0],"goal":3,"start":4,"action_noise":0.2,"location_history":"[4,2,3]","action_history":"[1,1]","mutagen_history":"[0,0]","location_rts":"[1920,601]","trial_type":"fractal-mutation","trial_index":144,"time_elapsed":2550530,"internal_node_id":"0.0-5.0-40.0"},{"group":"hexagon_tri","fractal_assignment":["../images/ylw_slt.png","../images/pnk_blu.png","../images/gry_blk.png","../images/org_blu.png","../images/blu_wht.png","../images/cyn_red.png"],"mutagen_generator_assignment":[1,0],"goal":5,"start":3,"action_noise":0.2,"location_history":"[3,2,1,5]","action_history":"[0,0,1]","mutagen_history":"[1,1,0]","location_rts":"[1937,951,1419]","trial_type":"fractal-mutation","trial_index":145,"time_elapsed":2561641,"internal_node_id":"0.0-5.0-41.0"},{"group":"hexagon_tri","fractal_assignment":["../images/ylw_slt.png","../images/pnk_blu.png","../images/gry_blk.png","../images/org_blu.png","../images/blu_wht.png","../images/cyn_red.png"],"mutagen_generator_assignment":[1,0],"goal":3,"start":5,"action_noise":0.2,"location_history":"[5,4,0,5,4,0,1,5,4,0,5,0,1,5,0,5,4,2,3]","action_history":"[1,0,0,0,1,1,1,0,0,0,1,1,0,1,0,0,1,1]","mutagen_history":"[0,1,1,1,0,0,0,1,1,1,0,0,1,0,1,1,0,0]","location_rts":"[2142,734,891,255,676,812,1125,928,248,665,281,715,1957,741,855,733,372,1373]","trial_type":"fractal-mutation","trial_index":146,"time_elapsed":2600535,"internal_node_id":"0.0-5.0-42.0"},{"group":"hexagon_tri","fractal_assignment":["../images/ylw_slt.png","../images/pnk_blu.png","../images/gry_blk.png","../images/org_blu.png","../images/blu_wht.png","../images/cyn_red.png"],"mutagen_generator_assignment":[1,0],"goal":0,"start":3,"action_noise":0.2,"location_history":"[3,2,1,5,0]","action_history":"[0,0,1,1]","mutagen_history":"[1,1,0,0]","location_rts":"[1952,1274,2190,1598]","trial_type":"fractal-mutation","trial_index":147,"time_elapsed":2615448,"internal_node_id":"0.0-5.0-43.0"},{"group":"hexagon_tri","fractal_assignment":["../images/ylw_slt.png","../images/pnk_blu.png","../images/gry_blk.png","../images/org_blu.png","../images/blu_wht.png","../images/cyn_red.png"],"mutagen_generator_assignment":[1,0],"goal":2,"start":0,"action_noise":0.2,"location_history":"[0,1,3,4,2]","action_history":"[1,0,1,1]","mutagen_history":"[0,1,0,0]","location_rts":"[4110,1607,1709,540]","trial_type":"fractal-mutation","trial_index":148,"time_elapsed":2631253,"internal_node_id":"0.0-5.0-44.0"},{"group":"hexagon_tri","fractal_assignment":["../images/ylw_slt.png","../images/pnk_blu.png","../images/gry_blk.png","../images/org_blu.png","../images/blu_wht.png","../images/cyn_red.png"],"mutagen_generator_assignment":[1,0],"goal":4,"start":2,"action_noise":0.2,"location_history":"[2,1,3,4]","action_history":"[0,0,1]","mutagen_history":"[1,1,0]","location_rts":"[1684,1355,1676]","trial_type":"fractal-mutation","trial_index":149,"time_elapsed":2642827,"internal_node_id":"0.0-5.0-45.0"},{"group":"hexagon_tri","fractal_assignment":["../images/ylw_slt.png","../images/pnk_blu.png","../images/gry_blk.png","../images/org_blu.png","../images/blu_wht.png","../images/cyn_red.png"],"mutagen_generator_assignment":[1,0],"goal":1,"start":4,"action_noise":0.2,"location_history":"[4,0,5,0,5,0,5,4,0,1]","action_history":"[0,0,1,1,1,0,0,1,1]","mutagen_history":"[1,1,0,0,0,1,1,0,0]","location_rts":"[1308,1033,288,811,783,648,1684,364,797]","trial_type":"fractal-mutation","trial_index":150,"time_elapsed":2664000,"internal_node_id":"0.0-5.0-46.0"},{"group":"hexagon_tri","fractal_assignment":["../images/ylw_slt.png","../images/pnk_blu.png","../images/gry_blk.png","../images/org_blu.png","../images/blu_wht.png","../images/cyn_red.png"],"mutagen_generator_assignment":[1,0],"goal":4,"start":1,"action_noise":0.2,"location_history":"[1,3,4]","action_history":"[0,1]","mutagen_history":"[1,0]","location_rts":"[1716,787]","trial_type":"fractal-mutation","trial_index":151,"time_elapsed":2672246,"internal_node_id":"0.0-5.0-47.0"},{"group":"hexagon_tri","fractal_assignment":["../images/ylw_slt.png","../images/pnk_blu.png","../images/gry_blk.png","../images/org_blu.png","../images/blu_wht.png","../images/cyn_red.png"],"mutagen_generator_assignment":[1,0],"goal":1,"start":4,"action_noise":0.2,"location_history":"[4,0,1]","action_history":"[0,1]","mutagen_history":"[1,0]","location_rts":"[1066,862]","trial_type":"fractal-mutation","trial_index":152,"time_elapsed":2679909,"internal_node_id":"0.0-5.0-48.0"},{"group":"hexagon_tri","fractal_assignment":["../images/ylw_slt.png","../images/pnk_blu.png","../images/gry_blk.png","../images/org_blu.png","../images/blu_wht.png","../images/cyn_red.png"],"mutagen_generator_assignment":[1,0],"goal":3,"start":1,"action_noise":0.2,"location_history":"[1,3]","action_history":"[0]","mutagen_history":"[1]","location_rts":"[1045]","trial_type":"fractal-mutation","trial_index":153,"time_elapsed":2685588,"internal_node_id":"0.0-5.0-49.0"},{"group":"hexagon_tri","fractal_assignment":["../images/ylw_slt.png","../images/pnk_blu.png","../images/gry_blk.png","../images/org_blu.png","../images/blu_wht.png","../images/cyn_red.png"],"mutagen_generator_assignment":[1,0],"goal":5,"start":3,"action_noise":0.2,"location_history":"[3,2,1,5]","action_history":"[0,0,1]","mutagen_history":"[1,1,0]","location_rts":"[1394,817,1310]","trial_type":"fractal-mutation","trial_index":154,"time_elapsed":2695941,"internal_node_id":"0.0-5.0-50.0"},{"group":"hexagon_tri","fractal_assignment":["../images/ylw_slt.png","../images/pnk_blu.png","../images/gry_blk.png","../images/org_blu.png","../images/blu_wht.png","../images/cyn_red.png"],"mutagen_generator_assignment":[1,0],"goal":0,"start":5,"action_noise":0.2,"location_history":"[5,4,0]","action_history":"[0,0]","mutagen_history":"[1,1]","location_rts":"[1659,2861]","trial_type":"fractal-mutation","trial_index":155,"time_elapsed":2706270,"internal_node_id":"0.0-5.0-51.0"},{"group":"hexagon_tri","fractal_assignment":["../images/ylw_slt.png","../images/pnk_blu.png","../images/gry_blk.png","../images/org_blu.png","../images/blu_wht.png","../images/cyn_red.png"],"mutagen_generator_assignment":[1,0],"goal":2,"start":0,"action_noise":0.2,"location_history":"[0,5,4,2]","action_history":"[1,0,1]","mutagen_history":"[0,1,0]","location_rts":"[1085,946,1328]","trial_type":"fractal-mutation","trial_index":156,"time_elapsed":2716491,"internal_node_id":"0.0-5.0-52.0"},{"group":"hexagon_tri","fractal_assignment":["../images/ylw_slt.png","../images/pnk_blu.png","../images/gry_blk.png","../images/org_blu.png","../images/blu_wht.png","../images/cyn_red.png"],"mutagen_generator_assignment":[1,0],"goal":1,"start":2,"action_noise":0.2,"location_history":"[2,1]","action_history":"[0]","mutagen_history":"[1]","location_rts":"[1393]","trial_type":"fractal-mutation","trial_index":157,"time_elapsed":2722531,"internal_node_id":"0.0-5.0-53.0"},{"group":"hexagon_tri","fractal_assignment":["../images/ylw_slt.png","../images/pnk_blu.png","../images/gry_blk.png","../images/org_blu.png","../images/blu_wht.png","../images/cyn_red.png"],"mutagen_generator_assignment":[1,0],"goal":2,"start":1,"action_noise":0.2,"location_history":"[1,3,2]","action_history":"[0,1]","mutagen_history":"[1,0]","location_rts":"[2441,1012]","trial_type":"fractal-mutation","trial_index":158,"time_elapsed":2731703,"internal_node_id":"0.0-5.0-54.0"},{"group":"hexagon_tri","fractal_assignment":["../images/ylw_slt.png","../images/pnk_blu.png","../images/gry_blk.png","../images/org_blu.png","../images/blu_wht.png","../images/cyn_red.png"],"mutagen_generator_assignment":[1,0],"goal":5,"start":2,"action_noise":0.2,"location_history":"[2,1,5]","action_history":"[0,1]","mutagen_history":"[1,0]","location_rts":"[1843,608]","trial_type":"fractal-mutation","trial_index":159,"time_elapsed":2739889,"internal_node_id":"0.0-5.0-55.0"},{"group":"hexagon_tri","fractal_assignment":["../images/ylw_slt.png","../images/pnk_blu.png","../images/gry_blk.png","../images/org_blu.png","../images/blu_wht.png","../images/cyn_red.png"],"mutagen_generator_assignment":[1,0],"goal":4,"start":5,"action_noise":0.2,"location_history":"[5,4]","action_history":"[0]","mutagen_history":"[1]","location_rts":"[1632]","trial_type":"fractal-mutation","trial_index":160,"time_elapsed":2746175,"internal_node_id":"0.0-5.0-56.0"},{"group":"hexagon_tri","fractal_assignment":["../images/ylw_slt.png","../images/pnk_blu.png","../images/gry_blk.png","../images/org_blu.png","../images/blu_wht.png","../images/cyn_red.png"],"mutagen_generator_assignment":[1,0],"goal":3,"start":4,"action_noise":0.2,"location_history":"[4,0,5,0,1,5,4,0,1,5,4,0,1,5,4,2,1,3]","action_history":"[0,0,0,0,1,1,0,1,1,0,0,1,1,0,1,1,0]","mutagen_history":"[1,1,1,1,0,0,1,0,0,1,1,0,0,1,0,0,1]","location_rts":"[3006,1403,604,944,273,904,1168,976,770,1054,1174,924,199,1007,275,1287,1062]","trial_type":"fractal-mutation","trial_index":161,"time_elapsed":2785627,"internal_node_id":"0.0-5.0-57.0"},{"group":"hexagon_tri","fractal_assignment":["../images/ylw_slt.png","../images/pnk_blu.png","../images/gry_blk.png","../images/org_blu.png","../images/blu_wht.png","../images/cyn_red.png"],"mutagen_generator_assignment":[1,0],"goal":0,"start":3,"action_noise":0.2,"location_history":"[3,4,0]","action_history":"[1,0]","mutagen_history":"[0,1]","location_rts":"[1554,812]","trial_type":"fractal-mutation","trial_index":162,"time_elapsed":2793694,"internal_node_id":"0.0-5.0-58.0"},{"group":"hexagon_tri","fractal_assignment":["../images/ylw_slt.png","../images/pnk_blu.png","../images/gry_blk.png","../images/org_blu.png","../images/blu_wht.png","../images/cyn_red.png"],"mutagen_generator_assignment":[1,0],"goal":2,"start":0,"action_noise":0.2,"location_history":"[0,5,4,2]","action_history":"[1,0,1]","mutagen_history":"[0,1,0]","location_rts":"[1466,1117,1039]","trial_type":"fractal-mutation","trial_index":163,"time_elapsed":2804118,"internal_node_id":"0.0-5.0-59.0"},{"group":"hexagon_tri","fractal_assignment":["../images/ylw_slt.png","../images/pnk_blu.png","../images/gry_blk.png","../images/org_blu.png","../images/blu_wht.png","../images/cyn_red.png"],"mutagen_generator_assignment":[1,0],"goal":1,"start":2,"action_noise":0.2,"location_history":"[2,1]","action_history":"[0]","mutagen_history":"[1]","location_rts":"[1673]","trial_type":"fractal-mutation","trial_index":164,"time_elapsed":2810425,"internal_node_id":"0.0-5.0-60.0"},{"group":"hexagon_tri","fractal_assignment":["../images/ylw_slt.png","../images/pnk_blu.png","../images/gry_blk.png","../images/org_blu.png","../images/blu_wht.png","../images/cyn_red.png"],"mutagen_generator_assignment":[1,0],"goal":0,"start":1,"action_noise":0.2,"location_history":"[1,3,2,3,2,3,2,3,2,1,5,4,0]","action_history":"[0,0,1,0,0,1,1,0,0,1,0,0]","mutagen_history":"[1,1,0,1,1,0,0,1,1,0,1,1]","location_rts":"[1468,805,11343,681,585,535,560,255,231,1300,1547,1074]","trial_type":"fractal-mutation","trial_index":165,"time_elapsed":2847641,"internal_node_id":"0.0-5.0-61.0"},{"group":"hexagon_tri","fractal_assignment":["../images/ylw_slt.png","../images/pnk_blu.png","../images/gry_blk.png","../images/org_blu.png","../images/blu_wht.png","../images/cyn_red.png"],"mutagen_generator_assignment":[1,0],"goal":3,"start":0,"action_noise":0.2,"location_history":"[0,1,3]","action_history":"[1,0]","mutagen_history":"[0,1]","location_rts":"[1166,1893]","trial_type":"fractal-mutation","trial_index":166,"time_elapsed":2856418,"internal_node_id":"0.0-5.0-62.0"},{"group":"hexagon_tri","fractal_assignment":["../images/ylw_slt.png","../images/pnk_blu.png","../images/gry_blk.png","../images/org_blu.png","../images/blu_wht.png","../images/cyn_red.png"],"mutagen_generator_assignment":[1,0],"goal":5,"start":3,"action_noise":0.2,"location_history":"[3,2,1,5]","action_history":"[0,0,1]","mutagen_history":"[1,1,0]","location_rts":"[5020,1141,625]","trial_type":"fractal-mutation","trial_index":167,"time_elapsed":2870089,"internal_node_id":"0.0-5.0-63.0"},{"group":"hexagon_tri","fractal_assignment":["../images/ylw_slt.png","../images/pnk_blu.png","../images/gry_blk.png","../images/org_blu.png","../images/blu_wht.png","../images/cyn_red.png"],"mutagen_generator_assignment":[1,0],"goal":4,"start":5,"action_noise":0.2,"location_history":"[5,4]","action_history":"[0]","mutagen_history":"[1]","location_rts":"[1818]","trial_type":"fractal-mutation","trial_index":168,"time_elapsed":2876548,"internal_node_id":"0.0-5.0-64.0"},{"group":"hexagon_tri","fractal_assignment":["../images/ylw_slt.png","../images/pnk_blu.png","../images/gry_blk.png","../images/org_blu.png","../images/blu_wht.png","../images/cyn_red.png"],"mutagen_generator_assignment":[1,0],"goal":1,"start":4,"action_noise":0.2,"location_history":"[4,2,3,4,0,1]","action_history":"[1,1,0,0,1]","mutagen_history":"[0,0,1,1,0]","location_rts":"[1867,1336,794,848,786]","trial_type":"fractal-mutation","trial_index":169,"time_elapsed":2891133,"internal_node_id":"0.0-5.0-65.0"},{"group":"hexagon_tri","fractal_assignment":["../images/ylw_slt.png","../images/pnk_blu.png","../images/gry_blk.png","../images/org_blu.png","../images/blu_wht.png","../images/cyn_red.png"],"mutagen_generator_assignment":[1,0],"goal":5,"start":1,"action_noise":0.2,"location_history":"[1,5]","action_history":"[1]","mutagen_history":"[0]","location_rts":"[2289]","trial_type":"fractal-mutation","trial_index":170,"time_elapsed":2898018,"internal_node_id":"0.0-5.0-66.0"},{"group":"hexagon_tri","fractal_assignment":["../images/ylw_slt.png","../images/pnk_blu.png","../images/gry_blk.png","../images/org_blu.png","../images/blu_wht.png","../images/cyn_red.png"],"mutagen_generator_assignment":[1,0],"goal":2,"start":5,"action_noise":0.2,"location_history":"[5,4,2]","action_history":"[0,1]","mutagen_history":"[1,0]","location_rts":"[1520,885]","trial_type":"fractal-mutation","trial_index":171,"time_elapsed":2906156,"internal_node_id":"0.0-5.0-67.0"},{"group":"hexagon_tri","fractal_assignment":["../images/ylw_slt.png","../images/pnk_blu.png","../images/gry_blk.png","../images/org_blu.png","../images/blu_wht.png","../images/cyn_red.png"],"mutagen_generator_assignment":[1,0],"goal":3,"start":2,"action_noise":0.2,"location_history":"[2,3]","action_history":"[1]","mutagen_history":"[0]","location_rts":"[1251]","trial_type":"fractal-mutation","trial_index":172,"time_elapsed":2912000,"internal_node_id":"0.0-5.0-68.0"},{"group":"hexagon_tri","fractal_assignment":["../images/ylw_slt.png","../images/pnk_blu.png","../images/gry_blk.png","../images/org_blu.png","../images/blu_wht.png","../images/cyn_red.png"],"mutagen_generator_assignment":[1,0],"goal":4,"start":3,"action_noise":0.2,"location_history":"[3,4]","action_history":"[1]","mutagen_history":"[0]","location_rts":"[2972]","trial_type":"fractal-mutation","trial_index":173,"time_elapsed":2919542,"internal_node_id":"0.0-5.0-69.0"},{"group":"hexagon_tri","fractal_assignment":["../images/ylw_slt.png","../images/pnk_blu.png","../images/gry_blk.png","../images/org_blu.png","../images/blu_wht.png","../images/cyn_red.png"],"mutagen_generator_assignment":[1,0],"goal":0,"start":4,"action_noise":0.2,"location_history":"[4,2,1,5,4,2,1,5,4,0]","action_history":"[1,0,1,0,0,0,1,0,0]","mutagen_history":"[0,1,0,1,1,1,0,1,1]","location_rts":"[1838,1131,1929,1062,334,872,735,1207,877]","trial_type":"fractal-mutation","trial_index":174,"time_elapsed":2943002,"internal_node_id":"0.0-5.0-70.0"},{"group":"hexagon_tri","fractal_assignment":["../images/ylw_slt.png","../images/pnk_blu.png","../images/gry_blk.png","../images/org_blu.png","../images/blu_wht.png","../images/cyn_red.png"],"mutagen_generator_assignment":[1,0],"goal":5,"start":0,"action_noise":0.2,"location_history":"[0,5]","action_history":"[0]","mutagen_history":"[1]","location_rts":"[841]","trial_type":"fractal-mutation","trial_index":175,"time_elapsed":2948488,"internal_node_id":"0.0-5.0-71.0"},{"group":"hexagon_tri","fractal_assignment":["../images/ylw_slt.png","../images/pnk_blu.png","../images/gry_blk.png","../images/org_blu.png","../images/blu_wht.png","../images/cyn_red.png"],"mutagen_generator_assignment":[1,0],"goal":0,"start":5,"action_noise":0.2,"location_history":"[5,0]","action_history":"[1]","mutagen_history":"[0]","location_rts":"[1697]","trial_type":"fractal-mutation","trial_index":176,"time_elapsed":2954765,"internal_node_id":"0.0-5.0-72.0"},{"group":"hexagon_tri","fractal_assignment":["../images/ylw_slt.png","../images/pnk_blu.png","../images/gry_blk.png","../images/org_blu.png","../images/blu_wht.png","../images/cyn_red.png"],"mutagen_generator_assignment":[1,0],"goal":3,"start":0,"action_noise":0.2,"location_history":"[0,1,3]","action_history":"[1,0]","mutagen_history":"[0,1]","location_rts":"[1766,1008]","trial_type":"fractal-mutation","trial_index":177,"time_elapsed":2963246,"internal_node_id":"0.0-5.0-73.0"},{"group":"hexagon_tri","fractal_assignment":["../images/ylw_slt.png","../images/pnk_blu.png","../images/gry_blk.png","../images/org_blu.png","../images/blu_wht.png","../images/cyn_red.png"],"mutagen_generator_assignment":[1,0],"goal":1,"start":3,"action_noise":0.2,"location_history":"[3,2,1]","action_history":"[0,0]","mutagen_history":"[1,1]","location_rts":"[942,820]","trial_type":"fractal-mutation","trial_index":178,"time_elapsed":2970756,"internal_node_id":"0.0-5.0-74.0"},{"group":"hexagon_tri","fractal_assignment":["../images/ylw_slt.png","../images/pnk_blu.png","../images/gry_blk.png","../images/org_blu.png","../images/blu_wht.png","../images/cyn_red.png"],"mutagen_generator_assignment":[1,0],"goal":2,"start":1,"action_noise":0.2,"location_history":"[1,5,4,2]","action_history":"[1,0,0]","mutagen_history":"[0,1,1]","location_rts":"[3175,1065,422]","trial_type":"fractal-mutation","trial_index":179,"time_elapsed":2982277,"internal_node_id":"0.0-5.0-75.0"},{"group":"hexagon_tri","fractal_assignment":["../images/ylw_slt.png","../images/pnk_blu.png","../images/gry_blk.png","../images/org_blu.png","../images/blu_wht.png","../images/cyn_red.png"],"mutagen_generator_assignment":[1,0],"goal":4,"start":2,"action_noise":0.2,"location_history":"[2,3,4]","action_history":"[0,1]","mutagen_history":"[1,0]","location_rts":"[4106,2020]","trial_type":"fractal-mutation","trial_index":180,"time_elapsed":2994113,"internal_node_id":"0.0-5.0-76.0"},{"group":"hexagon_tri","fractal_assignment":["../images/ylw_slt.png","../images/pnk_blu.png","../images/gry_blk.png","../images/org_blu.png","../images/blu_wht.png","../images/cyn_red.png"],"mutagen_generator_assignment":[1,0],"goal":3,"start":4,"action_noise":0.2,"location_history":"[4,0,1,3]","action_history":"[0,1,0]","mutagen_history":"[1,0,1]","location_rts":"[7168,2641,883]","trial_type":"fractal-mutation","trial_index":181,"time_elapsed":3011693,"internal_node_id":"0.0-5.0-77.0"},{"group":"hexagon_tri","fractal_assignment":["../images/ylw_slt.png","../images/pnk_blu.png","../images/gry_blk.png","../images/org_blu.png","../images/blu_wht.png","../images/cyn_red.png"],"mutagen_generator_assignment":[1,0],"goal":0,"start":3,"action_noise":0.2,"location_history":"[3,2,3,2,3,4,2,3,2,1,5,0]","action_history":"[0,0,0,1,1,1,1,0,0,1,1]","mutagen_history":"[1,1,1,0,0,0,0,1,1,0,0]","location_rts":"[1867,1067,519,248,476,1162,1192,343,266,1053,1563]","trial_type":"fractal-mutation","trial_index":182,"time_elapsed":3037141,"internal_node_id":"0.0-5.0-78.0"},{"group":"hexagon_tri","fractal_assignment":["../images/ylw_slt.png","../images/pnk_blu.png","../images/gry_blk.png","../images/org_blu.png","../images/blu_wht.png","../images/cyn_red.png"],"mutagen_generator_assignment":[1,0],"goal":4,"start":0,"action_noise":0.2,"location_history":"[0,5,4]","action_history":"[1,0]","mutagen_history":"[0,1]","location_rts":"[2162,1058]","trial_type":"fractal-mutation","trial_index":183,"time_elapsed":3046087,"internal_node_id":"0.0-5.0-79.0"},{"group":"hexagon_tri","fractal_assignment":["../images/ylw_slt.png","../images/pnk_blu.png","../images/gry_blk.png","../images/org_blu.png","../images/blu_wht.png","../images/cyn_red.png"],"mutagen_generator_assignment":[1,0],"goal":5,"start":4,"action_noise":0.2,"location_history":"[4,2,1,3,4,2,1,3,2,3,4,0,5]","action_history":"[1,1,0,1,1,0,0,1,1,1,0,0]","mutagen_history":"[0,0,1,0,0,1,1,0,0,0,1,1]","location_rts":"[2587,1269,248,684,2714,811,1274,608,802,379,260,1144]","trial_type":"fractal-mutation","trial_index":184,"time_elapsed":3075519,"internal_node_id":"0.0-5.0-80.0"},{"group":"hexagon_tri","fractal_assignment":["../images/ylw_slt.png","../images/pnk_blu.png","../images/gry_blk.png","../images/org_blu.png","../images/blu_wht.png","../images/cyn_red.png"],"mutagen_generator_assignment":[1,0],"goal":1,"start":5,"action_noise":0.2,"location_history":"[5,0,5,0,1]","action_history":"[1,1,1,0]","mutagen_history":"[0,0,0,1]","location_rts":"[2942,1948,661,248]","trial_type":"fractal-mutation","trial_index":185,"time_elapsed":3089196,"internal_node_id":"0.0-5.0-81.0"},{"group":"hexagon_tri","fractal_assignment":["../images/ylw_slt.png","../images/pnk_blu.png","../images/gry_blk.png","../images/org_blu.png","../images/blu_wht.png","../images/cyn_red.png"],"mutagen_generator_assignment":[1,0],"goal":2,"start":1,"action_noise":0.2,"location_history":"[1,5,4,2]","action_history":"[1,0,1]","mutagen_history":"[0,1,0]","location_rts":"[1525,1645,250]","trial_type":"fractal-mutation","trial_index":186,"time_elapsed":3099405,"internal_node_id":"0.0-5.0-82.0"},{"group":"hexagon_tri","fractal_assignment":["../images/ylw_slt.png","../images/pnk_blu.png","../images/gry_blk.png","../images/org_blu.png","../images/blu_wht.png","../images/cyn_red.png"],"mutagen_generator_assignment":[1,0],"goal":4,"start":2,"action_noise":0.2,"location_history":"[2,3,2,3,2,1,3,4]","action_history":"[0,1,1,0,0,1,1]","mutagen_history":"[1,0,0,1,1,0,0]","location_rts":"[1550,555,700,269,742,449,988]","trial_type":"fractal-mutation","trial_index":187,"time_elapsed":3115917,"internal_node_id":"0.0-5.0-83.0"},{"group":"hexagon_tri","fractal_assignment":["../images/ylw_slt.png","../images/pnk_blu.png","../images/gry_blk.png","../images/org_blu.png","../images/blu_wht.png","../images/cyn_red.png"],"mutagen_generator_assignment":[1,0],"goal":0,"start":4,"action_noise":0.2,"location_history":"[4,0]","action_history":"[0]","mutagen_history":"[1]","location_rts":"[2149]","trial_type":"fractal-mutation","trial_index":188,"time_elapsed":3122702,"internal_node_id":"0.0-5.0-84.0"},{"group":"hexagon_tri","fractal_assignment":["../images/ylw_slt.png","../images/pnk_blu.png","../images/gry_blk.png","../images/org_blu.png","../images/blu_wht.png","../images/cyn_red.png"],"mutagen_generator_assignment":[1,0],"goal":5,"start":0,"action_noise":0.2,"location_history":"[0,5]","action_history":"[0]","mutagen_history":"[1]","location_rts":"[2776]","trial_type":"fractal-mutation","trial_index":189,"time_elapsed":3130133,"internal_node_id":"0.0-5.0-85.0"},{"group":"hexagon_tri","fractal_assignment":["../images/ylw_slt.png","../images/pnk_blu.png","../images/gry_blk.png","../images/org_blu.png","../images/blu_wht.png","../images/cyn_red.png"],"mutagen_generator_assignment":[1,0],"goal":3,"start":5,"action_noise":0.2,"location_history":"[5,4,2,3]","action_history":"[0,1,1]","mutagen_history":"[1,0,0]","location_rts":"[3360,348,673]","trial_type":"fractal-mutation","trial_index":190,"time_elapsed":3141309,"internal_node_id":"0.0-5.0-86.0"},{"group":"hexagon_tri","fractal_assignment":["../images/ylw_slt.png","../images/pnk_blu.png","../images/gry_blk.png","../images/org_blu.png","../images/blu_wht.png","../images/cyn_red.png"],"mutagen_generator_assignment":[1,0],"goal":1,"start":3,"action_noise":0.2,"location_history":"[3,2,3,4,2,3,4,0,1]","action_history":"[0,0,1,1,1,1,0,1]","mutagen_history":"[1,1,0,0,0,0,1,0]","location_rts":"[1952,1427,285,903,1117,685,256,1465]","trial_type":"fractal-mutation","trial_index":191,"time_elapsed":3161687,"internal_node_id":"0.0-5.0-87.0"},{"group":"hexagon_tri","fractal_assignment":["../images/ylw_slt.png","../images/pnk_blu.png","../images/gry_blk.png","../images/org_blu.png","../images/blu_wht.png","../images/cyn_red.png"],"mutagen_generator_assignment":[1,0],"goal":2,"start":1,"action_noise":0.2,"location_history":"[1,5,4,2]","action_history":"[1,0,1]","mutagen_history":"[0,1,0]","location_rts":"[1080,696,325]","trial_type":"fractal-mutation","trial_index":192,"time_elapsed":3170584,"internal_node_id":"0.0-5.0-88.0"},{"group":"hexagon_tri","fractal_assignment":["../images/ylw_slt.png","../images/pnk_blu.png","../images/gry_blk.png","../images/org_blu.png","../images/blu_wht.png","../images/cyn_red.png"],"mutagen_generator_assignment":[1,0],"goal":0,"start":2,"action_noise":0.2,"location_history":"[2,1,5,0]","action_history":"[0,1,1]","mutagen_history":"[1,0,0]","location_rts":"[1888,2206,2409]","trial_type":"fractal-mutation","trial_index":193,"time_elapsed":3183890,"internal_node_id":"0.0-5.0-89.0"},{"group":"hexagon_tri","fractal_assignment":["../images/ylw_slt.png","../images/pnk_blu.png","../images/gry_blk.png","../images/org_blu.png","../images/blu_wht.png","../images/cyn_red.png"],"mutagen_generator_assignment":[1,0],"goal":5,"start":0,"action_noise":0.2,"location_history":"[0,5]","action_history":"[0]","mutagen_history":"[1]","location_rts":"[2423]","trial_type":"fractal-mutation","trial_index":194,"time_elapsed":3190937,"internal_node_id":"0.0-5.0-90.0"},{"group":"hexagon_tri","fractal_assignment":["../images/ylw_slt.png","../images/pnk_blu.png","../images/gry_blk.png","../images/org_blu.png","../images/blu_wht.png","../images/cyn_red.png"],"mutagen_generator_assignment":[1,0],"goal":1,"start":5,"action_noise":0.2,"location_history":"[5,0,1]","action_history":"[1,1]","mutagen_history":"[0,0]","location_rts":"[1418,1949]","trial_type":"fractal-mutation","trial_index":195,"time_elapsed":3199960,"internal_node_id":"0.0-5.0-91.0"},{"group":"hexagon_tri","fractal_assignment":["../images/ylw_slt.png","../images/pnk_blu.png","../images/gry_blk.png","../images/org_blu.png","../images/blu_wht.png","../images/cyn_red.png"],"mutagen_generator_assignment":[1,0],"goal":3,"start":1,"action_noise":0.2,"location_history":"[1,5,0,5,4,2,3]","action_history":"[0,0,1,0,1,1]","mutagen_history":"[1,1,0,1,0,0]","location_rts":"[1952,1204,222,1308,879,1412]","trial_type":"fractal-mutation","trial_index":196,"time_elapsed":3217069,"internal_node_id":"0.0-5.0-92.0"},{"group":"hexagon_tri","fractal_assignment":["../images/ylw_slt.png","../images/pnk_blu.png","../images/gry_blk.png","../images/org_blu.png","../images/blu_wht.png","../images/cyn_red.png"],"mutagen_generator_assignment":[1,0],"goal":4,"start":3,"action_noise":0.2,"location_history":"[3,2,1,5,4]","action_history":"[0,0,1,0]","mutagen_history":"[1,1,0,1]","location_rts":"[1846,1269,147,840]","trial_type":"fractal-mutation","trial_index":197,"time_elapsed":3229119,"internal_node_id":"0.0-5.0-93.0"},{"group":"hexagon_tri","fractal_assignment":["../images/ylw_slt.png","../images/pnk_blu.png","../images/gry_blk.png","../images/org_blu.png","../images/blu_wht.png","../images/cyn_red.png"],"mutagen_generator_assignment":[1,0],"goal":2,"start":4,"action_noise":0.2,"location_history":"[4,2]","action_history":"[1]","mutagen_history":"[0]","location_rts":"[3218]","trial_type":"fractal-mutation","trial_index":198,"time_elapsed":3236913,"internal_node_id":"0.0-5.0-94.0"},{"group":"hexagon_tri","fractal_assignment":["../images/ylw_slt.png","../images/pnk_blu.png","../images/gry_blk.png","../images/org_blu.png","../images/blu_wht.png","../images/cyn_red.png"],"mutagen_generator_assignment":[1,0],"goal":4,"start":2,"action_noise":0.2,"location_history":"[2,3,2,1,5,4]","action_history":"[1,0,0,1,0]","mutagen_history":"[0,1,1,0,1]","location_rts":"[2456,302,1240,199,828]","trial_type":"fractal-mutation","trial_index":199,"time_elapsed":3250956,"internal_node_id":"0.0-5.0-95.0"},{"group":"hexagon_tri","fractal_assignment":["../images/ylw_slt.png","../images/pnk_blu.png","../images/gry_blk.png","../images/org_blu.png","../images/blu_wht.png","../images/cyn_red.png"],"mutagen_generator_assignment":[1,0],"goal":0,"start":4,"action_noise":0.2,"location_history":"[4,0]","action_history":"[0]","mutagen_history":"[1]","location_rts":"[1913]","trial_type":"fractal-mutation","trial_index":200,"time_elapsed":3257483,"internal_node_id":"0.0-5.0-96.0"},{"group":"hexagon_tri","fractal_assignment":["../images/ylw_slt.png","../images/pnk_blu.png","../images/gry_blk.png","../images/org_blu.png","../images/blu_wht.png","../images/cyn_red.png"],"mutagen_generator_assignment":[1,0],"goal":5,"start":0,"action_noise":0.2,"location_history":"[0,5]","action_history":"[0]","mutagen_history":"[1]","location_rts":"[1852]","trial_type":"fractal-mutation","trial_index":201,"time_elapsed":3263972,"internal_node_id":"0.0-5.0-97.0"},{"group":"hexagon_tri","fractal_assignment":["../images/ylw_slt.png","../images/pnk_blu.png","../images/gry_blk.png","../images/org_blu.png","../images/blu_wht.png","../images/cyn_red.png"],"mutagen_generator_assignment":[1,0],"goal":1,"start":5,"action_noise":0.2,"location_history":"[5,4,2,1]","action_history":"[1,1,0]","mutagen_history":"[0,0,1]","location_rts":"[52449,1299,2446]","trial_type":"fractal-mutation","trial_index":202,"time_elapsed":3326934,"internal_node_id":"0.0-5.0-98.0"},{"group":"hexagon_tri","fractal_assignment":["../images/ylw_slt.png","../images/pnk_blu.png","../images/gry_blk.png","../images/org_blu.png","../images/blu_wht.png","../images/cyn_red.png"],"mutagen_generator_assignment":[1,0],"goal":3,"start":1,"action_noise":0.2,"location_history":"[1,3]","action_history":"[0]","mutagen_history":"[1]","location_rts":"[4028]","trial_type":"fractal-mutation","trial_index":203,"time_elapsed":3335582,"internal_node_id":"0.0-5.0-99.0"},{"view_history":"[{\"page_index\":0,\"viewing_time\":4708}]","rt":4710,"trial_type":"instructions","trial_index":204,"time_elapsed":3341293,"internal_node_id":"0.0-6.0"},{"rt":1550,"responses":"{\"Q0\":\"\"}","trial_type":"survey-text","trial_index":205,"time_elapsed":3343847,"internal_node_id":"0.0-7.0"}]