[{"view_history":"[{\"page_index\":0,\"viewing_time\":15681},{\"page_index\":1,\"viewing_time\":15653},{\"page_index\":2,\"viewing_time\":17464},{\"page_index\":3,\"viewing_time\":33886}]","rt":82684,"trial_type":"instructions","trial_index":0,"time_elapsed":82686,"internal_node_id":"0.0-0.0"},{"view_history":"[{\"page_index\":0,\"viewing_time\":2286},{\"page_index\":1,\"viewing_time\":71565}]","rt":73851,"trial_type":"instructions","trial_index":1,"time_elapsed":157538,"internal_node_id":"0.0-1.0"},{"group":"hexagon_tri","room_assignment":["red","yellow","grey","purple","blue","green"],"door_color_assignment":["black","white"],"door_generator_assignment":[1,0],"goal":4,"start":0,"action_noise":0.2,"location_history":"[0,1,3,4]","action_history":"[1,0,0]","door_history":"[0,1,1]","location_rts":"[6292,10740,7353]","trial_type":"two-door-navigation","trial_index":2,"time_elapsed":188496,"internal_node_id":"0.0-2.0-0.0"},{"group":"hexagon_tri","room_assignment":["red","yellow","grey","purple","blue","green"],"door_color_assignment":["black","white"],"door_generator_assignment":[1,0],"goal":3,"start":4,"action_noise":0.2,"location_history":"[4,0,1,5,0,5,0,1,5,4,2,3]","action_history":"[0,1,0,1,0,1,1,1,0,1,1]","door_history":"[1,0,1,0,1,0,0,0,1,0,0]","location_rts":"[12989,6797,3384,12902,5627,8922,4422,6314,6187,10432,6608]","trial_type":"two-door-navigation","trial_index":3,"time_elapsed":287857,"internal_node_id":"0.0-2.0-1.0"},{"group":"hexagon_tri","room_assignment":["red","yellow","grey","purple","blue","green"],"door_color_assignment":["black","white"],"door_generator_assignment":[1,0],"goal":5,"start":3,"action_noise":0.2,"location_history":"[3,2,3,2,1,3,4,0,5]","action_history":"[0,1,0,0,0,1,0,0]","door_history":"[1,0,1,1,1,0,1,1]","location_rts":"[16831,6296,8764,2419,11694,3688,12410,1269]","trial_type":"two-door-navigation","trial_index":4,"time_elapsed":362910,"internal_node_id":"0.0-2.0-2.0"},{"group":"hexagon_tri","room_assignment":["red","yellow","grey","purple","blue","green"],"door_color_assignment":["black","white"],"door_generator_assignment":[1,0],"goal":2,"start":5,"action_noise":0.2,"location_history":"[5,4,0,5,4,2]","action_history":"[0,1,1,0,1]","door_history":"[1,0,0,1,0]","location_rts":"[10136,1528,25549,13375,1763]","trial_type":"two-door-navigation","trial_index":5,"time_elapsed":423881,"internal_node_id":"0.0-2.0-3.0"},{"group":"hexagon_tri","room_assignment":["red","yellow","grey","purple","blue","green"],"door_color_assignment":["black","white"],"door_generator_assignment":[1,0],"goal":1,"start":2,"action_noise":0.2,"location_history":"[2,1]","action_history":"[0]","door_history":"[1]","location_rts":"[4940]","trial_type":"two-door-navigation","trial_index":6,"time_elapsed":433339,"internal_node_id":"0.0-2.0-4.0"},{"group":"hexagon_tri","room_assignment":["red","yellow","grey","purple","blue","green"],"door_color_assignment":["black","white"],"door_generator_assignment":[1,0],"goal":4,"start":1,"action_noise":0.2,"location_history":"[1,3,2,1,3,4]","action_history":"[1,0,0,0,1]","door_history":"[0,1,1,1,0]","location_rts":"[11477,18007,1717,1831,6823]","trial_type":"two-door-navigation","trial_index":7,"time_elapsed":481801,"internal_node_id":"0.0-2.0-5.0"},{"group":"hexagon_tri","room_assignment":["red","yellow","grey","purple","blue","green"],"door_color_assignment":["black","white"],"door_generator_assignment":[1,0],"goal":1,"start":4,"action_noise":0.2,"location_history":"[4,0,5,0,1]","action_history":"[0,0,1,0]","door_history":"[1,1,0,1]","location_rts":"[7217,7383,14589,1450]","trial_type":"two-door-navigation","trial_index":8,"time_elapsed":520029,"internal_node_id":"0.0-2.0-6.0"},{"group":"hexagon_tri","room_assignment":["red","yellow","grey","purple","blue","green"],"door_color_assignment":["black","white"],"door_generator_assignment":[1,0],"goal":5,"start":1,"action_noise":0.2,"location_history":"[1,3,2,3,4,0,1,3,2,3,2,1,3,2,1,5]","action_history":"[0,0,1,1,0,1,0,1,1,0,0,0,0,0,1]","door_history":"[1,1,0,0,1,0,1,0,0,1,1,1,1,1,0]","location_rts":"[2675,12531,11505,11713,6067,3019,12516,6342,9928,2877,672,2427,913,376,543]","trial_type":"two-door-navigation","trial_index":9,"time_elapsed":622986,"internal_node_id":"0.0-2.0-7.0"},{"group":"hexagon_tri","room_assignment":["red","yellow","grey","purple","blue","green"],"door_color_assignment":["black","white"],"door_generator_assignment":[1,0],"goal":0,"start":5,"action_noise":0.2,"location_history":"[5,4,2,1,3,2,1,3,2,1,3,2,3,4,2,3,2,3,4,0]","action_history":"[1,1,1,0,0,0,0,0,0,1,0,1,1,1,1,1,1,1,0]","door_history":"[0,0,0,1,1,1,1,1,1,0,1,0,0,0,0,0,0,0,1]","location_rts":"[9592,8112,5557,2448,2706,9968,1710,1907,456,296,1841,776,509,1965,825,476,1329,1086,601]","trial_type":"two-door-navigation","trial_index":10,"time_elapsed":698098,"internal_node_id":"0.0-2.0-8.0"},{"group":"hexagon_tri","room_assignment":["red","yellow","grey","purple","blue","green"],"door_color_assignment":["black","white"],"door_generator_assignment":[1,0],"goal":2,"start":0,"action_noise":0.2,"location_history":"[0,5,4,0,1,5,4,2]","action_history":"[0,1,0,1,1,0,0]","door_history":"[1,0,1,0,0,1,1]","location_rts":"[2471,3560,3967,1500,780,872,6224]","trial_type":"two-door-navigation","trial_index":11,"time_elapsed":728139,"internal_node_id":"0.0-2.0-9.0"},{"group":"hexagon_tri","room_assignment":["red","yellow","grey","purple","blue","green"],"door_color_assignment":["black","white"],"door_generator_assignment":[1,0],"goal":3,"start":2,"action_noise":0.2,"location_history":"[2,3]","action_history":"[1]","door_history":"[0]","location_rts":"[5977]","trial_type":"two-door-navigation","trial_index":12,"time_elapsed":738641,"internal_node_id":"0.0-2.0-10.0"},{"group":"hexagon_tri","room_assignment":["red","yellow","grey","purple","blue","green"],"door_color_assignment":["black","white"],"door_generator_assignment":[1,0],"goal":0,"start":3,"action_noise":0.2,"location_history":"[3,2,1,5,0]","action_history":"[0,0,1,1]","door_history":"[1,1,0,0]","location_rts":"[7637,5459,5863,15526]","trial_type":"two-door-navigation","trial_index":13,"time_elapsed":780713,"internal_node_id":"0.0-2.0-11.0"},{"group":"hexagon_tri","room_assignment":["red","yellow","grey","purple","blue","green"],"door_color_assignment":["black","white"],"door_generator_assignment":[1,0],"goal":2,"start":0,"action_noise":0.2,"location_history":"[0,5,0,5,0,1,3,2]","action_history":"[0,0,1,1,1,0,0]","door_history":"[1,1,0,0,0,1,1]","location_rts":"[6401,6219,1485,1125,546,203,3637]","trial_type":"two-door-navigation","trial_index":14,"time_elapsed":810973,"internal_node_id":"0.0-2.0-12.0"},{"group":"hexagon_tri","room_assignment":["red","yellow","grey","purple","blue","green"],"door_color_assignment":["black","white"],"door_generator_assignment":[1,0],"goal":5,"start":2,"action_noise":0.2,"location_history":"[2,3,4,0,5]","action_history":"[1,1,0,0]","door_history":"[0,0,1,1]","location_rts":"[3302,7298,4270,1909]","trial_type":"two-door-navigation","trial_index":15,"time_elapsed":835344,"internal_node_id":"0.0-2.0-13.0"},{"group":"hexagon_tri","room_assignment":["red","yellow","grey","purple","blue","green"],"door_color_assignment":["black","white"],"door_generator_assignment":[1,0],"goal":4,"start":5,"action_noise":0.2,"location_history":"[5,4]","action_history":"[0]","door_history":"[1]","location_rts":"[2619]","trial_type":"two-door-navigation","trial_index":16,"time_elapsed":842482,"internal_node_id":"0.0-2.0-14.0"},{"group":"hexagon_tri","room_assignment":["red","yellow","grey","purple","blue","green"],"door_color_assignment":["black","white"],"door_generator_assignment":[1,0],"goal":3,"start":4,"action_noise":0.2,"location_history":"[4,2,3]","action_history":"[1,1]","door_history":"[0,0]","location_rts":"[6458,1150]","trial_type":"two-door-navigation","trial_index":17,"time_elapsed":855638,"internal_node_id":"0.0-2.0-15.0"},{"group":"hexagon_tri","room_assignment":["red","yellow","grey","purple","blue","green"],"door_color_assignment":["black","white"],"door_generator_assignment":[1,0],"goal":1,"start":3,"action_noise":0.2,"location_history":"[3,2,1]","action_history":"[0,0]","door_history":"[1,1]","location_rts":"[11355,1095]","trial_type":"two-door-navigation","trial_index":18,"time_elapsed":873638,"internal_node_id":"0.0-2.0-16.0"},{"group":"hexagon_tri","room_assignment":["red","yellow","grey","purple","blue","green"],"door_color_assignment":["black","white"],"door_generator_assignment":[1,0],"goal":5,"start":1,"action_noise":0.2,"location_history":"[1,5]","action_history":"[1]","door_history":"[0]","location_rts":"[4195]","trial_type":"two-door-navigation","trial_index":19,"time_elapsed":882357,"internal_node_id":"0.0-2.0-17.0"},{"group":"hexagon_tri","room_assignment":["red","yellow","grey","purple","blue","green"],"door_color_assignment":["black","white"],"door_generator_assignment":[1,0],"goal":4,"start":5,"action_noise":0.2,"location_history":"[5,0,1,3,4]","action_history":"[0,0,0,0]","door_history":"[1,1,1,1]","location_rts":"[5106,9613,685,1760]","trial_type":"two-door-navigation","trial_index":20,"time_elapsed":907119,"internal_node_id":"0.0-2.0-18.0"},{"group":"hexagon_tri","room_assignment":["red","yellow","grey","purple","blue","green"],"door_color_assignment":["black","white"],"door_generator_assignment":[1,0],"goal":0,"start":4,"action_noise":0.2,"location_history":"[4,0]","action_history":"[0]","door_history":"[1]","location_rts":"[4537]","trial_type":"two-door-navigation","trial_index":21,"time_elapsed":916181,"internal_node_id":"0.0-2.0-19.0"},{"group":"hexagon_tri","room_assignment":["red","yellow","grey","purple","blue","green"],"door_color_assignment":["black","white"],"door_generator_assignment":[1,0],"goal":1,"start":0,"action_noise":0.2,"location_history":"[0,1]","action_history":"[1]","door_history":"[0]","location_rts":"[3440]","trial_type":"two-door-navigation","trial_index":22,"time_elapsed":924146,"internal_node_id":"0.0-2.0-20.0"},{"group":"hexagon_tri","room_assignment":["red","yellow","grey","purple","blue","green"],"door_color_assignment":["black","white"],"door_generator_assignment":[1,0],"goal":3,"start":1,"action_noise":0.2,"location_history":"[1,3]","action_history":"[0]","door_history":"[1]","location_rts":"[3453]","trial_type":"two-door-navigation","trial_index":23,"time_elapsed":932122,"internal_node_id":"0.0-2.0-21.0"},{"group":"hexagon_tri","room_assignment":["red","yellow","grey","purple","blue","green"],"door_color_assignment":["black","white"],"door_generator_assignment":[1,0],"goal":2,"start":3,"action_noise":0.2,"location_history":"[3,2]","action_history":"[0]","door_history":"[1]","location_rts":"[2501]","trial_type":"two-door-navigation","trial_index":24,"time_elapsed":939142,"internal_node_id":"0.0-2.0-22.0"},{"group":"hexagon_tri","room_assignment":["red","yellow","grey","purple","blue","green"],"door_color_assignment":["black","white"],"door_generator_assignment":[1,0],"goal":0,"start":2,"action_noise":0.2,"location_history":"[2,3,4,2,3,4,2,1,3,4,0]","action_history":"[1,1,1,1,1,0,0,0,0,0]","door_history":"[0,0,0,0,0,1,1,1,1,1]","location_rts":"[6991,2346,9245,810,299,752,818,6602,1226,4215]","trial_type":"two-door-navigation","trial_index":25,"time_elapsed":986157,"internal_node_id":"0.0-2.0-23.0"},{"group":"hexagon_tri","room_assignment":["red","yellow","grey","purple","blue","green"],"door_color_assignment":["black","white"],"door_generator_assignment":[1,0],"goal":3,"start":0,"action_noise":0.2,"location_history":"[0,5,0,5,4,2,1,3]","action_history":"[0,0,1,1,1,1,0]","door_history":"[1,1,0,0,0,0,1]","location_rts":"[1278,4259,921,696,1936,1165,3429]","trial_type":"two-door-navigation","trial_index":26,"time_elapsed":1010496,"internal_node_id":"0.0-2.0-24.0"},{"group":"hexagon_tri","room_assignment":["red","yellow","grey","purple","blue","green"],"door_color_assignment":["black","white"],"door_generator_assignment":[1,0],"goal":1,"start":3,"action_noise":0.2,"location_history":"[3,2,1]","action_history":"[0,0]","door_history":"[1,1]","location_rts":"[5922,572]","trial_type":"two-door-navigation","trial_index":27,"time_elapsed":1022532,"internal_node_id":"0.0-2.0-25.0"},{"group":"hexagon_tri","room_assignment":["red","yellow","grey","purple","blue","green"],"door_color_assignment":["black","white"],"door_generator_assignment":[1,0],"goal":2,"start":1,"action_noise":0.2,"location_history":"[1,5,4,2]","action_history":"[1,0,1]","door_history":"[0,1,0]","location_rts":"[8012,3102,2790]","trial_type":"two-door-navigation","trial_index":28,"time_elapsed":1043012,"internal_node_id":"0.0-2.0-26.0"},{"group":"hexagon_tri","room_assignment":["red","yellow","grey","purple","blue","green"],"door_color_assignment":["black","white"],"door_generator_assignment":[1,0],"goal":5,"start":2,"action_noise":0.2,"location_history":"[2,1,3,2,1,5]","action_history":"[0,0,0,0,1]","door_history":"[1,1,1,1,0]","location_rts":"[6244,902,962,642,300]","trial_type":"two-door-navigation","trial_index":29,"time_elapsed":1060680,"internal_node_id":"0.0-2.0-27.0"},{"group":"hexagon_tri","room_assignment":["red","yellow","grey","purple","blue","green"],"door_color_assignment":["black","white"],"door_generator_assignment":[1,0],"goal":4,"start":5,"action_noise":0.2,"location_history":"[5,0,5,4]","action_history":"[1,0,0]","door_history":"[0,1,1]","location_rts":"[2167,2835,3097]","trial_type":"two-door-navigation","trial_index":30,"time_elapsed":1075344,"internal_node_id":"0.0-2.0-28.0"},{"group":"hexagon_tri","room_assignment":["red","yellow","grey","purple","blue","green"],"door_color_assignment":["black","white"],"door_generator_assignment":[1,0],"goal":5,"start":4,"action_noise":0.2,"location_history":"[4,0,1,3,4,0,1,5]","action_history":"[0,1,0,0,1,1,1]","door_history":"[1,0,1,1,0,0,0]","location_rts":"[6502,1359,3458,1896,1066,361,462]","trial_type":"two-door-navigation","trial_index":31,"time_elapsed":1101111,"internal_node_id":"0.0-2.0-29.0"},{"group":"hexagon_tri","room_assignment":["red","yellow","grey","purple","blue","green"],"door_color_assignment":["black","white"],"door_generator_assignment":[1,0],"goal":3,"start":5,"action_noise":0.2,"location_history":"[5,4,2,3]","action_history":"[0,1,1]","door_history":"[1,0,0]","location_rts":"[5039,3467,363]","trial_type":"two-door-navigation","trial_index":32,"time_elapsed":1116548,"internal_node_id":"0.0-2.0-30.0"},{"group":"hexagon_tri","room_assignment":["red","yellow","grey","purple","blue","green"],"door_color_assignment":["black","white"],"door_generator_assignment":[1,0],"goal":0,"start":3,"action_noise":0.2,"location_history":"[3,4,2,3,4,2,3,2,3,4,0]","action_history":"[1,0,0,1,1,1,0,1,1,0]","door_history":"[0,1,1,0,0,0,1,0,0,1]","location_rts":"[12026,3794,5904,1711,729,1324,567,712,86,1221]","trial_type":"two-door-navigation","trial_index":33,"time_elapsed":1158370,"internal_node_id":"0.0-2.0-31.0"},{"group":"hexagon_tri","room_assignment":["red","yellow","grey","purple","blue","green"],"door_color_assignment":["black","white"],"door_generator_assignment":[1,0],"goal":4,"start":0,"action_noise":0.2,"location_history":"[0,5,4]","action_history":"[0,0]","door_history":"[1,1]","location_rts":"[2627,5943]","trial_type":"two-door-navigation","trial_index":34,"time_elapsed":1172486,"internal_node_id":"0.0-2.0-32.0"},{"group":"hexagon_tri","room_assignment":["red","yellow","grey","purple","blue","green"],"door_color_assignment":["black","white"],"door_generator_assignment":[1,0],"goal":1,"start":4,"action_noise":0.2,"location_history":"[4,0,1]","action_history":"[0,1]","door_history":"[1,0]","location_rts":"[10933,1053]","trial_type":"two-door-navigation","trial_index":35,"time_elapsed":1190023,"internal_node_id":"0.0-2.0-33.0"},{"group":"hexagon_tri","room_assignment":["red","yellow","grey","purple","blue","green"],"door_color_assignment":["black","white"],"door_generator_assignment":[1,0],"goal":2,"start":1,"action_noise":0.2,"location_history":"[1,5,0,5,0,1,5,0,5,4,2]","action_history":"[1,0,0,1,1,1,1,0,0,1]","door_history":"[0,1,1,0,0,0,0,1,1,0]","location_rts":"[3138,2684,1152,1336,1279,1257,1753,671,662,4317]","trial_type":"two-door-navigation","trial_index":36,"time_elapsed":1222000,"internal_node_id":"0.0-2.0-34.0"},{"group":"hexagon_tri","room_assignment":["red","yellow","grey","purple","blue","green"],"door_color_assignment":["black","white"],"door_generator_assignment":[1,0],"goal":0,"start":2,"action_noise":0.2,"location_history":"[2,3,4,0]","action_history":"[0,1,0]","door_history":"[1,0,1]","location_rts":"[3674,3271,2752]","trial_type":"two-door-navigation","trial_index":37,"time_elapsed":1238259,"internal_node_id":"0.0-2.0-35.0"},{"group":"hexagon_tri","room_assignment":["red","yellow","grey","purple","blue","green"],"door_color_assignment":["black","white"],"door_generator_assignment":[1,0],"goal":5,"start":0,"action_noise":0.2,"location_history":"[0,1,3,2,1,5]","action_history":"[1,0,0,0,1]","door_history":"[0,1,1,1,0]","location_rts":"[7397,2312,1122,872,567]","trial_type":"two-door-navigation","trial_index":38,"time_elapsed":1259154,"internal_node_id":"0.0-2.0-36.0"},{"group":"hexagon_tri","room_assignment":["red","yellow","grey","purple","blue","green"],"door_color_assignment":["black","white"],"door_generator_assignment":[1,0],"goal":2,"start":5,"action_noise":0.2,"location_history":"[5,4,2]","action_history":"[0,1]","door_history":"[1,0]","location_rts":"[6596,400]","trial_type":"two-door-navigation","trial_index":39,"time_elapsed":1271692,"internal_node_id":"0.0-2.0-37.0"},{"group":"hexagon_tri","room_assignment":["red","yellow","grey","purple","blue","green"],"door_color_assignment":["black","white"],"door_generator_assignment":[1,0],"goal":1,"start":2,"action_noise":0.2,"location_history":"[2,3,4,0,5,4,2,3,2,3,2,1]","action_history":"[0,0,0,0,1,1,1,0,1,1,0]","door_history":"[1,1,1,1,0,0,0,1,0,0,1]","location_rts":"[3193,3804,496,715,673,525,744,3170,1029,611,758]","trial_type":"two-door-navigation","trial_index":40,"time_elapsed":1302163,"internal_node_id":"0.0-2.0-38.0"},{"group":"hexagon_tri","room_assignment":["red","yellow","grey","purple","blue","green"],"door_color_assignment":["black","white"],"door_generator_assignment":[1,0],"goal":4,"start":1,"action_noise":0.2,"location_history":"[1,3,4]","action_history":"[0,1]","door_history":"[1,0]","location_rts":"[3058,2701]","trial_type":"two-door-navigation","trial_index":41,"time_elapsed":1313461,"internal_node_id":"0.0-2.0-39.0"},{"group":"hexagon_tri","room_assignment":["red","yellow","grey","purple","blue","green"],"door_color_assignment":["black","white"],"door_generator_assignment":[1,0],"goal":3,"start":4,"action_noise":0.2,"location_history":"[4,0,1,3]","action_history":"[1,1,0]","door_history":"[0,0,1]","location_rts":"[3335,1693,2555]","trial_type":"two-door-navigation","trial_index":42,"time_elapsed":1327610,"internal_node_id":"0.0-2.0-40.0"},{"group":"hexagon_tri","room_assignment":["red","yellow","grey","purple","blue","green"],"door_color_assignment":["black","white"],"door_generator_assignment":[1,0],"goal":5,"start":3,"action_noise":0.2,"location_history":"[3,4,2,1,5]","action_history":"[1,0,0,0]","door_history":"[0,1,1,1]","location_rts":"[4817,1237,577,2703]","trial_type":"two-door-navigation","trial_index":43,"time_elapsed":1344544,"internal_node_id":"0.0-2.0-41.0"},{"group":"hexagon_tri","room_assignment":["red","yellow","grey","purple","blue","green"],"door_color_assignment":["black","white"],"door_generator_assignment":[1,0],"goal":3,"start":5,"action_noise":0.2,"location_history":"[5,0,5,4,0,1,5,0,5,0,5,4,2,3]","action_history":"[1,0,0,0,1,1,0,0,1,0,0,1,1]","door_history":"[0,1,1,1,0,0,1,1,0,1,1,0,0]","location_rts":"[5818,778,554,3720,515,1757,3189,506,1016,2592,1109,2568,1617]","trial_type":"two-door-navigation","trial_index":44,"time_elapsed":1387065,"internal_node_id":"0.0-2.0-42.0"},{"group":"hexagon_tri","room_assignment":["red","yellow","grey","purple","blue","green"],"door_color_assignment":["black","white"],"door_generator_assignment":[1,0],"goal":0,"start":3,"action_noise":0.2,"location_history":"[3,4,0]","action_history":"[0,0]","door_history":"[1,1]","location_rts":"[8056,6320]","trial_type":"two-door-navigation","trial_index":45,"time_elapsed":1406988,"internal_node_id":"0.0-2.0-43.0"},{"group":"hexagon_tri","room_assignment":["red","yellow","grey","purple","blue","green"],"door_color_assignment":["black","white"],"door_generator_assignment":[1,0],"goal":2,"start":0,"action_noise":0.2,"location_history":"[0,1,5,4,2]","action_history":"[1,1,0,1]","door_history":"[0,0,1,0]","location_rts":"[6140,2304,3547,2451]","trial_type":"two-door-navigation","trial_index":46,"time_elapsed":1429025,"internal_node_id":"0.0-2.0-44.0"},{"group":"hexagon_tri","room_assignment":["red","yellow","grey","purple","blue","green"],"door_color_assignment":["black","white"],"door_generator_assignment":[1,0],"goal":4,"start":2,"action_noise":0.2,"location_history":"[2,3,4]","action_history":"[1,1]","door_history":"[0,0]","location_rts":"[7301,1059]","trial_type":"two-door-navigation","trial_index":47,"time_elapsed":1442931,"internal_node_id":"0.0-2.0-45.0"},{"group":"hexagon_tri","room_assignment":["red","yellow","grey","purple","blue","green"],"door_color_assignment":["black","white"],"door_generator_assignment":[1,0],"goal":1,"start":4,"action_noise":0.2,"location_history":"[4,0,5,0,1]","action_history":"[1,0,1,1]","door_history":"[0,1,0,0]","location_rts":"[4650,1631,1457,690]","trial_type":"two-door-navigation","trial_index":48,"time_elapsed":1458952,"internal_node_id":"0.0-2.0-46.0"},{"group":"hexagon_tri","room_assignment":["red","yellow","grey","purple","blue","green"],"door_color_assignment":["black","white"],"door_generator_assignment":[1,0],"goal":4,"start":1,"action_noise":0.2,"location_history":"[1,3,4]","action_history":"[0,1]","door_history":"[1,0]","location_rts":"[5381,2208]","trial_type":"two-door-navigation","trial_index":49,"time_elapsed":1472088,"internal_node_id":"0.0-2.0-47.0"},{"group":"hexagon_tri","room_assignment":["red","yellow","grey","purple","blue","green"],"door_color_assignment":["black","white"],"door_generator_assignment":[1,0],"goal":1,"start":4,"action_noise":0.2,"location_history":"[4,0,1]","action_history":"[0,1]","door_history":"[1,0]","location_rts":"[5108,1064]","trial_type":"two-door-navigation","trial_index":50,"time_elapsed":1483806,"internal_node_id":"0.0-2.0-48.0"},{"group":"hexagon_tri","room_assignment":["red","yellow","grey","purple","blue","green"],"door_color_assignment":["black","white"],"door_generator_assignment":[1,0],"goal":3,"start":1,"action_noise":0.2,"location_history":"[1,5,4,2,3]","action_history":"[1,0,1,1]","door_history":"[0,1,0,0]","location_rts":"[10238,9385,2382,433]","trial_type":"two-door-navigation","trial_index":51,"time_elapsed":1513838,"internal_node_id":"0.0-2.0-49.0"},{"group":"hexagon_tri","room_assignment":["red","yellow","grey","purple","blue","green"],"door_color_assignment":["black","white"],"door_generator_assignment":[1,0],"goal":5,"start":3,"action_noise":0.2,"location_history":"[3,2,1,5]","action_history":"[1,1,1]","door_history":"[0,0,0]","location_rts":"[7955,1257,2572]","trial_type":"two-door-navigation","trial_index":52,"time_elapsed":1532185,"internal_node_id":"0.0-2.0-50.0"},{"group":"hexagon_tri","room_assignment":["red","yellow","grey","purple","blue","green"],"door_color_assignment":["black","white"],"door_generator_assignment":[1,0],"goal":0,"start":5,"action_noise":0.2,"location_history":"[5,0]","action_history":"[1]","door_history":"[0]","location_rts":"[1736]","trial_type":"two-door-navigation","trial_index":53,"time_elapsed":1538448,"internal_node_id":"0.0-2.0-51.0"},{"group":"hexagon_tri","room_assignment":["red","yellow","grey","purple","blue","green"],"door_color_assignment":["black","white"],"door_generator_assignment":[1,0],"goal":2,"start":0,"action_noise":0.2,"location_history":"[0,1,3,2]","action_history":"[0,0,1]","door_history":"[1,1,0]","location_rts":"[2241,2709,1742]","trial_type":"two-door-navigation","trial_index":54,"time_elapsed":1551710,"internal_node_id":"0.0-2.0-52.0"},{"group":"hexagon_tri","room_assignment":["red","yellow","grey","purple","blue","green"],"door_color_assignment":["black","white"],"door_generator_assignment":[1,0],"goal":1,"start":2,"action_noise":0.2,"location_history":"[2,1]","action_history":"[0]","door_history":"[1]","location_rts":"[2435]","trial_type":"two-door-navigation","trial_index":55,"time_elapsed":1558669,"internal_node_id":"0.0-2.0-53.0"},{"group":"hexagon_tri","room_assignment":["red","yellow","grey","purple","blue","green"],"door_color_assignment":["black","white"],"door_generator_assignment":[1,0],"goal":2,"start":1,"action_noise":0.2,"location_history":"[1,3,4,2]","action_history":"[0,1,1]","door_history":"[1,0,0]","location_rts":"[3389,2114,472]","trial_type":"two-door-navigation","trial_index":56,"time_elapsed":1571214,"internal_node_id":"0.0-2.0-54.0"},{"group":"hexagon_tri","room_assignment":["red","yellow","grey","purple","blue","green"],"door_color_assignment":["black","white"],"door_generator_assignment":[1,0],"goal":5,"start":2,"action_noise":0.2,"location_history":"[2,1,3,4,0,5]","action_history":"[0,1,1,1,0]","door_history":"[1,0,0,0,1]","location_rts":"[2019,504,1824,402,1972]","trial_type":"two-door-navigation","trial_index":57,"time_elapsed":1586546,"internal_node_id":"0.0-2.0-55.0"},{"group":"hexagon_tri","room_assignment":["red","yellow","grey","purple","blue","green"],"door_color_assignment":["black","white"],"door_generator_assignment":[1,0],"goal":4,"start":5,"action_noise":0.2,"location_history":"[5,0,1,5,0,1,5,4]","action_history":"[0,1,1,1,1,1,0]","door_history":"[1,0,0,0,0,0,1]","location_rts":"[2696,1513,690,723,570,823,289]","trial_type":"two-door-navigation","trial_index":58,"time_elapsed":1604519,"internal_node_id":"0.0-2.0-56.0"},{"group":"hexagon_tri","room_assignment":["red","yellow","grey","purple","blue","green"],"door_color_assignment":["black","white"],"door_generator_assignment":[1,0],"goal":3,"start":4,"action_noise":0.2,"location_history":"[4,2,3]","action_history":"[1,1]","door_history":"[0,0]","location_rts":"[12152,447]","trial_type":"two-door-navigation","trial_index":59,"time_elapsed":1622668,"internal_node_id":"0.0-2.0-57.0"},{"group":"hexagon_tri","room_assignment":["red","yellow","grey","purple","blue","green"],"door_color_assignment":["black","white"],"door_generator_assignment":[1,0],"goal":0,"start":3,"action_noise":0.2,"location_history":"[3,2,1,3,4,0]","action_history":"[1,0,0,1,0]","door_history":"[0,1,1,0,1]","location_rts":"[2649,1639,927,3944,1385]","trial_type":"two-door-navigation","trial_index":60,"time_elapsed":1641836,"internal_node_id":"0.0-2.0-58.0"},{"group":"hexagon_tri","room_assignment":["red","yellow","grey","purple","blue","green"],"door_color_assignment":["black","white"],"door_generator_assignment":[1,0],"goal":2,"start":0,"action_noise":0.2,"location_history":"[0,1,5,4,2]","action_history":"[1,1,0,1]","door_history":"[0,0,1,0]","location_rts":"[2330,390,972,747]","trial_type":"two-door-navigation","trial_index":61,"time_elapsed":1653871,"internal_node_id":"0.0-2.0-59.0"},{"group":"hexagon_tri","room_assignment":["red","yellow","grey","purple","blue","green"],"door_color_assignment":["black","white"],"door_generator_assignment":[1,0],"goal":1,"start":2,"action_noise":0.2,"location_history":"[2,3,4,2,3,4,2,3,2,3,2,3,4,0,1]","action_history":"[0,1,1,1,1,1,0,0,0,0,1,1,0,1]","door_history":"[1,0,0,0,0,0,1,1,1,1,0,0,1,0]","location_rts":"[1739,4791,384,409,705,526,356,670,660,485,421,1009,609,1054]","trial_type":"two-door-navigation","trial_index":62,"time_elapsed":1685489,"internal_node_id":"0.0-2.0-60.0"},{"group":"hexagon_tri","room_assignment":["red","yellow","grey","purple","blue","green"],"door_color_assignment":["black","white"],"door_generator_assignment":[1,0],"goal":0,"start":1,"action_noise":0.2,"location_history":"[1,5,0]","action_history":"[1,1]","door_history":"[0,0]","location_rts":"[1521,888]","trial_type":"two-door-navigation","trial_index":63,"time_elapsed":1693451,"internal_node_id":"0.0-2.0-61.0"},{"group":"hexagon_tri","room_assignment":["red","yellow","grey","purple","blue","green"],"door_color_assignment":["black","white"],"door_generator_assignment":[1,0],"goal":3,"start":0,"action_noise":0.2,"location_history":"[0,1,5,0,5,4,2,3]","action_history":"[1,0,1,1,1,1,1]","door_history":"[0,1,0,0,0,0,0]","location_rts":"[1861,2085,3617,447,353,2223,352]","trial_type":"two-door-navigation","trial_index":64,"time_elapsed":1715053,"internal_node_id":"0.0-2.0-62.0"},{"group":"hexagon_tri","room_assignment":["red","yellow","grey","purple","blue","green"],"door_color_assignment":["black","white"],"door_generator_assignment":[1,0],"goal":5,"start":3,"action_noise":0.2,"location_history":"[3,2,1,3,4,0,1,3,2,1,5]","action_history":"[0,0,0,0,0,1,0,0,0,1]","door_history":"[1,1,1,1,1,0,1,1,1,0]","location_rts":"[4749,1142,601,566,574,560,2236,728,933,1328]","trial_type":"two-door-navigation","trial_index":65,"time_elapsed":1742174,"internal_node_id":"0.0-2.0-63.0"},{"group":"hexagon_tri","room_assignment":["red","yellow","grey","purple","blue","green"],"door_color_assignment":["black","white"],"door_generator_assignment":[1,0],"goal":4,"start":5,"action_noise":0.2,"location_history":"[5,4]","action_history":"[0]","door_history":"[1]","location_rts":"[2716]","trial_type":"two-door-navigation","trial_index":66,"time_elapsed":1749412,"internal_node_id":"0.0-2.0-64.0"},{"group":"hexagon_tri","room_assignment":["red","yellow","grey","purple","blue","green"],"door_color_assignment":["black","white"],"door_generator_assignment":[1,0],"goal":1,"start":4,"action_noise":0.2,"location_history":"[4,2,1]","action_history":"[1,0]","door_history":"[0,1]","location_rts":"[2972,259]","trial_type":"two-door-navigation","trial_index":67,"time_elapsed":1758184,"internal_node_id":"0.0-2.0-65.0"},{"group":"hexagon_tri","room_assignment":["red","yellow","grey","purple","blue","green"],"door_color_assignment":["black","white"],"door_generator_assignment":[1,0],"goal":5,"start":1,"action_noise":0.2,"location_history":"[1,3,4,2,1,5]","action_history":"[1,1,1,0,0]","door_history":"[0,0,0,1,1]","location_rts":"[2360,5329,384,1086,242]","trial_type":"two-door-navigation","trial_index":68,"time_elapsed":1776213,"internal_node_id":"0.0-2.0-66.0"},{"group":"hexagon_tri","room_assignment":["red","yellow","grey","purple","blue","green"],"door_color_assignment":["black","white"],"door_generator_assignment":[1,0],"goal":2,"start":5,"action_noise":0.2,"location_history":"[5,0,1,5,0,1,3,2]","action_history":"[1,1,0,0,0,1,1]","door_history":"[0,0,1,1,1,0,0]","location_rts":"[1209,921,1105,528,773,382,937]","trial_type":"two-door-navigation","trial_index":69,"time_elapsed":1792738,"internal_node_id":"0.0-2.0-67.0"},{"group":"hexagon_tri","room_assignment":["red","yellow","grey","purple","blue","green"],"door_color_assignment":["black","white"],"door_generator_assignment":[1,0],"goal":3,"start":2,"action_noise":0.2,"location_history":"[2,3]","action_history":"[1]","door_history":"[0]","location_rts":"[1345]","trial_type":"two-door-navigation","trial_index":70,"time_elapsed":1798607,"internal_node_id":"0.0-2.0-68.0"},{"group":"hexagon_tri","room_assignment":["red","yellow","grey","purple","blue","green"],"door_color_assignment":["black","white"],"door_generator_assignment":[1,0],"goal":4,"start":3,"action_noise":0.2,"location_history":"[3,4]","action_history":"[1]","door_history":"[0]","location_rts":"[4310]","trial_type":"two-door-navigation","trial_index":71,"time_elapsed":1807436,"internal_node_id":"0.0-2.0-69.0"},{"group":"hexagon_tri","room_assignment":["red","yellow","grey","purple","blue","green"],"door_color_assignment":["black","white"],"door_generator_assignment":[1,0],"goal":0,"start":4,"action_noise":0.2,"location_history":"[4,2,1,5,0]","action_history":"[0,0,1,1]","door_history":"[1,1,0,0]","location_rts":"[1304,651,606,857]","trial_type":"two-door-navigation","trial_index":72,"time_elapsed":1818453,"internal_node_id":"0.0-2.0-70.0"},{"group":"hexagon_tri","room_assignment":["red","yellow","grey","purple","blue","green"],"door_color_assignment":["black","white"],"door_generator_assignment":[1,0],"goal":5,"start":0,"action_noise":0.2,"location_history":"[0,1,3,4,0,1,3,2,3,4,2,3,2,1,5]","action_history":"[1,0,1,0,0,0,0,1,1,1,1,0,0,1]","door_history":"[0,1,0,1,1,1,1,0,0,0,0,1,1,0]","location_rts":"[888,1520,1157,1567,1349,1041,833,509,148,446,361,415,302,849]","trial_type":"two-door-navigation","trial_index":73,"time_elapsed":1847610,"internal_node_id":"0.0-2.0-71.0"},{"group":"hexagon_tri","room_assignment":["red","yellow","grey","purple","blue","green"],"door_color_assignment":["black","white"],"door_generator_assignment":[1,0],"goal":0,"start":5,"action_noise":0.2,"location_history":"[5,0]","action_history":"[1]","door_history":"[0]","location_rts":"[929]","trial_type":"two-door-navigation","trial_index":74,"time_elapsed":1853064,"internal_node_id":"0.0-2.0-72.0"},{"group":"hexagon_tri","room_assignment":["red","yellow","grey","purple","blue","green"],"door_color_assignment":["black","white"],"door_generator_assignment":[1,0],"goal":3,"start":0,"action_noise":0.2,"location_history":"[0,1,3]","action_history":"[1,0]","door_history":"[0,1]","location_rts":"[939,1331]","trial_type":"two-door-navigation","trial_index":75,"time_elapsed":1860889,"internal_node_id":"0.0-2.0-73.0"},{"group":"hexagon_tri","room_assignment":["red","yellow","grey","purple","blue","green"],"door_color_assignment":["black","white"],"door_generator_assignment":[1,0],"goal":1,"start":3,"action_noise":0.2,"location_history":"[3,4,2,1]","action_history":"[1,1,0]","door_history":"[0,0,1]","location_rts":"[1569,510,431]","trial_type":"two-door-navigation","trial_index":76,"time_elapsed":1869981,"internal_node_id":"0.0-2.0-74.0"},{"group":"hexagon_tri","room_assignment":["red","yellow","grey","purple","blue","green"],"door_color_assignment":["black","white"],"door_generator_assignment":[1,0],"goal":2,"start":1,"action_noise":0.2,"location_history":"[1,3,4,0,1,3,4,2]","action_history":"[0,0,0,0,0,1,1]","door_history":"[1,1,1,1,1,0,0]","location_rts":"[757,979,849,595,426,753,782]","trial_type":"two-door-navigation","trial_index":77,"time_elapsed":1885783,"internal_node_id":"0.0-2.0-75.0"},{"group":"hexagon_tri","room_assignment":["red","yellow","grey","purple","blue","green"],"door_color_assignment":["black","white"],"door_generator_assignment":[1,0],"goal":4,"start":2,"action_noise":0.2,"location_history":"[2,3,4]","action_history":"[1,1]","door_history":"[0,0]","location_rts":"[771,361]","trial_type":"two-door-navigation","trial_index":78,"time_elapsed":1892458,"internal_node_id":"0.0-2.0-76.0"},{"group":"hexagon_tri","room_assignment":["red","yellow","grey","purple","blue","green"],"door_color_assignment":["black","white"],"door_generator_assignment":[1,0],"goal":3,"start":4,"action_noise":0.2,"location_history":"[4,2,1,3]","action_history":"[1,0,1]","door_history":"[0,1,0]","location_rts":"[960,1630,497]","trial_type":"two-door-navigation","trial_index":79,"time_elapsed":1902101,"internal_node_id":"0.0-2.0-77.0"},{"group":"hexagon_tri","room_assignment":["red","yellow","grey","purple","blue","green"],"door_color_assignment":["black","white"],"door_generator_assignment":[1,0],"goal":0,"start":3,"action_noise":0.2,"location_history":"[3,2,1,3,2,1,5,0]","action_history":"[1,0,0,0,0,1,1]","door_history":"[0,1,1,1,1,0,0]","location_rts":"[688,1059,403,934,645,270,2059]","trial_type":"two-door-navigation","trial_index":80,"time_elapsed":1918797,"internal_node_id":"0.0-2.0-78.0"},{"group":"hexagon_tri","room_assignment":["red","yellow","grey","purple","blue","green"],"door_color_assignment":["black","white"],"door_generator_assignment":[1,0],"goal":4,"start":0,"action_noise":0.2,"location_history":"[0,1,3,4]","action_history":"[1,0,1]","door_history":"[0,1,0]","location_rts":"[1868,3337,5287]","trial_type":"two-door-navigation","trial_index":81,"time_elapsed":1935863,"internal_node_id":"0.0-2.0-79.0"},{"group":"hexagon_tri","room_assignment":["red","yellow","grey","purple","blue","green"],"door_color_assignment":["black","white"],"door_generator_assignment":[1,0],"goal":5,"start":4,"action_noise":0.2,"location_history":"[4,0,5]","action_history":"[0,0]","door_history":"[1,1]","location_rts":"[4312,681]","trial_type":"two-door-navigation","trial_index":82,"time_elapsed":1946410,"internal_node_id":"0.0-2.0-80.0"},{"group":"hexagon_tri","room_assignment":["red","yellow","grey","purple","blue","green"],"door_color_assignment":["black","white"],"door_generator_assignment":[1,0],"goal":1,"start":5,"action_noise":0.2,"location_history":"[5,4,2,1]","action_history":"[0,1,0]","door_history":"[1,0,1]","location_rts":"[3460,1659,309]","trial_type":"two-door-navigation","trial_index":83,"time_elapsed":1958413,"internal_node_id":"0.0-2.0-81.0"},{"group":"hexagon_tri","room_assignment":["red","yellow","grey","purple","blue","green"],"door_color_assignment":["black","white"],"door_generator_assignment":[1,0],"goal":2,"start":1,"action_noise":0.2,"location_history":"[1,5,0,1,5,0,1,5,0,5,0,5,0,1,5,0,1,3,2]","action_history":"[1,1,1,0,0,1,1,1,0,0,0,1,1,1,1,1,0,0]","door_history":"[0,0,0,1,1,0,0,0,1,1,1,0,0,0,0,0,1,1]","location_rts":"[1705,652,1001,1229,713,892,454,947,770,564,638,463,737,1319,518,461,347,1713]","trial_type":"two-door-navigation","trial_index":84,"time_elapsed":1995405,"internal_node_id":"0.0-2.0-82.0"},{"group":"hexagon_tri","room_assignment":["red","yellow","grey","purple","blue","green"],"door_color_assignment":["black","white"],"door_generator_assignment":[1,0],"goal":4,"start":2,"action_noise":0.2,"location_history":"[2,1,5,0,1,3,2,3,4]","action_history":"[0,1,1,1,0,0,1,1]","door_history":"[1,0,0,0,1,1,0,0]","location_rts":"[1984,1718,730,489,869,995,590,349]","trial_type":"two-door-navigation","trial_index":85,"time_elapsed":2014823,"internal_node_id":"0.0-2.0-83.0"},{"group":"hexagon_tri","room_assignment":["red","yellow","grey","purple","blue","green"],"door_color_assignment":["black","white"],"door_generator_assignment":[1,0],"goal":0,"start":4,"action_noise":0.2,"location_history":"[4,2,1,5,0]","action_history":"[0,0,1,1]","door_history":"[1,1,0,0]","location_rts":"[3453,3283,1213,3456]","trial_type":"two-door-navigation","trial_index":86,"time_elapsed":2033824,"internal_node_id":"0.0-2.0-84.0"},{"group":"hexagon_tri","room_assignment":["red","yellow","grey","purple","blue","green"],"door_color_assignment":["black","white"],"door_generator_assignment":[1,0],"goal":5,"start":0,"action_noise":0.2,"location_history":"[0,1,5]","action_history":"[1,1]","door_history":"[0,0]","location_rts":"[2444,2465]","trial_type":"two-door-navigation","trial_index":87,"time_elapsed":2044283,"internal_node_id":"0.0-2.0-85.0"},{"group":"hexagon_tri","room_assignment":["red","yellow","grey","purple","blue","green"],"door_color_assignment":["black","white"],"door_generator_assignment":[1,0],"goal":3,"start":5,"action_noise":0.2,"location_history":"[5,4,2,1,3]","action_history":"[1,1,0,0]","door_history":"[0,0,1,1]","location_rts":"[1206,1772,1108,388]","trial_type":"two-door-navigation","trial_index":88,"time_elapsed":2056341,"internal_node_id":"0.0-2.0-86.0"},{"group":"hexagon_tri","room_assignment":["red","yellow","grey","purple","blue","green"],"door_color_assignment":["black","white"],"door_generator_assignment":[1,0],"goal":1,"start":3,"action_noise":0.2,"location_history":"[3,4,0,5,0,5,0,1]","action_history":"[1,0,0,1,1,1,0]","door_history":"[0,1,1,0,0,0,1]","location_rts":"[2205,620,329,800,479,533,304]","trial_type":"two-door-navigation","trial_index":89,"time_elapsed":2072282,"internal_node_id":"0.0-2.0-87.0"},{"group":"hexagon_tri","room_assignment":["red","yellow","grey","purple","blue","green"],"door_color_assignment":["black","white"],"door_generator_assignment":[1,0],"goal":2,"start":1,"action_noise":0.2,"location_history":"[1,5,0,1,3,2]","action_history":"[1,1,1,0,0]","door_history":"[0,0,0,1,1]","location_rts":"[1313,705,95,558,2879]","trial_type":"two-door-navigation","trial_index":90,"time_elapsed":2086424,"internal_node_id":"0.0-2.0-88.0"},{"group":"hexagon_tri","room_assignment":["red","yellow","grey","purple","blue","green"],"door_color_assignment":["black","white"],"door_generator_assignment":[1,0],"goal":0,"start":2,"action_noise":0.2,"location_history":"[2,1,3,2,3,2,3,4,0]","action_history":"[0,1,1,1,0,0,1,0]","door_history":"[1,0,0,0,1,1,0,1]","location_rts":"[3057,1188,373,716,228,453,840,1089]","trial_type":"two-door-navigation","trial_index":91,"time_elapsed":2106045,"internal_node_id":"0.0-2.0-89.0"},{"group":"hexagon_tri","room_assignment":["red","yellow","grey","purple","blue","green"],"door_color_assignment":["black","white"],"door_generator_assignment":[1,0],"goal":5,"start":0,"action_noise":0.2,"location_history":"[0,1,3,4,2,1,5]","action_history":"[1,0,1,1,1,1]","door_history":"[0,1,0,0,0,0]","location_rts":"[1954,655,1657,729,713,1166]","trial_type":"two-door-navigation","trial_index":92,"time_elapsed":2122564,"internal_node_id":"0.0-2.0-90.0"},{"group":"hexagon_tri","room_assignment":["red","yellow","grey","purple","blue","green"],"door_color_assignment":["black","white"],"door_generator_assignment":[1,0],"goal":1,"start":5,"action_noise":0.2,"location_history":"[5,0,5,4,0,5,0,1]","action_history":"[1,0,0,0,0,1,1]","door_history":"[0,1,1,1,1,0,0]","location_rts":"[676,961,641,2500,1339,1018,539]","trial_type":"two-door-navigation","trial_index":93,"time_elapsed":2140907,"internal_node_id":"0.0-2.0-91.0"},{"group":"hexagon_tri","room_assignment":["red","yellow","grey","purple","blue","green"],"door_color_assignment":["black","white"],"door_generator_assignment":[1,0],"goal":3,"start":1,"action_noise":0.2,"location_history":"[1,5,0,1,3]","action_history":"[1,1,0,0]","door_history":"[0,0,1,1]","location_rts":"[2210,568,431,357]","trial_type":"two-door-navigation","trial_index":94,"time_elapsed":2152049,"internal_node_id":"0.0-2.0-92.0"},{"group":"hexagon_tri","room_assignment":["red","yellow","grey","purple","blue","green"],"door_color_assignment":["black","white"],"door_generator_assignment":[1,0],"goal":4,"start":3,"action_noise":0.2,"location_history":"[3,4]","action_history":"[0]","door_history":"[1]","location_rts":"[676]","trial_type":"two-door-navigation","trial_index":95,"time_elapsed":2157243,"internal_node_id":"0.0-2.0-93.0"},{"group":"hexagon_tri","room_assignment":["red","yellow","grey","purple","blue","green"],"door_color_assignment":["black","white"],"door_generator_assignment":[1,0],"goal":2,"start":4,"action_noise":0.2,"location_history":"[4,0,5,0,1,5,4,0,5,0,1,5,0,5,0,1,3,2]","action_history":"[1,1,1,1,1,0,0,0,1,1,1,1,0,1,1,0,1]","door_history":"[0,0,0,0,0,1,1,1,0,0,0,0,1,0,0,1,0]","location_rts":"[964,584,510,470,1864,479,738,567,574,269,561,1718,557,767,462,1334,3442]","trial_type":"two-door-navigation","trial_index":96,"time_elapsed":2194028,"internal_node_id":"0.0-2.0-94.0"},{"group":"hexagon_tri","room_assignment":["red","yellow","grey","purple","blue","green"],"door_color_assignment":["black","white"],"door_generator_assignment":[1,0],"goal":4,"start":2,"action_noise":0.2,"location_history":"[2,3,2,3,4]","action_history":"[1,1,1,1]","door_history":"[0,0,0,0]","location_rts":"[1455,1450,540,281]","trial_type":"two-door-navigation","trial_index":97,"time_elapsed":2205350,"internal_node_id":"0.0-2.0-95.0"},{"group":"hexagon_tri","room_assignment":["red","yellow","grey","purple","blue","green"],"door_color_assignment":["black","white"],"door_generator_assignment":[1,0],"goal":0,"start":4,"action_noise":0.2,"location_history":"[4,2,1,3,4,0]","action_history":"[1,0,0,1,0]","door_history":"[0,1,1,0,1]","location_rts":"[21852,1671,530,1163,509]","trial_type":"two-door-navigation","trial_index":98,"time_elapsed":2239695,"internal_node_id":"0.0-2.0-96.0"},{"group":"hexagon_tri","room_assignment":["red","yellow","grey","purple","blue","green"],"door_color_assignment":["black","white"],"door_generator_assignment":[1,0],"goal":5,"start":0,"action_noise":0.2,"location_history":"[0,5]","action_history":"[0]","door_history":"[1]","location_rts":"[7442]","trial_type":"two-door-navigation","trial_index":99,"time_elapsed":2251665,"internal_node_id":"0.0-2.0-97.0"},{"group":"hexagon_tri","room_assignment":["red","yellow","grey","purple","blue","green"],"door_color_assignment":["black","white"],"door_generator_assignment":[1,0],"goal":1,"start":5,"action_noise":0.2,"location_history":"[5,0,1]","action_history":"[1,0]","door_history":"[0,1]","location_rts":"[816,1311]","trial_type":"two-door-navigation","trial_index":100,"time_elapsed":2259333,"internal_node_id":"0.0-2.0-98.0"},{"group":"hexagon_tri","room_assignment":["red","yellow","grey","purple","blue","green"],"door_color_assignment":["black","white"],"door_generator_assignment":[1,0],"goal":3,"start":1,"action_noise":0.2,"location_history":"[1,5,0,1,5,0,5,4,0,5,4,2,1,5,4,2,1,3]","action_history":"[1,1,1,0,1,0,0,0,0,1,1,1,1,1,1,0,0]","door_history":"[0,0,0,1,0,1,1,1,1,0,0,0,0,0,0,1,1]","location_rts":"[788,409,352,682,786,633,498,2025,633,628,880,286,1965,656,1220,291,3009]","trial_type":"two-door-navigation","trial_index":101,"time_elapsed":2295933,"internal_node_id":"0.0-2.0-99.0"},{"view_history":"[{\"page_index\":0,\"viewing_time\":2250}]","rt":2250,"trial_type":"instructions","trial_index":102,"time_elapsed":2299183,"internal_node_id":"0.0-3.0"},{"view_history":"[{\"page_index\":0,\"viewing_time\":2167},{\"page_index\":1,\"viewing_time\":22591}]","rt":24758,"trial_type":"instructions","trial_index":103,"time_elapsed":2324942,"internal_node_id":"0.0-4.0"},{"group":"hexagon_tri","fractal_assignment":["../images/cyn_red.png","../images/gry_blk.png","../images/pnk_blu.png","../images/blu_wht.png","../images/ylw_slt.png","../images/org_blu.png"],"mutagen_generator_assignment":[1,0],"goal":4,"start":0,"action_noise":0.2,"location_history":"[0,1,5,4]","action_history":"[1,1,1]","mutagen_history":"[0,0,0]","location_rts":"[4277,1042,1054]","trial_type":"fractal-mutation","trial_index":104,"time_elapsed":2337900,"internal_node_id":"0.0-5.0-0.0"},{"group":"hexagon_tri","fractal_assignment":["../images/cyn_red.png","../images/gry_blk.png","../images/pnk_blu.png","../images/blu_wht.png","../images/ylw_slt.png","../images/org_blu.png"],"mutagen_generator_assignment":[1,0],"goal":3,"start":4,"action_noise":0.2,"location_history":"[4,2,3]","action_history":"[0,1]","mutagen_history":"[1,0]","location_rts":"[1008,969]","trial_type":"fractal-mutation","trial_index":105,"time_elapsed":2345439,"internal_node_id":"0.0-5.0-1.0"},{"group":"hexagon_tri","fractal_assignment":["../images/cyn_red.png","../images/gry_blk.png","../images/pnk_blu.png","../images/blu_wht.png","../images/ylw_slt.png","../images/org_blu.png"],"mutagen_generator_assignment":[1,0],"goal":5,"start":3,"action_noise":0.2,"location_history":"[3,2,3,4,2,3,4,2,3,4,2,3,2,3,2,3,2,1,3,2,1,3,2,3,4,0,1,5]","action_history":"[0,0,1,1,1,1,1,1,0,0,0,0,1,0,1,0,0,1,0,0,0,0,1,1,0,1,0]","mutagen_history":"[1,1,0,0,0,0,0,0,1,1,1,1,0,1,0,1,1,0,1,1,1,1,0,0,1,0,1]","location_rts":"[1315,724,760,449,690,452,480,501,511,525,477,527,617,395,554,639,549,1306,648,1093,678,462,712,919,1385,1676,1229]","trial_type":"fractal-mutation","trial_index":106,"time_elapsed":2396939,"internal_node_id":"0.0-5.0-2.0"},{"group":"hexagon_tri","fractal_assignment":["../images/cyn_red.png","../images/gry_blk.png","../images/pnk_blu.png","../images/blu_wht.png","../images/ylw_slt.png","../images/org_blu.png"],"mutagen_generator_assignment":[1,0],"goal":2,"start":5,"action_noise":0.2,"location_history":"[5,0,5,0,1,3,4,2]","action_history":"[1,1,1,0,0,1,1]","mutagen_history":"[0,0,0,1,1,0,0]","location_rts":"[751,734,778,541,527,1063,564]","trial_type":"fractal-mutation","trial_index":107,"time_elapsed":2412581,"internal_node_id":"0.0-5.0-3.0"},{"group":"hexagon_tri","fractal_assignment":["../images/cyn_red.png","../images/gry_blk.png","../images/pnk_blu.png","../images/blu_wht.png","../images/ylw_slt.png","../images/org_blu.png"],"mutagen_generator_assignment":[1,0],"goal":1,"start":2,"action_noise":0.2,"location_history":"[2,3,2,1]","action_history":"[0,0,0]","mutagen_history":"[1,1,1]","location_rts":"[644,488,439]","trial_type":"fractal-mutation","trial_index":108,"time_elapsed":2420729,"internal_node_id":"0.0-5.0-4.0"},{"group":"hexagon_tri","fractal_assignment":["../images/cyn_red.png","../images/gry_blk.png","../images/pnk_blu.png","../images/blu_wht.png","../images/ylw_slt.png","../images/org_blu.png"],"mutagen_generator_assignment":[1,0],"goal":4,"start":1,"action_noise":0.2,"location_history":"[1,5,4]","action_history":"[0,0]","mutagen_history":"[1,1]","location_rts":"[472,529]","trial_type":"fractal-mutation","trial_index":109,"time_elapsed":2427289,"internal_node_id":"0.0-5.0-5.0"},{"group":"hexagon_tri","fractal_assignment":["../images/cyn_red.png","../images/gry_blk.png","../images/pnk_blu.png","../images/blu_wht.png","../images/ylw_slt.png","../images/org_blu.png"],"mutagen_generator_assignment":[1,0],"goal":1,"start":4,"action_noise":0.2,"location_history":"[4,0,5,0,5,0,5,0,1]","action_history":"[0,0,0,0,1,1,1,1]","mutagen_history":"[1,1,1,1,0,0,0,0]","location_rts":"[287,333,380,387,694,462,353,432]","trial_type":"fractal-mutation","trial_index":110,"time_elapsed":2442328,"internal_node_id":"0.0-5.0-6.0"},{"group":"hexagon_tri","fractal_assignment":["../images/cyn_red.png","../images/gry_blk.png","../images/pnk_blu.png","../images/blu_wht.png","../images/ylw_slt.png","../images/org_blu.png"],"mutagen_generator_assignment":[1,0],"goal":5,"start":1,"action_noise":0.2,"location_history":"[1,5]","action_history":"[1]","mutagen_history":"[0]","location_rts":"[783]","trial_type":"fractal-mutation","trial_index":111,"time_elapsed":2447639,"internal_node_id":"0.0-5.0-7.0"},{"group":"hexagon_tri","fractal_assignment":["../images/cyn_red.png","../images/gry_blk.png","../images/pnk_blu.png","../images/blu_wht.png","../images/ylw_slt.png","../images/org_blu.png"],"mutagen_generator_assignment":[1,0],"goal":0,"start":5,"action_noise":0.2,"location_history":"[5,4,0]","action_history":"[1,1]","mutagen_history":"[0,0]","location_rts":"[447,397]","trial_type":"fractal-mutation","trial_index":112,"time_elapsed":2454040,"internal_node_id":"0.0-5.0-8.0"},{"group":"hexagon_tri","fractal_assignment":["../images/cyn_red.png","../images/gry_blk.png","../images/pnk_blu.png","../images/blu_wht.png","../images/ylw_slt.png","../images/org_blu.png"],"mutagen_generator_assignment":[1,0],"goal":2,"start":0,"action_noise":0.2,"location_history":"[0,1,3,2]","action_history":"[1,1,1]","mutagen_history":"[0,0,0]","location_rts":"[319,348,521]","trial_type":"fractal-mutation","trial_index":113,"time_elapsed":2461810,"internal_node_id":"0.0-5.0-9.0"},{"group":"hexagon_tri","fractal_assignment":["../images/cyn_red.png","../images/gry_blk.png","../images/pnk_blu.png","../images/blu_wht.png","../images/ylw_slt.png","../images/org_blu.png"],"mutagen_generator_assignment":[1,0],"goal":3,"start":2,"action_noise":0.2,"location_history":"[2,3]","action_history":"[1]","mutagen_history":"[0]","location_rts":"[508]","trial_type":"fractal-mutation","trial_index":114,"time_elapsed":2466846,"internal_node_id":"0.0-5.0-10.0"},{"group":"hexagon_tri","fractal_assignment":["../images/cyn_red.png","../images/gry_blk.png","../images/pnk_blu.png","../images/blu_wht.png","../images/ylw_slt.png","../images/org_blu.png"],"mutagen_generator_assignment":[1,0],"goal":0,"start":3,"action_noise":0.2,"location_history":"[3,2,3,2,1,5,4,2,1,3,4,0]","action_history":"[1,1,1,0,1,1,1,0,0,1,0]","mutagen_history":"[0,0,0,1,0,0,0,1,1,0,1]","location_rts":"[337,348,357,442,856,664,526,905,683,904,749]","trial_type":"fractal-mutation","trial_index":115,"time_elapsed":2488398,"internal_node_id":"0.0-5.0-11.0"},{"group":"hexagon_tri","fractal_assignment":["../images/cyn_red.png","../images/gry_blk.png","../images/pnk_blu.png","../images/blu_wht.png","../images/ylw_slt.png","../images/org_blu.png"],"mutagen_generator_assignment":[1,0],"goal":2,"start":0,"action_noise":0.2,"location_history":"[0,1,5,4,0,1,3,2]","action_history":"[1,1,0,1,1,0,0]","mutagen_history":"[0,0,1,0,0,1,1]","location_rts":"[808,373,756,538,495,426,1005]","trial_type":"fractal-mutation","trial_index":116,"time_elapsed":2503479,"internal_node_id":"0.0-5.0-12.0"},{"group":"hexagon_tri","fractal_assignment":["../images/cyn_red.png","../images/gry_blk.png","../images/pnk_blu.png","../images/blu_wht.png","../images/ylw_slt.png","../images/org_blu.png"],"mutagen_generator_assignment":[1,0],"goal":5,"start":2,"action_noise":0.2,"location_history":"[2,1,5]","action_history":"[0,1]","mutagen_history":"[1,0]","location_rts":"[254,802]","trial_type":"fractal-mutation","trial_index":117,"time_elapsed":2510087,"internal_node_id":"0.0-5.0-13.0"},{"group":"hexagon_tri","fractal_assignment":["../images/cyn_red.png","../images/gry_blk.png","../images/pnk_blu.png","../images/blu_wht.png","../images/ylw_slt.png","../images/org_blu.png"],"mutagen_generator_assignment":[1,0],"goal":4,"start":5,"action_noise":0.2,"location_history":"[5,4]","action_history":"[0]","mutagen_history":"[1]","location_rts":"[315]","trial_type":"fractal-mutation","trial_index":118,"time_elapsed":2514932,"internal_node_id":"0.0-5.0-14.0"},{"group":"hexagon_tri","fractal_assignment":["../images/cyn_red.png","../images/gry_blk.png","../images/pnk_blu.png","../images/blu_wht.png","../images/ylw_slt.png","../images/org_blu.png"],"mutagen_generator_assignment":[1,0],"goal":3,"start":4,"action_noise":0.2,"location_history":"[4,0,5,0,1,5,4,2,3]","action_history":"[0,0,1,1,1,0,1,1]","mutagen_history":"[1,1,0,0,0,1,0,0]","location_rts":"[424,420,453,403,376,442,394,816]","trial_type":"fractal-mutation","trial_index":119,"time_elapsed":2530370,"internal_node_id":"0.0-5.0-15.0"},{"group":"hexagon_tri","fractal_assignment":["../images/cyn_red.png","../images/gry_blk.png","../images/pnk_blu.png","../images/blu_wht.png","../images/ylw_slt.png","../images/org_blu.png"],"mutagen_generator_assignment":[1,0],"goal":1,"start":3,"action_noise":0.2,"location_history":"[3,4,0,1]","action_history":"[0,1,0]","mutagen_history":"[1,0,1]","location_rts":"[504,633,436]","trial_type":"fractal-mutation","trial_index":120,"time_elapsed":2538532,"internal_node_id":"0.0-5.0-16.0"},{"group":"hexagon_tri","fractal_assignment":["../images/cyn_red.png","../images/gry_blk.png","../images/pnk_blu.png","../images/blu_wht.png","../images/ylw_slt.png","../images/org_blu.png"],"mutagen_generator_assignment":[1,0],"goal":5,"start":1,"action_noise":0.2,"location_history":"[1,5]","action_history":"[1]","mutagen_history":"[0]","location_rts":"[535]","trial_type":"fractal-mutation","trial_index":121,"time_elapsed":2543599,"internal_node_id":"0.0-5.0-17.0"},{"group":"hexagon_tri","fractal_assignment":["../images/cyn_red.png","../images/gry_blk.png","../images/pnk_blu.png","../images/blu_wht.png","../images/ylw_slt.png","../images/org_blu.png"],"mutagen_generator_assignment":[1,0],"goal":4,"start":5,"action_noise":0.2,"location_history":"[5,4]","action_history":"[0]","mutagen_history":"[1]","location_rts":"[555]","trial_type":"fractal-mutation","trial_index":122,"time_elapsed":2548685,"internal_node_id":"0.0-5.0-18.0"},{"group":"hexagon_tri","fractal_assignment":["../images/cyn_red.png","../images/gry_blk.png","../images/pnk_blu.png","../images/blu_wht.png","../images/ylw_slt.png","../images/org_blu.png"],"mutagen_generator_assignment":[1,0],"goal":0,"start":4,"action_noise":0.2,"location_history":"[4,2,1,5,0]","action_history":"[1,0,1,1]","mutagen_history":"[0,1,0,0]","location_rts":"[566,821,506,424]","trial_type":"fractal-mutation","trial_index":123,"time_elapsed":2558611,"internal_node_id":"0.0-5.0-19.0"},{"group":"hexagon_tri","fractal_assignment":["../images/cyn_red.png","../images/gry_blk.png","../images/pnk_blu.png","../images/blu_wht.png","../images/ylw_slt.png","../images/org_blu.png"],"mutagen_generator_assignment":[1,0],"goal":1,"start":0,"action_noise":0.2,"location_history":"[0,5,0,1]","action_history":"[1,1,0]","mutagen_history":"[0,0,1]","location_rts":"[606,377,382]","trial_type":"fractal-mutation","trial_index":124,"time_elapsed":2566562,"internal_node_id":"0.0-5.0-20.0"},{"group":"hexagon_tri","fractal_assignment":["../images/cyn_red.png","../images/gry_blk.png","../images/pnk_blu.png","../images/blu_wht.png","../images/ylw_slt.png","../images/org_blu.png"],"mutagen_generator_assignment":[1,0],"goal":3,"start":1,"action_noise":0.2,"location_history":"[1,5,4,2,3]","action_history":"[1,0,1,1]","mutagen_history":"[0,1,0,0]","location_rts":"[703,446,388,356]","trial_type":"fractal-mutation","trial_index":125,"time_elapsed":2576065,"internal_node_id":"0.0-5.0-21.0"},{"group":"hexagon_tri","fractal_assignment":["../images/cyn_red.png","../images/gry_blk.png","../images/pnk_blu.png","../images/blu_wht.png","../images/ylw_slt.png","../images/org_blu.png"],"mutagen_generator_assignment":[1,0],"goal":2,"start":3,"action_noise":0.2,"location_history":"[3,4,2]","action_history":"[1,1]","mutagen_history":"[0,0]","location_rts":"[942,324]","trial_type":"fractal-mutation","trial_index":126,"time_elapsed":2582876,"internal_node_id":"0.0-5.0-22.0"},{"group":"hexagon_tri","fractal_assignment":["../images/cyn_red.png","../images/gry_blk.png","../images/pnk_blu.png","../images/blu_wht.png","../images/ylw_slt.png","../images/org_blu.png"],"mutagen_generator_assignment":[1,0],"goal":0,"start":2,"action_noise":0.2,"location_history":"[2,1,5,0]","action_history":"[0,1,1]","mutagen_history":"[1,0,0]","location_rts":"[2261,384,384]","trial_type":"fractal-mutation","trial_index":127,"time_elapsed":2592488,"internal_node_id":"0.0-5.0-23.0"},{"group":"hexagon_tri","fractal_assignment":["../images/cyn_red.png","../images/gry_blk.png","../images/pnk_blu.png","../images/blu_wht.png","../images/ylw_slt.png","../images/org_blu.png"],"mutagen_generator_assignment":[1,0],"goal":3,"start":0,"action_noise":0.2,"location_history":"[0,1,5,0,5,0,1,5,0,1,3]","action_history":"[0,1,1,0,1,1,1,0,0,0]","mutagen_history":"[1,0,0,1,0,0,0,1,1,1]","location_rts":"[1711,334,279,672,360,411,343,376,416,527]","trial_type":"fractal-mutation","trial_index":128,"time_elapsed":2611681,"internal_node_id":"0.0-5.0-24.0"},{"group":"hexagon_tri","fractal_assignment":["../images/cyn_red.png","../images/gry_blk.png","../images/pnk_blu.png","../images/blu_wht.png","../images/ylw_slt.png","../images/org_blu.png"],"mutagen_generator_assignment":[1,0],"goal":1,"start":3,"action_noise":0.2,"location_history":"[3,2,3,4,0,1]","action_history":"[0,1,1,0,1]","mutagen_history":"[1,0,0,1,0]","location_rts":"[1829,394,368,861,528]","trial_type":"fractal-mutation","trial_index":129,"time_elapsed":2624295,"internal_node_id":"0.0-5.0-25.0"},{"group":"hexagon_tri","fractal_assignment":["../images/cyn_red.png","../images/gry_blk.png","../images/pnk_blu.png","../images/blu_wht.png","../images/ylw_slt.png","../images/org_blu.png"],"mutagen_generator_assignment":[1,0],"goal":2,"start":1,"action_noise":0.2,"location_history":"[1,3,4,2]","action_history":"[0,1,1]","mutagen_history":"[1,0,0]","location_rts":"[1207,462,367]","trial_type":"fractal-mutation","trial_index":130,"time_elapsed":2632909,"internal_node_id":"0.0-5.0-26.0"},{"group":"hexagon_tri","fractal_assignment":["../images/cyn_red.png","../images/gry_blk.png","../images/pnk_blu.png","../images/blu_wht.png","../images/ylw_slt.png","../images/org_blu.png"],"mutagen_generator_assignment":[1,0],"goal":5,"start":2,"action_noise":0.2,"location_history":"[2,1,5]","action_history":"[0,1]","mutagen_history":"[1,0]","location_rts":"[521,403]","trial_type":"fractal-mutation","trial_index":131,"time_elapsed":2639391,"internal_node_id":"0.0-5.0-27.0"},{"group":"hexagon_tri","fractal_assignment":["../images/cyn_red.png","../images/gry_blk.png","../images/pnk_blu.png","../images/blu_wht.png","../images/ylw_slt.png","../images/org_blu.png"],"mutagen_generator_assignment":[1,0],"goal":4,"start":5,"action_noise":0.2,"location_history":"[5,4]","action_history":"[0]","mutagen_history":"[1]","location_rts":"[1278]","trial_type":"fractal-mutation","trial_index":132,"time_elapsed":2645203,"internal_node_id":"0.0-5.0-28.0"},{"group":"hexagon_tri","fractal_assignment":["../images/cyn_red.png","../images/gry_blk.png","../images/pnk_blu.png","../images/blu_wht.png","../images/ylw_slt.png","../images/org_blu.png"],"mutagen_generator_assignment":[1,0],"goal":5,"start":4,"action_noise":0.2,"location_history":"[4,0,1,5]","action_history":"[0,1,1]","mutagen_history":"[1,0,0]","location_rts":"[825,626,405]","trial_type":"fractal-mutation","trial_index":133,"time_elapsed":2653647,"internal_node_id":"0.0-5.0-29.0"},{"group":"hexagon_tri","fractal_assignment":["../images/cyn_red.png","../images/gry_blk.png","../images/pnk_blu.png","../images/blu_wht.png","../images/ylw_slt.png","../images/org_blu.png"],"mutagen_generator_assignment":[1,0],"goal":3,"start":5,"action_noise":0.2,"location_history":"[5,4,0,1,5,0,5,0,5,4,2,1,3]","action_history":"[0,1,1,1,1,0,0,0,0,0,0,0]","mutagen_history":"[1,0,0,0,0,1,1,1,1,1,1,1]","location_rts":"[815,295,369,352,368,408,309,326,366,825,477,407]","trial_type":"fractal-mutation","trial_index":134,"time_elapsed":2674784,"internal_node_id":"0.0-5.0-30.0"},{"group":"hexagon_tri","fractal_assignment":["../images/cyn_red.png","../images/gry_blk.png","../images/pnk_blu.png","../images/blu_wht.png","../images/ylw_slt.png","../images/org_blu.png"],"mutagen_generator_assignment":[1,0],"goal":0,"start":3,"action_noise":0.2,"location_history":"[3,2,3,4,0]","action_history":"[0,1,1,0]","mutagen_history":"[1,0,0,1]","location_rts":"[1013,388,572,708]","trial_type":"fractal-mutation","trial_index":135,"time_elapsed":2685075,"internal_node_id":"0.0-5.0-31.0"},{"group":"hexagon_tri","fractal_assignment":["../images/cyn_red.png","../images/gry_blk.png","../images/pnk_blu.png","../images/blu_wht.png","../images/ylw_slt.png","../images/org_blu.png"],"mutagen_generator_assignment":[1,0],"goal":4,"start":0,"action_noise":0.2,"location_history":"[0,5,0,1,5,0,5,0,1,3,4]","action_history":"[0,0,1,0,1,1,1,1,0,1]","mutagen_history":"[1,1,0,1,0,0,0,0,1,0]","location_rts":"[754,897,640,486,565,300,161,459,486,1174]","trial_type":"fractal-mutation","trial_index":136,"time_elapsed":2704757,"internal_node_id":"0.0-5.0-32.0"},{"group":"hexagon_tri","fractal_assignment":["../images/cyn_red.png","../images/gry_blk.png","../images/pnk_blu.png","../images/blu_wht.png","../images/ylw_slt.png","../images/org_blu.png"],"mutagen_generator_assignment":[1,0],"goal":1,"start":4,"action_noise":0.2,"location_history":"[4,0,5,0,1]","action_history":"[0,1,1,1]","mutagen_history":"[1,0,0,0]","location_rts":"[943,238,375,384]","trial_type":"fractal-mutation","trial_index":137,"time_elapsed":2714297,"internal_node_id":"0.0-5.0-33.0"},{"group":"hexagon_tri","fractal_assignment":["../images/cyn_red.png","../images/gry_blk.png","../images/pnk_blu.png","../images/blu_wht.png","../images/ylw_slt.png","../images/org_blu.png"],"mutagen_generator_assignment":[1,0],"goal":2,"start":1,"action_noise":0.2,"location_history":"[1,3,2]","action_history":"[0,0]","mutagen_history":"[1,1]","location_rts":"[762,678]","trial_type":"fractal-mutation","trial_index":138,"time_elapsed":2721292,"internal_node_id":"0.0-5.0-34.0"},{"group":"hexagon_tri","fractal_assignment":["../images/cyn_red.png","../images/gry_blk.png","../images/pnk_blu.png","../images/blu_wht.png","../images/ylw_slt.png","../images/org_blu.png"],"mutagen_generator_assignment":[1,0],"goal":0,"start":2,"action_noise":0.2,"location_history":"[2,1,5,4,2,3,4,2,1,3,2,1,3,4,2,1,3,2,3,4,2,3,4,0]","action_history":"[0,1,1,1,1,1,0,0,0,0,1,0,1,1,1,0,0,1,1,1,1,0,0]","mutagen_history":"[1,0,0,0,0,0,1,1,1,1,0,1,0,0,0,1,1,0,0,0,0,1,1]","location_rts":"[815,601,353,408,503,443,545,740,404,687,521,694,420,613,743,503,352,763,378,687,480,618,660]","trial_type":"fractal-mutation","trial_index":139,"time_elapsed":2761306,"internal_node_id":"0.0-5.0-35.0"},{"group":"hexagon_tri","fractal_assignment":["../images/cyn_red.png","../images/gry_blk.png","../images/pnk_blu.png","../images/blu_wht.png","../images/ylw_slt.png","../images/org_blu.png"],"mutagen_generator_assignment":[1,0],"goal":5,"start":0,"action_noise":0.2,"location_history":"[0,5]","action_history":"[0]","mutagen_history":"[1]","location_rts":"[718]","trial_type":"fractal-mutation","trial_index":140,"time_elapsed":2766555,"internal_node_id":"0.0-5.0-36.0"},{"group":"hexagon_tri","fractal_assignment":["../images/cyn_red.png","../images/gry_blk.png","../images/pnk_blu.png","../images/blu_wht.png","../images/ylw_slt.png","../images/org_blu.png"],"mutagen_generator_assignment":[1,0],"goal":2,"start":5,"action_noise":0.2,"location_history":"[5,4,2]","action_history":"[0,1]","mutagen_history":"[1,0]","location_rts":"[493,563]","trial_type":"fractal-mutation","trial_index":141,"time_elapsed":2773171,"internal_node_id":"0.0-5.0-37.0"},{"group":"hexagon_tri","fractal_assignment":["../images/cyn_red.png","../images/gry_blk.png","../images/pnk_blu.png","../images/blu_wht.png","../images/ylw_slt.png","../images/org_blu.png"],"mutagen_generator_assignment":[1,0],"goal":1,"start":2,"action_noise":0.2,"location_history":"[2,3,2,3,2,3,2,1]","action_history":"[0,1,1,0,1,1,0]","mutagen_history":"[1,0,0,1,0,0,1]","location_rts":"[652,451,400,426,466,589,367]","trial_type":"fractal-mutation","trial_index":142,"time_elapsed":2787206,"internal_node_id":"0.0-5.0-38.0"},{"group":"hexagon_tri","fractal_assignment":["../images/cyn_red.png","../images/gry_blk.png","../images/pnk_blu.png","../images/blu_wht.png","../images/ylw_slt.png","../images/org_blu.png"],"mutagen_generator_assignment":[1,0],"goal":4,"start":1,"action_noise":0.2,"location_history":"[1,3,4]","action_history":"[0,1]","mutagen_history":"[1,0]","location_rts":"[706,557]","trial_type":"fractal-mutation","trial_index":143,"time_elapsed":2794023,"internal_node_id":"0.0-5.0-39.0"},{"group":"hexagon_tri","fractal_assignment":["../images/cyn_red.png","../images/gry_blk.png","../images/pnk_blu.png","../images/blu_wht.png","../images/ylw_slt.png","../images/org_blu.png"],"mutagen_generator_assignment":[1,0],"goal":3,"start":4,"action_noise":0.2,"location_history":"[4,0,5,4,2,3]","action_history":"[0,1,1,0,1]","mutagen_history":"[1,0,0,1,0]","location_rts":"[655,463,295,552,479]","trial_type":"fractal-mutation","trial_index":144,"time_elapsed":2805095,"internal_node_id":"0.0-5.0-40.0"},{"group":"hexagon_tri","fractal_assignment":["../images/cyn_red.png","../images/gry_blk.png","../images/pnk_blu.png","../images/blu_wht.png","../images/ylw_slt.png","../images/org_blu.png"],"mutagen_generator_assignment":[1,0],"goal":5,"start":3,"action_noise":0.2,"location_history":"[3,2,3,4,0,1,5]","action_history":"[0,1,1,0,1,1]","mutagen_history":"[1,0,0,1,0,0]","location_rts":"[720,393,575,385,590,375]","trial_type":"fractal-mutation","trial_index":145,"time_elapsed":2817796,"internal_node_id":"0.0-5.0-41.0"},{"group":"hexagon_tri","fractal_assignment":["../images/cyn_red.png","../images/gry_blk.png","../images/pnk_blu.png","../images/blu_wht.png","../images/ylw_slt.png","../images/org_blu.png"],"mutagen_generator_assignment":[1,0],"goal":3,"start":5,"action_noise":0.2,"location_history":"[5,4,2,3]","action_history":"[0,1,1]","mutagen_history":"[1,0,0]","location_rts":"[784,543,603]","trial_type":"fractal-mutation","trial_index":146,"time_elapsed":2826311,"internal_node_id":"0.0-5.0-42.0"},{"group":"hexagon_tri","fractal_assignment":["../images/cyn_red.png","../images/gry_blk.png","../images/pnk_blu.png","../images/blu_wht.png","../images/ylw_slt.png","../images/org_blu.png"],"mutagen_generator_assignment":[1,0],"goal":0,"start":3,"action_noise":0.2,"location_history":"[3,2,1,5,4,2,1,3,2,3,4,0]","action_history":"[0,0,1,1,1,0,0,1,0,0,0]","mutagen_history":"[1,1,0,0,0,1,1,0,1,1,1]","location_rts":"[631,532,336,536,423,469,379,649,440,582,564]","trial_type":"fractal-mutation","trial_index":147,"time_elapsed":2846640,"internal_node_id":"0.0-5.0-43.0"},{"group":"hexagon_tri","fractal_assignment":["../images/cyn_red.png","../images/gry_blk.png","../images/pnk_blu.png","../images/blu_wht.png","../images/ylw_slt.png","../images/org_blu.png"],"mutagen_generator_assignment":[1,0],"goal":2,"start":0,"action_noise":0.2,"location_history":"[0,5,4,2]","action_history":"[0,0,1]","mutagen_history":"[1,1,0]","location_rts":"[3957,539,866]","trial_type":"fractal-mutation","trial_index":148,"time_elapsed":2858586,"internal_node_id":"0.0-5.0-44.0"},{"group":"hexagon_tri","fractal_assignment":["../images/cyn_red.png","../images/gry_blk.png","../images/pnk_blu.png","../images/blu_wht.png","../images/ylw_slt.png","../images/org_blu.png"],"mutagen_generator_assignment":[1,0],"goal":4,"start":2,"action_noise":0.2,"location_history":"[2,1,5,4]","action_history":"[1,1,1]","mutagen_history":"[0,0,0]","location_rts":"[1225,416,328]","trial_type":"fractal-mutation","trial_index":149,"time_elapsed":2867130,"internal_node_id":"0.0-5.0-45.0"},{"group":"hexagon_tri","fractal_assignment":["../images/cyn_red.png","../images/gry_blk.png","../images/pnk_blu.png","../images/blu_wht.png","../images/ylw_slt.png","../images/org_blu.png"],"mutagen_generator_assignment":[1,0],"goal":1,"start":4,"action_noise":0.2,"location_history":"[4,2,1]","action_history":"[1,1]","mutagen_history":"[0,0]","location_rts":"[713,430]","trial_type":"fractal-mutation","trial_index":150,"time_elapsed":2873827,"internal_node_id":"0.0-5.0-46.0"},{"group":"hexagon_tri","fractal_assignment":["../images/cyn_red.png","../images/gry_blk.png","../images/pnk_blu.png","../images/blu_wht.png","../images/ylw_slt.png","../images/org_blu.png"],"mutagen_generator_assignment":[1,0],"goal":4,"start":1,"action_noise":0.2,"location_history":"[1,5,0,1,3,4]","action_history":"[1,1,1,1,1]","mutagen_history":"[0,0,0,0,0]","location_rts":"[593,315,380,402,453]","trial_type":"fractal-mutation","trial_index":151,"time_elapsed":2884588,"internal_node_id":"0.0-5.0-47.0"},{"group":"hexagon_tri","fractal_assignment":["../images/cyn_red.png","../images/gry_blk.png","../images/pnk_blu.png","../images/blu_wht.png","../images/ylw_slt.png","../images/org_blu.png"],"mutagen_generator_assignment":[1,0],"goal":1,"start":4,"action_noise":0.2,"location_history":"[4,2,3,4,2,1]","action_history":"[1,1,1,1,0]","mutagen_history":"[0,0,0,0,1]","location_rts":"[2303,360,535,469,1343]","trial_type":"fractal-mutation","trial_index":152,"time_elapsed":2898230,"internal_node_id":"0.0-5.0-48.0"},{"group":"hexagon_tri","fractal_assignment":["../images/cyn_red.png","../images/gry_blk.png","../images/pnk_blu.png","../images/blu_wht.png","../images/ylw_slt.png","../images/org_blu.png"],"mutagen_generator_assignment":[1,0],"goal":3,"start":1,"action_noise":0.2,"location_history":"[1,5,0,1,5,0,5,0,5,4,2,3]","action_history":"[1,1,1,1,0,1,0,0,0,1,1]","mutagen_history":"[0,0,0,0,1,0,1,1,1,0,0]","location_rts":"[693,135,213,583,267,429,526,534,417,800,822]","trial_type":"fractal-mutation","trial_index":153,"time_elapsed":2918436,"internal_node_id":"0.0-5.0-49.0"},{"group":"hexagon_tri","fractal_assignment":["../images/cyn_red.png","../images/gry_blk.png","../images/pnk_blu.png","../images/blu_wht.png","../images/ylw_slt.png","../images/org_blu.png"],"mutagen_generator_assignment":[1,0],"goal":5,"start":3,"action_noise":0.2,"location_history":"[3,2,1,5]","action_history":"[1,0,1]","mutagen_history":"[0,1,0]","location_rts":"[781,616,420]","trial_type":"fractal-mutation","trial_index":154,"time_elapsed":2926834,"internal_node_id":"0.0-5.0-50.0"},{"group":"hexagon_tri","fractal_assignment":["../images/cyn_red.png","../images/gry_blk.png","../images/pnk_blu.png","../images/blu_wht.png","../images/ylw_slt.png","../images/org_blu.png"],"mutagen_generator_assignment":[1,0],"goal":0,"start":5,"action_noise":0.2,"location_history":"[5,4,2,1,5,4,0]","action_history":"[0,1,0,0,0,0]","mutagen_history":"[1,0,1,1,1,1]","location_rts":"[948,609,510,436,511,423]","trial_type":"fractal-mutation","trial_index":155,"time_elapsed":2939950,"internal_node_id":"0.0-5.0-51.0"},{"group":"hexagon_tri","fractal_assignment":["../images/cyn_red.png","../images/gry_blk.png","../images/pnk_blu.png","../images/blu_wht.png","../images/ylw_slt.png","../images/org_blu.png"],"mutagen_generator_assignment":[1,0],"goal":2,"start":0,"action_noise":0.2,"location_history":"[0,5,0,1,5,0,5,4,2]","action_history":"[0,1,1,1,1,0,0,1]","mutagen_history":"[1,0,0,0,0,1,1,0]","location_rts":"[729,443,429,422,393,418,324,1117]","trial_type":"fractal-mutation","trial_index":156,"time_elapsed":2955935,"internal_node_id":"0.0-5.0-52.0"},{"group":"hexagon_tri","fractal_assignment":["../images/cyn_red.png","../images/gry_blk.png","../images/pnk_blu.png","../images/blu_wht.png","../images/ylw_slt.png","../images/org_blu.png"],"mutagen_generator_assignment":[1,0],"goal":1,"start":2,"action_noise":0.2,"location_history":"[2,1]","action_history":"[0]","mutagen_history":"[1]","location_rts":"[1040]","trial_type":"fractal-mutation","trial_index":157,"time_elapsed":2961504,"internal_node_id":"0.0-5.0-53.0"},{"group":"hexagon_tri","fractal_assignment":["../images/cyn_red.png","../images/gry_blk.png","../images/pnk_blu.png","../images/blu_wht.png","../images/ylw_slt.png","../images/org_blu.png"],"mutagen_generator_assignment":[1,0],"goal":2,"start":1,"action_noise":0.2,"location_history":"[1,3,4,2]","action_history":"[0,1,1]","mutagen_history":"[1,0,0]","location_rts":"[791,612,343]","trial_type":"fractal-mutation","trial_index":158,"time_elapsed":2969829,"internal_node_id":"0.0-5.0-54.0"},{"group":"hexagon_tri","fractal_assignment":["../images/cyn_red.png","../images/gry_blk.png","../images/pnk_blu.png","../images/blu_wht.png","../images/ylw_slt.png","../images/org_blu.png"],"mutagen_generator_assignment":[1,0],"goal":5,"start":2,"action_noise":0.2,"location_history":"[2,1,5]","action_history":"[0,1]","mutagen_history":"[1,0]","location_rts":"[1511,405]","trial_type":"fractal-mutation","trial_index":159,"time_elapsed":2977303,"internal_node_id":"0.0-5.0-55.0"},{"group":"hexagon_tri","fractal_assignment":["../images/cyn_red.png","../images/gry_blk.png","../images/pnk_blu.png","../images/blu_wht.png","../images/ylw_slt.png","../images/org_blu.png"],"mutagen_generator_assignment":[1,0],"goal":4,"start":5,"action_noise":0.2,"location_history":"[5,0,1,5,4]","action_history":"[0,1,0,0]","mutagen_history":"[1,0,1,1]","location_rts":"[1382,461,367,441]","trial_type":"fractal-mutation","trial_index":160,"time_elapsed":2987566,"internal_node_id":"0.0-5.0-56.0"},{"group":"hexagon_tri","fractal_assignment":["../images/cyn_red.png","../images/gry_blk.png","../images/pnk_blu.png","../images/blu_wht.png","../images/ylw_slt.png","../images/org_blu.png"],"mutagen_generator_assignment":[1,0],"goal":3,"start":4,"action_noise":0.2,"location_history":"[4,2,3]","action_history":"[1,1]","mutagen_history":"[0,0]","location_rts":"[982,343]","trial_type":"fractal-mutation","trial_index":161,"time_elapsed":2994445,"internal_node_id":"0.0-5.0-57.0"},{"group":"hexagon_tri","fractal_assignment":["../images/cyn_red.png","../images/gry_blk.png","../images/pnk_blu.png","../images/blu_wht.png","../images/ylw_slt.png","../images/org_blu.png"],"mutagen_generator_assignment":[1,0],"goal":0,"start":3,"action_noise":0.2,"location_history":"[3,4,0]","action_history":"[0,0]","mutagen_history":"[1,1]","location_rts":"[561,524]","trial_type":"fractal-mutation","trial_index":162,"time_elapsed":3001087,"internal_node_id":"0.0-5.0-58.0"},{"group":"hexagon_tri","fractal_assignment":["../images/cyn_red.png","../images/gry_blk.png","../images/pnk_blu.png","../images/blu_wht.png","../images/ylw_slt.png","../images/org_blu.png"],"mutagen_generator_assignment":[1,0],"goal":2,"start":0,"action_noise":0.2,"location_history":"[0,5,0,1,3,4,2]","action_history":"[0,0,0,0,1,1]","mutagen_history":"[1,1,1,1,0,0]","location_rts":"[575,403,391,497,443,334]","trial_type":"fractal-mutation","trial_index":163,"time_elapsed":3013396,"internal_node_id":"0.0-5.0-59.0"},{"group":"hexagon_tri","fractal_assignment":["../images/cyn_red.png","../images/gry_blk.png","../images/pnk_blu.png","../images/blu_wht.png","../images/ylw_slt.png","../images/org_blu.png"],"mutagen_generator_assignment":[1,0],"goal":1,"start":2,"action_noise":0.2,"location_history":"[2,3,4,0,1]","action_history":"[0,1,0,1]","mutagen_history":"[1,0,1,0]","location_rts":"[753,504,351,393]","trial_type":"fractal-mutation","trial_index":164,"time_elapsed":3023003,"internal_node_id":"0.0-5.0-60.0"},{"group":"hexagon_tri","fractal_assignment":["../images/cyn_red.png","../images/gry_blk.png","../images/pnk_blu.png","../images/blu_wht.png","../images/ylw_slt.png","../images/org_blu.png"],"mutagen_generator_assignment":[1,0],"goal":0,"start":1,"action_noise":0.2,"location_history":"[1,3,2,3,4,0]","action_history":"[0,0,0,1,0]","mutagen_history":"[1,1,1,0,1]","location_rts":"[595,397,415,563,335]","trial_type":"fractal-mutation","trial_index":165,"time_elapsed":3033943,"internal_node_id":"0.0-5.0-61.0"},{"group":"hexagon_tri","fractal_assignment":["../images/cyn_red.png","../images/gry_blk.png","../images/pnk_blu.png","../images/blu_wht.png","../images/ylw_slt.png","../images/org_blu.png"],"mutagen_generator_assignment":[1,0],"goal":3,"start":0,"action_noise":0.2,"location_history":"[0,1,5,0,5,4,2,3]","action_history":"[1,1,0,0,0,1,1]","mutagen_history":"[0,0,1,1,1,0,0]","location_rts":"[676,453,240,425,362,605,440]","trial_type":"fractal-mutation","trial_index":166,"time_elapsed":3047827,"internal_node_id":"0.0-5.0-62.0"},{"group":"hexagon_tri","fractal_assignment":["../images/cyn_red.png","../images/gry_blk.png","../images/pnk_blu.png","../images/blu_wht.png","../images/ylw_slt.png","../images/org_blu.png"],"mutagen_generator_assignment":[1,0],"goal":5,"start":3,"action_noise":0.2,"location_history":"[3,2,1,5]","action_history":"[0,0,1]","mutagen_history":"[1,1,0]","location_rts":"[512,657,382]","trial_type":"fractal-mutation","trial_index":167,"time_elapsed":3055963,"internal_node_id":"0.0-5.0-63.0"},{"group":"hexagon_tri","fractal_assignment":["../images/cyn_red.png","../images/gry_blk.png","../images/pnk_blu.png","../images/blu_wht.png","../images/ylw_slt.png","../images/org_blu.png"],"mutagen_generator_assignment":[1,0],"goal":4,"start":5,"action_noise":0.2,"location_history":"[5,4]","action_history":"[0]","mutagen_history":"[1]","location_rts":"[1638]","trial_type":"fractal-mutation","trial_index":168,"time_elapsed":3062131,"internal_node_id":"0.0-5.0-64.0"},{"group":"hexagon_tri","fractal_assignment":["../images/cyn_red.png","../images/gry_blk.png","../images/pnk_blu.png","../images/blu_wht.png","../images/ylw_slt.png","../images/org_blu.png"],"mutagen_generator_assignment":[1,0],"goal":1,"start":4,"action_noise":0.2,"location_history":"[4,0,1]","action_history":"[0,1]","mutagen_history":"[1,0]","location_rts":"[1263,628]","trial_type":"fractal-mutation","trial_index":169,"time_elapsed":3069579,"internal_node_id":"0.0-5.0-65.0"},{"group":"hexagon_tri","fractal_assignment":["../images/cyn_red.png","../images/gry_blk.png","../images/pnk_blu.png","../images/blu_wht.png","../images/ylw_slt.png","../images/org_blu.png"],"mutagen_generator_assignment":[1,0],"goal":5,"start":1,"action_noise":0.2,"location_history":"[1,5]","action_history":"[1]","mutagen_history":"[0]","location_rts":"[1086]","trial_type":"fractal-mutation","trial_index":170,"time_elapsed":3075190,"internal_node_id":"0.0-5.0-66.0"},{"group":"hexagon_tri","fractal_assignment":["../images/cyn_red.png","../images/gry_blk.png","../images/pnk_blu.png","../images/blu_wht.png","../images/ylw_slt.png","../images/org_blu.png"],"mutagen_generator_assignment":[1,0],"goal":2,"start":5,"action_noise":0.2,"location_history":"[5,4,2]","action_history":"[0,1]","mutagen_history":"[1,0]","location_rts":"[829,631]","trial_type":"fractal-mutation","trial_index":171,"time_elapsed":3082202,"internal_node_id":"0.0-5.0-67.0"},{"group":"hexagon_tri","fractal_assignment":["../images/cyn_red.png","../images/gry_blk.png","../images/pnk_blu.png","../images/blu_wht.png","../images/ylw_slt.png","../images/org_blu.png"],"mutagen_generator_assignment":[1,0],"goal":3,"start":2,"action_noise":0.2,"location_history":"[2,3]","action_history":"[1]","mutagen_history":"[0]","location_rts":"[837]","trial_type":"fractal-mutation","trial_index":172,"time_elapsed":3087569,"internal_node_id":"0.0-5.0-68.0"},{"group":"hexagon_tri","fractal_assignment":["../images/cyn_red.png","../images/gry_blk.png","../images/pnk_blu.png","../images/blu_wht.png","../images/ylw_slt.png","../images/org_blu.png"],"mutagen_generator_assignment":[1,0],"goal":4,"start":3,"action_noise":0.2,"location_history":"[3,4]","action_history":"[1]","mutagen_history":"[0]","location_rts":"[848]","trial_type":"fractal-mutation","trial_index":173,"time_elapsed":3092945,"internal_node_id":"0.0-5.0-69.0"},{"group":"hexagon_tri","fractal_assignment":["../images/cyn_red.png","../images/gry_blk.png","../images/pnk_blu.png","../images/blu_wht.png","../images/ylw_slt.png","../images/org_blu.png"],"mutagen_generator_assignment":[1,0],"goal":0,"start":4,"action_noise":0.2,"location_history":"[4,0]","action_history":"[0]","mutagen_history":"[1]","location_rts":"[951]","trial_type":"fractal-mutation","trial_index":174,"time_elapsed":3098428,"internal_node_id":"0.0-5.0-70.0"},{"group":"hexagon_tri","fractal_assignment":["../images/cyn_red.png","../images/gry_blk.png","../images/pnk_blu.png","../images/blu_wht.png","../images/ylw_slt.png","../images/org_blu.png"],"mutagen_generator_assignment":[1,0],"goal":5,"start":0,"action_noise":0.2,"location_history":"[0,1,5]","action_history":"[1,1]","mutagen_history":"[0,0]","location_rts":"[941,380]","trial_type":"fractal-mutation","trial_index":175,"time_elapsed":3105304,"internal_node_id":"0.0-5.0-71.0"},{"group":"hexagon_tri","fractal_assignment":["../images/cyn_red.png","../images/gry_blk.png","../images/pnk_blu.png","../images/blu_wht.png","../images/ylw_slt.png","../images/org_blu.png"],"mutagen_generator_assignment":[1,0],"goal":0,"start":5,"action_noise":0.2,"location_history":"[5,0]","action_history":"[0]","mutagen_history":"[1]","location_rts":"[1135]","trial_type":"fractal-mutation","trial_index":176,"time_elapsed":3110970,"internal_node_id":"0.0-5.0-72.0"},{"group":"hexagon_tri","fractal_assignment":["../images/cyn_red.png","../images/gry_blk.png","../images/pnk_blu.png","../images/blu_wht.png","../images/ylw_slt.png","../images/org_blu.png"],"mutagen_generator_assignment":[1,0],"goal":3,"start":0,"action_noise":0.2,"location_history":"[0,5,4,2,1,3]","action_history":"[0,0,1,1,1]","mutagen_history":"[1,1,0,0,0]","location_rts":"[990,748,611,369,486]","trial_type":"fractal-mutation","trial_index":177,"time_elapsed":3122807,"internal_node_id":"0.0-5.0-73.0"},{"group":"hexagon_tri","fractal_assignment":["../images/cyn_red.png","../images/gry_blk.png","../images/pnk_blu.png","../images/blu_wht.png","../images/ylw_slt.png","../images/org_blu.png"],"mutagen_generator_assignment":[1,0],"goal":1,"start":3,"action_noise":0.2,"location_history":"[3,2,3,2,1]","action_history":"[0,1,0,0]","mutagen_history":"[1,0,1,1]","location_rts":"[1266,413,414,254]","trial_type":"fractal-mutation","trial_index":178,"time_elapsed":3132759,"internal_node_id":"0.0-5.0-74.0"},{"group":"hexagon_tri","fractal_assignment":["../images/cyn_red.png","../images/gry_blk.png","../images/pnk_blu.png","../images/blu_wht.png","../images/ylw_slt.png","../images/org_blu.png"],"mutagen_generator_assignment":[1,0],"goal":2,"start":1,"action_noise":0.2,"location_history":"[1,5,4,0,1,3,4,2]","action_history":"[1,0,0,0,0,1,1]","mutagen_history":"[0,1,1,1,1,0,0]","location_rts":"[2106,277,464,378,369,497,365]","trial_type":"fractal-mutation","trial_index":179,"time_elapsed":3147907,"internal_node_id":"0.0-5.0-75.0"},{"group":"hexagon_tri","fractal_assignment":["../images/cyn_red.png","../images/gry_blk.png","../images/pnk_blu.png","../images/blu_wht.png","../images/ylw_slt.png","../images/org_blu.png"],"mutagen_generator_assignment":[1,0],"goal":4,"start":2,"action_noise":0.2,"location_history":"[2,1,3,4]","action_history":"[1,1,1]","mutagen_history":"[0,0,0]","location_rts":"[966,383,443]","trial_type":"fractal-mutation","trial_index":180,"time_elapsed":3156267,"internal_node_id":"0.0-5.0-76.0"},{"group":"hexagon_tri","fractal_assignment":["../images/cyn_red.png","../images/gry_blk.png","../images/pnk_blu.png","../images/blu_wht.png","../images/ylw_slt.png","../images/org_blu.png"],"mutagen_generator_assignment":[1,0],"goal":3,"start":4,"action_noise":0.2,"location_history":"[4,0,1,3]","action_history":"[1,1,1]","mutagen_history":"[0,0,0]","location_rts":"[1051,368,572]","trial_type":"fractal-mutation","trial_index":181,"time_elapsed":3164832,"internal_node_id":"0.0-5.0-77.0"},{"group":"hexagon_tri","fractal_assignment":["../images/cyn_red.png","../images/gry_blk.png","../images/pnk_blu.png","../images/blu_wht.png","../images/ylw_slt.png","../images/org_blu.png"],"mutagen_generator_assignment":[1,0],"goal":0,"start":3,"action_noise":0.2,"location_history":"[3,2,3,4,0]","action_history":"[0,1,1,0]","mutagen_history":"[1,0,0,1]","location_rts":"[1334,984,414,372]","trial_type":"fractal-mutation","trial_index":182,"time_elapsed":3175541,"internal_node_id":"0.0-5.0-78.0"},{"group":"hexagon_tri","fractal_assignment":["../images/cyn_red.png","../images/gry_blk.png","../images/pnk_blu.png","../images/blu_wht.png","../images/ylw_slt.png","../images/org_blu.png"],"mutagen_generator_assignment":[1,0],"goal":4,"start":0,"action_noise":0.2,"location_history":"[0,5,4]","action_history":"[0,0]","mutagen_history":"[1,1]","location_rts":"[1412,548]","trial_type":"fractal-mutation","trial_index":183,"time_elapsed":3183071,"internal_node_id":"0.0-5.0-79.0"},{"group":"hexagon_tri","fractal_assignment":["../images/cyn_red.png","../images/gry_blk.png","../images/pnk_blu.png","../images/blu_wht.png","../images/ylw_slt.png","../images/org_blu.png"],"mutagen_generator_assignment":[1,0],"goal":5,"start":4,"action_noise":0.2,"location_history":"[4,0,1,5]","action_history":"[0,1,1]","mutagen_history":"[1,0,0]","location_rts":"[1094,353,346]","trial_type":"fractal-mutation","trial_index":184,"time_elapsed":3191449,"internal_node_id":"0.0-5.0-80.0"},{"group":"hexagon_tri","fractal_assignment":["../images/cyn_red.png","../images/gry_blk.png","../images/pnk_blu.png","../images/blu_wht.png","../images/ylw_slt.png","../images/org_blu.png"],"mutagen_generator_assignment":[1,0],"goal":1,"start":5,"action_noise":0.2,"location_history":"[5,0,1]","action_history":"[1,1]","mutagen_history":"[0,0]","location_rts":"[1203,375]","trial_type":"fractal-mutation","trial_index":185,"time_elapsed":3198579,"internal_node_id":"0.0-5.0-81.0"},{"group":"hexagon_tri","fractal_assignment":["../images/cyn_red.png","../images/gry_blk.png","../images/pnk_blu.png","../images/blu_wht.png","../images/ylw_slt.png","../images/org_blu.png"],"mutagen_generator_assignment":[1,0],"goal":2,"start":1,"action_noise":0.2,"location_history":"[1,3,4,2]","action_history":"[0,1,1]","mutagen_history":"[1,0,0]","location_rts":"[1176,488,375]","trial_type":"fractal-mutation","trial_index":186,"time_elapsed":3207200,"internal_node_id":"0.0-5.0-82.0"},{"group":"hexagon_tri","fractal_assignment":["../images/cyn_red.png","../images/gry_blk.png","../images/pnk_blu.png","../images/blu_wht.png","../images/ylw_slt.png","../images/org_blu.png"],"mutagen_generator_assignment":[1,0],"goal":4,"start":2,"action_noise":0.2,"location_history":"[2,3,2,3,2,3,2,1,3,4]","action_history":"[1,1,1,0,1,0,0,1,1]","mutagen_history":"[0,0,0,1,0,1,1,0,0]","location_rts":"[1044,393,736,484,661,407,269,455,898]","trial_type":"fractal-mutation","trial_index":187,"time_elapsed":3225275,"internal_node_id":"0.0-5.0-83.0"},{"group":"hexagon_tri","fractal_assignment":["../images/cyn_red.png","../images/gry_blk.png","../images/pnk_blu.png","../images/blu_wht.png","../images/ylw_slt.png","../images/org_blu.png"],"mutagen_generator_assignment":[1,0],"goal":0,"start":4,"action_noise":0.2,"location_history":"[4,0]","action_history":"[0]","mutagen_history":"[1]","location_rts":"[647]","trial_type":"fractal-mutation","trial_index":188,"time_elapsed":3230450,"internal_node_id":"0.0-5.0-84.0"},{"group":"hexagon_tri","fractal_assignment":["../images/cyn_red.png","../images/gry_blk.png","../images/pnk_blu.png","../images/blu_wht.png","../images/ylw_slt.png","../images/org_blu.png"],"mutagen_generator_assignment":[1,0],"goal":5,"start":0,"action_noise":0.2,"location_history":"[0,1,5]","action_history":"[1,1]","mutagen_history":"[0,0]","location_rts":"[936,332]","trial_type":"fractal-mutation","trial_index":189,"time_elapsed":3237273,"internal_node_id":"0.0-5.0-85.0"},{"group":"hexagon_tri","fractal_assignment":["../images/cyn_red.png","../images/gry_blk.png","../images/pnk_blu.png","../images/blu_wht.png","../images/ylw_slt.png","../images/org_blu.png"],"mutagen_generator_assignment":[1,0],"goal":3,"start":5,"action_noise":0.2,"location_history":"[5,4,2,3]","action_history":"[0,1,1]","mutagen_history":"[1,0,0]","location_rts":"[1025,543,724]","trial_type":"fractal-mutation","trial_index":190,"time_elapsed":3246149,"internal_node_id":"0.0-5.0-86.0"},{"group":"hexagon_tri","fractal_assignment":["../images/cyn_red.png","../images/gry_blk.png","../images/pnk_blu.png","../images/blu_wht.png","../images/ylw_slt.png","../images/org_blu.png"],"mutagen_generator_assignment":[1,0],"goal":1,"start":3,"action_noise":0.2,"location_history":"[3,4,2,1]","action_history":"[1,1,0]","mutagen_history":"[0,0,1]","location_rts":"[2653,645,415]","trial_type":"fractal-mutation","trial_index":191,"time_elapsed":3256447,"internal_node_id":"0.0-5.0-87.0"},{"group":"hexagon_tri","fractal_assignment":["../images/cyn_red.png","../images/gry_blk.png","../images/pnk_blu.png","../images/blu_wht.png","../images/ylw_slt.png","../images/org_blu.png"],"mutagen_generator_assignment":[1,0],"goal":2,"start":1,"action_noise":0.2,"location_history":"[1,3,4,2]","action_history":"[0,1,1]","mutagen_history":"[1,0,0]","location_rts":"[1123,542,428]","trial_type":"fractal-mutation","trial_index":192,"time_elapsed":3265120,"internal_node_id":"0.0-5.0-88.0"},{"group":"hexagon_tri","fractal_assignment":["../images/cyn_red.png","../images/gry_blk.png","../images/pnk_blu.png","../images/blu_wht.png","../images/ylw_slt.png","../images/org_blu.png"],"mutagen_generator_assignment":[1,0],"goal":0,"start":2,"action_noise":0.2,"location_history":"[2,1,5,0]","action_history":"[0,1,1]","mutagen_history":"[1,0,0]","location_rts":"[569,685,588]","trial_type":"fractal-mutation","trial_index":193,"time_elapsed":3273550,"internal_node_id":"0.0-5.0-89.0"},{"group":"hexagon_tri","fractal_assignment":["../images/cyn_red.png","../images/gry_blk.png","../images/pnk_blu.png","../images/blu_wht.png","../images/ylw_slt.png","../images/org_blu.png"],"mutagen_generator_assignment":[1,0],"goal":5,"start":0,"action_noise":0.2,"location_history":"[0,1,5]","action_history":"[1,1]","mutagen_history":"[0,0]","location_rts":"[957,339]","trial_type":"fractal-mutation","trial_index":194,"time_elapsed":3280399,"internal_node_id":"0.0-5.0-90.0"},{"group":"hexagon_tri","fractal_assignment":["../images/cyn_red.png","../images/gry_blk.png","../images/pnk_blu.png","../images/blu_wht.png","../images/ylw_slt.png","../images/org_blu.png"],"mutagen_generator_assignment":[1,0],"goal":1,"start":5,"action_noise":0.2,"location_history":"[5,0,1]","action_history":"[1,1]","mutagen_history":"[0,0]","location_rts":"[816,403]","trial_type":"fractal-mutation","trial_index":195,"time_elapsed":3287171,"internal_node_id":"0.0-5.0-91.0"},{"group":"hexagon_tri","fractal_assignment":["../images/cyn_red.png","../images/gry_blk.png","../images/pnk_blu.png","../images/blu_wht.png","../images/ylw_slt.png","../images/org_blu.png"],"mutagen_generator_assignment":[1,0],"goal":3,"start":1,"action_noise":0.2,"location_history":"[1,5,4,2,1,5,0,5,0,5,0,5,4,2,1,5,4,2,1,5,4,0,1,3]","action_history":"[0,0,1,1,1,0,0,0,0,1,0,0,1,0,1,0,1,1,1,0,0,1,0]","mutagen_history":"[1,1,0,0,0,1,1,1,1,0,1,1,0,1,0,1,0,0,0,1,1,0,1]","location_rts":"[869,697,571,381,413,462,470,531,471,451,448,348,1246,703,798,735,924,555,1072,516,1215,939,462]","trial_type":"fractal-mutation","trial_index":196,"time_elapsed":3329567,"internal_node_id":"0.0-5.0-92.0"},{"group":"hexagon_tri","fractal_assignment":["../images/cyn_red.png","../images/gry_blk.png","../images/pnk_blu.png","../images/blu_wht.png","../images/ylw_slt.png","../images/org_blu.png"],"mutagen_generator_assignment":[1,0],"goal":4,"start":3,"action_noise":0.2,"location_history":"[3,4]","action_history":"[1]","mutagen_history":"[0]","location_rts":"[766]","trial_type":"fractal-mutation","trial_index":197,"time_elapsed":3334861,"internal_node_id":"0.0-5.0-93.0"},{"group":"hexagon_tri","fractal_assignment":["../images/cyn_red.png","../images/gry_blk.png","../images/pnk_blu.png","../images/blu_wht.png","../images/ylw_slt.png","../images/org_blu.png"],"mutagen_generator_assignment":[1,0],"goal":2,"start":4,"action_noise":0.2,"location_history":"[4,2]","action_history":"[1]","mutagen_history":"[0]","location_rts":"[560]","trial_type":"fractal-mutation","trial_index":198,"time_elapsed":3339948,"internal_node_id":"0.0-5.0-94.0"},{"group":"hexagon_tri","fractal_assignment":["../images/cyn_red.png","../images/gry_blk.png","../images/pnk_blu.png","../images/blu_wht.png","../images/ylw_slt.png","../images/org_blu.png"],"mutagen_generator_assignment":[1,0],"goal":4,"start":2,"action_noise":0.2,"location_history":"[2,3,4]","action_history":"[1,1]","mutagen_history":"[0,0]","location_rts":"[418,372]","trial_type":"fractal-mutation","trial_index":199,"time_elapsed":3346296,"internal_node_id":"0.0-5.0-95.0"},{"group":"hexagon_tri","fractal_assignment":["../images/cyn_red.png","../images/gry_blk.png","../images/pnk_blu.png","../images/blu_wht.png","../images/ylw_slt.png","../images/org_blu.png"],"mutagen_generator_assignment":[1,0],"goal":0,"start":4,"action_noise":0.2,"location_history":"[4,2,1,5,0]","action_history":"[1,0,1,1]","mutagen_history":"[0,1,0,0]","location_rts":"[742,539,511,369]","trial_type":"fractal-mutation","trial_index":200,"time_elapsed":3356068,"internal_node_id":"0.0-5.0-96.0"},{"group":"hexagon_tri","fractal_assignment":["../images/cyn_red.png","../images/gry_blk.png","../images/pnk_blu.png","../images/blu_wht.png","../images/ylw_slt.png","../images/org_blu.png"],"mutagen_generator_assignment":[1,0],"goal":5,"start":0,"action_noise":0.2,"location_history":"[0,5]","action_history":"[1]","mutagen_history":"[0]","location_rts":"[840]","trial_type":"fractal-mutation","trial_index":201,"time_elapsed":3361438,"internal_node_id":"0.0-5.0-97.0"},{"group":"hexagon_tri","fractal_assignment":["../images/cyn_red.png","../images/gry_blk.png","../images/pnk_blu.png","../images/blu_wht.png","../images/ylw_slt.png","../images/org_blu.png"],"mutagen_generator_assignment":[1,0],"goal":1,"start":5,"action_noise":0.2,"location_history":"[5,0,1]","action_history":"[1,1]","mutagen_history":"[0,0]","location_rts":"[838,364]","trial_type":"fractal-mutation","trial_index":202,"time_elapsed":3368194,"internal_node_id":"0.0-5.0-98.0"},{"group":"hexagon_tri","fractal_assignment":["../images/cyn_red.png","../images/gry_blk.png","../images/pnk_blu.png","../images/blu_wht.png","../images/ylw_slt.png","../images/org_blu.png"],"mutagen_generator_assignment":[1,0],"goal":3,"start":1,"action_noise":0.2,"location_history":"[1,3]","action_history":"[0]","mutagen_history":"[1]","location_rts":"[922]","trial_type":"fractal-mutation","trial_index":203,"time_elapsed":3373649,"internal_node_id":"0.0-5.0-99.0"},{"view_history":"[{\"page_index\":0,\"viewing_time\":6037}]","rt":6037,"trial_type":"instructions","trial_index":204,"time_elapsed":3380686,"internal_node_id":"0.0-6.0"},{"rt":4661,"responses":"{\"Q0\":\"\"}","trial_type":"survey-text","trial_index":205,"time_elapsed":3386353,"internal_node_id":"0.0-7.0"}]