[{"view_history":"[{\"page_index\":0,\"viewing_time\":6822},{\"page_index\":1,\"viewing_time\":15828},{\"page_index\":2,\"viewing_time\":23820},{\"page_index\":3,\"viewing_time\":7382}]","rt":53855,"trial_type":"instructions","trial_index":0,"time_elapsed":53858,"internal_node_id":"0.0-0.0"},{"view_history":"[{\"page_index\":0,\"viewing_time\":8783},{\"page_index\":1,\"viewing_time\":23426}]","rt":32211,"trial_type":"instructions","trial_index":1,"time_elapsed":87085,"internal_node_id":"0.0-1.0"},{"group":"hexagon_bi","room_assignment":["purple","yellow","blue","green","red","grey"],"door_color_assignment":["white","black"],"door_generator_assignment":[1,0],"goal":4,"start":0,"action_noise":0.2,"location_history":"[0,1,0,1,2,3,2,1,2,3,2,1,0,5,4]","action_history":"[1,1,1,0,1,1,0,0,1,0,0,1,0,1]","door_history":"[0,0,0,1,0,0,1,1,0,1,1,0,1,0]","location_rts":"[2949,2328,1285,1057,2261,1705,1583,1590,989,1799,1443,2297,1266,1815]","trial_type":"two-door-navigation","trial_index":2,"time_elapsed":130847,"internal_node_id":"0.0-2.0-0.0"},{"group":"hexagon_bi","room_assignment":["purple","yellow","blue","green","red","grey"],"door_color_assignment":["white","black"],"door_generator_assignment":[1,0],"goal":3,"start":4,"action_noise":0.2,"location_history":"[4,5,0,5,0,1,2,3]","action_history":"[0,0,0,0,1,0,1]","door_history":"[1,1,1,1,0,1,0]","location_rts":"[4545,1118,1916,1503,672,1247,1227]","trial_type":"two-door-navigation","trial_index":3,"time_elapsed":154510,"internal_node_id":"0.0-2.0-1.0"},{"group":"hexagon_bi","room_assignment":["purple","yellow","blue","green","red","grey"],"door_color_assignment":["white","black"],"door_generator_assignment":[1,0],"goal":5,"start":3,"action_noise":0.2,"location_history":"[3,2,1,2,1,2,1,0,5]","action_history":"[1,1,0,0,0,1,1,0]","door_history":"[0,0,1,1,1,0,0,1]","location_rts":"[3909,3476,353,626,1343,334,1153,1073]","trial_type":"two-door-navigation","trial_index":4,"time_elapsed":179360,"internal_node_id":"0.0-2.0-2.0"},{"group":"hexagon_bi","room_assignment":["purple","yellow","blue","green","red","grey"],"door_color_assignment":["white","black"],"door_generator_assignment":[1,0],"goal":2,"start":5,"action_noise":0.2,"location_history":"[5,0,5,4,5,0,1,2]","action_history":"[0,0,1,0,0,1,0]","door_history":"[1,1,0,1,1,0,1]","location_rts":"[1146,896,1171,1164,871,1392,1324]","trial_type":"two-door-navigation","trial_index":5,"time_elapsed":198746,"internal_node_id":"0.0-2.0-3.0"},{"group":"hexagon_bi","room_assignment":["purple","yellow","blue","green","red","grey"],"door_color_assignment":["white","black"],"door_generator_assignment":[1,0],"goal":1,"start":2,"action_noise":0.2,"location_history":"[2,3,2,3,4,5,4,3,4,5,0,1]","action_history":"[1,1,0,0,1,1,0,1,0,0,1]","door_history":"[0,0,1,1,0,0,1,0,1,1,0]","location_rts":"[3713,1154,1437,795,1029,723,1061,1157,1438,655,1085]","trial_type":"two-door-navigation","trial_index":6,"time_elapsed":228973,"internal_node_id":"0.0-2.0-4.0"},{"group":"hexagon_bi","room_assignment":["purple","yellow","blue","green","red","grey"],"door_color_assignment":["white","black"],"door_generator_assignment":[1,0],"goal":4,"start":1,"action_noise":0.2,"location_history":"[1,2,1,0,5,4]","action_history":"[0,0,1,0,1]","door_history":"[1,1,0,1,0]","location_rts":"[1594,931,939,449,713]","trial_type":"two-door-navigation","trial_index":7,"time_elapsed":242680,"internal_node_id":"0.0-2.0-5.0"},{"group":"hexagon_bi","room_assignment":["purple","yellow","blue","green","red","grey"],"door_color_assignment":["white","black"],"door_generator_assignment":[1,0],"goal":1,"start":4,"action_noise":0.2,"location_history":"[4,5,4,3,4,5,4,3,2,3,4,3,2,3,4,5,0,1]","action_history":"[1,1,0,0,1,0,0,1,1,0,0,1,0,1,1,0,1]","door_history":"[0,0,1,1,0,1,1,0,0,1,1,0,1,0,0,1,0]","location_rts":"[1039,843,539,884,1080,535,949,704,1962,1191,974,614,412,1964,735,1140,1148]","trial_type":"two-door-navigation","trial_index":8,"time_elapsed":282078,"internal_node_id":"0.0-2.0-6.0"},{"group":"hexagon_bi","room_assignment":["purple","yellow","blue","green","red","grey"],"door_color_assignment":["white","black"],"door_generator_assignment":[1,0],"goal":5,"start":1,"action_noise":0.2,"location_history":"[1,0,5]","action_history":"[0,0]","door_history":"[1,1]","location_rts":"[1930,863]","trial_type":"two-door-navigation","trial_index":9,"time_elapsed":290677,"internal_node_id":"0.0-2.0-7.0"},{"group":"hexagon_bi","room_assignment":["purple","yellow","blue","green","red","grey"],"door_color_assignment":["white","black"],"door_generator_assignment":[1,0],"goal":0,"start":5,"action_noise":0.2,"location_history":"[5,0]","action_history":"[0]","door_history":"[1]","location_rts":"[1462]","trial_type":"two-door-navigation","trial_index":10,"time_elapsed":296810,"internal_node_id":"0.0-2.0-8.0"},{"group":"hexagon_bi","room_assignment":["purple","yellow","blue","green","red","grey"],"door_color_assignment":["white","black"],"door_generator_assignment":[1,0],"goal":2,"start":0,"action_noise":0.2,"location_history":"[0,1,2]","action_history":"[1,1]","door_history":"[0,0]","location_rts":"[1509,642]","trial_type":"two-door-navigation","trial_index":11,"time_elapsed":304769,"internal_node_id":"0.0-2.0-9.0"},{"group":"hexagon_bi","room_assignment":["purple","yellow","blue","green","red","grey"],"door_color_assignment":["white","black"],"door_generator_assignment":[1,0],"goal":3,"start":2,"action_noise":0.2,"location_history":"[2,1,2,1,0,1,2,3]","action_history":"[0,0,1,1,1,0,1]","door_history":"[1,1,0,0,0,1,0]","location_rts":"[2805,843,1168,1631,985,802,546]","trial_type":"two-door-navigation","trial_index":12,"time_elapsed":324988,"internal_node_id":"0.0-2.0-10.0"},{"group":"hexagon_bi","room_assignment":["purple","yellow","blue","green","red","grey"],"door_color_assignment":["white","black"],"door_generator_assignment":[1,0],"goal":0,"start":3,"action_noise":0.2,"location_history":"[3,2,3,4,3,2,3,4,3,2,1,2,1,0]","action_history":"[0,0,0,0,1,1,0,1,1,0,0,1,1]","door_history":"[1,1,1,1,0,0,1,0,0,1,1,0,0]","location_rts":"[1730,918,1390,1002,994,1791,738,1456,748,881,755,901,708]","trial_type":"two-door-navigation","trial_index":13,"time_elapsed":357286,"internal_node_id":"0.0-2.0-11.0"},{"group":"hexagon_bi","room_assignment":["purple","yellow","blue","green","red","grey"],"door_color_assignment":["white","black"],"door_generator_assignment":[1,0],"goal":2,"start":0,"action_noise":0.2,"location_history":"[0,5,4,5,0,5,4,3,2]","action_history":"[1,1,1,0,0,1,0,1]","door_history":"[0,0,0,1,1,0,1,0]","location_rts":"[1801,600,614,900,1275,1404,417,1601]","trial_type":"two-door-navigation","trial_index":14,"time_elapsed":378491,"internal_node_id":"0.0-2.0-12.0"},{"group":"hexagon_bi","room_assignment":["purple","yellow","blue","green","red","grey"],"door_color_assignment":["white","black"],"door_generator_assignment":[1,0],"goal":5,"start":2,"action_noise":0.2,"location_history":"[2,3,4,3,2,3,2,3,4,5]","action_history":"[0,0,0,1,1,0,1,0,1]","door_history":"[1,1,1,0,0,1,0,1,0]","location_rts":"[1616,509,588,941,765,2000,606,867,1148]","trial_type":"two-door-navigation","trial_index":15,"time_elapsed":401231,"internal_node_id":"0.0-2.0-13.0"},{"group":"hexagon_bi","room_assignment":["purple","yellow","blue","green","red","grey"],"door_color_assignment":["white","black"],"door_generator_assignment":[1,0],"goal":4,"start":5,"action_noise":0.2,"location_history":"[5,4]","action_history":"[1]","door_history":"[0]","location_rts":"[2130]","trial_type":"two-door-navigation","trial_index":16,"time_elapsed":408026,"internal_node_id":"0.0-2.0-14.0"},{"group":"hexagon_bi","room_assignment":["purple","yellow","blue","green","red","grey"],"door_color_assignment":["white","black"],"door_generator_assignment":[1,0],"goal":3,"start":4,"action_noise":0.2,"location_history":"[4,5,0,1,0,5,0,5,4,5,4,5,4,5,0,5,0,5,4,5,0,5,0,1,0,1,0,5,0,5,0,5,0,5,4,5,0,1,0,1,2,3]","action_history":"[0,0,1,1,0,0,1,1,0,1,1,1,0,0,1,0,0,1,1,1,0,0,1,1,1,0,0,0,0,1,0,0,0,1,0,0,1,1,1,0,1]","door_history":"[1,1,0,0,1,1,0,0,1,0,0,0,1,1,0,1,1,0,0,0,1,1,0,0,0,1,1,1,1,0,1,1,1,0,1,1,0,0,0,1,0]","location_rts":"[2413,2440,1170,1170,1103,1486,622,1734,725,1266,551,947,645,1282,1253,740,478,1459,768,513,344,1146,803,2654,609,654,907,900,603,825,1141,790,1442,721,1605,701,639,578,823,339,1751]","trial_type":"two-door-navigation","trial_index":17,"time_elapsed":500590,"internal_node_id":"0.0-2.0-15.0"},{"group":"hexagon_bi","room_assignment":["purple","yellow","blue","green","red","grey"],"door_color_assignment":["white","black"],"door_generator_assignment":[1,0],"goal":1,"start":3,"action_noise":0.2,"location_history":"[3,4,5,4,3,2,1]","action_history":"[1,1,1,0,1,1]","door_history":"[0,0,0,1,0,0]","location_rts":"[1215,940,631,1250,1287,2029]","trial_type":"two-door-navigation","trial_index":18,"time_elapsed":518263,"internal_node_id":"0.0-2.0-16.0"},{"group":"hexagon_bi","room_assignment":["purple","yellow","blue","green","red","grey"],"door_color_assignment":["white","black"],"door_generator_assignment":[1,0],"goal":5,"start":1,"action_noise":0.2,"location_history":"[1,2,1,0,5]","action_history":"[0,0,1,0]","door_history":"[1,1,0,1]","location_rts":"[1894,759,1181,3242]","trial_type":"two-door-navigation","trial_index":19,"time_elapsed":533402,"internal_node_id":"0.0-2.0-17.0"},{"group":"hexagon_bi","room_assignment":["purple","yellow","blue","green","red","grey"],"door_color_assignment":["white","black"],"door_generator_assignment":[1,0],"goal":4,"start":5,"action_noise":0.2,"location_history":"[5,0,5,4]","action_history":"[0,0,1]","door_history":"[1,1,0]","location_rts":"[2017,943,434]","trial_type":"two-door-navigation","trial_index":20,"time_elapsed":543716,"internal_node_id":"0.0-2.0-18.0"},{"group":"hexagon_bi","room_assignment":["purple","yellow","blue","green","red","grey"],"door_color_assignment":["white","black"],"door_generator_assignment":[1,0],"goal":0,"start":4,"action_noise":0.2,"location_history":"[4,3,2,3,4,5,0]","action_history":"[0,1,1,0,1,1]","door_history":"[1,0,0,1,0,0]","location_rts":"[2411,1238,561,1559,1219,458]","trial_type":"two-door-navigation","trial_index":21,"time_elapsed":561513,"internal_node_id":"0.0-2.0-19.0"},{"group":"hexagon_bi","room_assignment":["purple","yellow","blue","green","red","grey"],"door_color_assignment":["white","black"],"door_generator_assignment":[1,0],"goal":1,"start":0,"action_noise":0.2,"location_history":"[0,1]","action_history":"[1]","door_history":"[0]","location_rts":"[2727]","trial_type":"two-door-navigation","trial_index":22,"time_elapsed":568914,"internal_node_id":"0.0-2.0-20.0"},{"group":"hexagon_bi","room_assignment":["purple","yellow","blue","green","red","grey"],"door_color_assignment":["white","black"],"door_generator_assignment":[1,0],"goal":3,"start":1,"action_noise":0.2,"location_history":"[1,0,1,0,1,0,5,0,1,2,3]","action_history":"[1,1,0,0,1,1,1,1,0,1]","door_history":"[0,0,1,1,0,0,0,0,1,0]","location_rts":"[2586,368,1036,993,1465,1175,2199,1018,1002,1395]","trial_type":"two-door-navigation","trial_index":23,"time_elapsed":596981,"internal_node_id":"0.0-2.0-21.0"},{"group":"hexagon_bi","room_assignment":["purple","yellow","blue","green","red","grey"],"door_color_assignment":["white","black"],"door_generator_assignment":[1,0],"goal":2,"start":3,"action_noise":0.2,"location_history":"[3,4,3,2]","action_history":"[1,0,0]","door_history":"[0,1,1]","location_rts":"[3245,1146,635]","trial_type":"two-door-navigation","trial_index":24,"time_elapsed":608936,"internal_node_id":"0.0-2.0-22.0"},{"group":"hexagon_bi","room_assignment":["purple","yellow","blue","green","red","grey"],"door_color_assignment":["white","black"],"door_generator_assignment":[1,0],"goal":0,"start":2,"action_noise":0.2,"location_history":"[2,1,2,3,2,3,4,3,2,1,0]","action_history":"[0,0,1,1,1,0,1,1,0,1]","door_history":"[1,1,0,0,0,1,0,0,1,0]","location_rts":"[2143,743,1173,1639,1000,367,934,1360,348,981]","trial_type":"two-door-navigation","trial_index":25,"time_elapsed":634459,"internal_node_id":"0.0-2.0-23.0"},{"group":"hexagon_bi","room_assignment":["purple","yellow","blue","green","red","grey"],"door_color_assignment":["white","black"],"door_generator_assignment":[1,0],"goal":3,"start":0,"action_noise":0.2,"location_history":"[0,5,4,5,0,5,0,5,0,5,4,5,4,3]","action_history":"[1,1,1,0,0,1,0,0,1,1,1,0,0]","door_history":"[0,0,0,1,1,0,1,1,0,0,0,1,1]","location_rts":"[1527,765,843,1134,571,982,970,1793,451,784,1156,1121,1518]","trial_type":"two-door-navigation","trial_index":26,"time_elapsed":666284,"internal_node_id":"0.0-2.0-24.0"},{"group":"hexagon_bi","room_assignment":["purple","yellow","blue","green","red","grey"],"door_color_assignment":["white","black"],"door_generator_assignment":[1,0],"goal":1,"start":3,"action_noise":0.2,"location_history":"[3,2,1]","action_history":"[1,1]","door_history":"[0,0]","location_rts":"[1265,703]","trial_type":"two-door-navigation","trial_index":27,"time_elapsed":674032,"internal_node_id":"0.0-2.0-25.0"},{"group":"hexagon_bi","room_assignment":["purple","yellow","blue","green","red","grey"],"door_color_assignment":["white","black"],"door_generator_assignment":[1,0],"goal":2,"start":1,"action_noise":0.2,"location_history":"[1,0,5,0,1,0,5,0,5,0,1,2]","action_history":"[0,0,0,1,1,0,1,0,0,1,0]","door_history":"[1,1,1,0,0,1,0,1,1,0,1]","location_rts":"[1728,1071,465,675,1912,1133,525,1201,432,840,791]","trial_type":"two-door-navigation","trial_index":28,"time_elapsed":700775,"internal_node_id":"0.0-2.0-26.0"},{"group":"hexagon_bi","room_assignment":["purple","yellow","blue","green","red","grey"],"door_color_assignment":["white","black"],"door_generator_assignment":[1,0],"goal":5,"start":2,"action_noise":0.2,"location_history":"[2,1,0,1,2,3,2,1,2,3,4,5]","action_history":"[0,1,1,0,1,1,0,1,1,0,1]","door_history":"[1,0,0,1,0,0,1,0,0,1,0]","location_rts":"[2045,1357,818,687,1395,1546,3722,1069,394,455,1481]","trial_type":"two-door-navigation","trial_index":29,"time_elapsed":731698,"internal_node_id":"0.0-2.0-27.0"},{"group":"hexagon_bi","room_assignment":["purple","yellow","blue","green","red","grey"],"door_color_assignment":["white","black"],"door_generator_assignment":[1,0],"goal":4,"start":5,"action_noise":0.2,"location_history":"[5,0,1,2,1,0,1,0,5,4]","action_history":"[0,0,0,0,1,1,1,0,1]","door_history":"[1,1,1,1,0,0,0,1,0]","location_rts":"[2843,1293,1266,2111,2637,774,424,712,1103]","trial_type":"two-door-navigation","trial_index":30,"time_elapsed":758579,"internal_node_id":"0.0-2.0-28.0"},{"group":"hexagon_bi","room_assignment":["purple","yellow","blue","green","red","grey"],"door_color_assignment":["white","black"],"door_generator_assignment":[1,0],"goal":5,"start":4,"action_noise":0.2,"location_history":"[4,5]","action_history":"[0]","door_history":"[1]","location_rts":"[1940]","trial_type":"two-door-navigation","trial_index":31,"time_elapsed":765186,"internal_node_id":"0.0-2.0-29.0"},{"group":"hexagon_bi","room_assignment":["purple","yellow","blue","green","red","grey"],"door_color_assignment":["white","black"],"door_generator_assignment":[1,0],"goal":3,"start":5,"action_noise":0.2,"location_history":"[5,0,5,0,1,0,5,0,1,2,1,0,5,0,5,4,5,0,5,0,1,2,3]","action_history":"[0,0,0,1,1,0,0,1,0,1,1,0,0,0,1,1,0,0,1,1,0,0]","door_history":"[1,1,1,0,0,1,1,0,1,0,0,1,1,1,0,0,1,1,0,0,1,1]","location_rts":"[2641,1086,1611,334,1275,1621,575,715,1697,1431,871,622,618,677,668,1735,1489,633,601,677,1736,1777]","trial_type":"two-door-navigation","trial_index":32,"time_elapsed":818649,"internal_node_id":"0.0-2.0-30.0"},{"group":"hexagon_bi","room_assignment":["purple","yellow","blue","green","red","grey"],"door_color_assignment":["white","black"],"door_generator_assignment":[1,0],"goal":0,"start":3,"action_noise":0.2,"location_history":"[3,2,1,0]","action_history":"[0,0,0]","door_history":"[1,1,1]","location_rts":"[1892,2021,1407]","trial_type":"two-door-navigation","trial_index":33,"time_elapsed":830892,"internal_node_id":"0.0-2.0-31.0"},{"group":"hexagon_bi","room_assignment":["purple","yellow","blue","green","red","grey"],"door_color_assignment":["white","black"],"door_generator_assignment":[1,0],"goal":4,"start":0,"action_noise":0.2,"location_history":"[0,5,0,1,2,1,2,1,0,5,4]","action_history":"[0,0,1,1,1,0,1,0,0,1]","door_history":"[1,1,0,0,0,1,0,1,1,0]","location_rts":"[2185,431,1033,669,760,1253,1178,773,417,549]","trial_type":"two-door-navigation","trial_index":34,"time_elapsed":855013,"internal_node_id":"0.0-2.0-32.0"},{"group":"hexagon_bi","room_assignment":["purple","yellow","blue","green","red","grey"],"door_color_assignment":["white","black"],"door_generator_assignment":[1,0],"goal":1,"start":4,"action_noise":0.2,"location_history":"[4,3,2,3,2,1]","action_history":"[1,1,1,1,0]","door_history":"[0,0,0,0,1]","location_rts":"[1220,462,808,519,608]","trial_type":"two-door-navigation","trial_index":35,"time_elapsed":867788,"internal_node_id":"0.0-2.0-33.0"},{"group":"hexagon_bi","room_assignment":["purple","yellow","blue","green","red","grey"],"door_color_assignment":["white","black"],"door_generator_assignment":[1,0],"goal":2,"start":1,"action_noise":0.2,"location_history":"[1,2]","action_history":"[1]","door_history":"[0]","location_rts":"[2375]","trial_type":"two-door-navigation","trial_index":36,"time_elapsed":874814,"internal_node_id":"0.0-2.0-34.0"},{"group":"hexagon_bi","room_assignment":["purple","yellow","blue","green","red","grey"],"door_color_assignment":["white","black"],"door_generator_assignment":[1,0],"goal":0,"start":2,"action_noise":0.2,"location_history":"[2,3,2,1,0]","action_history":"[1,1,0,1]","door_history":"[0,0,1,0]","location_rts":"[2447,588,686,1597]","trial_type":"two-door-navigation","trial_index":37,"time_elapsed":888172,"internal_node_id":"0.0-2.0-35.0"},{"group":"hexagon_bi","room_assignment":["purple","yellow","blue","green","red","grey"],"door_color_assignment":["white","black"],"door_generator_assignment":[1,0],"goal":5,"start":0,"action_noise":0.2,"location_history":"[0,5]","action_history":"[0]","door_history":"[1]","location_rts":"[2695]","trial_type":"two-door-navigation","trial_index":38,"time_elapsed":895534,"internal_node_id":"0.0-2.0-36.0"},{"group":"hexagon_bi","room_assignment":["purple","yellow","blue","green","red","grey"],"door_color_assignment":["white","black"],"door_generator_assignment":[1,0],"goal":2,"start":5,"action_noise":0.2,"location_history":"[5,0,5,4,5,4,3,2]","action_history":"[0,0,1,1,1,0,1]","door_history":"[1,1,0,0,0,1,0]","location_rts":"[2306,666,681,592,1238,417,1239]","trial_type":"two-door-navigation","trial_index":39,"time_elapsed":914076,"internal_node_id":"0.0-2.0-37.0"},{"group":"hexagon_bi","room_assignment":["purple","yellow","blue","green","red","grey"],"door_color_assignment":["white","black"],"door_generator_assignment":[1,0],"goal":1,"start":2,"action_noise":0.2,"location_history":"[2,3,4,5,4,3,4,3,2,1]","action_history":"[1,1,1,1,0,1,0,0,0]","door_history":"[0,0,0,0,1,0,1,1,1]","location_rts":"[1274,461,1489,1165,872,1513,370,361,1360]","trial_type":"two-door-navigation","trial_index":40,"time_elapsed":936640,"internal_node_id":"0.0-2.0-38.0"},{"group":"hexagon_bi","room_assignment":["purple","yellow","blue","green","red","grey"],"door_color_assignment":["white","black"],"door_generator_assignment":[1,0],"goal":4,"start":1,"action_noise":0.2,"location_history":"[1,0,1,2,3,4]","action_history":"[1,1,0,1,1]","door_history":"[0,0,1,0,0]","location_rts":"[3166,607,1197,1003,1390]","trial_type":"two-door-navigation","trial_index":41,"time_elapsed":953216,"internal_node_id":"0.0-2.0-39.0"},{"group":"hexagon_bi","room_assignment":["purple","yellow","blue","green","red","grey"],"door_color_assignment":["white","black"],"door_generator_assignment":[1,0],"goal":3,"start":4,"action_noise":0.2,"location_history":"[4,3]","action_history":"[0]","door_history":"[1]","location_rts":"[2001]","trial_type":"two-door-navigation","trial_index":42,"time_elapsed":959886,"internal_node_id":"0.0-2.0-40.0"},{"group":"hexagon_bi","room_assignment":["purple","yellow","blue","green","red","grey"],"door_color_assignment":["white","black"],"door_generator_assignment":[1,0],"goal":5,"start":3,"action_noise":0.2,"location_history":"[3,4,5]","action_history":"[0,1]","door_history":"[1,0]","location_rts":"[2498,1114]","trial_type":"two-door-navigation","trial_index":43,"time_elapsed":969294,"internal_node_id":"0.0-2.0-41.0"},{"group":"hexagon_bi","room_assignment":["purple","yellow","blue","green","red","grey"],"door_color_assignment":["white","black"],"door_generator_assignment":[1,0],"goal":3,"start":5,"action_noise":0.2,"location_history":"[5,4,3]","action_history":"[0,0]","door_history":"[1,1]","location_rts":"[6056,571]","trial_type":"two-door-navigation","trial_index":44,"time_elapsed":981727,"internal_node_id":"0.0-2.0-42.0"},{"group":"hexagon_bi","room_assignment":["purple","yellow","blue","green","red","grey"],"door_color_assignment":["white","black"],"door_generator_assignment":[1,0],"goal":0,"start":3,"action_noise":0.2,"location_history":"[3,2,3,2,3,2,3,4,5,4,5,0]","action_history":"[0,0,1,1,1,0,0,1,1,1,0]","door_history":"[1,1,0,0,0,1,1,0,0,0,1]","location_rts":"[1464,636,2302,1359,821,481,866,539,1246,1135,359]","trial_type":"two-door-navigation","trial_index":45,"time_elapsed":1008879,"internal_node_id":"0.0-2.0-43.0"},{"group":"hexagon_bi","room_assignment":["purple","yellow","blue","green","red","grey"],"door_color_assignment":["white","black"],"door_generator_assignment":[1,0],"goal":2,"start":0,"action_noise":0.2,"location_history":"[0,5,4,5,0,5,4,3,2]","action_history":"[1,1,1,0,0,1,0,1]","door_history":"[0,0,0,1,1,0,1,0]","location_rts":"[2486,350,544,1403,633,1013,360,837]","trial_type":"two-door-navigation","trial_index":46,"time_elapsed":1029152,"internal_node_id":"0.0-2.0-44.0"},{"group":"hexagon_bi","room_assignment":["purple","yellow","blue","green","red","grey"],"door_color_assignment":["white","black"],"door_generator_assignment":[1,0],"goal":4,"start":2,"action_noise":0.2,"location_history":"[2,1,2,3,4]","action_history":"[1,1,1,0]","door_history":"[0,0,0,1]","location_rts":"[2601,569,444,101]","trial_type":"two-door-navigation","trial_index":47,"time_elapsed":1040908,"internal_node_id":"0.0-2.0-45.0"},{"group":"hexagon_bi","room_assignment":["purple","yellow","blue","green","red","grey"],"door_color_assignment":["white","black"],"door_generator_assignment":[1,0],"goal":1,"start":4,"action_noise":0.2,"location_history":"[4,3,4,5,4,5,4,3,2,3,4,5,0,5,4,3,4,3,2,1]","action_history":"[0,0,0,1,1,1,0,1,1,0,0,0,1,1,0,0,0,1,0]","door_history":"[1,1,1,0,0,0,1,0,0,1,1,1,0,0,1,1,1,0,1]","location_rts":"[2158,340,695,725,818,447,359,745,1222,945,503,906,974,1403,1308,621,561,418,1644]","trial_type":"two-door-navigation","trial_index":48,"time_elapsed":1082736,"internal_node_id":"0.0-2.0-46.0"},{"group":"hexagon_bi","room_assignment":["purple","yellow","blue","green","red","grey"],"door_color_assignment":["white","black"],"door_generator_assignment":[1,0],"goal":4,"start":1,"action_noise":0.2,"location_history":"[1,2,3,4]","action_history":"[1,1,1]","door_history":"[0,0,0]","location_rts":"[3392,561,824]","trial_type":"two-door-navigation","trial_index":49,"time_elapsed":1094436,"internal_node_id":"0.0-2.0-47.0"},{"group":"hexagon_bi","room_assignment":["purple","yellow","blue","green","red","grey"],"door_color_assignment":["white","black"],"door_generator_assignment":[1,0],"goal":1,"start":4,"action_noise":0.2,"location_history":"[4,3,4,3,2,3,4,5,4,3,4,5,0,1]","action_history":"[0,0,0,1,0,1,1,1,0,0,1,0,1]","door_history":"[1,1,1,0,1,0,0,0,1,1,0,1,0]","location_rts":"[2374,394,402,208,1298,558,611,651,1198,491,1045,812,963]","trial_type":"two-door-navigation","trial_index":50,"time_elapsed":1123698,"internal_node_id":"0.0-2.0-48.0"},{"group":"hexagon_bi","room_assignment":["purple","yellow","blue","green","red","grey"],"door_color_assignment":["white","black"],"door_generator_assignment":[1,0],"goal":3,"start":1,"action_noise":0.2,"location_history":"[1,2,3]","action_history":"[1,1]","door_history":"[0,0]","location_rts":"[2305,657]","trial_type":"two-door-navigation","trial_index":51,"time_elapsed":1132461,"internal_node_id":"0.0-2.0-49.0"},{"group":"hexagon_bi","room_assignment":["purple","yellow","blue","green","red","grey"],"door_color_assignment":["white","black"],"door_generator_assignment":[1,0],"goal":5,"start":3,"action_noise":0.2,"location_history":"[3,4,5]","action_history":"[1,1]","door_history":"[0,0]","location_rts":"[2733,609]","trial_type":"two-door-navigation","trial_index":52,"time_elapsed":1141594,"internal_node_id":"0.0-2.0-50.0"},{"group":"hexagon_bi","room_assignment":["purple","yellow","blue","green","red","grey"],"door_color_assignment":["white","black"],"door_generator_assignment":[1,0],"goal":0,"start":5,"action_noise":0.2,"location_history":"[5,4,3,4,5,0]","action_history":"[1,0,0,1,0]","door_history":"[0,1,1,0,1]","location_rts":"[1198,3136,1345,446,428]","trial_type":"two-door-navigation","trial_index":53,"time_elapsed":1157300,"internal_node_id":"0.0-2.0-51.0"},{"group":"hexagon_bi","room_assignment":["purple","yellow","blue","green","red","grey"],"door_color_assignment":["white","black"],"door_generator_assignment":[1,0],"goal":2,"start":0,"action_noise":0.2,"location_history":"[0,5,4,3,2]","action_history":"[0,1,0,0]","door_history":"[1,0,1,1]","location_rts":"[1457,448,846,629]","trial_type":"two-door-navigation","trial_index":54,"time_elapsed":1168754,"internal_node_id":"0.0-2.0-52.0"},{"group":"hexagon_bi","room_assignment":["purple","yellow","blue","green","red","grey"],"door_color_assignment":["white","black"],"door_generator_assignment":[1,0],"goal":1,"start":2,"action_noise":0.2,"location_history":"[2,1]","action_history":"[0]","door_history":"[1]","location_rts":"[2555]","trial_type":"two-door-navigation","trial_index":55,"time_elapsed":1175971,"internal_node_id":"0.0-2.0-53.0"},{"group":"hexagon_bi","room_assignment":["purple","yellow","blue","green","red","grey"],"door_color_assignment":["white","black"],"door_generator_assignment":[1,0],"goal":2,"start":1,"action_noise":0.2,"location_history":"[1,0,1,2]","action_history":"[1,1,0]","door_history":"[0,0,1]","location_rts":"[1962,993,946]","trial_type":"two-door-navigation","trial_index":56,"time_elapsed":1186802,"internal_node_id":"0.0-2.0-54.0"},{"group":"hexagon_bi","room_assignment":["purple","yellow","blue","green","red","grey"],"door_color_assignment":["white","black"],"door_generator_assignment":[1,0],"goal":5,"start":2,"action_noise":0.2,"location_history":"[2,3,2,3,4,5]","action_history":"[1,1,1,0,1]","door_history":"[0,0,0,1,0]","location_rts":"[1784,552,1123,480,1019]","trial_type":"two-door-navigation","trial_index":57,"time_elapsed":1200970,"internal_node_id":"0.0-2.0-55.0"},{"group":"hexagon_bi","room_assignment":["purple","yellow","blue","green","red","grey"],"door_color_assignment":["white","black"],"door_generator_assignment":[1,0],"goal":4,"start":5,"action_noise":0.2,"location_history":"[5,0,5,4]","action_history":"[0,0,1]","door_history":"[1,1,0]","location_rts":"[1850,1698,1531]","trial_type":"two-door-navigation","trial_index":58,"time_elapsed":1212985,"internal_node_id":"0.0-2.0-56.0"},{"group":"hexagon_bi","room_assignment":["purple","yellow","blue","green","red","grey"],"door_color_assignment":["white","black"],"door_generator_assignment":[1,0],"goal":3,"start":4,"action_noise":0.2,"location_history":"[4,5,4,3]","action_history":"[1,1,0]","door_history":"[0,0,1]","location_rts":"[16029,440,650]","trial_type":"two-door-navigation","trial_index":59,"time_elapsed":1237025,"internal_node_id":"0.0-2.0-57.0"},{"group":"hexagon_bi","room_assignment":["purple","yellow","blue","green","red","grey"],"door_color_assignment":["white","black"],"door_generator_assignment":[1,0],"goal":0,"start":3,"action_noise":0.2,"location_history":"[3,2,3,2,1,2,1,2,3,2,3,4,5,4,5,4,5,0]","action_history":"[1,1,0,0,1,0,0,0,1,1,0,1,0,1,1,0,0]","door_history":"[0,0,1,1,0,1,1,1,0,0,1,0,1,0,0,1,1]","location_rts":"[2276,596,1063,1530,1188,1045,401,1297,634,725,772,726,1792,3005,391,956,890]","trial_type":"two-door-navigation","trial_index":60,"time_elapsed":1279109,"internal_node_id":"0.0-2.0-58.0"},{"group":"hexagon_bi","room_assignment":["purple","yellow","blue","green","red","grey"],"door_color_assignment":["white","black"],"door_generator_assignment":[1,0],"goal":2,"start":0,"action_noise":0.2,"location_history":"[0,5,4,3,4,5,4,5,0,1,2]","action_history":"[0,1,1,0,1,1,1,0,1,1]","door_history":"[1,0,0,1,0,0,0,1,0,0]","location_rts":"[2134,2416,637,1556,1285,575,635,323,787,663]","trial_type":"two-door-navigation","trial_index":61,"time_elapsed":1304939,"internal_node_id":"0.0-2.0-59.0"},{"group":"hexagon_bi","room_assignment":["purple","yellow","blue","green","red","grey"],"door_color_assignment":["white","black"],"door_generator_assignment":[1,0],"goal":1,"start":2,"action_noise":0.2,"location_history":"[2,1]","action_history":"[0]","door_history":"[1]","location_rts":"[3853]","trial_type":"two-door-navigation","trial_index":62,"time_elapsed":1313436,"internal_node_id":"0.0-2.0-60.0"},{"group":"hexagon_bi","room_assignment":["purple","yellow","blue","green","red","grey"],"door_color_assignment":["white","black"],"door_generator_assignment":[1,0],"goal":0,"start":1,"action_noise":0.2,"location_history":"[1,2,3,2,1,0]","action_history":"[0,0,0,0,1]","door_history":"[1,1,1,1,0]","location_rts":"[3390,1430,1050,1376,746]","trial_type":"two-door-navigation","trial_index":63,"time_elapsed":1330583,"internal_node_id":"0.0-2.0-61.0"},{"group":"hexagon_bi","room_assignment":["purple","yellow","blue","green","red","grey"],"door_color_assignment":["white","black"],"door_generator_assignment":[1,0],"goal":3,"start":0,"action_noise":0.2,"location_history":"[0,5,4,5,0,1,0,5,0,5,0,1,0,5,0,5,0,1,2,1,2,3]","action_history":"[1,1,1,0,1,1,0,0,0,0,1,1,1,0,0,0,1,0,0,0,1]","door_history":"[0,0,0,1,0,0,1,1,1,1,0,0,0,1,1,1,0,1,1,1,0]","location_rts":"[2315,715,1301,1056,1145,2462,1542,659,694,409,3,1578,520,945,473,373,310,707,3257,1882,7009]","trial_type":"two-door-navigation","trial_index":64,"time_elapsed":1387190,"internal_node_id":"0.0-2.0-62.0"},{"group":"hexagon_bi","room_assignment":["purple","yellow","blue","green","red","grey"],"door_color_assignment":["white","black"],"door_generator_assignment":[1,0],"goal":5,"start":3,"action_noise":0.2,"location_history":"[3,2,3,2,1,2,3,4,5]","action_history":"[1,1,0,0,0,0,1,1]","door_history":"[0,0,1,1,1,1,0,0]","location_rts":"[4648,968,856,644,1143,458,306,988]","trial_type":"two-door-navigation","trial_index":65,"time_elapsed":1409755,"internal_node_id":"0.0-2.0-63.0"},{"group":"hexagon_bi","room_assignment":["purple","yellow","blue","green","red","grey"],"door_color_assignment":["white","black"],"door_generator_assignment":[1,0],"goal":4,"start":5,"action_noise":0.2,"location_history":"[5,0,5,4]","action_history":"[0,0,1]","door_history":"[1,1,0]","location_rts":"[1633,1813,812]","trial_type":"two-door-navigation","trial_index":66,"time_elapsed":1420957,"internal_node_id":"0.0-2.0-64.0"},{"group":"hexagon_bi","room_assignment":["purple","yellow","blue","green","red","grey"],"door_color_assignment":["white","black"],"door_generator_assignment":[1,0],"goal":1,"start":4,"action_noise":0.2,"location_history":"[4,3,4,5,4,3,2,3,2,1]","action_history":"[0,0,0,1,0,1,1,1,0]","door_history":"[1,1,1,0,1,0,0,0,1]","location_rts":"[1612,523,1862,316,1058,736,680,1213,434]","trial_type":"two-door-navigation","trial_index":67,"time_elapsed":1443022,"internal_node_id":"0.0-2.0-65.0"},{"group":"hexagon_bi","room_assignment":["purple","yellow","blue","green","red","grey"],"door_color_assignment":["white","black"],"door_generator_assignment":[1,0],"goal":5,"start":1,"action_noise":0.2,"location_history":"[1,2,3,4,5]","action_history":"[0,1,0,1]","door_history":"[1,0,1,0]","location_rts":"[3338,393,885,1090]","trial_type":"two-door-navigation","trial_index":68,"time_elapsed":1456758,"internal_node_id":"0.0-2.0-66.0"},{"group":"hexagon_bi","room_assignment":["purple","yellow","blue","green","red","grey"],"door_color_assignment":["white","black"],"door_generator_assignment":[1,0],"goal":2,"start":5,"action_noise":0.2,"location_history":"[5,4,3,2]","action_history":"[1,0,1]","door_history":"[0,1,0]","location_rts":"[3365,527,443]","trial_type":"two-door-navigation","trial_index":69,"time_elapsed":1468030,"internal_node_id":"0.0-2.0-67.0"},{"group":"hexagon_bi","room_assignment":["purple","yellow","blue","green","red","grey"],"door_color_assignment":["white","black"],"door_generator_assignment":[1,0],"goal":3,"start":2,"action_noise":0.2,"location_history":"[2,1,2,1,0,1,0,5,4,3]","action_history":"[1,0,0,1,1,0,0,1,0]","door_history":"[0,1,1,0,0,1,1,0,1]","location_rts":"[4201,990,1445,688,734,719,930,1425,1091]","trial_type":"two-door-navigation","trial_index":70,"time_elapsed":1493901,"internal_node_id":"0.0-2.0-68.0"},{"group":"hexagon_bi","room_assignment":["purple","yellow","blue","green","red","grey"],"door_color_assignment":["white","black"],"door_generator_assignment":[1,0],"goal":4,"start":3,"action_noise":0.2,"location_history":"[3,4]","action_history":"[0]","door_history":"[1]","location_rts":"[2760]","trial_type":"two-door-navigation","trial_index":71,"time_elapsed":1501330,"internal_node_id":"0.0-2.0-69.0"},{"group":"hexagon_bi","room_assignment":["purple","yellow","blue","green","red","grey"],"door_color_assignment":["white","black"],"door_generator_assignment":[1,0],"goal":0,"start":4,"action_noise":0.2,"location_history":"[4,5,0]","action_history":"[1,1]","door_history":"[0,0]","location_rts":"[2405,398]","trial_type":"two-door-navigation","trial_index":72,"time_elapsed":1509943,"internal_node_id":"0.0-2.0-70.0"},{"group":"hexagon_bi","room_assignment":["purple","yellow","blue","green","red","grey"],"door_color_assignment":["white","black"],"door_generator_assignment":[1,0],"goal":5,"start":0,"action_noise":0.2,"location_history":"[0,5]","action_history":"[1]","door_history":"[0]","location_rts":"[2407]","trial_type":"two-door-navigation","trial_index":73,"time_elapsed":1516998,"internal_node_id":"0.0-2.0-71.0"},{"group":"hexagon_bi","room_assignment":["purple","yellow","blue","green","red","grey"],"door_color_assignment":["white","black"],"door_generator_assignment":[1,0],"goal":0,"start":5,"action_noise":0.2,"location_history":"[5,0]","action_history":"[1]","door_history":"[0]","location_rts":"[2004]","trial_type":"two-door-navigation","trial_index":74,"time_elapsed":1523675,"internal_node_id":"0.0-2.0-72.0"},{"group":"hexagon_bi","room_assignment":["purple","yellow","blue","green","red","grey"],"door_color_assignment":["white","black"],"door_generator_assignment":[1,0],"goal":3,"start":0,"action_noise":0.2,"location_history":"[0,1,2,1,2,1,2,3]","action_history":"[0,0,1,0,0,0,1]","door_history":"[1,1,0,1,1,1,0]","location_rts":"[1901,854,869,712,362,841,487]","trial_type":"two-door-navigation","trial_index":75,"time_elapsed":1541121,"internal_node_id":"0.0-2.0-73.0"},{"group":"hexagon_bi","room_assignment":["purple","yellow","blue","green","red","grey"],"door_color_assignment":["white","black"],"door_generator_assignment":[1,0],"goal":1,"start":3,"action_noise":0.2,"location_history":"[3,2,3,4,5,4,3,4,3,2,3,2,3,4,5,0,1]","action_history":"[1,0,0,1,1,0,1,0,0,1,1,1,0,1,0,1]","door_history":"[0,1,1,0,0,1,0,1,1,0,0,0,1,0,1,0]","location_rts":"[3093,1627,1299,950,485,1347,1061,686,317,761,949,341,486,442,557,722]","trial_type":"two-door-navigation","trial_index":76,"time_elapsed":1577701,"internal_node_id":"0.0-2.0-74.0"},{"group":"hexagon_bi","room_assignment":["purple","yellow","blue","green","red","grey"],"door_color_assignment":["white","black"],"door_generator_assignment":[1,0],"goal":2,"start":1,"action_noise":0.2,"location_history":"[1,0,1,2]","action_history":"[1,1,0]","door_history":"[0,0,1]","location_rts":"[3980,1312,426]","trial_type":"two-door-navigation","trial_index":77,"time_elapsed":1590328,"internal_node_id":"0.0-2.0-75.0"},{"group":"hexagon_bi","room_assignment":["purple","yellow","blue","green","red","grey"],"door_color_assignment":["white","black"],"door_generator_assignment":[1,0],"goal":4,"start":2,"action_noise":0.2,"location_history":"[2,3,2,3,4]","action_history":"[0,1,1,0]","door_history":"[1,0,0,1]","location_rts":"[1950,2398,440,585]","trial_type":"two-door-navigation","trial_index":78,"time_elapsed":1603715,"internal_node_id":"0.0-2.0-76.0"},{"group":"hexagon_bi","room_assignment":["purple","yellow","blue","green","red","grey"],"door_color_assignment":["white","black"],"door_generator_assignment":[1,0],"goal":3,"start":4,"action_noise":0.2,"location_history":"[4,3]","action_history":"[0]","door_history":"[1]","location_rts":"[2311]","trial_type":"two-door-navigation","trial_index":79,"time_elapsed":1610687,"internal_node_id":"0.0-2.0-77.0"},{"group":"hexagon_bi","room_assignment":["purple","yellow","blue","green","red","grey"],"door_color_assignment":["white","black"],"door_generator_assignment":[1,0],"goal":0,"start":3,"action_noise":0.2,"location_history":"[3,2,1,0]","action_history":"[1,0,0]","door_history":"[0,1,1]","location_rts":"[2102,1001,981]","trial_type":"two-door-navigation","trial_index":80,"time_elapsed":1621729,"internal_node_id":"0.0-2.0-78.0"},{"group":"hexagon_bi","room_assignment":["purple","yellow","blue","green","red","grey"],"door_color_assignment":["white","black"],"door_generator_assignment":[1,0],"goal":4,"start":0,"action_noise":0.2,"location_history":"[0,1,2,3,4]","action_history":"[0,1,1,0]","door_history":"[1,0,0,1]","location_rts":"[2460,959,3750,1303]","trial_type":"two-door-navigation","trial_index":81,"time_elapsed":1638255,"internal_node_id":"0.0-2.0-79.0"},{"group":"hexagon_bi","room_assignment":["purple","yellow","blue","green","red","grey"],"door_color_assignment":["white","black"],"door_generator_assignment":[1,0],"goal":5,"start":4,"action_noise":0.2,"location_history":"[4,5]","action_history":"[1]","door_history":"[0]","location_rts":"[2714]","trial_type":"two-door-navigation","trial_index":82,"time_elapsed":1645635,"internal_node_id":"0.0-2.0-80.0"},{"group":"hexagon_bi","room_assignment":["purple","yellow","blue","green","red","grey"],"door_color_assignment":["white","black"],"door_generator_assignment":[1,0],"goal":1,"start":5,"action_noise":0.2,"location_history":"[5,0,5,4,5,4,3,4,5,0,5,0,1]","action_history":"[0,0,0,1,1,1,0,1,0,0,0,1]","door_history":"[1,1,1,0,0,0,1,0,1,1,1,0]","location_rts":"[2003,831,952,456,415,1869,399,1478,981,1831,458,571]","trial_type":"two-door-navigation","trial_index":83,"time_elapsed":1675003,"internal_node_id":"0.0-2.0-81.0"},{"group":"hexagon_bi","room_assignment":["purple","yellow","blue","green","red","grey"],"door_color_assignment":["white","black"],"door_generator_assignment":[1,0],"goal":2,"start":1,"action_noise":0.2,"location_history":"[1,0,1,2]","action_history":"[1,1,0]","door_history":"[0,0,1]","location_rts":"[3296,1335,726]","trial_type":"two-door-navigation","trial_index":84,"time_elapsed":1687292,"internal_node_id":"0.0-2.0-82.0"},{"group":"hexagon_bi","room_assignment":["purple","yellow","blue","green","red","grey"],"door_color_assignment":["white","black"],"door_generator_assignment":[1,0],"goal":4,"start":2,"action_noise":0.2,"location_history":"[2,1,2,3,4]","action_history":"[1,1,0,0]","door_history":"[0,0,1,1]","location_rts":"[2860,933,462,1212]","trial_type":"two-door-navigation","trial_index":85,"time_elapsed":1700801,"internal_node_id":"0.0-2.0-83.0"},{"group":"hexagon_bi","room_assignment":["purple","yellow","blue","green","red","grey"],"door_color_assignment":["white","black"],"door_generator_assignment":[1,0],"goal":0,"start":4,"action_noise":0.2,"location_history":"[4,5,4,5,0]","action_history":"[0,0,0,1]","door_history":"[1,1,1,0]","location_rts":"[1601,1411,731,399]","trial_type":"two-door-navigation","trial_index":86,"time_elapsed":1712980,"internal_node_id":"0.0-2.0-84.0"},{"group":"hexagon_bi","room_assignment":["purple","yellow","blue","green","red","grey"],"door_color_assignment":["white","black"],"door_generator_assignment":[1,0],"goal":5,"start":0,"action_noise":0.2,"location_history":"[0,1,0,1,0,1,2,3,2,1,2,1,2,1,0,5]","action_history":"[1,1,0,0,1,0,1,0,0,0,1,0,0,1,0]","door_history":"[0,0,1,1,0,1,0,1,1,1,0,1,1,0,1]","location_rts":"[2325,1185,805,1707,803,778,1057,855,1342,874,359,490,445,1181,447]","trial_type":"two-door-navigation","trial_index":87,"time_elapsed":1748081,"internal_node_id":"0.0-2.0-85.0"},{"group":"hexagon_bi","room_assignment":["purple","yellow","blue","green","red","grey"],"door_color_assignment":["white","black"],"door_generator_assignment":[1,0],"goal":3,"start":5,"action_noise":0.2,"location_history":"[5,0,5,0,1,2,3]","action_history":"[0,0,0,1,0,1]","door_history":"[1,1,1,0,1,0]","location_rts":"[1350,722,443,52,396,1219]","trial_type":"two-door-navigation","trial_index":88,"time_elapsed":1762542,"internal_node_id":"0.0-2.0-86.0"},{"group":"hexagon_bi","room_assignment":["purple","yellow","blue","green","red","grey"],"door_color_assignment":["white","black"],"door_generator_assignment":[1,0],"goal":1,"start":3,"action_noise":0.2,"location_history":"[3,2,3,4,3,2,3,2,3,4,5,0,1]","action_history":"[1,0,0,0,1,1,1,0,0,1,0,1]","door_history":"[0,1,1,1,0,0,0,1,1,0,1,0]","location_rts":"[4230,566,1915,1017,463,400,929,611,1505,500,446,446]","trial_type":"two-door-navigation","trial_index":89,"time_elapsed":1792559,"internal_node_id":"0.0-2.0-87.0"},{"group":"hexagon_bi","room_assignment":["purple","yellow","blue","green","red","grey"],"door_color_assignment":["white","black"],"door_generator_assignment":[1,0],"goal":2,"start":1,"action_noise":0.2,"location_history":"[1,0,5,0,5,0,1,0,1,2]","action_history":"[1,0,0,1,0,1,1,1,0]","door_history":"[0,1,1,0,1,0,0,0,1]","location_rts":"[2665,1061,524,526,336,563,1240,727,364]","trial_type":"two-door-navigation","trial_index":90,"time_elapsed":1814159,"internal_node_id":"0.0-2.0-88.0"},{"group":"hexagon_bi","room_assignment":["purple","yellow","blue","green","red","grey"],"door_color_assignment":["white","black"],"door_generator_assignment":[1,0],"goal":0,"start":2,"action_noise":0.2,"location_history":"[2,1,0]","action_history":"[0,1]","door_history":"[1,0]","location_rts":"[3226,1118]","trial_type":"two-door-navigation","trial_index":91,"time_elapsed":1824310,"internal_node_id":"0.0-2.0-89.0"},{"group":"hexagon_bi","room_assignment":["purple","yellow","blue","green","red","grey"],"door_color_assignment":["white","black"],"door_generator_assignment":[1,0],"goal":5,"start":0,"action_noise":0.2,"location_history":"[0,5]","action_history":"[0]","door_history":"[1]","location_rts":"[5659]","trial_type":"two-door-navigation","trial_index":92,"time_elapsed":1834623,"internal_node_id":"0.0-2.0-90.0"},{"group":"hexagon_bi","room_assignment":["purple","yellow","blue","green","red","grey"],"door_color_assignment":["white","black"],"door_generator_assignment":[1,0],"goal":1,"start":5,"action_noise":0.2,"location_history":"[5,0,5,0,5,0,1]","action_history":"[0,1,0,0,0,1]","door_history":"[1,0,1,1,1,0]","location_rts":"[1416,1066,959,871,456,262]","trial_type":"two-door-navigation","trial_index":93,"time_elapsed":1849968,"internal_node_id":"0.0-2.0-91.0"},{"group":"hexagon_bi","room_assignment":["purple","yellow","blue","green","red","grey"],"door_color_assignment":["white","black"],"door_generator_assignment":[1,0],"goal":3,"start":1,"action_noise":0.2,"location_history":"[1,0,1,0,1,2,1,2,3]","action_history":"[1,1,0,1,1,0,0,1]","door_history":"[0,0,1,0,0,1,1,0]","location_rts":"[1865,1024,1621,1706,1203,482,1706,773]","trial_type":"two-door-navigation","trial_index":94,"time_elapsed":1872829,"internal_node_id":"0.0-2.0-92.0"},{"group":"hexagon_bi","room_assignment":["purple","yellow","blue","green","red","grey"],"door_color_assignment":["white","black"],"door_generator_assignment":[1,0],"goal":4,"start":3,"action_noise":0.2,"location_history":"[3,4]","action_history":"[0]","door_history":"[1]","location_rts":"[2293]","trial_type":"two-door-navigation","trial_index":95,"time_elapsed":1879778,"internal_node_id":"0.0-2.0-93.0"},{"group":"hexagon_bi","room_assignment":["purple","yellow","blue","green","red","grey"],"door_color_assignment":["white","black"],"door_generator_assignment":[1,0],"goal":2,"start":4,"action_noise":0.2,"location_history":"[4,5,4,5,0,5,0,1,0,5,4,5,0,1,0,1,2]","action_history":"[0,0,1,1,0,0,1,1,1,1,1,0,1,1,1,0]","door_history":"[1,1,0,0,1,1,0,0,0,0,0,1,0,0,0,1]","location_rts":"[1726,1029,916,686,617,1105,290,336,805,528,544,1639,887,635,1667,379]","trial_type":"two-door-navigation","trial_index":96,"time_elapsed":1915056,"internal_node_id":"0.0-2.0-94.0"},{"group":"hexagon_bi","room_assignment":["purple","yellow","blue","green","red","grey"],"door_color_assignment":["white","black"],"door_generator_assignment":[1,0],"goal":4,"start":2,"action_noise":0.2,"location_history":"[2,1,2,3,4]","action_history":"[0,0,1,0]","door_history":"[1,1,0,1]","location_rts":"[8479,3457,695,400]","trial_type":"two-door-navigation","trial_index":97,"time_elapsed":1936074,"internal_node_id":"0.0-2.0-95.0"},{"group":"hexagon_bi","room_assignment":["purple","yellow","blue","green","red","grey"],"door_color_assignment":["white","black"],"door_generator_assignment":[1,0],"goal":0,"start":4,"action_noise":0.2,"location_history":"[4,5,4,5,4,3,2,1,2,3,2,3,4,3,4,5,4,3,4,5,4,5,4,5,0]","action_history":"[1,1,1,0,0,1,0,0,0,0,1,0,1,0,0,0,0,0,1,1,1,0,1,1]","door_history":"[0,0,0,1,1,0,1,1,1,1,0,1,0,1,1,1,1,1,0,0,0,1,0,0]","location_rts":"[2579,511,449,74,1245,910,1629,356,788,968,692,1412,1143,1041,392,1777,685,981,570,850,1071,409,1032,606]","trial_type":"two-door-navigation","trial_index":98,"time_elapsed":1988916,"internal_node_id":"0.0-2.0-96.0"},{"group":"hexagon_bi","room_assignment":["purple","yellow","blue","green","red","grey"],"door_color_assignment":["white","black"],"door_generator_assignment":[1,0],"goal":5,"start":0,"action_noise":0.2,"location_history":"[0,1,2,3,4,5]","action_history":"[1,0,1,0,1]","door_history":"[0,1,0,1,0]","location_rts":"[1949,1054,1163,1368,693]","trial_type":"two-door-navigation","trial_index":99,"time_elapsed":2004311,"internal_node_id":"0.0-2.0-97.0"},{"group":"hexagon_bi","room_assignment":["purple","yellow","blue","green","red","grey"],"door_color_assignment":["white","black"],"door_generator_assignment":[1,0],"goal":1,"start":5,"action_noise":0.2,"location_history":"[5,4,5,0,1]","action_history":"[1,1,0,1]","door_history":"[0,0,1,0]","location_rts":"[1874,836,819,441]","trial_type":"two-door-navigation","trial_index":100,"time_elapsed":2016302,"internal_node_id":"0.0-2.0-98.0"},{"group":"hexagon_bi","room_assignment":["purple","yellow","blue","green","red","grey"],"door_color_assignment":["white","black"],"door_generator_assignment":[1,0],"goal":3,"start":1,"action_noise":0.2,"location_history":"[1,0,1,2,1,2,3]","action_history":"[1,1,0,0,0,1]","door_history":"[0,0,1,1,1,0]","location_rts":"[2362,1382,526,965,772,377]","trial_type":"two-door-navigation","trial_index":101,"time_elapsed":2033012,"internal_node_id":"0.0-2.0-99.0"},{"view_history":"[{\"page_index\":0,\"viewing_time\":3413}]","rt":3414,"trial_type":"instructions","trial_index":102,"time_elapsed":2037430,"internal_node_id":"0.0-3.0"},{"view_history":"[{\"page_index\":0,\"viewing_time\":6098},{\"page_index\":1,\"viewing_time\":46799}]","rt":52898,"trial_type":"instructions","trial_index":103,"time_elapsed":2091343,"internal_node_id":"0.0-4.0"},{"group":"hexagon_bi","fractal_assignment":["../images/gry_blk.png","../images/ylw_slt.png","../images/org_blu.png","../images/blu_wht.png","../images/pnk_blu.png","../images/cyn_red.png"],"mutagen_generator_assignment":[1,0],"goal":4,"start":0,"action_noise":0.2,"location_history":"[0,1,2,1,2,3,4]","action_history":"[1,0,0,0,1,0]","mutagen_history":"[0,1,1,1,0,1]","location_rts":"[7773,4084,2164,832,35,2033]","trial_type":"fractal-mutation","trial_index":104,"time_elapsed":2118777,"internal_node_id":"0.0-5.0-0.0"},{"group":"hexagon_bi","fractal_assignment":["../images/gry_blk.png","../images/ylw_slt.png","../images/org_blu.png","../images/blu_wht.png","../images/pnk_blu.png","../images/cyn_red.png"],"mutagen_generator_assignment":[1,0],"goal":3,"start":4,"action_noise":0.2,"location_history":"[4,3]","action_history":"[1]","mutagen_history":"[0]","location_rts":"[3151]","trial_type":"fractal-mutation","trial_index":105,"time_elapsed":2126606,"internal_node_id":"0.0-5.0-1.0"},{"group":"hexagon_bi","fractal_assignment":["../images/gry_blk.png","../images/ylw_slt.png","../images/org_blu.png","../images/blu_wht.png","../images/pnk_blu.png","../images/cyn_red.png"],"mutagen_generator_assignment":[1,0],"goal":5,"start":3,"action_noise":0.2,"location_history":"[3,2,3,4,3,2,3,2,3,2,1,2,1,0,5]","action_history":"[1,0,0,0,0,1,1,1,0,0,0,0,1,0]","mutagen_history":"[0,1,1,1,1,0,0,0,1,1,1,1,0,1]","location_rts":"[2367,958,970,643,1112,642,635,538,319,697,635,794,431,1888]","trial_type":"fractal-mutation","trial_index":106,"time_elapsed":2159015,"internal_node_id":"0.0-5.0-2.0"},{"group":"hexagon_bi","fractal_assignment":["../images/gry_blk.png","../images/ylw_slt.png","../images/org_blu.png","../images/blu_wht.png","../images/pnk_blu.png","../images/cyn_red.png"],"mutagen_generator_assignment":[1,0],"goal":2,"start":5,"action_noise":0.2,"location_history":"[5,4,3,4,5,4,3,2]","action_history":"[0,0,0,0,0,1,1]","mutagen_history":"[1,1,1,1,1,0,0]","location_rts":"[1579,979,1653,643,760,1401,1269]","trial_type":"fractal-mutation","trial_index":107,"time_elapsed":2179051,"internal_node_id":"0.0-5.0-3.0"},{"group":"hexagon_bi","fractal_assignment":["../images/gry_blk.png","../images/ylw_slt.png","../images/org_blu.png","../images/blu_wht.png","../images/pnk_blu.png","../images/cyn_red.png"],"mutagen_generator_assignment":[1,0],"goal":1,"start":2,"action_noise":0.2,"location_history":"[2,1]","action_history":"[1]","mutagen_history":"[0]","location_rts":"[1777]","trial_type":"fractal-mutation","trial_index":108,"time_elapsed":2185537,"internal_node_id":"0.0-5.0-4.0"},{"group":"hexagon_bi","fractal_assignment":["../images/gry_blk.png","../images/ylw_slt.png","../images/org_blu.png","../images/blu_wht.png","../images/pnk_blu.png","../images/cyn_red.png"],"mutagen_generator_assignment":[1,0],"goal":4,"start":1,"action_noise":0.2,"location_history":"[1,2,1,2,3,4]","action_history":"[0,0,0,1,0]","mutagen_history":"[1,1,1,0,1]","location_rts":"[1409,579,888,360,378]","trial_type":"fractal-mutation","trial_index":109,"time_elapsed":2198654,"internal_node_id":"0.0-5.0-5.0"},{"group":"hexagon_bi","fractal_assignment":["../images/gry_blk.png","../images/ylw_slt.png","../images/org_blu.png","../images/blu_wht.png","../images/pnk_blu.png","../images/cyn_red.png"],"mutagen_generator_assignment":[1,0],"goal":1,"start":4,"action_noise":0.2,"location_history":"[4,5,0,5,0,1]","action_history":"[1,0,0,0,1]","mutagen_history":"[0,1,1,1,0]","location_rts":"[10168,444,506,480,519]","trial_type":"fractal-mutation","trial_index":110,"time_elapsed":2220223,"internal_node_id":"0.0-5.0-6.0"},{"group":"hexagon_bi","fractal_assignment":["../images/gry_blk.png","../images/ylw_slt.png","../images/org_blu.png","../images/blu_wht.png","../images/pnk_blu.png","../images/cyn_red.png"],"mutagen_generator_assignment":[1,0],"goal":5,"start":1,"action_noise":0.2,"location_history":"[1,2,1,0,1,2,1,0,5]","action_history":"[0,0,1,1,0,1,1,0]","mutagen_history":"[1,1,0,0,1,0,0,1]","location_rts":"[865,619,395,516,596,1223,1167,1058]","trial_type":"fractal-mutation","trial_index":111,"time_elapsed":2239457,"internal_node_id":"0.0-5.0-7.0"},{"group":"hexagon_bi","fractal_assignment":["../images/gry_blk.png","../images/ylw_slt.png","../images/org_blu.png","../images/blu_wht.png","../images/pnk_blu.png","../images/cyn_red.png"],"mutagen_generator_assignment":[1,0],"goal":0,"start":5,"action_noise":0.2,"location_history":"[5,0]","action_history":"[0]","mutagen_history":"[1]","location_rts":"[768]","trial_type":"fractal-mutation","trial_index":112,"time_elapsed":2244934,"internal_node_id":"0.0-5.0-8.0"},{"group":"hexagon_bi","fractal_assignment":["../images/gry_blk.png","../images/ylw_slt.png","../images/org_blu.png","../images/blu_wht.png","../images/pnk_blu.png","../images/cyn_red.png"],"mutagen_generator_assignment":[1,0],"goal":2,"start":0,"action_noise":0.2,"location_history":"[0,5,0,5,4,3,2]","action_history":"[0,0,1,1,0,1]","mutagen_history":"[1,1,0,0,1,0]","location_rts":"[1220,623,1523,650,721,782]","trial_type":"fractal-mutation","trial_index":113,"time_elapsed":2260977,"internal_node_id":"0.0-5.0-9.0"},{"group":"hexagon_bi","fractal_assignment":["../images/gry_blk.png","../images/ylw_slt.png","../images/org_blu.png","../images/blu_wht.png","../images/pnk_blu.png","../images/cyn_red.png"],"mutagen_generator_assignment":[1,0],"goal":3,"start":2,"action_noise":0.2,"location_history":"[2,1,2,1,2,1,0,1,2,3]","action_history":"[0,0,0,1,0,1,0,1,1]","mutagen_history":"[1,1,1,0,1,0,1,0,0]","location_rts":"[2216,594,446,633,558,815,963,1071,538]","trial_type":"fractal-mutation","trial_index":114,"time_elapsed":2282845,"internal_node_id":"0.0-5.0-10.0"},{"group":"hexagon_bi","fractal_assignment":["../images/gry_blk.png","../images/ylw_slt.png","../images/org_blu.png","../images/blu_wht.png","../images/pnk_blu.png","../images/cyn_red.png"],"mutagen_generator_assignment":[1,0],"goal":0,"start":3,"action_noise":0.2,"location_history":"[3,4,5,0]","action_history":"[0,0,0]","mutagen_history":"[1,1,1]","location_rts":"[1504,541,1143]","trial_type":"fractal-mutation","trial_index":115,"time_elapsed":2293143,"internal_node_id":"0.0-5.0-11.0"},{"group":"hexagon_bi","fractal_assignment":["../images/gry_blk.png","../images/ylw_slt.png","../images/org_blu.png","../images/blu_wht.png","../images/pnk_blu.png","../images/cyn_red.png"],"mutagen_generator_assignment":[1,0],"goal":2,"start":0,"action_noise":0.2,"location_history":"[0,1,2]","action_history":"[1,0]","mutagen_history":"[0,1]","location_rts":"[2154,1424]","trial_type":"fractal-mutation","trial_index":116,"time_elapsed":2302585,"internal_node_id":"0.0-5.0-12.0"},{"group":"hexagon_bi","fractal_assignment":["../images/gry_blk.png","../images/ylw_slt.png","../images/org_blu.png","../images/blu_wht.png","../images/pnk_blu.png","../images/cyn_red.png"],"mutagen_generator_assignment":[1,0],"goal":5,"start":2,"action_noise":0.2,"location_history":"[2,1,0,5]","action_history":"[0,0,0]","mutagen_history":"[1,1,1]","location_rts":"[1389,636,902]","trial_type":"fractal-mutation","trial_index":117,"time_elapsed":2312686,"internal_node_id":"0.0-5.0-13.0"},{"group":"hexagon_bi","fractal_assignment":["../images/gry_blk.png","../images/ylw_slt.png","../images/org_blu.png","../images/blu_wht.png","../images/pnk_blu.png","../images/cyn_red.png"],"mutagen_generator_assignment":[1,0],"goal":4,"start":5,"action_noise":0.2,"location_history":"[5,4]","action_history":"[1]","mutagen_history":"[0]","location_rts":"[2337]","trial_type":"fractal-mutation","trial_index":118,"time_elapsed":2319695,"internal_node_id":"0.0-5.0-14.0"},{"group":"hexagon_bi","fractal_assignment":["../images/gry_blk.png","../images/ylw_slt.png","../images/org_blu.png","../images/blu_wht.png","../images/pnk_blu.png","../images/cyn_red.png"],"mutagen_generator_assignment":[1,0],"goal":3,"start":4,"action_noise":0.2,"location_history":"[4,3]","action_history":"[0]","mutagen_history":"[1]","location_rts":"[1599]","trial_type":"fractal-mutation","trial_index":119,"time_elapsed":2326029,"internal_node_id":"0.0-5.0-15.0"},{"group":"hexagon_bi","fractal_assignment":["../images/gry_blk.png","../images/ylw_slt.png","../images/org_blu.png","../images/blu_wht.png","../images/pnk_blu.png","../images/cyn_red.png"],"mutagen_generator_assignment":[1,0],"goal":1,"start":3,"action_noise":0.2,"location_history":"[3,2,1]","action_history":"[0,0]","mutagen_history":"[1,1]","location_rts":"[954,677]","trial_type":"fractal-mutation","trial_index":120,"time_elapsed":2333556,"internal_node_id":"0.0-5.0-16.0"},{"group":"hexagon_bi","fractal_assignment":["../images/gry_blk.png","../images/ylw_slt.png","../images/org_blu.png","../images/blu_wht.png","../images/pnk_blu.png","../images/cyn_red.png"],"mutagen_generator_assignment":[1,0],"goal":5,"start":1,"action_noise":0.2,"location_history":"[1,0,5]","action_history":"[0,0]","mutagen_history":"[1,1]","location_rts":"[991,728]","trial_type":"fractal-mutation","trial_index":121,"time_elapsed":2341135,"internal_node_id":"0.0-5.0-17.0"},{"group":"hexagon_bi","fractal_assignment":["../images/gry_blk.png","../images/ylw_slt.png","../images/org_blu.png","../images/blu_wht.png","../images/pnk_blu.png","../images/cyn_red.png"],"mutagen_generator_assignment":[1,0],"goal":4,"start":5,"action_noise":0.2,"location_history":"[5,0,1,2,3,4]","action_history":"[0,0,0,1,0]","mutagen_history":"[1,1,1,0,1]","location_rts":"[1112,956,627,685,446]","trial_type":"fractal-mutation","trial_index":122,"time_elapsed":2354488,"internal_node_id":"0.0-5.0-18.0"},{"group":"hexagon_bi","fractal_assignment":["../images/gry_blk.png","../images/ylw_slt.png","../images/org_blu.png","../images/blu_wht.png","../images/pnk_blu.png","../images/cyn_red.png"],"mutagen_generator_assignment":[1,0],"goal":0,"start":4,"action_noise":0.2,"location_history":"[4,5,0]","action_history":"[0,0]","mutagen_history":"[1,1]","location_rts":"[1068,405]","trial_type":"fractal-mutation","trial_index":123,"time_elapsed":2361833,"internal_node_id":"0.0-5.0-19.0"},{"group":"hexagon_bi","fractal_assignment":["../images/gry_blk.png","../images/ylw_slt.png","../images/org_blu.png","../images/blu_wht.png","../images/pnk_blu.png","../images/cyn_red.png"],"mutagen_generator_assignment":[1,0],"goal":1,"start":0,"action_noise":0.2,"location_history":"[0,1]","action_history":"[1]","mutagen_history":"[0]","location_rts":"[1649]","trial_type":"fractal-mutation","trial_index":124,"time_elapsed":2368153,"internal_node_id":"0.0-5.0-20.0"},{"group":"hexagon_bi","fractal_assignment":["../images/gry_blk.png","../images/ylw_slt.png","../images/org_blu.png","../images/blu_wht.png","../images/pnk_blu.png","../images/cyn_red.png"],"mutagen_generator_assignment":[1,0],"goal":3,"start":1,"action_noise":0.2,"location_history":"[1,2,1,2,3]","action_history":"[1,0,0,1]","mutagen_history":"[0,1,1,0]","location_rts":"[10821,1370,784,665]","trial_type":"fractal-mutation","trial_index":125,"time_elapsed":2390122,"internal_node_id":"0.0-5.0-21.0"},{"group":"hexagon_bi","fractal_assignment":["../images/gry_blk.png","../images/ylw_slt.png","../images/org_blu.png","../images/blu_wht.png","../images/pnk_blu.png","../images/cyn_red.png"],"mutagen_generator_assignment":[1,0],"goal":2,"start":3,"action_noise":0.2,"location_history":"[3,2]","action_history":"[1]","mutagen_history":"[0]","location_rts":"[1976]","trial_type":"fractal-mutation","trial_index":126,"time_elapsed":2396799,"internal_node_id":"0.0-5.0-22.0"},{"group":"hexagon_bi","fractal_assignment":["../images/gry_blk.png","../images/ylw_slt.png","../images/org_blu.png","../images/blu_wht.png","../images/pnk_blu.png","../images/cyn_red.png"],"mutagen_generator_assignment":[1,0],"goal":0,"start":2,"action_noise":0.2,"location_history":"[2,3,4,3,2,3,2,1,0]","action_history":"[0,0,0,0,1,1,0,1]","mutagen_history":"[1,1,1,1,0,0,1,0]","location_rts":"[927,494,495,524,326,660,1020,968]","trial_type":"fractal-mutation","trial_index":127,"time_elapsed":2415132,"internal_node_id":"0.0-5.0-23.0"},{"group":"hexagon_bi","fractal_assignment":["../images/gry_blk.png","../images/ylw_slt.png","../images/org_blu.png","../images/blu_wht.png","../images/pnk_blu.png","../images/cyn_red.png"],"mutagen_generator_assignment":[1,0],"goal":3,"start":0,"action_noise":0.2,"location_history":"[0,5,4,3]","action_history":"[0,0,0]","mutagen_history":"[1,1,1]","location_rts":"[2200,473,880]","trial_type":"fractal-mutation","trial_index":128,"time_elapsed":2425819,"internal_node_id":"0.0-5.0-24.0"},{"group":"hexagon_bi","fractal_assignment":["../images/gry_blk.png","../images/ylw_slt.png","../images/org_blu.png","../images/blu_wht.png","../images/pnk_blu.png","../images/cyn_red.png"],"mutagen_generator_assignment":[1,0],"goal":1,"start":3,"action_noise":0.2,"location_history":"[3,2,3,4,5,4,5,0,5,4,3,4,3,2,3,2,3,2,3,4,5,4,5,4,3,2,3,2,1]","action_history":"[1,1,0,0,0,1,0,0,1,1,0,1,1,0,0,1,1,1,0,1,1,1,1,0,1,0,1,1]","mutagen_history":"[0,0,1,1,1,0,1,1,0,0,1,0,0,1,1,0,0,0,1,0,0,0,0,1,0,1,0,0]","location_rts":"[7563,1957,2208,3556,658,1884,1860,8060,1933,4248,1528,15798,3549,850,944,1271,609,809,350,4260,1372,4871,57475,1399,1558,3275,2064,1036]","trial_type":"fractal-mutation","trial_index":129,"time_elapsed":2599044,"internal_node_id":"0.0-5.0-25.0"},{"group":"hexagon_bi","fractal_assignment":["../images/gry_blk.png","../images/ylw_slt.png","../images/org_blu.png","../images/blu_wht.png","../images/pnk_blu.png","../images/cyn_red.png"],"mutagen_generator_assignment":[1,0],"goal":2,"start":1,"action_noise":0.2,"location_history":"[1,2]","action_history":"[0]","mutagen_history":"[1]","location_rts":"[1968]","trial_type":"fractal-mutation","trial_index":130,"time_elapsed":2605727,"internal_node_id":"0.0-5.0-26.0"},{"group":"hexagon_bi","fractal_assignment":["../images/gry_blk.png","../images/ylw_slt.png","../images/org_blu.png","../images/blu_wht.png","../images/pnk_blu.png","../images/cyn_red.png"],"mutagen_generator_assignment":[1,0],"goal":5,"start":2,"action_noise":0.2,"location_history":"[2,1,2,3,2,1,2,3,4,3,2,3,4,3,2,3,2,1,2,3,2,1,2,3,2,3,4,5]","action_history":"[0,0,1,1,0,0,1,0,0,1,0,0,0,0,0,1,1,0,1,1,0,1,1,1,1,0,1]","mutagen_history":"[1,1,0,0,1,1,0,1,1,0,1,1,1,1,1,0,0,1,0,0,1,0,0,0,0,1,0]","location_rts":"[2060,533,1331,554,936,1607,5884,3218,8204,1118,1393,410,620,410,775,855,5034,1691,4362,396,1755,965,980,317,1300,274,4319]","trial_type":"fractal-mutation","trial_index":131,"time_elapsed":2692151,"internal_node_id":"0.0-5.0-27.0"},{"group":"hexagon_bi","fractal_assignment":["../images/gry_blk.png","../images/ylw_slt.png","../images/org_blu.png","../images/blu_wht.png","../images/pnk_blu.png","../images/cyn_red.png"],"mutagen_generator_assignment":[1,0],"goal":4,"start":5,"action_noise":0.2,"location_history":"[5,4]","action_history":"[1]","mutagen_history":"[0]","location_rts":"[3522]","trial_type":"fractal-mutation","trial_index":132,"time_elapsed":2700351,"internal_node_id":"0.0-5.0-28.0"},{"group":"hexagon_bi","fractal_assignment":["../images/gry_blk.png","../images/ylw_slt.png","../images/org_blu.png","../images/blu_wht.png","../images/pnk_blu.png","../images/cyn_red.png"],"mutagen_generator_assignment":[1,0],"goal":5,"start":4,"action_noise":0.2,"location_history":"[4,5]","action_history":"[1]","mutagen_history":"[0]","location_rts":"[5909]","trial_type":"fractal-mutation","trial_index":133,"time_elapsed":2710942,"internal_node_id":"0.0-5.0-29.0"},{"group":"hexagon_bi","fractal_assignment":["../images/gry_blk.png","../images/ylw_slt.png","../images/org_blu.png","../images/blu_wht.png","../images/pnk_blu.png","../images/cyn_red.png"],"mutagen_generator_assignment":[1,0],"goal":3,"start":5,"action_noise":0.2,"location_history":"[5,4,3]","action_history":"[0,0]","mutagen_history":"[1,1]","location_rts":"[2724,1103]","trial_type":"fractal-mutation","trial_index":134,"time_elapsed":2720688,"internal_node_id":"0.0-5.0-30.0"},{"group":"hexagon_bi","fractal_assignment":["../images/gry_blk.png","../images/ylw_slt.png","../images/org_blu.png","../images/blu_wht.png","../images/pnk_blu.png","../images/cyn_red.png"],"mutagen_generator_assignment":[1,0],"goal":0,"start":3,"action_noise":0.2,"location_history":"[3,4,5,0]","action_history":"[0,1,1]","mutagen_history":"[1,0,0]","location_rts":"[2769,1536,448]","trial_type":"fractal-mutation","trial_index":135,"time_elapsed":2732482,"internal_node_id":"0.0-5.0-31.0"},{"group":"hexagon_bi","fractal_assignment":["../images/gry_blk.png","../images/ylw_slt.png","../images/org_blu.png","../images/blu_wht.png","../images/pnk_blu.png","../images/cyn_red.png"],"mutagen_generator_assignment":[1,0],"goal":4,"start":0,"action_noise":0.2,"location_history":"[0,5,0,5,0,5,4]","action_history":"[1,0,0,0,1,1]","mutagen_history":"[0,1,1,1,0,0]","location_rts":"[2408,1049,1401,1199,981,3425]","trial_type":"fractal-mutation","trial_index":136,"time_elapsed":2753603,"internal_node_id":"0.0-5.0-32.0"},{"group":"hexagon_bi","fractal_assignment":["../images/gry_blk.png","../images/ylw_slt.png","../images/org_blu.png","../images/blu_wht.png","../images/pnk_blu.png","../images/cyn_red.png"],"mutagen_generator_assignment":[1,0],"goal":1,"start":4,"action_noise":0.2,"location_history":"[4,3,2,1]","action_history":"[0,1,0]","mutagen_history":"[1,0,1]","location_rts":"[3696,4095,1815]","trial_type":"fractal-mutation","trial_index":137,"time_elapsed":2770239,"internal_node_id":"0.0-5.0-33.0"},{"group":"hexagon_bi","fractal_assignment":["../images/gry_blk.png","../images/ylw_slt.png","../images/org_blu.png","../images/blu_wht.png","../images/pnk_blu.png","../images/cyn_red.png"],"mutagen_generator_assignment":[1,0],"goal":2,"start":1,"action_noise":0.2,"location_history":"[1,0,5,0,5,0,1,0,1,2]","action_history":"[1,0,0,0,1,1,0,1,1]","mutagen_history":"[0,1,1,1,0,0,1,0,0]","location_rts":"[5228,3117,751,679,797,925,2036,814,309]","trial_type":"fractal-mutation","trial_index":138,"time_elapsed":2798865,"internal_node_id":"0.0-5.0-34.0"},{"group":"hexagon_bi","fractal_assignment":["../images/gry_blk.png","../images/ylw_slt.png","../images/org_blu.png","../images/blu_wht.png","../images/pnk_blu.png","../images/cyn_red.png"],"mutagen_generator_assignment":[1,0],"goal":0,"start":2,"action_noise":0.2,"location_history":"[2,1,2,1,2,1,0]","action_history":"[0,0,1,0,0,1]","mutagen_history":"[1,1,0,1,1,0]","location_rts":"[1614,306,1407,15898,1854,1408]","trial_type":"fractal-mutation","trial_index":139,"time_elapsed":2831902,"internal_node_id":"0.0-5.0-35.0"},{"group":"hexagon_bi","fractal_assignment":["../images/gry_blk.png","../images/ylw_slt.png","../images/org_blu.png","../images/blu_wht.png","../images/pnk_blu.png","../images/cyn_red.png"],"mutagen_generator_assignment":[1,0],"goal":5,"start":0,"action_noise":0.2,"location_history":"[0,5]","action_history":"[0]","mutagen_history":"[1]","location_rts":"[1983]","trial_type":"fractal-mutation","trial_index":140,"time_elapsed":2838552,"internal_node_id":"0.0-5.0-36.0"},{"group":"hexagon_bi","fractal_assignment":["../images/gry_blk.png","../images/ylw_slt.png","../images/org_blu.png","../images/blu_wht.png","../images/pnk_blu.png","../images/cyn_red.png"],"mutagen_generator_assignment":[1,0],"goal":2,"start":5,"action_noise":0.2,"location_history":"[5,4,5,0,1,2]","action_history":"[1,1,1,1,0]","mutagen_history":"[0,0,0,0,1]","location_rts":"[1653,305,1308,953,402]","trial_type":"fractal-mutation","trial_index":141,"time_elapsed":2852464,"internal_node_id":"0.0-5.0-37.0"},{"group":"hexagon_bi","fractal_assignment":["../images/gry_blk.png","../images/ylw_slt.png","../images/org_blu.png","../images/blu_wht.png","../images/pnk_blu.png","../images/cyn_red.png"],"mutagen_generator_assignment":[1,0],"goal":1,"start":2,"action_noise":0.2,"location_history":"[2,3,4,5,4,3,4,3,2,3,2,3,4,3,2,3,4,3,2,3,2,1]","action_history":"[1,0,0,0,1,0,0,1,0,1,1,0,0,0,1,0,0,0,0,1,0]","mutagen_history":"[0,1,1,1,0,1,1,0,1,0,0,1,1,1,0,1,1,1,1,0,1]","location_rts":"[1685,1287,637,658,1164,976,379,289,1125,783,593,571,641,706,384,370,528,540,408,1465,942]","trial_type":"fractal-mutation","trial_index":142,"time_elapsed":2896459,"internal_node_id":"0.0-5.0-38.0"},{"group":"hexagon_bi","fractal_assignment":["../images/gry_blk.png","../images/ylw_slt.png","../images/org_blu.png","../images/blu_wht.png","../images/pnk_blu.png","../images/cyn_red.png"],"mutagen_generator_assignment":[1,0],"goal":4,"start":1,"action_noise":0.2,"location_history":"[1,2,3,4]","action_history":"[0,1,0]","mutagen_history":"[1,0,1]","location_rts":"[2067,870,1584]","trial_type":"fractal-mutation","trial_index":143,"time_elapsed":2907944,"internal_node_id":"0.0-5.0-39.0"},{"group":"hexagon_bi","fractal_assignment":["../images/gry_blk.png","../images/ylw_slt.png","../images/org_blu.png","../images/blu_wht.png","../images/pnk_blu.png","../images/cyn_red.png"],"mutagen_generator_assignment":[1,0],"goal":3,"start":4,"action_noise":0.2,"location_history":"[4,5,0,5,0,1,0,1,0,5,4,3]","action_history":"[1,0,0,0,1,0,1,1,0,1,0]","mutagen_history":"[0,1,1,1,0,1,0,0,1,0,1]","location_rts":"[2654,2974,1044,1191,1128,1646,438,312,1376,1160,999]","trial_type":"fractal-mutation","trial_index":144,"time_elapsed":2938921,"internal_node_id":"0.0-5.0-40.0"},{"group":"hexagon_bi","fractal_assignment":["../images/gry_blk.png","../images/ylw_slt.png","../images/org_blu.png","../images/blu_wht.png","../images/pnk_blu.png","../images/cyn_red.png"],"mutagen_generator_assignment":[1,0],"goal":5,"start":3,"action_noise":0.2,"location_history":"[3,2,1,2,3,2,3,4,5]","action_history":"[1,0,0,1,1,1,0,1]","mutagen_history":"[0,1,1,0,0,0,1,0]","location_rts":"[8210,1037,1278,737,702,941,916,844]","trial_type":"fractal-mutation","trial_index":145,"time_elapsed":2966288,"internal_node_id":"0.0-5.0-41.0"},{"group":"hexagon_bi","fractal_assignment":["../images/gry_blk.png","../images/ylw_slt.png","../images/org_blu.png","../images/blu_wht.png","../images/pnk_blu.png","../images/cyn_red.png"],"mutagen_generator_assignment":[1,0],"goal":3,"start":5,"action_noise":0.2,"location_history":"[5,4,5,4,5,0,1,2,1,0,1,2,3]","action_history":"[0,0,0,1,0,1,0,0,1,0,0,1]","mutagen_history":"[1,1,1,0,1,0,1,1,0,1,1,0]","location_rts":"[1077,1334,704,374,887,1167,1008,718,667,780,431,429]","trial_type":"fractal-mutation","trial_index":146,"time_elapsed":2993330,"internal_node_id":"0.0-5.0-42.0"},{"group":"hexagon_bi","fractal_assignment":["../images/gry_blk.png","../images/ylw_slt.png","../images/org_blu.png","../images/blu_wht.png","../images/pnk_blu.png","../images/cyn_red.png"],"mutagen_generator_assignment":[1,0],"goal":0,"start":3,"action_noise":0.2,"location_history":"[3,2,3,4,3,4,5,0]","action_history":"[1,1,0,0,0,1,0]","mutagen_history":"[0,0,1,1,1,0,1]","location_rts":"[1341,748,851,1328,1240,264,703]","trial_type":"fractal-mutation","trial_index":147,"time_elapsed":3011476,"internal_node_id":"0.0-5.0-43.0"},{"group":"hexagon_bi","fractal_assignment":["../images/gry_blk.png","../images/ylw_slt.png","../images/org_blu.png","../images/blu_wht.png","../images/pnk_blu.png","../images/cyn_red.png"],"mutagen_generator_assignment":[1,0],"goal":2,"start":0,"action_noise":0.2,"location_history":"[0,1,2]","action_history":"[1,0]","mutagen_history":"[0,1]","location_rts":"[1659,362]","trial_type":"fractal-mutation","trial_index":148,"time_elapsed":3019346,"internal_node_id":"0.0-5.0-44.0"},{"group":"hexagon_bi","fractal_assignment":["../images/gry_blk.png","../images/ylw_slt.png","../images/org_blu.png","../images/blu_wht.png","../images/pnk_blu.png","../images/cyn_red.png"],"mutagen_generator_assignment":[1,0],"goal":4,"start":2,"action_noise":0.2,"location_history":"[2,3,2,1,2,1,2,3,4]","action_history":"[1,0,1,1,0,0,1,0]","mutagen_history":"[0,1,0,0,1,1,0,1]","location_rts":"[1437,474,568,653,637,1339,512,399]","trial_type":"fractal-mutation","trial_index":149,"time_elapsed":3038054,"internal_node_id":"0.0-5.0-45.0"},{"group":"hexagon_bi","fractal_assignment":["../images/gry_blk.png","../images/ylw_slt.png","../images/org_blu.png","../images/blu_wht.png","../images/pnk_blu.png","../images/cyn_red.png"],"mutagen_generator_assignment":[1,0],"goal":1,"start":4,"action_noise":0.2,"location_history":"[4,5,0,1]","action_history":"[1,0,0]","mutagen_history":"[0,1,1]","location_rts":"[1360,701,586]","trial_type":"fractal-mutation","trial_index":150,"time_elapsed":3047742,"internal_node_id":"0.0-5.0-46.0"},{"group":"hexagon_bi","fractal_assignment":["../images/gry_blk.png","../images/ylw_slt.png","../images/org_blu.png","../images/blu_wht.png","../images/pnk_blu.png","../images/cyn_red.png"],"mutagen_generator_assignment":[1,0],"goal":4,"start":1,"action_noise":0.2,"location_history":"[1,2,1,2,1,0,5,0,5,4]","action_history":"[0,1,0,0,1,0,0,1,0]","mutagen_history":"[1,0,1,1,0,1,1,0,1]","location_rts":"[3590,444,671,485,730,548,677,473,542]","trial_type":"fractal-mutation","trial_index":151,"time_elapsed":3069875,"internal_node_id":"0.0-5.0-47.0"},{"group":"hexagon_bi","fractal_assignment":["../images/gry_blk.png","../images/ylw_slt.png","../images/org_blu.png","../images/blu_wht.png","../images/pnk_blu.png","../images/cyn_red.png"],"mutagen_generator_assignment":[1,0],"goal":1,"start":4,"action_noise":0.2,"location_history":"[4,5,0,5,4,5,4,5,0,1]","action_history":"[1,0,0,1,0,1,1,1,0]","mutagen_history":"[0,1,1,0,1,0,0,0,1]","location_rts":"[1620,1473,553,1983,1562,1662,2859,1197,616]","trial_type":"fractal-mutation","trial_index":152,"time_elapsed":3097333,"internal_node_id":"0.0-5.0-48.0"},{"group":"hexagon_bi","fractal_assignment":["../images/gry_blk.png","../images/ylw_slt.png","../images/org_blu.png","../images/blu_wht.png","../images/pnk_blu.png","../images/cyn_red.png"],"mutagen_generator_assignment":[1,0],"goal":3,"start":1,"action_noise":0.2,"location_history":"[1,2,1,0,5,4,3]","action_history":"[0,0,1,0,1,0]","mutagen_history":"[1,1,0,1,0,1]","location_rts":"[1778,3788,1281,1685,1290,1132]","trial_type":"fractal-mutation","trial_index":153,"time_elapsed":3118809,"internal_node_id":"0.0-5.0-49.0"},{"group":"hexagon_bi","fractal_assignment":["../images/gry_blk.png","../images/ylw_slt.png","../images/org_blu.png","../images/blu_wht.png","../images/pnk_blu.png","../images/cyn_red.png"],"mutagen_generator_assignment":[1,0],"goal":5,"start":3,"action_noise":0.2,"location_history":"[3,4,3,2,3,4,5]","action_history":"[0,0,1,1,0,1]","mutagen_history":"[1,1,0,0,1,0]","location_rts":"[3066,1383,1365,2133,884,1079]","trial_type":"fractal-mutation","trial_index":154,"time_elapsed":3139184,"internal_node_id":"0.0-5.0-50.0"},{"group":"hexagon_bi","fractal_assignment":["../images/gry_blk.png","../images/ylw_slt.png","../images/org_blu.png","../images/blu_wht.png","../images/pnk_blu.png","../images/cyn_red.png"],"mutagen_generator_assignment":[1,0],"goal":0,"start":5,"action_noise":0.2,"location_history":"[5,4,5,4,3,4,5,0]","action_history":"[0,1,1,0,0,1,0]","mutagen_history":"[1,0,0,1,1,0,1]","location_rts":"[1767,1154,1080,1147,1205,845,1018]","trial_type":"fractal-mutation","trial_index":155,"time_elapsed":3159083,"internal_node_id":"0.0-5.0-51.0"},{"group":"hexagon_bi","fractal_assignment":["../images/gry_blk.png","../images/ylw_slt.png","../images/org_blu.png","../images/blu_wht.png","../images/pnk_blu.png","../images/cyn_red.png"],"mutagen_generator_assignment":[1,0],"goal":2,"start":0,"action_noise":0.2,"location_history":"[0,1,2]","action_history":"[1,0]","mutagen_history":"[0,1]","location_rts":"[2242,1750]","trial_type":"fractal-mutation","trial_index":156,"time_elapsed":3168960,"internal_node_id":"0.0-5.0-52.0"},{"group":"hexagon_bi","fractal_assignment":["../images/gry_blk.png","../images/ylw_slt.png","../images/org_blu.png","../images/blu_wht.png","../images/pnk_blu.png","../images/cyn_red.png"],"mutagen_generator_assignment":[1,0],"goal":1,"start":2,"action_noise":0.2,"location_history":"[2,3,4,3,2,1]","action_history":"[1,0,0,1,0]","mutagen_history":"[0,1,1,0,1]","location_rts":"[1951,1477,740,1221,1414]","trial_type":"fractal-mutation","trial_index":157,"time_elapsed":3185087,"internal_node_id":"0.0-5.0-53.0"},{"group":"hexagon_bi","fractal_assignment":["../images/gry_blk.png","../images/ylw_slt.png","../images/org_blu.png","../images/blu_wht.png","../images/pnk_blu.png","../images/cyn_red.png"],"mutagen_generator_assignment":[1,0],"goal":2,"start":1,"action_noise":0.2,"location_history":"[1,0,1,2]","action_history":"[1,0,1]","mutagen_history":"[0,1,0]","location_rts":"[1494,726,427]","trial_type":"fractal-mutation","trial_index":158,"time_elapsed":3194718,"internal_node_id":"0.0-5.0-54.0"},{"group":"hexagon_bi","fractal_assignment":["../images/gry_blk.png","../images/ylw_slt.png","../images/org_blu.png","../images/blu_wht.png","../images/pnk_blu.png","../images/cyn_red.png"],"mutagen_generator_assignment":[1,0],"goal":5,"start":2,"action_noise":0.2,"location_history":"[2,3,4,3,2,3,2,3,2,1,2,3,2,3,4,5]","action_history":"[1,0,0,0,1,1,0,1,1,0,1,1,1,0,0]","mutagen_history":"[0,1,1,1,0,0,1,0,0,1,0,0,0,1,1]","location_rts":"[2588,890,1835,1054,1161,882,1014,1098,1003,1074,1221,579,385,1070,1349]","trial_type":"fractal-mutation","trial_index":159,"time_elapsed":3232993,"internal_node_id":"0.0-5.0-55.0"},{"group":"hexagon_bi","fractal_assignment":["../images/gry_blk.png","../images/ylw_slt.png","../images/org_blu.png","../images/blu_wht.png","../images/pnk_blu.png","../images/cyn_red.png"],"mutagen_generator_assignment":[1,0],"goal":4,"start":5,"action_noise":0.2,"location_history":"[5,4]","action_history":"[1]","mutagen_history":"[0]","location_rts":"[1822]","trial_type":"fractal-mutation","trial_index":160,"time_elapsed":3239490,"internal_node_id":"0.0-5.0-56.0"},{"group":"hexagon_bi","fractal_assignment":["../images/gry_blk.png","../images/ylw_slt.png","../images/org_blu.png","../images/blu_wht.png","../images/pnk_blu.png","../images/cyn_red.png"],"mutagen_generator_assignment":[1,0],"goal":3,"start":4,"action_noise":0.2,"location_history":"[4,5,4,3]","action_history":"[1,0,0]","mutagen_history":"[0,1,1]","location_rts":"[1681,1112,1182]","trial_type":"fractal-mutation","trial_index":161,"time_elapsed":3250543,"internal_node_id":"0.0-5.0-57.0"},{"group":"hexagon_bi","fractal_assignment":["../images/gry_blk.png","../images/ylw_slt.png","../images/org_blu.png","../images/blu_wht.png","../images/pnk_blu.png","../images/cyn_red.png"],"mutagen_generator_assignment":[1,0],"goal":0,"start":3,"action_noise":0.2,"location_history":"[3,4,5,4,3,2,1,2,3,2,1,2,1,0]","action_history":"[0,0,0,0,1,0,0,1,1,0,0,1,1]","mutagen_history":"[1,1,1,1,0,1,1,0,0,1,1,0,0]","location_rts":"[1330,586,1166,1013,1225,1431,1215,1329,1198,1293,1245,920,630]","trial_type":"fractal-mutation","trial_index":162,"time_elapsed":3283725,"internal_node_id":"0.0-5.0-58.0"},{"group":"hexagon_bi","fractal_assignment":["../images/gry_blk.png","../images/ylw_slt.png","../images/org_blu.png","../images/blu_wht.png","../images/pnk_blu.png","../images/cyn_red.png"],"mutagen_generator_assignment":[1,0],"goal":2,"start":0,"action_noise":0.2,"location_history":"[0,5,0,5,4,3,4,3,4,3,4,5,4,5,4,5,4,5,4,3,4,3,2]","action_history":"[0,0,1,1,0,0,0,1,1,0,0,0,1,1,0,1,1,0,1,0,1,1]","mutagen_history":"[1,1,0,0,1,1,1,0,0,1,1,1,0,0,1,0,0,1,0,1,0,0]","location_rts":"[1814,498,1032,1214,925,1393,1007,886,1493,899,983,992,1072,1074,1233,965,1146,1956,2067,1268,915,763]","trial_type":"fractal-mutation","trial_index":163,"time_elapsed":3338615,"internal_node_id":"0.0-5.0-59.0"},{"group":"hexagon_bi","fractal_assignment":["../images/gry_blk.png","../images/ylw_slt.png","../images/org_blu.png","../images/blu_wht.png","../images/pnk_blu.png","../images/cyn_red.png"],"mutagen_generator_assignment":[1,0],"goal":1,"start":2,"action_noise":0.2,"location_history":"[2,1]","action_history":"[0]","mutagen_history":"[1]","location_rts":"[1485]","trial_type":"fractal-mutation","trial_index":164,"time_elapsed":3344819,"internal_node_id":"0.0-5.0-60.0"},{"group":"hexagon_bi","fractal_assignment":["../images/gry_blk.png","../images/ylw_slt.png","../images/org_blu.png","../images/blu_wht.png","../images/pnk_blu.png","../images/cyn_red.png"],"mutagen_generator_assignment":[1,0],"goal":0,"start":1,"action_noise":0.2,"location_history":"[1,0]","action_history":"[0]","mutagen_history":"[1]","location_rts":"[1853]","trial_type":"fractal-mutation","trial_index":165,"time_elapsed":3351395,"internal_node_id":"0.0-5.0-61.0"},{"group":"hexagon_bi","fractal_assignment":["../images/gry_blk.png","../images/ylw_slt.png","../images/org_blu.png","../images/blu_wht.png","../images/pnk_blu.png","../images/cyn_red.png"],"mutagen_generator_assignment":[1,0],"goal":3,"start":0,"action_noise":0.2,"location_history":"[0,1,0,5,0,1,0,1,2,1,2,3]","action_history":"[0,1,0,0,1,1,1,0,0,1,1]","mutagen_history":"[1,0,1,1,0,0,0,1,1,0,0]","location_rts":"[1003,1136,1201,608,1081,1503,986,780,1502,1330,652]","trial_type":"fractal-mutation","trial_index":166,"time_elapsed":3379460,"internal_node_id":"0.0-5.0-62.0"},{"group":"hexagon_bi","fractal_assignment":["../images/gry_blk.png","../images/ylw_slt.png","../images/org_blu.png","../images/blu_wht.png","../images/pnk_blu.png","../images/cyn_red.png"],"mutagen_generator_assignment":[1,0],"goal":5,"start":3,"action_noise":0.2,"location_history":"[3,4,3,2,1,0,5]","action_history":"[0,0,1,0,1,0]","mutagen_history":"[1,1,0,1,0,1]","location_rts":"[1612,916,1153,1764,1157,1501]","trial_type":"fractal-mutation","trial_index":167,"time_elapsed":3398254,"internal_node_id":"0.0-5.0-63.0"},{"group":"hexagon_bi","fractal_assignment":["../images/gry_blk.png","../images/ylw_slt.png","../images/org_blu.png","../images/blu_wht.png","../images/pnk_blu.png","../images/cyn_red.png"],"mutagen_generator_assignment":[1,0],"goal":4,"start":5,"action_noise":0.2,"location_history":"[5,0,1,2,1,2,3,4]","action_history":"[0,1,0,0,0,1,0]","mutagen_history":"[1,0,1,1,1,0,1]","location_rts":"[2127,1239,1403,1423,1125,2999,1294]","trial_type":"fractal-mutation","trial_index":168,"time_elapsed":3421623,"internal_node_id":"0.0-5.0-64.0"},{"group":"hexagon_bi","fractal_assignment":["../images/gry_blk.png","../images/ylw_slt.png","../images/org_blu.png","../images/blu_wht.png","../images/pnk_blu.png","../images/cyn_red.png"],"mutagen_generator_assignment":[1,0],"goal":1,"start":4,"action_noise":0.2,"location_history":"[4,3,2,3,4,5,4,3,4,5,4,3,4,5,0,5,4,3,4,3,4,3,4,5,0,1]","action_history":"[0,1,1,0,0,0,0,0,1,1,0,0,1,0,0,1,0,0,0,0,0,1,1,0,1]","mutagen_history":"[1,0,0,1,1,1,1,1,0,0,1,1,0,1,1,0,1,1,1,1,1,0,0,1,0]","location_rts":"[1367,1393,1165,894,1188,1453,966,658,985,1279,1114,456,1128,1310,1094,1271,1321,537,399,512,817,265,1414,1517,798]","trial_type":"fractal-mutation","trial_index":169,"time_elapsed":3479754,"internal_node_id":"0.0-5.0-65.0"},{"group":"hexagon_bi","fractal_assignment":["../images/gry_blk.png","../images/ylw_slt.png","../images/org_blu.png","../images/blu_wht.png","../images/pnk_blu.png","../images/cyn_red.png"],"mutagen_generator_assignment":[1,0],"goal":5,"start":1,"action_noise":0.2,"location_history":"[1,0,5]","action_history":"[0,0]","mutagen_history":"[1,1]","location_rts":"[4271,406]","trial_type":"fractal-mutation","trial_index":170,"time_elapsed":3490356,"internal_node_id":"0.0-5.0-66.0"},{"group":"hexagon_bi","fractal_assignment":["../images/gry_blk.png","../images/ylw_slt.png","../images/org_blu.png","../images/blu_wht.png","../images/pnk_blu.png","../images/cyn_red.png"],"mutagen_generator_assignment":[1,0],"goal":2,"start":5,"action_noise":0.2,"location_history":"[5,0,1,0,1,2]","action_history":"[0,1,1,1,0]","mutagen_history":"[1,0,0,0,1]","location_rts":"[1800,1343,709,634,1207]","trial_type":"fractal-mutation","trial_index":171,"time_elapsed":3505389,"internal_node_id":"0.0-5.0-67.0"},{"group":"hexagon_bi","fractal_assignment":["../images/gry_blk.png","../images/ylw_slt.png","../images/org_blu.png","../images/blu_wht.png","../images/pnk_blu.png","../images/cyn_red.png"],"mutagen_generator_assignment":[1,0],"goal":3,"start":2,"action_noise":0.2,"location_history":"[2,1,0,1,0,1,2,3]","action_history":"[0,1,1,1,0,0,1]","mutagen_history":"[1,0,0,0,1,1,0]","location_rts":"[1904,1355,728,561,757,1057,1661]","trial_type":"fractal-mutation","trial_index":172,"time_elapsed":3525095,"internal_node_id":"0.0-5.0-68.0"},{"group":"hexagon_bi","fractal_assignment":["../images/gry_blk.png","../images/ylw_slt.png","../images/org_blu.png","../images/blu_wht.png","../images/pnk_blu.png","../images/cyn_red.png"],"mutagen_generator_assignment":[1,0],"goal":4,"start":3,"action_noise":0.2,"location_history":"[3,4]","action_history":"[0]","mutagen_history":"[1]","location_rts":"[968]","trial_type":"fractal-mutation","trial_index":173,"time_elapsed":3530805,"internal_node_id":"0.0-5.0-69.0"},{"group":"hexagon_bi","fractal_assignment":["../images/gry_blk.png","../images/ylw_slt.png","../images/org_blu.png","../images/blu_wht.png","../images/pnk_blu.png","../images/cyn_red.png"],"mutagen_generator_assignment":[1,0],"goal":0,"start":4,"action_noise":0.2,"location_history":"[4,5,0]","action_history":"[1,1]","mutagen_history":"[0,0]","location_rts":"[3842,2529]","trial_type":"fractal-mutation","trial_index":174,"time_elapsed":3542981,"internal_node_id":"0.0-5.0-70.0"},{"group":"hexagon_bi","fractal_assignment":["../images/gry_blk.png","../images/ylw_slt.png","../images/org_blu.png","../images/blu_wht.png","../images/pnk_blu.png","../images/cyn_red.png"],"mutagen_generator_assignment":[1,0],"goal":5,"start":0,"action_noise":0.2,"location_history":"[0,5]","action_history":"[0]","mutagen_history":"[1]","location_rts":"[1999]","trial_type":"fractal-mutation","trial_index":175,"time_elapsed":3549681,"internal_node_id":"0.0-5.0-71.0"},{"group":"hexagon_bi","fractal_assignment":["../images/gry_blk.png","../images/ylw_slt.png","../images/org_blu.png","../images/blu_wht.png","../images/pnk_blu.png","../images/cyn_red.png"],"mutagen_generator_assignment":[1,0],"goal":0,"start":5,"action_noise":0.2,"location_history":"[5,4,3,2,1,2,3,2,3,2,3,2,1,0]","action_history":"[1,0,0,0,0,1,1,1,0,0,1,0,1]","mutagen_history":"[0,1,1,1,1,0,0,0,1,1,0,1,0]","location_rts":"[2850,1528,529,535,228,965,625,585,320,651,2114,924,1790]","trial_type":"fractal-mutation","trial_index":176,"time_elapsed":3582083,"internal_node_id":"0.0-5.0-72.0"},{"group":"hexagon_bi","fractal_assignment":["../images/gry_blk.png","../images/ylw_slt.png","../images/org_blu.png","../images/blu_wht.png","../images/pnk_blu.png","../images/cyn_red.png"],"mutagen_generator_assignment":[1,0],"goal":3,"start":0,"action_noise":0.2,"location_history":"[0,1,0,5,0,1,2,1,0,5,0,1,0,5,4,3]","action_history":"[0,0,0,0,1,0,0,0,0,0,1,1,1,1,0]","mutagen_history":"[1,1,1,1,0,1,1,1,1,1,0,0,0,0,1]","location_rts":"[1787,995,920,2365,1151,1636,1953,1081,1224,965,287,444,537,1246,1061]","trial_type":"fractal-mutation","trial_index":177,"time_elapsed":3620919,"internal_node_id":"0.0-5.0-73.0"},{"group":"hexagon_bi","fractal_assignment":["../images/gry_blk.png","../images/ylw_slt.png","../images/org_blu.png","../images/blu_wht.png","../images/pnk_blu.png","../images/cyn_red.png"],"mutagen_generator_assignment":[1,0],"goal":1,"start":3,"action_noise":0.2,"location_history":"[3,4,3,2,1]","action_history":"[0,0,1,0]","mutagen_history":"[1,1,0,1]","location_rts":"[1893,585,1288,1004]","trial_type":"fractal-mutation","trial_index":178,"time_elapsed":3633995,"internal_node_id":"0.0-5.0-74.0"},{"group":"hexagon_bi","fractal_assignment":["../images/gry_blk.png","../images/ylw_slt.png","../images/org_blu.png","../images/blu_wht.png","../images/pnk_blu.png","../images/cyn_red.png"],"mutagen_generator_assignment":[1,0],"goal":2,"start":1,"action_noise":0.2,"location_history":"[1,2]","action_history":"[0]","mutagen_history":"[1]","location_rts":"[1699]","trial_type":"fractal-mutation","trial_index":179,"time_elapsed":3640418,"internal_node_id":"0.0-5.0-75.0"},{"group":"hexagon_bi","fractal_assignment":["../images/gry_blk.png","../images/ylw_slt.png","../images/org_blu.png","../images/blu_wht.png","../images/pnk_blu.png","../images/cyn_red.png"],"mutagen_generator_assignment":[1,0],"goal":4,"start":2,"action_noise":0.2,"location_history":"[2,1,0,5,0,1,2,1,0,5,4]","action_history":"[0,1,0,0,1,0,0,1,1,1]","mutagen_history":"[1,0,1,1,0,1,1,0,0,0]","location_rts":"[1625,1147,989,1266,1020,1125,24,1091,538,910]","trial_type":"fractal-mutation","trial_index":180,"time_elapsed":3665372,"internal_node_id":"0.0-5.0-76.0"},{"group":"hexagon_bi","fractal_assignment":["../images/gry_blk.png","../images/ylw_slt.png","../images/org_blu.png","../images/blu_wht.png","../images/pnk_blu.png","../images/cyn_red.png"],"mutagen_generator_assignment":[1,0],"goal":3,"start":4,"action_noise":0.2,"location_history":"[4,5,4,5,0,5,0,1,2,1,2,3]","action_history":"[0,1,1,0,0,0,1,0,0,0,1]","mutagen_history":"[1,0,0,1,1,1,0,1,1,1,0]","location_rts":"[2591,1415,363,999,1084,1007,442,1297,1056,1345,460]","trial_type":"fractal-mutation","trial_index":181,"time_elapsed":3693750,"internal_node_id":"0.0-5.0-77.0"},{"group":"hexagon_bi","fractal_assignment":["../images/gry_blk.png","../images/ylw_slt.png","../images/org_blu.png","../images/blu_wht.png","../images/pnk_blu.png","../images/cyn_red.png"],"mutagen_generator_assignment":[1,0],"goal":0,"start":3,"action_noise":0.2,"location_history":"[3,4,5,4,3,2,3,4,3,4,3,2,1,2,3,4,5,0]","action_history":"[0,1,0,1,0,1,0,0,0,1,0,0,0,1,0,1,0]","mutagen_history":"[1,0,1,0,1,0,1,1,1,0,1,1,1,0,1,0,1]","location_rts":"[1525,372,1299,644,427,1232,432,1155,800,381,645,367,589,1017,539,901,1411]","trial_type":"fractal-mutation","trial_index":182,"time_elapsed":3730910,"internal_node_id":"0.0-5.0-78.0"},{"group":"hexagon_bi","fractal_assignment":["../images/gry_blk.png","../images/ylw_slt.png","../images/org_blu.png","../images/blu_wht.png","../images/pnk_blu.png","../images/cyn_red.png"],"mutagen_generator_assignment":[1,0],"goal":4,"start":0,"action_noise":0.2,"location_history":"[0,5,0,5,0,1,0,1,2,3,4]","action_history":"[0,0,1,0,1,1,1,0,0,0]","mutagen_history":"[1,1,0,1,0,0,0,1,1,1]","location_rts":"[2473,480,1178,1119,1060,1410,1011,381,743,776]","trial_type":"fractal-mutation","trial_index":183,"time_elapsed":3756782,"internal_node_id":"0.0-5.0-79.0"},{"group":"hexagon_bi","fractal_assignment":["../images/gry_blk.png","../images/ylw_slt.png","../images/org_blu.png","../images/blu_wht.png","../images/pnk_blu.png","../images/cyn_red.png"],"mutagen_generator_assignment":[1,0],"goal":5,"start":4,"action_noise":0.2,"location_history":"[4,5]","action_history":"[0]","mutagen_history":"[1]","location_rts":"[1680]","trial_type":"fractal-mutation","trial_index":184,"time_elapsed":3763172,"internal_node_id":"0.0-5.0-80.0"},{"group":"hexagon_bi","fractal_assignment":["../images/gry_blk.png","../images/ylw_slt.png","../images/org_blu.png","../images/blu_wht.png","../images/pnk_blu.png","../images/cyn_red.png"],"mutagen_generator_assignment":[1,0],"goal":1,"start":5,"action_noise":0.2,"location_history":"[5,4,5,0,5,4,3,4,3,4,3,4,3,2,1]","action_history":"[1,1,0,0,0,0,0,0,1,0,1,1,0,0]","mutagen_history":"[0,0,1,1,1,1,1,1,0,1,0,0,1,1]","location_rts":"[2696,1847,2066,1516,1069,1178,1369,1695,1127,1028,1205,492,1068,1057]","trial_type":"fractal-mutation","trial_index":185,"time_elapsed":3802636,"internal_node_id":"0.0-5.0-81.0"},{"group":"hexagon_bi","fractal_assignment":["../images/gry_blk.png","../images/ylw_slt.png","../images/org_blu.png","../images/blu_wht.png","../images/pnk_blu.png","../images/cyn_red.png"],"mutagen_generator_assignment":[1,0],"goal":2,"start":1,"action_noise":0.2,"location_history":"[1,2]","action_history":"[0]","mutagen_history":"[1]","location_rts":"[2470]","trial_type":"fractal-mutation","trial_index":186,"time_elapsed":3809814,"internal_node_id":"0.0-5.0-82.0"},{"group":"hexagon_bi","fractal_assignment":["../images/gry_blk.png","../images/ylw_slt.png","../images/org_blu.png","../images/blu_wht.png","../images/pnk_blu.png","../images/cyn_red.png"],"mutagen_generator_assignment":[1,0],"goal":4,"start":2,"action_noise":0.2,"location_history":"[2,1,0,5,4]","action_history":"[0,0,1,0]","mutagen_history":"[1,1,0,1]","location_rts":"[2218,627,1335,1249]","trial_type":"fractal-mutation","trial_index":187,"time_elapsed":3823426,"internal_node_id":"0.0-5.0-83.0"},{"group":"hexagon_bi","fractal_assignment":["../images/gry_blk.png","../images/ylw_slt.png","../images/org_blu.png","../images/blu_wht.png","../images/pnk_blu.png","../images/cyn_red.png"],"mutagen_generator_assignment":[1,0],"goal":0,"start":4,"action_noise":0.2,"location_history":"[4,3,4,3,2,1,0]","action_history":"[0,0,1,1,0,1]","mutagen_history":"[1,1,0,0,1,0]","location_rts":"[2747,3803,1357,665,1379,1086]","trial_type":"fractal-mutation","trial_index":188,"time_elapsed":3845010,"internal_node_id":"0.0-5.0-84.0"},{"group":"hexagon_bi","fractal_assignment":["../images/gry_blk.png","../images/ylw_slt.png","../images/org_blu.png","../images/blu_wht.png","../images/pnk_blu.png","../images/cyn_red.png"],"mutagen_generator_assignment":[1,0],"goal":5,"start":0,"action_noise":0.2,"location_history":"[0,1,2,1,2,1,2,3,4,5]","action_history":"[0,1,0,0,0,0,0,0,0]","mutagen_history":"[1,0,1,1,1,1,1,1,1]","location_rts":"[1544,1114,927,699,546,414,446,368,1156]","trial_type":"fractal-mutation","trial_index":189,"time_elapsed":3866487,"internal_node_id":"0.0-5.0-85.0"},{"group":"hexagon_bi","fractal_assignment":["../images/gry_blk.png","../images/ylw_slt.png","../images/org_blu.png","../images/blu_wht.png","../images/pnk_blu.png","../images/cyn_red.png"],"mutagen_generator_assignment":[1,0],"goal":3,"start":5,"action_noise":0.2,"location_history":"[5,0,5,0,1,0,1,0,1,0,1,0,1,2,1,2,1,0,1,0,5,0,5,4,3]","action_history":"[1,0,0,1,0,1,1,0,0,0,1,1,1,0,1,1,0,1,1,1,0,0,1,0]","mutagen_history":"[0,1,1,0,1,0,0,1,1,1,0,0,0,1,0,0,1,0,0,0,1,1,0,1]","location_rts":"[1625,791,1478,1040,1173,928,443,1039,1595,842,333,634,420,995,1403,1268,1195,876,446,478,1342,1777,669,1275]","trial_type":"fractal-mutation","trial_index":190,"time_elapsed":3921734,"internal_node_id":"0.0-5.0-86.0"},{"group":"hexagon_bi","fractal_assignment":["../images/gry_blk.png","../images/ylw_slt.png","../images/org_blu.png","../images/blu_wht.png","../images/pnk_blu.png","../images/cyn_red.png"],"mutagen_generator_assignment":[1,0],"goal":1,"start":3,"action_noise":0.2,"location_history":"[3,4,3,4,3,2,1]","action_history":"[0,0,0,1,1,0]","mutagen_history":"[1,1,1,0,0,1]","location_rts":"[1284,765,579,926,746,955]","trial_type":"fractal-mutation","trial_index":191,"time_elapsed":3937446,"internal_node_id":"0.0-5.0-87.0"},{"group":"hexagon_bi","fractal_assignment":["../images/gry_blk.png","../images/ylw_slt.png","../images/org_blu.png","../images/blu_wht.png","../images/pnk_blu.png","../images/cyn_red.png"],"mutagen_generator_assignment":[1,0],"goal":2,"start":1,"action_noise":0.2,"location_history":"[1,0,5,0,5,4,5,0,5,0,1,0,1,0,1,0,1,0,1,0,5,4,3,4,5,0,5,4,3,2]","action_history":"[1,0,0,0,1,0,0,0,0,1,0,1,1,1,0,1,1,1,0,0,1,0,0,1,0,0,0,0,1]","mutagen_history":"[0,1,1,1,0,1,1,1,1,0,1,0,0,0,1,0,0,0,1,1,0,1,1,0,1,1,1,1,0]","location_rts":"[3355,1143,604,407,760,932,733,524,535,811,1027,1142,463,479,1262,613,329,649,237,332,1341,1032,1589,584,528,843,668,824,350]","trial_type":"fractal-mutation","trial_index":192,"time_elapsed":3999014,"internal_node_id":"0.0-5.0-88.0"},{"group":"hexagon_bi","fractal_assignment":["../images/gry_blk.png","../images/ylw_slt.png","../images/org_blu.png","../images/blu_wht.png","../images/pnk_blu.png","../images/cyn_red.png"],"mutagen_generator_assignment":[1,0],"goal":0,"start":2,"action_noise":0.2,"location_history":"[2,1,2,3,4,5,4,5,0]","action_history":"[1,0,1,1,1,1,0,0]","mutagen_history":"[0,1,0,0,0,0,1,1]","location_rts":"[2320,715,1062,516,442,1111,836,366]","trial_type":"fractal-mutation","trial_index":193,"time_elapsed":4019075,"internal_node_id":"0.0-5.0-89.0"},{"group":"hexagon_bi","fractal_assignment":["../images/gry_blk.png","../images/ylw_slt.png","../images/org_blu.png","../images/blu_wht.png","../images/pnk_blu.png","../images/cyn_red.png"],"mutagen_generator_assignment":[1,0],"goal":5,"start":0,"action_noise":0.2,"location_history":"[0,5]","action_history":"[0]","mutagen_history":"[1]","location_rts":"[2012]","trial_type":"fractal-mutation","trial_index":194,"time_elapsed":4025837,"internal_node_id":"0.0-5.0-90.0"},{"group":"hexagon_bi","fractal_assignment":["../images/gry_blk.png","../images/ylw_slt.png","../images/org_blu.png","../images/blu_wht.png","../images/pnk_blu.png","../images/cyn_red.png"],"mutagen_generator_assignment":[1,0],"goal":1,"start":5,"action_noise":0.2,"location_history":"[5,0,5,4,3,4,3,2,1]","action_history":"[0,1,1,0,0,0,1,1]","mutagen_history":"[1,0,0,1,1,1,0,0]","location_rts":"[2441,1562,1456,1161,513,590,6370,1084]","trial_type":"fractal-mutation","trial_index":195,"time_elapsed":4053844,"internal_node_id":"0.0-5.0-91.0"},{"group":"hexagon_bi","fractal_assignment":["../images/gry_blk.png","../images/ylw_slt.png","../images/org_blu.png","../images/blu_wht.png","../images/pnk_blu.png","../images/cyn_red.png"],"mutagen_generator_assignment":[1,0],"goal":3,"start":1,"action_noise":0.2,"location_history":"[1,0,1,0,5,0,1,2,1,2,3]","action_history":"[0,1,1,0,0,1,0,0,0,1]","mutagen_history":"[1,0,0,1,1,0,1,1,1,0]","location_rts":"[5879,1282,818,1394,537,1633,2601,966,582,1131]","trial_type":"fractal-mutation","trial_index":196,"time_elapsed":4085822,"internal_node_id":"0.0-5.0-92.0"},{"group":"hexagon_bi","fractal_assignment":["../images/gry_blk.png","../images/ylw_slt.png","../images/org_blu.png","../images/blu_wht.png","../images/pnk_blu.png","../images/cyn_red.png"],"mutagen_generator_assignment":[1,0],"goal":4,"start":3,"action_noise":0.2,"location_history":"[3,4]","action_history":"[0]","mutagen_history":"[1]","location_rts":"[2006]","trial_type":"fractal-mutation","trial_index":197,"time_elapsed":4092549,"internal_node_id":"0.0-5.0-93.0"},{"group":"hexagon_bi","fractal_assignment":["../images/gry_blk.png","../images/ylw_slt.png","../images/org_blu.png","../images/blu_wht.png","../images/pnk_blu.png","../images/cyn_red.png"],"mutagen_generator_assignment":[1,0],"goal":2,"start":4,"action_noise":0.2,"location_history":"[4,5,0,5,0,1,0,5,4,3,4,5,4,5,0,1,0,5,0,5,0,1,0,1,2]","action_history":"[1,1,0,0,1,1,0,1,1,0,1,1,1,1,1,1,0,0,0,1,1,0,1,1]","mutagen_history":"[0,0,1,1,0,0,1,0,0,1,0,0,0,0,0,0,1,1,1,0,0,1,0,0]","location_rts":"[1417,374,580,813,496,542,619,319,339,553,433,614,461,537,729,650,533,361,514,375,541,441,439,369]","trial_type":"fractal-mutation","trial_index":198,"time_elapsed":4136805,"internal_node_id":"0.0-5.0-94.0"},{"group":"hexagon_bi","fractal_assignment":["../images/gry_blk.png","../images/ylw_slt.png","../images/org_blu.png","../images/blu_wht.png","../images/pnk_blu.png","../images/cyn_red.png"],"mutagen_generator_assignment":[1,0],"goal":4,"start":2,"action_noise":0.2,"location_history":"[2,3,4]","action_history":"[0,0]","mutagen_history":"[1,1]","location_rts":"[3439,918]","trial_type":"fractal-mutation","trial_index":199,"time_elapsed":4147007,"internal_node_id":"0.0-5.0-95.0"},{"group":"hexagon_bi","fractal_assignment":["../images/gry_blk.png","../images/ylw_slt.png","../images/org_blu.png","../images/blu_wht.png","../images/pnk_blu.png","../images/cyn_red.png"],"mutagen_generator_assignment":[1,0],"goal":0,"start":4,"action_noise":0.2,"location_history":"[4,5,0]","action_history":"[0,0]","mutagen_history":"[1,1]","location_rts":"[1385,337]","trial_type":"fractal-mutation","trial_index":200,"time_elapsed":4154626,"internal_node_id":"0.0-5.0-96.0"},{"group":"hexagon_bi","fractal_assignment":["../images/gry_blk.png","../images/ylw_slt.png","../images/org_blu.png","../images/blu_wht.png","../images/pnk_blu.png","../images/cyn_red.png"],"mutagen_generator_assignment":[1,0],"goal":5,"start":0,"action_noise":0.2,"location_history":"[0,5]","action_history":"[0]","mutagen_history":"[1]","location_rts":"[2571]","trial_type":"fractal-mutation","trial_index":201,"time_elapsed":4161865,"internal_node_id":"0.0-5.0-97.0"},{"group":"hexagon_bi","fractal_assignment":["../images/gry_blk.png","../images/ylw_slt.png","../images/org_blu.png","../images/blu_wht.png","../images/pnk_blu.png","../images/cyn_red.png"],"mutagen_generator_assignment":[1,0],"goal":1,"start":5,"action_noise":0.2,"location_history":"[5,4,5,4,5,0,5,0,1]","action_history":"[1,1,1,0,0,0,0,1]","mutagen_history":"[0,0,0,1,1,1,1,0]","location_rts":"[3803,397,387,1278,352,663,801,100]","tri