[{"view_history":"[{\"page_index\":0,\"viewing_time\":1991},{\"page_index\":1,\"viewing_time\":12834},{\"page_index\":2,\"viewing_time\":16122},{\"page_index\":3,\"viewing_time\":4713}]","rt":35661,"trial_type":"instructions","trial_index":0,"time_elapsed":35661,"internal_node_id":"0.0-0.0"},{"view_history":"[{\"page_index\":0,\"viewing_time\":2078},{\"page_index\":1,\"viewing_time\":10177}]","rt":12255,"trial_type":"instructions","trial_index":1,"time_elapsed":48917,"internal_node_id":"0.0-1.0"},{"group":"hexagon_tri","room_assignment":["grey","blue","purple","green","red","yellow"],"door_color_assignment":["black","white"],"door_generator_assignment":[0,1],"goal":4,"start":0,"action_noise":0.2,"location_history":"[0,5,0,1,3,2,3,4]","action_history":"[0,1,1,1,0,1,1]","door_history":"[0,1,1,1,0,1,1]","location_rts":"[2280,1534,666,1026,659,582,352]","trial_type":"two-door-navigation","trial_index":2,"time_elapsed":66701,"internal_node_id":"0.0-2.0-0.0"},{"group":"hexagon_tri","room_assignment":["grey","blue","purple","green","red","yellow"],"door_color_assignment":["black","white"],"door_generator_assignment":[0,1],"goal":3,"start":4,"action_noise":0.2,"location_history":"[4,0,1,5,4,0,5,0,1,5,0,5,4,2,1,5,4,0,1,5,4,0,5,4,0,1,3]","action_history":"[0,1,0,0,0,0,1,1,1,1,1,0,1,0,1,0,0,1,1,0,0,1,0,0,1,0]","door_history":"[0,1,0,0,0,0,1,1,1,1,1,0,1,0,1,0,0,1,1,0,0,1,0,0,1,0]","location_rts":"[1377,654,311,254,316,354,240,87,58,340,267,84,314,37,60,38,103,348,331,43,300,195,375,168,513,166]","trial_type":"two-door-navigation","trial_index":3,"time_elapsed":104148,"internal_node_id":"0.0-2.0-1.0"},{"group":"hexagon_tri","room_assignment":["grey","blue","purple","green","red","yellow"],"door_color_assignment":["black","white"],"door_generator_assignment":[0,1],"goal":5,"start":3,"action_noise":0.2,"location_history":"[3,2,1,3,4,2,3,2,1,3,4,2,3,4,0,1,3,2,1,5]","action_history":"[1,0,0,1,1,1,0,0,0,1,1,0,1,1,0,0,1,0,0]","door_history":"[1,0,0,1,1,1,0,0,0,1,1,0,1,1,0,0,1,0,0]","location_rts":"[943,47,196,197,258,401,633,133,323,269,210,176,390,10,143,35,35,49,65]","trial_type":"two-door-navigation","trial_index":4,"time_elapsed":131576,"internal_node_id":"0.0-2.0-2.0"},{"group":"hexagon_tri","room_assignment":["grey","blue","purple","green","red","yellow"],"door_color_assignment":["black","white"],"door_generator_assignment":[0,1],"goal":2,"start":5,"action_noise":0.2,"location_history":"[5,4,0,5,0,5,4,0,5,4,2]","action_history":"[0,0,0,0,0,0,0,0,0,0]","door_history":"[0,0,0,0,0,0,0,0,0,0]","location_rts":"[735,128,27,259,182,22,170,8,173,22]","trial_type":"two-door-navigation","trial_index":5,"time_elapsed":147047,"internal_node_id":"0.0-2.0-3.0"},{"group":"hexagon_tri","room_assignment":["grey","blue","purple","green","red","yellow"],"door_color_assignment":["black","white"],"door_generator_assignment":[0,1],"goal":1,"start":2,"action_noise":0.2,"location_history":"[2,1]","action_history":"[0]","door_history":"[0]","location_rts":"[943]","trial_type":"two-door-navigation","trial_index":6,"time_elapsed":152513,"internal_node_id":"0.0-2.0-4.0"},{"group":"hexagon_tri","room_assignment":["grey","blue","purple","green","red","yellow"],"door_color_assignment":["black","white"],"door_generator_assignment":[0,1],"goal":4,"start":1,"action_noise":0.2,"location_history":"[1,3,2,1,5,4]","action_history":"[0,0,0,0,0]","door_history":"[0,0,0,0,0]","location_rts":"[622,150,171,137,192]","trial_type":"two-door-navigation","trial_index":7,"time_elapsed":162395,"internal_node_id":"0.0-2.0-5.0"},{"group":"hexagon_tri","room_assignment":["grey","blue","purple","green","red","yellow"],"door_color_assignment":["black","white"],"door_generator_assignment":[0,1],"goal":1,"start":4,"action_noise":0.2,"location_history":"[4,0,5,4,0,5,0,5,4,0,5,4,0,5,0,5,4,0,5,0,5,0,1]","action_history":"[0,0,0,0,0,0,0,0,0,0,0,0,0,0,0,0,0,0,0,0,0,0]","door_history":"[0,0,0,0,0,0,0,0,0,0,0,0,0,0,0,0,0,0,0,0,0,0]","location_rts":"[637,292,760,266,265,123,163,228,270,193,308,237,295,236,103,43,145,12,132,134,78,667]","trial_type":"two-door-navigation","trial_index":8,"time_elapsed":193946,"internal_node_id":"0.0-2.0-6.0"},{"group":"hexagon_tri","room_assignment":["grey","blue","purple","green","red","yellow"],"door_color_assignment":["black","white"],"door_generator_assignment":[0,1],"goal":5,"start":1,"action_noise":0.2,"location_history":"[1,3,2,1,3,4,0,5]","action_history":"[0,0,0,0,1,1,1]","door_history":"[0,0,0,0,1,1,1]","location_rts":"[93,137,248,0,660,184,26]","trial_type":"two-door-navigation","trial_index":9,"time_elapsed":205958,"internal_node_id":"0.0-2.0-7.0"},{"group":"hexagon_tri","room_assignment":["grey","blue","purple","green","red","yellow"],"door_color_assignment":["black","white"],"door_generator_assignment":[0,1],"goal":0,"start":5,"action_noise":0.2,"location_history":"[5,0]","action_history":"[0]","door_history":"[0]","location_rts":"[1025]","trial_type":"two-door-navigation","trial_index":10,"time_elapsed":211512,"internal_node_id":"0.0-2.0-8.0"},{"group":"hexagon_tri","room_assignment":["grey","blue","purple","green","red","yellow"],"door_color_assignment":["black","white"],"door_generator_assignment":[0,1],"goal":2,"start":0,"action_noise":0.2,"location_history":"[0,5,0,5,4,0,5,4,0,5,4,0,5,4,0,5,4,0,1,5,0,1,5,0,1,5,4,0,1,5,4,2]","action_history":"[0,0,0,0,0,0,0,0,0,0,0,0,0,0,0,0,1,1,1,1,1,1,1,1,1,1,0,0,0,0,0]","door_history":"[0,0,0,0,0,0,0,0,0,0,0,0,0,0,0,0,1,1,1,1,1,1,1,1,1,1,0,0,0,0,0]","location_rts":"[161,78,227,120,101,346,122,465,286,88,303,142,125,248,276,8,340,59,206,198,58,50,59,246,113,40,247,12,178,117,126]","trial_type":"two-door-navigation","trial_index":11,"time_elapsed":251881,"internal_node_id":"0.0-2.0-9.0"},{"group":"hexagon_tri","room_assignment":["grey","blue","purple","green","red","yellow"],"door_color_assignment":["black","white"],"door_generator_assignment":[0,1],"goal":3,"start":2,"action_noise":0.2,"location_history":"[2,1,3]","action_history":"[0,0]","door_history":"[0,0]","location_rts":"[436,312]","trial_type":"two-door-navigation","trial_index":12,"time_elapsed":258181,"internal_node_id":"0.0-2.0-10.0"},{"group":"hexagon_tri","room_assignment":["grey","blue","purple","green","red","yellow"],"door_color_assignment":["black","white"],"door_generator_assignment":[0,1],"goal":0,"start":3,"action_noise":0.2,"location_history":"[3,2,1,3,2,3,2,1,3,2,3,4,0]","action_history":"[0,0,0,0,0,0,0,0,0,0,0,0]","door_history":"[0,0,0,0,0,0,0,0,0,0,0,0]","location_rts":"[390,366,462,872,502,200,103,459,168,134,183,202]","trial_type":"two-door-navigation","trial_index":13,"time_elapsed":278008,"internal_node_id":"0.0-2.0-11.0"},{"group":"hexagon_tri","room_assignment":["grey","blue","purple","green","red","yellow"],"door_color_assignment":["black","white"],"door_generator_assignment":[0,1],"goal":2,"start":0,"action_noise":0.2,"location_history":"[0,5,4,0,5,4,0,5,4,0,5,0,5,4,0,5,0,5,4,0,5,4,0,1,3,4,0,5,4,0,5,0,1,3,2]","action_history":"[0,0,0,0,0,0,0,0,0,0,0,0,0,0,0,0,0,0,0,0,0,0,0,0,0,0,0,0,0,0,0,0,0,0]","door_history":"[0,0,0,0,0,0,0,0,0,0,0,0,0,0,0,0,0,0,0,0,0,0,0,0,0,0,0,0,0,0,0,0,0,0]","location_rts":"[503,321,272,326,285,570,422,906,36,1043,43,137,285,174,157,213,287,223,67,148,537,604,249,303,325,321,334,360,294,326,265,235,388,421]","trial_type":"two-door-navigation","trial_index":14,"time_elapsed":327684,"internal_node_id":"0.0-2.0-12.0"},{"group":"hexagon_tri","room_assignment":["grey","blue","purple","green","red","yellow"],"door_color_assignment":["black","white"],"door_generator_assignment":[0,1],"goal":5,"start":2,"action_noise":0.2,"location_history":"[2,1,3,2,1,3,2,3,2,1,3,2,1,3,2,1,3,4,0,5]","action_history":"[0,0,0,0,0,0,0,0,0,0,0,0,0,0,0,0,0,0,0]","door_history":"[0,0,0,0,0,0,0,0,0,0,0,0,0,0,0,0,0,0,0]","location_rts":"[844,321,372,368,407,390,310,351,282,342,501,342,414,416,293,432,350,373,259]","trial_type":"two-door-navigation","trial_index":15,"time_elapsed":357989,"internal_node_id":"0.0-2.0-13.0"},{"group":"hexagon_tri","room_assignment":["grey","blue","purple","green","red","yellow"],"door_color_assignment":["black","white"],"door_generator_assignment":[0,1],"goal":4,"start":5,"action_noise":0.2,"location_history":"[5,4]","action_history":"[0]","door_history":"[0]","location_rts":"[1024]","trial_type":"two-door-navigation","trial_index":16,"time_elapsed":363540,"internal_node_id":"0.0-2.0-14.0"},{"group":"hexagon_tri","room_assignment":["grey","blue","purple","green","red","yellow"],"door_color_assignment":["black","white"],"door_generator_assignment":[0,1],"goal":3,"start":4,"action_noise":0.2,"location_history":"[4,0,5,4,0,5,4,0,1,3]","action_history":"[0,0,0,0,0,0,0,0,0]","door_history":"[0,0,0,0,0,0,0,0,0]","location_rts":"[547,217,22,462,293,231,35,25,235]","trial_type":"two-door-navigation","trial_index":17,"time_elapsed":378316,"internal_node_id":"0.0-2.0-15.0"},{"group":"hexagon_tri","room_assignment":["grey","blue","purple","green","red","yellow"],"door_color_assignment":["black","white"],"door_generator_assignment":[0,1],"goal":1,"start":3,"action_noise":0.2,"location_history":"[3,2,1]","action_history":"[0,0]","door_history":"[0,0]","location_rts":"[943,679]","trial_type":"two-door-navigation","trial_index":18,"time_elapsed":385489,"internal_node_id":"0.0-2.0-16.0"},{"group":"hexagon_tri","room_assignment":["grey","blue","purple","green","red","yellow"],"door_color_assignment":["black","white"],"door_generator_assignment":[0,1],"goal":5,"start":1,"action_noise":0.2,"location_history":"[1,3,2,1,3,2,1,3,2,3,2,1,5]","action_history":"[0,0,0,0,0,0,0,0,0,0,0,0]","door_history":"[0,0,0,0,0,0,0,0,0,0,0,0]","location_rts":"[851,188,285,352,448,363,430,281,155,276,303,97]","trial_type":"two-door-navigation","trial_index":19,"time_elapsed":405297,"internal_node_id":"0.0-2.0-17.0"},{"group":"hexagon_tri","room_assignment":["grey","blue","purple","green","red","yellow"],"door_color_assignment":["black","white"],"door_generator_assignment":[0,1],"goal":4,"start":5,"action_noise":0.2,"location_history":"[5,4]","action_history":"[0]","door_history":"[0]","location_rts":"[345]","trial_type":"two-door-navigation","trial_index":20,"time_elapsed":410175,"internal_node_id":"0.0-2.0-18.0"},{"group":"hexagon_tri","room_assignment":["grey","blue","purple","green","red","yellow"],"door_color_assignment":["black","white"],"door_generator_assignment":[0,1],"goal":0,"start":4,"action_noise":0.2,"location_history":"[4,0]","action_history":"[0]","door_history":"[0]","location_rts":"[400]","trial_type":"two-door-navigation","trial_index":21,"time_elapsed":415103,"internal_node_id":"0.0-2.0-19.0"},{"group":"hexagon_tri","room_assignment":["grey","blue","purple","green","red","yellow"],"door_color_assignment":["black","white"],"door_generator_assignment":[0,1],"goal":1,"start":0,"action_noise":0.2,"location_history":"[0,5,4,2,1]","action_history":"[0,0,0,0]","door_history":"[0,0,0,0]","location_rts":"[278,128,287,306]","trial_type":"two-door-navigation","trial_index":22,"time_elapsed":423689,"internal_node_id":"0.0-2.0-20.0"},{"group":"hexagon_tri","room_assignment":["grey","blue","purple","green","red","yellow"],"door_color_assignment":["black","white"],"door_generator_assignment":[0,1],"goal":3,"start":1,"action_noise":0.2,"location_history":"[1,3]","action_history":"[0]","door_history":"[0]","location_rts":"[1811]","trial_type":"two-door-navigation","trial_index":23,"time_elapsed":430024,"internal_node_id":"0.0-2.0-21.0"},{"group":"hexagon_tri","room_assignment":["grey","blue","purple","green","red","yellow"],"door_color_assignment":["black","white"],"door_generator_assignment":[0,1],"goal":2,"start":3,"action_noise":0.2,"location_history":"[3,2]","action_history":"[0]","door_history":"[0]","location_rts":"[379]","trial_type":"two-door-navigation","trial_index":24,"time_elapsed":434935,"internal_node_id":"0.0-2.0-22.0"},{"group":"hexagon_tri","room_assignment":["grey","blue","purple","green","red","yellow"],"door_color_assignment":["black","white"],"door_generator_assignment":[0,1],"goal":0,"start":2,"action_noise":0.2,"location_history":"[2,1,3,2,1,3,4,0]","action_history":"[0,0,0,0,0,0,0]","door_history":"[0,0,0,0,0,0,0]","location_rts":"[402,672,308,396,243,235,128]","trial_type":"two-door-navigation","trial_index":25,"time_elapsed":447985,"internal_node_id":"0.0-2.0-23.0"},{"group":"hexagon_tri","room_assignment":["grey","blue","purple","green","red","yellow"],"door_color_assignment":["black","white"],"door_generator_assignment":[0,1],"goal":3,"start":0,"action_noise":0.2,"location_history":"[0,5,4,0,5,4,0,5,4,0,5,4,0,1,3]","action_history":"[0,0,0,0,0,0,0,0,0,0,0,0,0,0]","door_history":"[0,0,0,0,0,0,0,0,0,0,0,0,0,0]","location_rts":"[146,296,281,344,306,240,996,329,431,434,333,480,401,407]","trial_type":"two-door-navigation","trial_index":26,"time_elapsed":471254,"internal_node_id":"0.0-2.0-24.0"},{"group":"hexagon_tri","room_assignment":["grey","blue","purple","green","red","yellow"],"door_color_assignment":["black","white"],"door_generator_assignment":[0,1],"goal":1,"start":3,"action_noise":0.2,"location_history":"[3,4,0,1]","action_history":"[0,0,0]","door_history":"[0,0,0]","location_rts":"[403,361,222]","trial_type":"two-door-navigation","trial_index":27,"time_elapsed":478817,"internal_node_id":"0.0-2.0-25.0"},{"group":"hexagon_tri","room_assignment":["grey","blue","purple","green","red","yellow"],"door_color_assignment":["black","white"],"door_generator_assignment":[0,1],"goal":2,"start":1,"action_noise":0.2,"location_history":"[1,3,2]","action_history":"[0,0]","door_history":"[0,0]","location_rts":"[76,218]","trial_type":"two-door-navigation","trial_index":28,"time_elapsed":484661,"internal_node_id":"0.0-2.0-26.0"},{"group":"hexagon_tri","room_assignment":["grey","blue","purple","green","red","yellow"],"door_color_assignment":["black","white"],"door_generator_assignment":[0,1],"goal":5,"start":2,"action_noise":0.2,"location_history":"[2,1,3,2,1,3,4,0,5]","action_history":"[0,0,0,0,0,0,0,0]","door_history":"[0,0,0,0,0,0,0,0]","location_rts":"[440,1404,665,458,209,106,6,114]","trial_type":"two-door-navigation","trial_index":29,"time_elapsed":499746,"internal_node_id":"0.0-2.0-27.0"},{"group":"hexagon_tri","room_assignment":["grey","blue","purple","green","red","yellow"],"door_color_assignment":["black","white"],"door_generator_assignment":[0,1],"goal":4,"start":5,"action_noise":0.2,"location_history":"[5,4]","action_history":"[0]","door_history":"[0]","location_rts":"[320]","trial_type":"two-door-navigation","trial_index":30,"time_elapsed":504588,"internal_node_id":"0.0-2.0-28.0"},{"group":"hexagon_tri","room_assignment":["grey","blue","purple","green","red","yellow"],"door_color_assignment":["black","white"],"door_generator_assignment":[0,1],"goal":5,"start":4,"action_noise":0.2,"location_history":"[4,0,5]","action_history":"[0,0]","door_history":"[0,0]","location_rts":"[927,1263]","trial_type":"two-door-navigation","trial_index":31,"time_elapsed":512316,"internal_node_id":"0.0-2.0-29.0"},{"group":"hexagon_tri","room_assignment":["grey","blue","purple","green","red","yellow"],"door_color_assignment":["black","white"],"door_generator_assignment":[0,1],"goal":3,"start":5,"action_noise":0.2,"location_history":"[5,4,0,5,4,0,1,5,4,0,5,0,5,0,5,4,0,5,4,0,5,4,0,5,4,0,5,4,0,5,4,0,5,4,0,1,3]","action_history":"[0,0,0,0,0,0,0,0,0,0,0,0,0,0,0,0,0,0,0,0,0,0,0,0,0,0,0,0,0,0,0,0,0,0,0,0]","door_history":"[0,0,0,0,0,0,0,0,0,0,0,0,0,0,0,0,0,0,0,0,0,0,0,0,0,0,0,0,0,0,0,0,0,0,0,0]","location_rts":"[883,254,174,237,14,43,2358,256,82,367,309,2531,396,367,1,113,406,46,154,335,4,319,420,1785,242,195,471,553,246,2303,272,256,462,208,246,344]","trial_type":"two-door-navigation","trial_index":32,"time_elapsed":570139,"internal_node_id":"0.0-2.0-30.0"},{"group":"hexagon_tri","room_assignment":["grey","blue","purple","green","red","yellow"],"door_color_assignment":["black","white"],"door_generator_assignment":[0,1],"goal":0,"start":3,"action_noise":0.2,"location_history":"[3,2,3,4,2,1,3,2,1,3,2,1,5,4,0]","action_history":"[0,0,0,0,0,0,0,0,0,0,0,0,0,0]","door_history":"[0,0,0,0,0,0,0,0,0,0,0,0,0,0]","location_rts":"[351,243,23,279,60,82,778,437,369,377,255,401,276,102]","trial_type":"two-door-navigation","trial_index":33,"time_elapsed":591934,"internal_node_id":"0.0-2.0-31.0"},{"group":"hexagon_tri","room_assignment":["grey","blue","purple","green","red","yellow"],"door_color_assignment":["black","white"],"door_generator_assignment":[0,1],"goal":4,"start":0,"action_noise":0.2,"location_history":"[0,5,4]","action_history":"[0,0]","door_history":"[0,0]","location_rts":"[424,255]","trial_type":"two-door-navigation","trial_index":34,"time_elapsed":598159,"internal_node_id":"0.0-2.0-32.0"},{"group":"hexagon_tri","room_assignment":["grey","blue","purple","green","red","yellow"],"door_color_assignment":["black","white"],"door_generator_assignment":[0,1],"goal":1,"start":4,"action_noise":0.2,"location_history":"[4,2,1]","action_history":"[0,0]","door_history":"[0,0]","location_rts":"[51,264]","trial_type":"two-door-navigation","trial_index":35,"time_elapsed":604014,"internal_node_id":"0.0-2.0-33.0"},{"group":"hexagon_tri","room_assignment":["grey","blue","purple","green","red","yellow"],"door_color_assignment":["black","white"],"door_generator_assignment":[0,1],"goal":2,"start":1,"action_noise":0.2,"location_history":"[1,3,4,0,5,0,5,4,0,5,4,0,5,4,2]","action_history":"[0,0,0,0,0,0,0,0,0,0,0,0,0,0]","door_history":"[0,0,0,0,0,0,0,0,0,0,0,0,0,0]","location_rts":"[405,243,126,215,131,194,30,85,180,108,147,55,89,246]","trial_type":"two-door-navigation","trial_index":36,"time_elapsed":624027,"internal_node_id":"0.0-2.0-34.0"},{"group":"hexagon_tri","room_assignment":["grey","blue","purple","green","red","yellow"],"door_color_assignment":["black","white"],"door_generator_assignment":[0,1],"goal":0,"start":2,"action_noise":0.2,"location_history":"[2,1,3,4,0]","action_history":"[0,0,0,0]","door_history":"[0,0,0,0]","location_rts":"[142,210,91,101]","trial_type":"two-door-navigation","trial_index":37,"time_elapsed":632145,"internal_node_id":"0.0-2.0-35.0"},{"group":"hexagon_tri","room_assignment":["grey","blue","purple","green","red","yellow"],"door_color_assignment":["black","white"],"door_generator_assignment":[0,1],"goal":5,"start":0,"action_noise":0.2,"location_history":"[0,5]","action_history":"[0]","door_history":"[0]","location_rts":"[569]","trial_type":"two-door-navigation","trial_index":38,"time_elapsed":637238,"internal_node_id":"0.0-2.0-36.0"},{"group":"hexagon_tri","room_assignment":["grey","blue","purple","green","red","yellow"],"door_color_assignment":["black","white"],"door_generator_assignment":[0,1],"goal":2,"start":5,"action_noise":0.2,"location_history":"[5,4,0,1,5,4,0,5,4,0,5,4,0,1,3,2]","action_history":"[0,0,0,0,0,0,0,0,0,0,0,0,0,0,0]","door_history":"[0,0,0,0,0,0,0,0,0,0,0,0,0,0,0]","location_rts":"[125,775,197,200,125,416,1024,316,1010,480,848,236,735,140,654]","trial_type":"two-door-navigation","trial_index":39,"time_elapsed":663308,"internal_node_id":"0.0-2.0-37.0"},{"group":"hexagon_tri","room_assignment":["grey","blue","purple","green","red","yellow"],"door_color_assignment":["black","white"],"door_generator_assignment":[0,1],"goal":1,"start":2,"action_noise":0.2,"location_history":"[2,1]","action_history":"[0]","door_history":"[0]","location_rts":"[66]","trial_type":"two-door-navigation","trial_index":40,"time_elapsed":667896,"internal_node_id":"0.0-2.0-38.0"},{"group":"hexagon_tri","room_assignment":["grey","blue","purple","green","red","yellow"],"door_color_assignment":["black","white"],"door_generator_assignment":[0,1],"goal":4,"start":1,"action_noise":0.2,"location_history":"[1,3,2,1,3,2,1,3,2,3,2,3,4]","action_history":"[0,0,0,0,0,0,0,0,1,1,1,1]","door_history":"[0,0,0,0,0,0,0,0,1,1,1,1]","location_rts":"[586,215,65,52,31,80,341,9,1052,209,6,165]","trial_type":"two-door-navigation","trial_index":41,"time_elapsed":686429,"internal_node_id":"0.0-2.0-39.0"},{"group":"hexagon_tri","room_assignment":["grey","blue","purple","green","red","yellow"],"door_color_assignment":["black","white"],"door_generator_assignment":[0,1],"goal":3,"start":4,"action_noise":0.2,"location_history":"[4,2,3]","action_history":"[1,1]","door_history":"[1,1]","location_rts":"[202,96]","trial_type":"two-door-navigation","trial_index":42,"time_elapsed":692266,"internal_node_id":"0.0-2.0-40.0"},{"group":"hexagon_tri","room_assignment":["grey","blue","purple","green","red","yellow"],"door_color_assignment":["black","white"],"door_generator_assignment":[0,1],"goal":5,"start":3,"action_noise":0.2,"location_history":"[3,2,3,4,0,5]","action_history":"[0,0,0,0,0]","door_history":"[0,0,0,0,0]","location_rts":"[829,251,174,69,115]","trial_type":"two-door-navigation","trial_index":43,"time_elapsed":702306,"internal_node_id":"0.0-2.0-41.0"},{"group":"hexagon_tri","room_assignment":["grey","blue","purple","green","red","yellow"],"door_color_assignment":["black","white"],"door_generator_assignment":[0,1],"goal":3,"start":5,"action_noise":0.2,"location_history":"[5,4,0,1,3]","action_history":"[0,0,0,0]","door_history":"[0,0,0,0]","location_rts":"[5876,3750,411,144]","trial_type":"two-door-navigation","trial_index":44,"time_elapsed":720068,"internal_node_id":"0.0-2.0-42.0"},{"group":"hexagon_tri","room_assignment":["grey","blue","purple","green","red","yellow"],"door_color_assignment":["black","white"],"door_generator_assignment":[0,1],"goal":0,"start":3,"action_noise":0.2,"location_history":"[3,2,1,5,4,0]","action_history":"[0,0,0,0,0]","door_history":"[0,0,0,0,0]","location_rts":"[633,489,125,150,197]","trial_type":"two-door-navigation","trial_index":45,"time_elapsed":730258,"internal_node_id":"0.0-2.0-43.0"},{"group":"hexagon_tri","room_assignment":["grey","blue","purple","green","red","yellow"],"door_color_assignment":["black","white"],"door_generator_assignment":[0,1],"goal":2,"start":0,"action_noise":0.2,"location_history":"[0,5,4,0,5,0,1,3,2]","action_history":"[0,0,0,0,0,0,0,0]","door_history":"[0,0,0,0,0,0,0,0]","location_rts":"[868,323,197,436,143,39,96,30]","trial_type":"two-door-navigation","trial_index":46,"time_elapsed":744049,"internal_node_id":"0.0-2.0-44.0"},{"group":"hexagon_tri","room_assignment":["grey","blue","purple","green","red","yellow"],"door_color_assignment":["black","white"],"door_generator_assignment":[0,1],"goal":4,"start":2,"action_noise":0.2,"location_history":"[2,1,3,4]","action_history":"[0,0,0]","door_history":"[0,0,0]","location_rts":"[5303,6212,389]","trial_type":"two-door-navigation","trial_index":47,"time_elapsed":762515,"internal_node_id":"0.0-2.0-45.0"},{"group":"hexagon_tri","room_assignment":["grey","blue","purple","green","red","yellow"],"door_color_assignment":["black","white"],"door_generator_assignment":[0,1],"goal":1,"start":4,"action_noise":0.2,"location_history":"[4,0,5,4,0,5,4,0,5,4,0,5,4,2,1]","action_history":"[0,0,0,0,0,0,0,0,0,0,0,0,0,0]","door_history":"[0,0,0,0,0,0,0,0,0,0,0,0,0,0]","location_rts":"[148,136,62,83,24,1061,831,64,346,114,117,134,264,215]","trial_type":"two-door-navigation","trial_index":48,"time_elapsed":783871,"internal_node_id":"0.0-2.0-46.0"},{"group":"hexagon_tri","room_assignment":["grey","blue","purple","green","red","yellow"],"door_color_assignment":["black","white"],"door_generator_assignment":[0,1],"goal":4,"start":1,"action_noise":0.2,"location_history":"[1,3,2,1,3,2,1,3,4]","action_history":"[0,0,0,0,0,0,0,0]","door_history":"[0,0,0,0,0,0,0,0]","location_rts":"[249,63,52,804,428,355,330,876]","trial_type":"two-door-navigation","trial_index":49,"time_elapsed":798684,"internal_node_id":"0.0-2.0-47.0"},{"group":"hexagon_tri","room_assignment":["grey","blue","purple","green","red","yellow"],"door_color_assignment":["black","white"],"door_generator_assignment":[0,1],"goal":1,"start":4,"action_noise":0.2,"location_history":"[4,0,5,4,0,1]","action_history":"[0,0,0,0,0]","door_history":"[0,0,0,0,0]","location_rts":"[861,99,34,1609,174]","trial_type":"two-door-navigation","trial_index":50,"time_elapsed":810058,"internal_node_id":"0.0-2.0-48.0"},{"group":"hexagon_tri","room_assignment":["grey","blue","purple","green","red","yellow"],"door_color_assignment":["black","white"],"door_generator_assignment":[0,1],"goal":3,"start":1,"action_noise":0.2,"location_history":"[1,3]","action_history":"[0]","door_history":"[0]","location_rts":"[215]","trial_type":"two-door-navigation","trial_index":51,"time_elapsed":814790,"internal_node_id":"0.0-2.0-49.0"},{"group":"hexagon_tri","room_assignment":["grey","blue","purple","green","red","yellow"],"door_color_assignment":["black","white"],"door_generator_assignment":[0,1],"goal":5,"start":3,"action_noise":0.2,"location_history":"[3,4,0,5]","action_history":"[0,0,0]","door_history":"[0,0,0]","location_rts":"[457,113,8221]","trial_type":"two-door-navigation","trial_index":52,"time_elapsed":830145,"internal_node_id":"0.0-2.0-50.0"},{"group":"hexagon_tri","room_assignment":["grey","blue","purple","green","red","yellow"],"door_color_assignment":["black","white"],"door_generator_assignment":[0,1],"goal":0,"start":5,"action_noise":0.2,"location_history":"[5,4,0]","action_history":"[0,0]","door_history":"[0,0]","location_rts":"[18,254]","trial_type":"two-door-navigation","trial_index":53,"time_elapsed":835958,"internal_node_id":"0.0-2.0-51.0"},{"group":"hexagon_tri","room_assignment":["grey","blue","purple","green","red","yellow"],"door_color_assignment":["black","white"],"door_generator_assignment":[0,1],"goal":2,"start":0,"action_noise":0.2,"location_history":"[0,1,3,4,0,5,4,0,5,4,0,1,3,2]","action_history":"[0,0,0,0,0,0,0,0,0,0,0,0,0]","door_history":"[0,0,0,0,0,0,0,0,0,0,0,0,0]","location_rts":"[146,305,194,378,69,3427,347,1041,50,154,79,290,62]","trial_type":"two-door-navigation","trial_index":54,"time_elapsed":859259,"internal_node_id":"0.0-2.0-52.0"},{"group":"hexagon_tri","room_assignment":["grey","blue","purple","green","red","yellow"],"door_color_assignment":["black","white"],"door_generator_assignment":[0,1],"goal":1,"start":2,"action_noise":0.2,"location_history":"[2,1]","action_history":"[0]","door_history":"[0]","location_rts":"[167]","trial_type":"two-door-navigation","trial_index":55,"time_elapsed":863952,"internal_node_id":"0.0-2.0-53.0"},{"group":"hexagon_tri","room_assignment":["grey","blue","purple","green","red","yellow"],"door_color_assignment":["black","white"],"door_generator_assignment":[0,1],"goal":2,"start":1,"action_noise":0.2,"location_history":"[1,3,2]","action_history":"[0,0]","door_history":"[0,0]","location_rts":"[376,38839]","trial_type":"two-door-navigation","trial_index":56,"time_elapsed":908707,"internal_node_id":"0.0-2.0-54.0"},{"group":"hexagon_tri","room_assignment":["grey","blue","purple","green","red","yellow"],"door_color_assignment":["black","white"],"door_generator_assignment":[0,1],"goal":5,"start":2,"action_noise":0.2,"location_history":"[2,1,3,4,0,5]","action_history":"[0,0,0,0,0]","door_history":"[0,0,0,0,0]","location_rts":"[7133,1201,85,75,625]","trial_type":"two-door-navigation","trial_index":57,"time_elapsed":926417,"internal_node_id":"0.0-2.0-55.0"},{"group":"hexagon_tri","room_assignment":["grey","blue","purple","green","red","yellow"],"door_color_assignment":["black","white"],"door_generator_assignment":[0,1],"goal":4,"start":5,"action_noise":0.2,"location_history":"[5,4]","action_history":"[0]","door_history":"[0]","location_rts":"[409]","trial_type":"two-door-navigation","trial_index":58,"time_elapsed":931346,"internal_node_id":"0.0-2.0-56.0"},{"group":"hexagon_tri","room_assignment":["grey","blue","purple","green","red","yellow"],"door_color_assignment":["black","white"],"door_generator_assignment":[0,1],"goal":3,"start":4,"action_noise":0.2,"location_history":"[4,0,5,4,0,5,0,5,4,0,1,3]","action_history":"[0,0,0,0,0,0,0,0,0,0,0]","door_history":"[0,0,0,0,0,0,0,0,0,0,0]","location_rts":"[186,37,125,878,949,72,181,205,28,460,64]","trial_type":"two-door-navigation","trial_index":59,"time_elapsed":949241,"internal_node_id":"0.0-2.0-57.0"},{"group":"hexagon_tri","room_assignment":["grey","blue","purple","green","red","yellow"],"door_color_assignment":["black","white"],"door_generator_assignment":[0,1],"goal":0,"start":3,"action_noise":0.2,"location_history":"[3,2,1,3,2,3,2,1,3,2,1,3,2,1,3,2,1,5,0]","action_history":"[0,0,0,0,0,0,0,0,0,0,0,0,0,0,0,0,0,0]","door_history":"[0,0,0,0,0,0,0,0,0,0,0,0,0,0,0,0,0,0]","location_rts":"[138,42,398,113,64,368,205,458,242,195,111,276,396,371,214,145,531,394]","trial_type":"two-door-navigation","trial_index":60,"time_elapsed":975758,"internal_node_id":"0.0-2.0-58.0"},{"group":"hexagon_tri","room_assignment":["grey","blue","purple","green","red","yellow"],"door_color_assignment":["black","white"],"door_generator_assignment":[0,1],"goal":2,"start":0,"action_noise":0.2,"location_history":"[0,5,4,0,5,4,0,5,4,0,5,4,0,5,4,0,5,4,0,1,3,4,0,5,4,0,5,4,0,5,4,0,5,4,0,1,5,4,0,1,3,2]","action_history":"[0,0,0,0,0,0,0,0,0,0,0,0,0,0,0,0,0,0,0,0,0,0,0,0,0,0,0,0,0,0,0,0,0,0,0,0,0,0,0,0,0]","door_history":"[0,0,0,0,0,0,0,0,0,0,0,0,0,0,0,0,0,0,0,0,0,0,0,0,0,0,0,0,0,0,0,0,0,0,0,0,0,0,0,0,0]","location_rts":"[292,326,463,494,428,790,193,289,808,287,337,6,187,312,241,144,2713,276,341,374,173,768,602,1259,122,255,468,532,395,440,472,797,560,583,299,15,117,245,401,397,206]","trial_type":"two-door-navigation","trial_index":61,"time_elapsed":1039417,"internal_node_id":"0.0-2.0-59.0"},{"group":"hexagon_tri","room_assignment":["grey","blue","purple","green","red","yellow"],"door_color_assignment":["black","white"],"door_generator_assignment":[0,1],"goal":1,"start":2,"action_noise":0.2,"location_history":"[2,1]","action_history":"[0]","door_history":"[0]","location_rts":"[557]","trial_type":"two-door-navigation","trial_index":62,"time_elapsed":1044495,"internal_node_id":"0.0-2.0-60.0"},{"group":"hexagon_tri","room_assignment":["grey","blue","purple","green","red","yellow"],"door_color_assignment":["black","white"],"door_generator_assignment":[0,1],"goal":0,"start":1,"action_noise":0.2,"location_history":"[1,3,2,1,3,2,1,3,2,1,3,2,1,3,4,2,1,3,2,1,3,2,1,5,4,0]","action_history":"[0,0,0,0,0,0,0,0,0,0,0,0,0,0,0,0,0,0,0,0,0,0,0,0,0]","door_history":"[0,0,0,0,0,0,0,0,0,0,0,0,0,0,0,0,0,0,0,0,0,0,0,0,0]","location_rts":"[168,1094,623,2,357,65,389,693,452,678,64,287,360,214,369,101,55,143,316,265,257,216,284,83,101]","trial_type":"two-door-navigation","trial_index":63,"time_elapsed":1081099,"internal_node_id":"0.0-2.0-61.0"},{"group":"hexagon_tri","room_assignment":["grey","blue","purple","green","red","yellow"],"door_color_assignment":["black","white"],"door_generator_assignment":[0,1],"goal":3,"start":0,"action_noise":0.2,"location_history":"[0,1,3]","action_history":"[0,0]","door_history":"[0,0]","location_rts":"[228,53]","trial_type":"two-door-navigation","trial_index":64,"time_elapsed":1086921,"internal_node_id":"0.0-2.0-62.0"},{"group":"hexagon_tri","room_assignment":["grey","blue","purple","green","red","yellow"],"door_color_assignment":["black","white"],"door_generator_assignment":[0,1],"goal":5,"start":3,"action_noise":0.2,"location_history":"[3,2,1,5]","action_history":"[0,0,0]","door_history":"[0,0,0]","location_rts":"[392,213,65]","trial_type":"two-door-navigation","trial_index":65,"time_elapsed":1094148,"internal_node_id":"0.0-2.0-63.0"},{"group":"hexagon_tri","room_assignment":["grey","blue","purple","green","red","yellow"],"door_color_assignment":["black","white"],"door_generator_assignment":[0,1],"goal":4,"start":5,"action_noise":0.2,"location_history":"[5,4]","action_history":"[0]","door_history":"[0]","location_rts":"[243]","trial_type":"two-door-navigation","trial_index":66,"time_elapsed":1098917,"internal_node_id":"0.0-2.0-64.0"},{"group":"hexagon_tri","room_assignment":["grey","blue","purple","green","red","yellow"],"door_color_assignment":["black","white"],"door_generator_assignment":[0,1],"goal":1,"start":4,"action_noise":0.2,"location_history":"[4,2,1]","action_history":"[0,0]","door_history":"[0,0]","location_rts":"[388,327]","trial_type":"two-door-navigation","trial_index":67,"time_elapsed":1105176,"internal_node_id":"0.0-2.0-65.0"},{"group":"hexagon_tri","room_assignment":["grey","blue","purple","green","red","yellow"],"door_color_assignment":["black","white"],"door_generator_assignment":[0,1],"goal":5,"start":1,"action_noise":0.2,"location_history":"[1,3,2,1,3,2,1,5]","action_history":"[0,0,0,0,0,0,0]","door_history":"[0,0,0,0,0,0,0]","location_rts":"[443,419,351,107,240,870,662]","trial_type":"two-door-navigation","trial_index":68,"time_elapsed":1118893,"internal_node_id":"0.0-2.0-66.0"},{"group":"hexagon_tri","room_assignment":["grey","blue","purple","green","red","yellow"],"door_color_assignment":["black","white"],"door_generator_assignment":[0,1],"goal":2,"start":5,"action_noise":0.2,"location_history":"[5,0,1,3,4,0,5,4,0,5,4,0,5,0,5,4,0,5,4,0,1,5,4,0,1,3,2]","action_history":"[0,0,0,0,0,0,0,0,0,0,0,0,0,0,0,0,0,0,0,0,0,0,0,0,0,0]","door_history":"[0,0,0,0,0,0,0,0,0,0,0,0,0,0,0,0,0,0,0,0,0,0,0,0,0,0]","location_rts":"[696,5,135,784,765,176,94,326,306,255,538,267,64,289,40,421,243,248,540,93,134,236,321,1343,305,916]","trial_type":"two-door-navigation","trial_index":69,"time_elapsed":1158427,"internal_node_id":"0.0-2.0-67.0"},{"group":"hexagon_tri","room_assignment":["grey","blue","purple","green","red","yellow"],"door_color_assignment":["black","white"],"door_generator_assignment":[0,1],"goal":3,"start":2,"action_noise":0.2,"location_history":"[2,1,3]","action_history":"[0,0]","door_history":"[0,0]","location_rts":"[889,397]","trial_type":"two-door-navigation","trial_index":70,"time_elapsed":1165252,"internal_node_id":"0.0-2.0-68.0"},{"group":"hexagon_tri","room_assignment":["grey","blue","purple","green","red","yellow"],"door_color_assignment":["black","white"],"door_generator_assignment":[0,1],"goal":4,"start":3,"action_noise":0.2,"location_history":"[3,2,3,2,1,3,2,1,3,2,1,5,4]","action_history":"[0,0,0,0,0,0,0,0,0,0,0,0]","door_history":"[0,0,0,0,0,0,0,0,0,0,0,0]","location_rts":"[222,742,620,431,349,122,42,195,186,588,178,316]","trial_type":"two-door-navigation","trial_index":71,"time_elapsed":1184966,"internal_node_id":"0.0-2.0-69.0"},{"group":"hexagon_tri","room_assignment":["grey","blue","purple","green","red","yellow"],"door_color_assignment":["black","white"],"door_generator_assignment":[0,1],"goal":0,"start":4,"action_noise":0.2,"location_history":"[4,0]","action_history":"[0]","door_history":"[0]","location_rts":"[42]","trial_type":"two-door-navigation","trial_index":72,"time_elapsed":1189533,"internal_node_id":"0.0-2.0-70.0"},{"group":"hexagon_tri","room_assignment":["grey","blue","purple","green","red","yellow"],"door_color_assignment":["black","white"],"door_generator_assignment":[0,1],"goal":5,"start":0,"action_noise":0.2,"location_history":"[0,5]","action_history":"[0]","door_history":"[0]","location_rts":"[177]","trial_type":"two-door-navigation","trial_index":73,"time_elapsed":1194232,"internal_node_id":"0.0-2.0-71.0"},{"group":"hexagon_tri","room_assignment":["grey","blue","purple","green","red","yellow"],"door_color_assignment":["black","white"],"door_generator_assignment":[0,1],"goal":0,"start":5,"action_noise":0.2,"location_history":"[5,4,0]","action_history":"[0,0]","door_history":"[0,0]","location_rts":"[577,371]","trial_type":"two-door-navigation","trial_index":74,"time_elapsed":1200715,"internal_node_id":"0.0-2.0-72.0"},{"group":"hexagon_tri","room_assignment":["grey","blue","purple","green","red","yellow"],"door_color_assignment":["black","white"],"door_generator_assignment":[0,1],"goal":3,"start":0,"action_noise":0.2,"location_history":"[0,5,0,5,4,0,5,4,0,5,4,0,5,4,2,1,3]","action_history":"[0,0,0,0,0,0,0,0,0,0,0,0,0,0,0,0]","door_history":"[0,0,0,0,0,0,0,0,0,0,0,0,0,0,0,0]","location_rts":"[404,92,257,157,286,359,410,307,561,442,82,449,663,1980,226,277]","trial_type":"two-door-navigation","trial_index":75,"time_elapsed":1227464,"internal_node_id":"0.0-2.0-73.0"},{"group":"hexagon_tri","room_assignment":["grey","blue","purple","green","red","yellow"],"door_color_assignment":["black","white"],"door_generator_assignment":[0,1],"goal":1,"start":3,"action_noise":0.2,"location_history":"[3,4,0,5,0,1]","action_history":"[0,0,0,0,0]","door_history":"[0,0,0,0,0]","location_rts":"[55,360,252,993,197]","trial_type":"two-door-navigation","trial_index":76,"time_elapsed":1237912,"internal_node_id":"0.0-2.0-74.0"},{"group":"hexagon_tri","room_assignment":["grey","blue","purple","green","red","yellow"],"door_color_assignment":["black","white"],"door_generator_assignment":[0,1],"goal":2,"start":1,"action_noise":0.2,"location_history":"[1,3,2]","action_history":"[0,0]","door_history":"[0,0]","location_rts":"[19,117]","trial_type":"two-door-navigation","trial_index":77,"time_elapsed":1243581,"internal_node_id":"0.0-2.0-75.0"},{"group":"hexagon_tri","room_assignment":["grey","blue","purple","green","red","yellow"],"door_color_assignment":["black","white"],"door_generator_assignment":[0,1],"goal":4,"start":2,"action_noise":0.2,"location_history":"[2,3,2,3,2,3,2,1,3,2,1,5,4]","action_history":"[0,0,0,0,0,0,0,0,0,0,0,0]","door_history":"[0,0,0,0,0,0,0,0,0,0,0,0]","location_rts":"[375,136,24,295,531,603,780,633,346,2,225,12]","trial_type":"two-door-navigation","trial_index":78,"time_elapsed":1263262,"internal_node_id":"0.0-2.0-76.0"},{"group":"hexagon_tri","room_assignment":["grey","blue","purple","green","red","yellow"],"door_color_assignment":["black","white"],"door_generator_assignment":[0,1],"goal":3,"start":4,"action_noise":0.2,"location_history":"[4,0,5,4,0,1,3]","action_history":"[0,0,0,0,0,0]","door_history":"[0,0,0,0,0,0]","location_rts":"[140,144,57,817,196,144]","trial_type":"two-door-navigation","trial_index":79,"time_elapsed":1274379,"internal_node_id":"0.0-2.0-77.0"},{"group":"hexagon_tri","room_assignment":["grey","blue","purple","green","red","yellow"],"door_color_assignment":["black","white"],"door_generator_assignment":[0,1],"goal":0,"start":3,"action_noise":0.2,"location_history":"[3,4,0]","action_history":"[0,0]","door_history":"[0,0]","location_rts":"[105,214]","trial_type":"two-door-navigation","trial_index":80,"time_elapsed":1280236,"internal_node_id":"0.0-2.0-78.0"},{"group":"hexagon_tri","room_assignment":["grey","blue","purple","green","red","yellow"],"door_color_assignment":["black","white"],"door_generator_assignment":[0,1],"goal":4,"start":0,"action_noise":0.2,"location_history":"[0,1,3,2,1,3,2,1,3,2,1,3,2,1,3,2,1,3,4]","action_history":"[0,0,0,0,0,0,0,0,0,0,0,0,0,0,0,0,0,0]","door_history":"[0,0,0,0,0,0,0,0,0,0,0,0,0,0,0,0,0,0]","location_rts":"[223,37,583,95,228,351,104,122,82,195,335,255,206,260,482,8,307,91]","trial_type":"two-door-navigation","trial_index":81,"time_elapsed":1306059,"internal_node_id":"0.0-2.0-79.0"},{"group":"hexagon_tri","room_assignment":["grey","blue","purple","green","red","yellow"],"door_color_assignment":["black","white"],"door_generator_assignment":[0,1],"goal":5,"start":4,"action_noise":0.2,"location_history":"[4,0,5]","action_history":"[0,0]","door_history":"[0,0]","location_rts":"[472,1417]","trial_type":"two-door-navigation","trial_index":82,"time_elapsed":1313489,"internal_node_id":"0.0-2.0-80.0"},{"group":"hexagon_tri","room_assignment":["grey","blue","purple","green","red","yellow"],"door_color_assignment":["black","white"],"door_generator_assignment":[0,1],"goal":1,"start":5,"action_noise":0.2,"location_history":"[5,4,0,5,4,0,5,4,2,1]","action_history":"[0,0,0,0,0,0,0,0,0]","door_history":"[0,0,0,0,0,0,0,0,0]","location_rts":"[79,1194,112,653,237,279,1099,390,233]","trial_type":"two-door-navigation","trial_index":83,"time_elapsed":1330435,"internal_node_id":"0.0-2.0-81.0"},{"group":"hexagon_tri","room_assignment":["grey","blue","purple","green","red","yellow"],"door_color_assignment":["black","white"],"door_generator_assignment":[0,1],"goal":2,"start":1,"action_noise":0.2,"location_history":"[1,3,2]","action_history":"[0,0]","door_history":"[0,0]","location_rts":"[37,122]","trial_type":"two-door-navigation","trial_index":84,"time_elapsed":1336133,"internal_node_id":"0.0-2.0-82.0"},{"group":"hexagon_tri","room_assignment":["grey","blue","purple","green","red","yellow"],"door_color_assignment":["black","white"],"door_generator_assignment":[0,1],"goal":4,"start":2,"action_noise":0.2,"location_history":"[2,1,3,4]","action_history":"[0,0,0]","door_history":"[0,0,0]","location_rts":"[90,320,248]","trial_type":"two-door-navigation","trial_index":85,"time_elapsed":1343346,"internal_node_id":"0.0-2.0-83.0"},{"group":"hexagon_tri","room_assignment":["grey","blue","purple","green","red","yellow"],"door_color_assignment":["black","white"],"door_generator_assignment":[0,1],"goal":0,"start":4,"action_noise":0.2,"location_history":"[4,0]","action_history":"[0]","door_history":"[0]","location_rts":"[739]","trial_type":"two-door-navigation","trial_index":86,"time_elapsed":1348607,"internal_node_id":"0.0-2.0-84.0"},{"group":"hexagon_tri","room_assignment":["grey","blue","purple","green","red","yellow"],"door_color_assignment":["black","white"],"door_generator_assignment":[0,1],"goal":5,"start":0,"action_noise":0.2,"location_history":"[0,5]","action_history":"[0]","door_history":"[0]","location_rts":"[260]","trial_type":"two-door-navigation","trial_index":87,"time_elapsed":1353392,"internal_node_id":"0.0-2.0-85.0"},{"group":"hexagon_tri","room_assignment":["grey","blue","purple","green","red","yellow"],"door_color_assignment":["black","white"],"door_generator_assignment":[0,1],"goal":3,"start":5,"action_noise":0.2,"location_history":"[5,4,2,1,3]","action_history":"[0,0,0,0]","door_history":"[0,0,0,0]","location_rts":"[400,512,266,185]","trial_type":"two-door-navigation","trial_index":88,"time_elapsed":1362333,"internal_node_id":"0.0-2.0-86.0"},{"group":"hexagon_tri","room_assignment":["grey","blue","purple","green","red","yellow"],"door_color_assignment":["black","white"],"door_generator_assignment":[0,1],"goal":1,"start":3,"action_noise":0.2,"location_history":"[3,2,1]","action_history":"[0,0]","door_history":"[0,0]","location_rts":"[463,126]","trial_type":"two-door-navigation","trial_index":89,"time_elapsed":1368459,"internal_node_id":"0.0-2.0-87.0"},{"group":"hexagon_tri","room_assignment":["grey","blue","purple","green","red","yellow"],"door_color_assignment":["black","white"],"door_generator_assignment":[0,1],"goal":2,"start":1,"action_noise":0.2,"location_history":"[1,3,2]","action_history":"[0,0]","door_history":"[0,0]","location_rts":"[596,1053]","trial_type":"two-door-navigation","trial_index":90,"time_elapsed":1375648,"internal_node_id":"0.0-2.0-88.0"},{"group":"hexagon_tri","room_assignment":["grey","blue","purple","green","red","yellow"],"door_color_assignment":["black","white"],"door_generator_assignment":[0,1],"goal":0,"start":2,"action_noise":0.2,"location_history":"[2,3,4,0]","action_history":"[0,0,0]","door_history":"[0,0,0]","location_rts":"[1076,330,184]","trial_type":"two-door-navigation","trial_index":91,"time_elapsed":1383797,"internal_node_id":"0.0-2.0-89.0"},{"group":"hexagon_tri","room_assignment":["grey","blue","purple","green","red","yellow"],"door_color_assignment":["black","white"],"door_generator_assignment":[0,1],"goal":5,"start":0,"action_noise":0.2,"location_history":"[0,5]","action_history":"[0]","door_history":"[0]","location_rts":"[146]","trial_type":"two-door-navigation","trial_index":92,"time_elapsed":1388465,"internal_node_id":"0.0-2.0-90.0"},{"group":"hexagon_tri","room_assignment":["grey","blue","purple","green","red","yellow"],"door_color_assignment":["black","white"],"door_generator_assignment":[0,1],"goal":1,"start":5,"action_noise":0.2,"location_history":"[5,4,0,5,4,2,1]","action_history":"[0,0,0,0,0,0]","door_history":"[0,0,0,0,0,0]","location_rts":"[557,235,540,19,285,2950]","trial_type":"two-door-navigation","trial_index":93,"time_elapsed":1402668,"internal_node_id":"0.0-2.0-91.0"},{"group":"hexagon_tri","room_assignment":["grey","blue","purple","green","red","yellow"],"door_color_assignment":["black","white"],"door_generator_assignment":[0,1],"goal":3,"start":1,"action_noise":0.2,"location_history":"[1,5,0,5,4,0,5,4,0,1,5,4,0,5,0,1,5,0,5,0,1,5,0,1,5,0,1,5,0,1,3]","action_history":"[0,0,0,0,0,0,0,0,0,0,0,0,0,0,1,1,1,1,1,1,1,1,1,1,1,1,1,1,0,0]","door_history":"[0,0,0,0,0,0,0,0,0,0,0,0,0,0,1,1,1,1,1,1,1,1,1,1,1,1,1,1,0,0]","location_rts":"[240,23,59,39,9,60,82,106,490,74,977,131,318,114,1034,112,215,452,476,120,3,213,90,612,354,10,30,306,1193,348]","trial_type":"two-door-navigation","trial_index":94,"time_elapsed":1445048,"internal_node_id":"0.0-2.0-92.0"},{"group":"hexagon_tri","room_assignment":["grey","blue","purple","green","red","yellow"],"door_color_assignment":["black","white"],"door_generator_assignment":[0,1],"goal":4,"start":3,"action_noise":0.2,"location_history":"[3,4]","action_history":"[0]","door_history":"[0]","location_rts":"[323]","trial_type":"two-door-navigation","trial_index":95,"time_elapsed":1449895,"internal_node_id":"0.0-2.0-93.0"},{"group":"hexagon_tri","room_assignment":["grey","blue","purple","green","red","yellow"],"door_color_assignment":["black","white"],"door_generator_assignment":[0,1],"goal":2,"start":4,"action_noise":0.2,"location_history":"[4,0,5,0,5,0,5,4,0,5,4,0,5,4,2]","action_history":"[0,0,0,0,0,0,0,0,0,0,0,0,0,0]","door_history":"[0,0,0,0,0,0,0,0,0,0,0,0,0,0]","location_rts":"[238,234,103,53,289,186,82,28,164,62,102,240,286,230]","trial_type":"two-door-navigation","trial_index":96,"time_elapsed":1469961,"internal_node_id":"0.0-2.0-94.0"},{"group":"hexagon_tri","room_assignment":["grey","blue","purple","green","red","yellow"],"door_color_assignment":["black","white"],"door_generator_assignment":[0,1],"goal":4,"start":2,"action_noise":0.2,"location_history":"[2,1,3,2,1,3,2,3,2,1,5,4]","action_history":"[0,0,0,0,0,0,0,0,0,0,0]","door_history":"[0,0,0,0,0,0,0,0,0,0,0]","location_rts":"[14,75,380,248,131,641,33,174,152,213,132]","trial_type":"two-door-navigation","trial_index":97,"time_elapsed":1486866,"internal_node_id":"0.0-2.0-95.0"},{"group":"hexagon_tri","room_assignment":["grey","blue","purple","green","red","yellow"],"door_color_assignment":["black","white"],"door_generator_assignment":[0,1],"goal":0,"start":4,"action_noise":0.2,"location_history":"[4,2,1,3,2,1,3,2,1,3,2,1,3,2,3,2,1,3,2,1,3,2,1,5,0]","action_history":"[0,0,0,0,0,0,0,0,0,0,0,0,0,0,0,0,0,0,0,0,0,0,1,1]","door_history":"[0,0,0,0,0,0,0,0,0,0,0,0,0,0,0,0,0,0,0,0,0,0,1,1]","location_rts":"[75,207,103,948,4456,165,1154,308,83,124,295,217,486,225,84,85,248,246,316,13,502,224,322,317]","trial_type":"two-door-navigation","trial_index":98,"time_elapsed":1525998,"internal_node_id":"0.0-2.0-96.0"},{"group":"hexagon_tri","room_assignment":["grey","blue","purple","green","red","yellow"],"door_color_assignment":["black","white"],"door_generator_assignment":[0,1],"goal":5,"start":0,"action_noise":0.2,"location_history":"[0,1,5]","action_history":"[1,1]","door_history":"[1,1]","location_rts":"[559,51]","trial_type":"two-door-navigation","trial_index":99,"time_elapsed":1532147,"internal_node_id":"0.0-2.0-97.0"},{"group":"hexagon_tri","room_assignment":["grey","blue","purple","green","red","yellow"],"door_color_assignment":["black","white"],"door_generator_assignment":[0,1],"goal":1,"start":5,"action_noise":0.2,"location_history":"[5,0,1]","action_history":"[1,1]","door_history":"[1,1]","location_rts":"[223,621]","trial_type":"two-door-navigation","trial_index":100,"time_elapsed":1538533,"internal_node_id":"0.0-2.0-98.0"},{"group":"hexagon_tri","room_assignment":["grey","blue","purple","green","red","yellow"],"door_color_assignment":["black","white"],"door_generator_assignment":[0,1],"goal":3,"start":1,"action_noise":0.2,"location_history":"[1,5,0,1,5,0,5,0,1,3]","action_history":"[1,1,1,1,1,1,1,1,1]","door_history":"[1,1,1,1,1,1,1,1,1]","location_rts":"[578,226,262,617,140,329,1,379,155]","trial_type":"two-door-navigation","trial_index":101,"time_elapsed":1553893,"internal_node_id":"0.0-2.0-99.0"},{"view_history":"[{\"page_index\":0,\"viewing_time\":6210}]","rt":6211,"trial_type":"instructions","trial_index":102,"time_elapsed":1561105,"internal_node_id":"0.0-3.0"},{"view_history":"[{\"page_index\":0,\"viewing_time\":2576},{\"page_index\":1,\"viewing_time\":24223}]","rt":26799,"trial_type":"instructions","trial_index":103,"time_elapsed":1588905,"internal_node_id":"0.0-4.0"},{"group":"hexagon_tri","fractal_assignment":["../images/gry_blk.png","../images/org_blu.png","../images/ylw_slt.png","../images/pnk_blu.png","../images/cyn_red.png","../images/blu_wht.png"],"mutagen_generator_assignment":[0,1],"goal":4,"start":0,"action_noise":0.2,"location_history":"[0,5,0,5,4]","action_history":"[0,1,0,0]","mutagen_history":"[0,1,0,0]","location_rts":"[1937,783,77,105]","trial_type":"fractal-mutation","trial_index":104,"time_elapsed":1599448,"internal_node_id":"0.0-5.0-0.0"},{"group":"hexagon_tri","fractal_assignment":["../images/gry_blk.png","../images/org_blu.png","../images/ylw_slt.png","../images/pnk_blu.png","../images/cyn_red.png","../images/blu_wht.png"],"mutagen_generator_assignment":[0,1],"goal":3,"start":4,"action_noise":0.2,"location_history":"[4,2,3]","action_history":"[1,1]","mutagen_history":"[1,1]","location_rts":"[18,15]","trial_type":"fractal-mutation","trial_index":105,"time_elapsed":1605049,"internal_node_id":"0.0-5.0-1.0"},{"group":"hexagon_tri","fractal_assignment":["../images/gry_blk.png","../images/org_blu.png","../images/ylw_slt.png","../images/pnk_blu.png","../images/cyn_red.png","../images/blu_wht.png"],"mutagen_generator_assignment":[0,1],"goal":5,"start":3,"action_noise":0.2,"location_history":"[3,2,3,2,3,4,2,3,4,2,3,4,0,5]","action_history":"[0,1,0,1,1,1,0,1,1,1,0,1,0]","mutagen_history":"[0,1,0,1,1,1,0,1,1,1,0,1,0]","location_rts":"[1,44,20,5,64,174,155,72,34,5,67,228,253]","trial_type":"fractal-mutation","trial_index":106,"time_elapsed":1623092,"internal_node_id":"0.0-5.0-2.0"},{"group":"hexagon_tri","fractal_assignment":["../images/gry_blk.png","../images/org_blu.png","../images/ylw_slt.png","../images/pnk_blu.png","../images/cyn_red.png","../images/blu_wht.png"],"mutagen_generator_assignment":[0,1],"goal":2,"start":5,"action_noise":0.2,"location_history":"[5,4,0,1,3,4,2]","action_history":"[0,0,1,0,0,1]","mutagen_history":"[0,0,1,0,0,1]","location_rts":"[184,210,99,6777,34,458]","trial_type":"fractal-mutation","trial_index":107,"time_elapsed":1640524,"internal_node_id":"0.0-5.0-3.0"},{"group":"hexagon_tri","fractal_assignment":["../images/gry_blk.png","../images/org_blu.png","../images/ylw_slt.png","../images/pnk_blu.png","../images/cyn_red.png","../images/blu_wht.png"],"mutagen_generator_assignment":[0,1],"goal":1,"start":2,"action_noise":0.2,"location_history":"[2,3,2,3,4,0,1]","action_history":"[1,1,0,1,0,1]","mutagen_history":"[1,1,0,1,0,1]","location_rts":"[39,4,114,74,434,510]","trial_type":"fractal-mutation","trial_index":108,"time_elapsed":1651375,"internal_node_id":"0.0-5.0-4.0"},{"group":"hexagon_tri","fractal_assignment":["../images/gry_blk.png","../images/org_blu.png","../images/ylw_slt.png","../images/pnk_blu.png","../images/cyn_red.png","../images/blu_wht.png"],"mutagen_generator_assignment":[0,1],"goal":4,"start":1,"action_noise":0.2,"location_history":"[1,5,0,5,4]","action_history":"[1,0,1,0]","mutagen_history":"[1,0,1,0]","location_rts":"[215,76,195,135]","trial_type":"fractal-mutation","trial_index":109,"time_elapsed":1659610,"internal_node_id":"0.0-5.0-5.0"},{"group":"hexagon_tri","fractal_assignment":["../images/gry_blk.png","../images/org_blu.png","../images/ylw_slt.png","../images/pnk_blu.png","../images/cyn_red.png","../images/blu_wht.png"],"mutagen_generator_assignment":[0,1],"goal":1,"start":4,"action_noise":0.2,"location_history":"[4,0,1]","action_history":"[0,1]","mutagen_history":"[0,1]","location_rts":"[151935,240]","trial_type":"fractal-mutation","trial_index":110,"time_elapsed":1817342,"internal_node_id":"0.0-5.0-6.0"},{"group":"hexagon_tri","fractal_assignment":["../images/gry_blk.png","../images/org_blu.png","../images/ylw_slt.png","../images/pnk_blu.png","../images/cyn_red.png","../images/blu_wht.png"],"mutagen_generator_assignment":[0,1],"goal":5,"start":1,"action_noise":0.2,"location_history":"[1,5]","action_history":"[1]","mutagen_history":"[1]","location_rts":"[313]","trial_type":"fractal-mutation","trial_index":111,"time_elapsed":1822188,"internal_node_id":"0.0-5.0-7.0"},{"group":"hexagon_tri","fractal_assignment":["../images/gry_blk.png","../images/org_blu.png","../images/ylw_slt.png","../images/pnk_blu.png","../images/cyn_red.png","../images/blu_wht.png"],"mutagen_generator_assignment":[0,1],"goal":0,"start":5,"action_noise":0.2,"location_history":"[5,0]","action_history":"[1]","mutagen_history":"[1]","location_rts":"[161]","trial_type":"fractal-mutation","trial_index":112,"time_elapsed":1826885,"internal_node_id":"0.0-5.0-8.0"},{"group":"hexagon_tri","fractal_assignment":["../images/gry_blk.png","../images/org_blu.png","../images/ylw_slt.png","../images/pnk_blu.png","../images/cyn_red.png","../images/blu_wht.png"],"mutagen_generator_assignment":[0,1],"goal":2,"start":0,"action_noise":0.2,"location_history":"[0,5,0,5,4,2]","action_history":"[0,1,1,0,1]","mutagen_history":"[0,1,1,0,1]","location_rts":"[854,1551,27,297,322]","trial_type":"fractal-mutation","trial_index":113,"time_elapsed":1838585,"internal_node_id":"0.0-5.0-9.0"},{"group":"hexagon_tri","fractal_assignment":["../images/gry_blk.png","../images/org_blu.png","../images/ylw_slt.png","../images/pnk_blu.png","../images/cyn_red.png","../images/blu_wht.png"],"mutagen_generator_assignment":[0,1],"goal":3,"start":2,"action_noise":0.2,"location_history":"[2,3]","action_history":"[1]","mutagen_history":"[1]","location_rts":"[228]","trial_type":"fractal-mutation","trial_index":114,"time_elapsed":1843344,"internal_node_id":"0.0-5.0-10.0"},{"group":"hexagon_tri","fractal_assignment":["../images/gry_blk.png","../images/org_blu.png","../images/ylw_slt.png","../images/pnk_blu.png","../images/cyn_red.png","../images/blu_wht.png"],"mutagen_generator_assignment":[0,1],"goal":0,"start":3,"action_noise":0.2,"location_history":"[3,2,3,2,3,4,0]","action_history":"[0,1,0,1,1,0]","mutagen_history":"[0,1,0,1,1,0]","location_rts":"[30,479,436,404,254,63]","trial_type":"fractal-mutation","trial_index":115,"time_elapsed":1854667,"internal_node_id":"0.0-5.0-11.0"},{"group":"hexagon_tri","fractal_assignment":["../images/gry_blk.png","../images/org_blu.png","../images/ylw_slt.png","../images/pnk_blu.png","../images/cyn_red.png","../images/blu_wht.png"],"mutagen_generator_assignment":[0,1],"goal":2,"start":0,"action_noise":0.2,"location_history":"[0,1,5,4,0,5,0,1,5,4,2]","action_history":"[1,0,0,1,1,0,1,1,0,0]","mutagen_history":"[1,0,0,1,1,0,1,1,0,0]","location_rts":"[267,485,398,334,66,171,321,339,289,70]","trial_type":"fractal-mutation","trial_index":116,"time_elapsed":1871166,"internal_node_id":"0.0-5.0-12.0"},{"group":"hexagon_tri","fractal_assignment":["../images/gry_blk.png","../images/org_blu.png","../images/ylw_slt.png","../images/pnk_blu.png","../images/cyn_red.png","../images/blu_wht.png"],"mutagen_generator_assignment":[0,1],"goal":5,"start":2,"action_noise":0.2,"location_history":"[2,3,2,3,4,2,3,4,0,5]","action_history":"[1,0,1,1,1,1,0,0,0]","mutagen_history":"[1,0,1,1,1,1,0,0,0]","location_rts":"[225,327,222,59,1171,24,152,1027,789]","trial_type":"fractal-mutation","trial_index":117,"time_elapsed":1887908,"internal_node_id":"0.0-5.0-13.0"},{"group":"hexagon_tri","fractal_assignment":["../images/gry_blk.png","../images/org_blu.png","../images/ylw_slt.png","../images/pnk_blu.png","../images/cyn_red.png","../images/blu_wht.png"],"mutagen_generator_assignment":[0,1],"goal":4,"start":5,"action_noise":0.2,"location_history":"[5,4]","action_history":"[0]","mutagen_history":"[0]","location_rts":"[152]","trial_type":"fractal-mutation","trial_index":118,"time_elapsed":1892589,"internal_node_id":"0.0-5.0-14.0"},{"group":"hexagon_tri","fractal_assignment":["../images/gry_blk.png","../images/org_blu.png","../images/ylw_slt.png","../images/pnk_blu.png","../images/cyn_red.png","../images/blu_wht.png"],"mutagen_generator_assignment":[0,1],"goal":3,"start":4,"action_noise":0.2,"location_history":"[4,2,1,3]","action_history":"[0,0,0]","mutagen_history":"[0,0,0]","location_rts":"[40,690,33]","trial_type":"fractal-mutation","trial_index":119,"time_elapsed":1899931,"internal_node_id":"0.0-5.0-15.0"},{"group":"hexagon_tri","fractal_assignment":["../images/gry_blk.png","../images/org_blu.png","../images/ylw_slt.png","../images/pnk_blu.png","../images/cyn_red.png","../images/blu_wht.png"],"mutagen_generator_assignment":[0,1],"goal":1,"start":3,"action_noise":0.2,"location_history":"[3,4,0,1]","action_history":"[1,1,1]","mutagen_history":"[1,1,1]","location_rts":"[30,59,353]","trial_type":"fractal-mutation","trial_index":120,"time_elapsed":1906961,"internal_node_id":"0.0-5.0-16.0"},{"group":"hexagon_tri","fractal_assignment":["../images/gry_blk.png","../images/org_blu.png","../images/ylw_slt.png","../images/pnk_blu.png","../images/cyn_red.png","../images/blu_wht.png"],"mutagen_generator_assignment":[0,1],"goal":5,"start":1,"action_noise":0.2,"location_history":"[1,5]","action_history":"[1]","mutagen_history":"[1]","location_rts":"[109]","trial_type":"fractal-mutation","trial_index":121,"time_elapsed":1911602,"internal_node_id":"0.0-5.0-17.0"},{"group":"hexagon_tri","fractal_assignment":["../images/gry_blk.png","../images/org_blu.png","../images/ylw_slt.png","../images/pnk_blu.png","../images/cyn_red.png","../images/blu_wht.png"],"mutagen_generator_assignment":[0,1],"goal":4,"start":5,"action_noise":0.2,"location_history":"[5,0,5,4]","action_history":"[1,1,0]","mutagen_history":"[1,1,0]","location_rts":"[133,440,126]","trial_type":"fractal-mutation","trial_index":122,"time_elapsed":1918890,"internal_node_id":"0.0-5.0-18.0"},{"group":"hexagon_tri","fractal_assignment":["../images/gry_blk.png","../images/org_blu.png","../images/ylw_slt.png","../images/pnk_blu.png","../images/cyn_red.png","../images/blu_wht.png"],"mutagen_generator_assignment":[0,1],"goal":0,"start":4,"action_noise":0.2,"location_history":"[4,0]","action_history":"[0]","mutagen_history":"[0]","location_rts":"[2]","trial_type":"fractal-mutation","trial_index":123,"time_elapsed":1923422,"internal_node_id":"0.0-5.0-19.0"},{"group":"hexagon_tri","fractal_assignment":["../images/gry_blk.png","../images/org_blu.png","../images/ylw_slt.png","../images/pnk_blu.png","../images/cyn_red.png","../images/blu_wht.png"],"mutagen_generator_assignment":[0,1],"goal":1,"start":0,"action_noise":0.2,"location_history":"[0,1]","action_history":"[0]","mutagen_history":"[0]","location_rts":"[222]","trial_type":"fractal-mutation","trial_index":124,"time_elapsed":1928171,"internal_node_id":"0.0-5.0-20.0"},{"group":"hexagon_tri","fractal_assignment":["../images/gry_blk.png","../images/org_blu.png","../images/ylw_slt.png","../images/pnk_blu.png","../images/cyn_red.png","../images/blu_wht.png"],"mutagen_generator_assignment":[0,1],"goal":3,"start":1,"action_noise":0.2,"location_history":"[1,3]","action_history":"[0]","mutagen_history":"[0]","location_rts":"[193]","trial_type":"fractal-mutation","trial_index":125,"time_elapsed":1932895,"internal_node_id":"0.0-5.0-21.0"},{"group":"hexagon_tri","fractal_assignment":["../images/gry_blk.png","../images/org_blu.png","../images/ylw_slt.png","../images/pnk_blu.png","../images/cyn_red.png","../images/blu_wht.png"],"mutagen_generator_assignment":[0,1],"goal":2,"start":3,"action_noise":0.2,"location_history":"[3,4,0,5,0,1,5,0,5,0,1,5,4,0,1,5,4,0,5,0,1,5,4,0,5,0,1,3,4,0,5,0,1,3,4,0,5,4,2]","action_history":"[1,1,0,1,0,1,1,0,1,1,1,0,0,1,1,0,0,0,1,1,1,0,0,0,0,0,0,1,0,0,1,1,1,1,0,1,0,1]","mutagen_history":"[1,1,0,1,0,1,1,0,1,1,1,0,0,1,1,0,0,0,1,1,1,0,0,0,0,0,0,1,0,0,1,1,1,1,0,1,0,1]","location_rts":"[29,571,215,276,310,532,149,714,545,741,152,648,214,93,333,503,249,233,80,934,850,206,4198,287,1293,66,186,50,239,147,102,457,143,806,191,386,214,224]","trial_type":"fractal-mutation","trial_index":126,"time_elapsed":1992968,"internal_node_id":"0.0-5.0-22.0"},{"group":"hexagon_tri","fractal_assignment":["../images/gry_blk.png","../images/org_blu.png","../images/ylw_slt.png","../images/pnk_blu.png","../images/cyn_red.png","../images/blu_wht.png"],"mutagen_generator_assignment":[0,1],"goal":0,"start":2,"action_noise":0.2,"location_history":"[2,1,5,0]","action_history":"[0,1,1]","mutagen_history":"[0,1,1]","location_rts":"[377,293,23]","trial_type":"fractal-mutation","trial_index":127,"time_elapsed":2000248,"internal_node_id":"0.0-5.0-23.0"},{"group":"hexagon_tri","fractal_assignment":["../images/gry_blk.png","../images/org_blu.png","../images/ylw_slt.png","../images/pnk_blu.png","../images/cyn_red.png","../images/blu_wht.png"],"mutagen_generator_assignment":[0,1],"goal":3,"start":0,"action_noise":0.2,"location_history":"[0,1,5,4,2,1,3]","action_history":"[1,1,0,0,0,0]","mutagen_history":"[1,1,0,0,0,0]","location_rts":"[185,38,3,514,421,2167]","trial_type":"fractal-mutation","trial_index":128,"time_elapsed":2013241,"internal_node_id":"0.0-5.0-24.0"},{"group":"hexagon_tri","fractal_assignment":["../images/gry_blk.png","../images/org_blu.png","../images/ylw_slt.png","../images/pnk_blu.png","../images/cyn_red.png","../images/blu_wht.png"],"mutagen_generator_assignment":[0,1],"goal":1,"start":3,"action_noise":0.2,"location_history":"[3,2,1]","action_history":"[0,0]","mutagen_history":"[0,0]","location_rts":"[2102,67]","trial_type":"fractal-mutation","trial_index":129,"time_elapsed":2020965,"internal_node_id":"0.0-5.0-25.0"},{"group":"hexagon_tri","fractal_assignment":["../images/gry_blk.png","../images/org_blu.png","../images/ylw_slt.png","../images/pnk_blu.png","../images/cyn_red.png","../images/blu_wht.png"],"mutagen_generator_assignment":[0,1],"goal":2,"start":1,"action_noise":0.2,"location_history":"[1,3,4,0,1,3,2]","action_history":"[0,0,0,0,0,0]","mutagen_history":"[0,0,0,0,0,0]","location_rts":"[269,2050,99,324,191,324]","trial_type":"fractal-mutation","trial_index":130,"time_elapsed":2033874,"internal_node_id":"0.0-5.0-26.0"},{"group":"hexagon_tri","fractal_assignment":["../images/gry_blk.png","../images/org_blu.png","../images/ylw_slt.png","../images/pnk_blu.png","../images/cyn_red.png","../images/blu_wht.png"],"mutagen_generator_assignment":[0,1],"goal":5,"start":2,"action_noise":0.2,"location_history":"[2,3,4,2,3,2,3,2,3,4,2,1,3,4,0,1,3,4,0,5]","action_history":"[1,1,1,1,0,0,0,1,1,1,0,0,1,1,1,0,0,0,0]","mutagen_history":"[1,1,1,1,0,0,0,1,1,1,0,0,1,1,1,0,0,0,0]","location_rts":"[93,94,90,155,42,1017,216,96,226,120,424,183,476,167,175,118,155,82,250]","trial_type":"fractal-mutation","trial_index":131,"time_elapsed":2061080,"internal_node_id":"0.0-5.0-27.0"},{"group":"hexagon_tri","fractal_assignment":["../images/gry_blk.png","../images/org_blu.png","../images/ylw_slt.png","../images/pnk_blu.png","../images/cyn_red.png","../images/blu_wht.png"],"mutagen_generator_assignment":[0,1],"goal":4,"start":5,"action_noise":0.2,"location_history":"[5,4]","action_history":"[0]","mutagen_history":"[0]","location_rts":"[103]","trial_type":"fractal-mutation","trial_index":132,"time_elapsed":2065713,"internal_node_id":"0.0-5.0-28.0"},{"group":"hexagon_tri","fractal_assignment":["../images/gry_blk.png","../images/org_blu.png","../images/ylw_slt.png","../images/pnk_blu.png","../images/cyn_red.png","../images/blu_wht.png"],"mutagen_generator_assignment":[0,1],"goal":5,"start":4,"action_noise":0.2,"location_history":"[4,0,5]","action_history":"[0,1]","mutagen_history":"[0,1]","location_rts":"[289,141]","trial_type":"fractal-mutation","trial_index":133,"time_elapsed":2071694,"internal_node_id":"0.0-5.0-29.0"},{"group":"hexagon_tri","fractal_assignment":["../images/gry_blk.png","../images/org_blu.png","../images/ylw_slt.png","../images/pnk_blu.png","../images/cyn_red.png","../images/blu_wht.png"],"mutagen_generator_assignment":[0,1],"goal":3,"start":5,"action_noise":0.2,"location_history":"[5,0,1,3]","action_history":"[1,1,0]","mutagen_history":"[1,1,0]","location_rts":"[112,392,382]","trial_type":"fractal-mutation","trial_index":134,"time_elapsed":2079159,"internal_node_id":"0.0-5.0-30.0"},{"group":"hexagon_tri","fractal_assignment":["../images/gry_blk.png","../images/org_blu.png","../images/ylw_slt.png","../images/pnk_blu.png","../images/cyn_red.png","../images/blu_wht.png"],"mutagen_generator_assignment":[0,1],"goal":0,"start":3,"action_noise":0.2,"location_history":"[3,2,1,5,0]","action_history":"[0,1,0,1]","mutagen_history":"[0,1,0,1]","location_rts":"[44,128,267,200]","trial_type":"fractal-mutation","trial_index":135,"time_elapsed":2087412,"internal_node_id":"0.0-5.0-31.0"},{"group":"hexagon_tri","fractal_assignment":["../images/gry_blk.png","../images/org_blu.png","../images/ylw_slt.png","../images/pnk_blu.png","../images/cyn_red.png","../images/blu_wht.png"],"mutagen_generator_assignment":[0,1],"goal":4,"start":0,"action_noise":0.2,"location_history":"[0,5,0,5,0,1,5,0,5,4]","action_history":"[0,1,0,1,1,1,1,0,0]","mutagen_history":"[0,1,0,1,1,1,1,0,0]","location_rts":"[488,244,317,421,284,290,333,390,447]","trial_type":"fractal-mutation","trial_index":136,"time_elapsed":2103395,"internal_node_id":"0.0-5.0-32.0"},{"group":"hexagon_tri","fractal_assignment":["../images/gry_blk.png","../images/org_blu.png","../images/ylw_slt.png","../images/pnk_blu.png","../images/cyn_red.png","../images/blu_wht.png"],"mutagen_generator_assignment":[0,1],"goal":1,"start":4,"action_noise":0.2,"location_history":"[4,0,5,4,2,1]","action_history":"[0,0,0,1,0]","mutagen_history":"[0,0,0,1,0]","location_rts":"[1412,107,360,366,319]","trial_type":"fractal-mutation","trial_index":137,"time_elapsed":2114586,"internal_node_id":"0.0-5.0-33.0"},{"group":"hexagon_tri","fractal_assignment":["../images/gry_blk.png","../images/org_blu.png","../images/ylw_slt.png","../images/pnk_blu.png","../images/cyn_red.png","../images/blu_wht.png"],"mutagen_generator_assignment":[0,1],"goal":2,"start":1,"action_noise":0.2,"location_history":"[1,3,4,0,5,0,1,3,2]","action_history":"[0,1,0,0,1,1,1,0]","mutagen_history":"[0,1,0,0,1,1,1,0]","location_rts":"[147,26,149,30,555,217,62,176]","trial_type":"fractal-mutation","trial_index":138,"time_elapsed":2127669,"internal_node_id":"0.0-5.0-34.0"},{"group":"hexagon_tri","fractal_assignment":["../images/gry_blk.png","../images/org_blu.png","../images/ylw_slt.png","../images/pnk_blu.png","../images/cyn_red.png","../images/blu_wht.png"],"mutagen_generator_assignment":[0,1],"goal":0,"start":2,"action_noise":0.2,"location_history":"[2,1,5,4,0]","action_history":"[0,1,0,0]","mutagen_history":"[0,1,0,0]","location_rts":"[328,18,1280,305]","trial_type":"fractal-mutation","trial_index":139,"time_elapsed":2137208,"internal_node_id":"0.0-5.0-35.0"},{"group":"hexagon_tri","fractal_assignment":["../images/gry_blk.png","../images/org_blu.png","../images/ylw_slt.png","../images/pnk_blu.png","../images/cyn_red.png","../images/blu_wht.png"],"mutagen_generator_assignment":[0,1],"goal":5,"start":0,"action_noise":0.2,"location_history":"[0,1,5]","action_history":"[0,1]","mutagen_history":"[0,1]","location_rts":"[300,105]","trial_type":"fractal-mutation","trial_index":140,"time_elapsed":2143172,"internal_node_id":"0.0-5.0-36.0"},{"group":"hexagon_tri","fractal_assignment":["../images/gry_blk.png","../images/org_blu.png","../images/ylw_slt.png","../images/pnk_blu.png","../images/cyn_red.png","../images/blu_wht.png"],"mutagen_generator_assignment":[0,1],"goal":2,"start":5,"action_noise":0.2,"location_history":"[5,0,1,3,2]","action_history":"[1,1,1,0]","mutagen_history":"[1,1,1,0]","location_rts":"[379,201,463,502]","trial_type":"fractal-mutation","trial_index":141,"time_elapsed":2152339,"internal_node_id":"0.0-5.0-37.0"},{"group":"hexagon_tri","fractal_assignment":["../images/gry_blk.png","../images/org_blu.png","../images/ylw_slt.png","../images/pnk_blu.png","../images/cyn_red.png","../images/blu_wht.png"],"mutagen_generator_assignment":[0,1],"goal":1,"start":2,"action_noise":0.2,"location_history":"[2,3,2,1]","action_history":"[1,0,1]","mutagen_history":"[1,0,1]","location_rts":"[165,421,21]","trial_type":"fractal-mutation","trial_index":142,"time_elapsed":2159533,"internal_node_id":"0.0-5.0-38.0"},{"group":"hexagon_tri","fractal_assignment":["../images/gry_blk.png","../images/org_blu.png","../images/ylw_slt.png","../images/pnk_blu.png","../images/cyn_red.png","../images/blu_wht.png"],"mutagen_generator_assignment":[0,1],"goal":4,"start":1,"action_noise":0.2,"location_history":"[1,3,4]","action_history":"[0,1]","mutagen_history":"[0,1]","location_rts":"[400,198]","trial_type":"fractal-mutation","trial_index":143,"time_elapsed":2165691,"internal_node_id":"0.0-5.0-39.0"},{"group":"hexagon_tri","fractal_assignment":["../images/gry_blk.png","../images/org_blu.png","../images/ylw_slt.png","../images/pnk_blu.png","../images/cyn_red.png","../images/blu_wht.png"],"mutagen_generator_assignment":[0,1],"goal":3,"start":4,"action_noise":0.2,"location_history":"[4,0,1,5,4,2,3]","action_history":"[0,1,0,0,0,1]","mutagen_history":"[0,1,0,0,0,1]","location_rts":"[252,41,131,235,285,26]","trial_type":"fractal-mutation","trial_index":144,"time_elapsed":2176324,"internal_node_id":"0.0-5.0-40.0"},{"group":"hexagon_tri","fractal_assignment":["../images/gry_blk.png","../images/org_blu.png","../images/ylw_slt.png","../images/pnk_blu.png","../images/cyn_red.png","../images/blu_wht.png"],"mutagen_generator_assignment":[0,1],"goal":5,"start":3,"action_noise":0.2,"location_history":"[3,2,1,5]","action_history":"[0,0,1]","mutagen_history":"[0,0,1]","location_rts":"[39,152,294]","trial_type":"fractal-mutation","trial_index":145,"time_elapsed":2183393,"internal_node_id":"0.0-5.0-41.0"},{"group":"hexagon_tri","fractal_assignment":["../images/gry_blk.png","../images/org_blu.png","../images/ylw_slt.png","../images/pnk_blu.png","../images/cyn_red.png","../images/blu_wht.png"],"mutagen_generator_assignment":[0,1],"goal":3,"start":5,"action_noise":0.2,"location_history":"[5,4,0,1,3]","action_history":"[0,1,1,0]","mutagen_history":"[0,1,1,0]","location_rts":"[182,13,199,283]","trial_type":"fractal-mutation","trial_index":146,"time_elapsed":2191679,"internal_node_id":"0.0-5.0-42.0"},{"group":"hexagon_tri","fractal_assignment":["../images/gry_blk.png","../images/org_blu.png","../images/ylw_slt.png","../images/pnk_blu.png","../images/cyn_red.png","../images/blu_wht.png"],"mutagen_generator_assignment":[0,1],"goal":0,"start":3,"action_noise":0.2,"location_history":"[3,2,3,2,3,4,2,1,3,2,3,2,3,2,3,2,1,3,4,2,3,2,1,3,2,1,3,2,1,3,4,2,3,4,2,1,3,4,2,3,4,2,3,2,3,2,3,2,1,3,4,2,3,2,3,2,3,2,3,4,0]","action_history":"[0,1,0,0,1,1,0,0,0,0,0,1,1,1,0,0,0,1,1,1,0,0,0,0,0,0,0,0,0,1,1,1,0,0,0,1,1,1,1,1,1,1,1,1,0,1,0,0,0,1,1,1,0,1,0,1,0,1,0,0]","mutagen_history":"[0,1,0,0,1,1,0,0,0,0,0,1,1,1,0,0,0,1,1,1,0,0,0,0,0,0,0,0,0,1,1,1,0,0,0,1,1,1,1,1,1,1,1,1,0,1,0,0,0,1,1,1,0,1,0,1,0,1,0,0]","location_rts":"[66,198,17,340,190,191,114,169,205,168,233,234,221,61,2,194,1182,340,82,133,235,360,293,180,277,175,417,224,287,3,12,195,5,28,131,61,201,98,23,536,201,88,13,60,178,113,1423,300,92,95,296,303,341,243,241,100,194,213,273,379]","trial_type":"fractal-mutation","trial_index":147,"time_elapsed":2270041,"internal_node_id":"0.0-5.0-43.0"},{"group":"hexagon_tri","fractal_assignment":["../images/gry_blk.png","../images/org_blu.png","../images/ylw_slt.png","../images/pnk_blu.png","../images/cyn_red.png","../images/blu_wht.png"],"mutagen_generator_assignment":[0,1],"goal":2,"start":0,"action_noise":0.2,"location_history":"[0,5,0,1,5,0,1,5,0,1,5,0,1,5,0,1,5,4,2]","action_history":"[1,1,1,1,1,1,1,1,1,1,1,1,1,1,1,1,1,0]","mutagen_history":"[1,1,1,1,1,1,1,1,1,1,1,1,1,1,1,1,1,0]","location_rts":"[15,21,146,791,15,215,215,180,629,101,282,469,196,217,65,175,13,56]","trial_type":"fractal-mutation","trial_index":148,"time_elapsed":2295854,"internal_node_id":"0.0-5.0-44.0"},{"group":"hexagon_tri","fractal_assignment":["../images/gry_blk.png","../images/org_blu.png","../images/ylw_slt.png","../images/pnk_blu.png","../images/cyn_red.png","../images/blu_wht.png"],"mutagen_generator_assignment":[0,1],"goal":4,"start":2,"action_noise":0.2,"location_history":"[2,3,4]","action_history":"[1,1]","mutagen_history":"[1,1]","location_rts":"[553,159]","trial_type":"fractal-mutation","trial_index":149,"time_elapsed":2302126,"internal_node_id":"0.0-5.0-45.0"},{"group":"hexagon_tri","fractal_assignment":["../images/gry_blk.png","../images/org_blu.png","../images/ylw_slt.png","../images/pnk_blu.png","../images/cyn_red.png","../images/blu_wht.png"],"mutagen_generator_assignment":[0,1],"goal":1,"start":4,"action_noise":0.2,"location_history":"[4,0,5,4,0,5,0,5,4,0,1]","action_history":"[0,0,0,0,0,1,0,1,0,0]","mutagen_history":"[0,0,0,0,0,1,0,1,0,0]","location_rts":"[289,168,397,64,162,73,371,169,405,56]","trial_type":"fractal-mutation","trial_index":150,"time_elapsed":2318031,"internal_node_id":"0.0-5.0-46.0"},{"group":"hexagon_tri","fractal_assignment":["../images/gry_blk.png","../images/org_blu.png","../images/ylw_slt.png","../images/pnk_blu.png","../images/cyn_red.png","../images/blu_wht.png"],"mutagen_generator_assignment":[0,1],"goal":4,"start":1,"action_noise":0.2,"location_history":"[1,3,2,1,3,4]","action_history":"[0,0,0,0,0]","mutagen_history":"[0,0,0,0,0]","location_rts":"[227,84,175,152,320]","trial_type":"fractal-mutation","trial_index":151,"time_elapsed":2327617,"internal_node_id":"0.0-5.0-47.0"},{"group":"hexagon_tri","fractal_assignment":["../images/gry_blk.png","../images/org_blu.png","../images/ylw_slt.png","../images/pnk_blu.png","../images/cyn_red.png","../images/blu_wht.png"],"mutagen_generator_assignment":[0,1],"goal":1,"start":4,"action_noise":0.2,"location_history":"[4,0,1]","action_history":"[0,1]","mutagen_history":"[0,1]","location_rts":"[7,70]","trial_type":"fractal-mutation","trial_index":152,"time_elapsed":2333256,"internal_node_id":"0.0-5.0-48.0"},{"group":"hexagon_tri","fractal_assignment":["../images/gry_blk.png","../images/org_blu.png","../images/ylw_slt.png","../images/pnk_blu.png","../images/cyn_red.png","../images/blu_wht.png"],"mutagen_generator_assignment":[0,1],"goal":3,"start":1,"action_noise":0.2,"location_history":"[1,3]","action_history":"[0]","mutagen_history":"[0]","location_rts":"[921]","trial_type":"fractal-mutation","trial_index":153,"time_elapsed":2338707,"internal_node_id":"0.0-5.0-49.0"},{"group":"hexagon_tri","fractal_assignment":["../images/gry_blk.png","../images/org_blu.png","../images/ylw_slt.png","../images/pnk_blu.png","../images/cyn_red.png","../images/blu_wht.png"],"mutagen_generator_assignment":[0,1],"goal":5,"start":3,"action_noise":0.2,"location_history":"[3,2,1,5]","action_history":"[0,0,1]","mutagen_history":"[0,0,1]","location_rts":"[122,423,38]","trial_type":"fractal-mutation","trial_index":154,"time_elapsed":2345876,"internal_node_id":"0.0-5.0-50.0"},{"group":"hexagon_tri","fractal_assignment":["../images/gry_blk.png","../images/org_blu.png","../images/ylw_slt.png","../images/pnk_blu.png","../images/cyn_red.png","../images/blu_wht.png"],"mutagen_generator_assignment":[0,1],"goal":0,"start":5,"action_noise":0.2,"location_history":"[5,0]","action_history":"[1]","mutagen_history":"[1]","location_rts":"[342]","trial_type":"fractal-mutation","trial_index":155,"time_elapsed":2350754,"internal_node_id":"0.0-5.0-51.0"},{"group":"hexagon_tri","fractal_assignment":["../images/gry_blk.png","../images/org_blu.png","../images/ylw_slt.png","../images/pnk_blu.png","../images/cyn_red.png","../images/blu_wht.png"],"mutagen_generator_assignment":[0,1],"goal":2,"start":0,"action_noise":0.2,"location_history":"[0,1,3,2]","action_history":"[1,0,0]","mutagen_history":"[1,0,0]","location_rts":"[136,6,255]","trial_type":"fractal-mutation","trial_index":156,"time_elapsed":2357745,"internal_node_id":"0.0-5.0-52.0"},{"group":"hexagon_tri","fractal_assignment":["../images/gry_blk.png","../images/org_blu.png","../images/ylw_slt.png","../images/pnk_blu.png","../images/cyn_red.png","../images/blu_wht.png"],"mutagen_generator_assignment":[0,1],"goal":1,"start":2,"action_noise":0.2,"location_history":"[2,1]","action_history":"[0]","mutagen_history":"[0]","location_rts":"[104]","trial_type":"fractal-mutation","trial_index":157,"time_elapsed":2362377,"internal_node_id":"0.0-5.0-53.0"},{"group":"hexagon_tri","fractal_assignment":["../images/gry_blk.png","../images/org_blu.png","../images/ylw_slt.png","../images/pnk_blu.png","../images/cyn_red.png","../images/blu_wht.png"],"mutagen_generator_assignment":[0,1],"goal":2,"start":1,"action_noise":0.2,"location_history":"[1,3,2]","action_history":"[0,0]","mutagen_history":"[0,0]","location_rts":"[26,153]","trial_type":"fractal-mutation","trial_index":158,"time_elapsed":2368114,"internal_node_id":"0.0-5.0-54.0"},{"group":"hexagon_tri","fractal_assignment":["../images/gry_blk.png","../images/org_blu.png","../images/ylw_slt.png","../images/pnk_blu.png","../images/cyn_red.png","../images/blu_wht.png"],"mutagen_generator_assignment":[0,1],"goal":5,"start":2,"action_noise":0.2,"location_history":"[2,1,5]","action_history":"[0,1]","mutagen_history":"[0,1]","location_rts":"[238,107]","trial_type":"fractal-mutation","trial_index":159,"time_elapsed":2374012,"internal_node_id":"0.0-5.0-55.0"},{"group":"hexagon_tri","fractal_assignment":["../images/gry_blk.png","../images/org_blu.png","../images/ylw_slt.png","../images/pnk_blu.png","../images/cyn_red.png","../images/blu_wht.png"],"mutagen_generator_assignment":[0,1],"goal":4,"start":5,"action_noise":0.2,"location_history":"[5,0,5,4]","action_history":"[0,1,0]","mutagen_history":"[0,1,0]","location_rts":"[21,244,27]","trial_type":"fractal-mutation","trial_index":160,"time_elapsed":2380889,"internal_node_id":"0.0-5.0-56.0"},{"group":"hexagon_tri","fractal_assignment":["../images/gry_blk.png","../images/org_blu.png","../images/ylw_slt.png","../images/pnk_blu.png","../images/cyn_red.png","../images/blu_wht.png"],"mutagen_generator_assignment":[0,1],"goal":3,"start":4,"action_noise":0.2,"location_history":"[4,2,3]","action_history":"[1,1]","mutagen_history":"[1,1]","location_rts":"[165,395]","trial_type":"fractal-mutation","trial_index":161,"time_elapsed":2387007,"internal_node_id":"0.0-5.0-57.0"},{"group":"hexagon_tri","fractal_assignment":["../images/gry_blk.png","../images/org_blu.png","../images/ylw_slt.png","../images/pnk_blu.png","../images/cyn_red.png","../images/blu_wht.png"],"mutagen_generator_assignment":[0,1],"goal":0,"start":3,"action_noise":0.2,"location_history":"[3,2,3,2,3,2,1,5,0]","action_history":"[0,1,0,1,0,0,1,1]","mutagen_history":"[0,1,0,1,0,0,1,1]","location_rts":"[210,168,4,31,66,152,193,20]","trial_type":"fractal-mutation","trial_index":162,"time_elapsed":2399575,"internal_node_id":"0.0-5.0-58.0"},{"group":"hexagon_tri","fractal_assignment":["../images/gry_blk.png","../images/org_blu.png","../images/ylw_slt.png","../images/pnk_blu.png","../images/cyn_red.png","../images/blu_wht.png"],"mutagen_generator_assignment":[0,1],"goal":2,"start":0,"action_noise":0.2,"location_history":"[0,5,4,0,1,3,2]","action_history":"[0,0,0,1,1,1]","mutagen_history":"[0,0,0,1,1,1]","location_rts":"[17,117,9,32,152,99]","trial_type":"fractal-mutation","trial_index":163,"time_elapsed":2409666,"internal_node_id":"0.0-5.0-59.0"},{"group":"hexagon_tri","fractal_assignment":["../images/gry_blk.png","../images/org_blu.png","../images/ylw_slt.png","../images/pnk_blu.png","../images/cyn_red.png","../images/blu_wht.png"],"mutagen_generator_assignment":[0,1],"goal":1,"start":2,"action_noise":0.2,"location_history":"[2,3,2,3,2,3,2,3,4,0,1]","action_history":"[1,0,0,0,0,0,1,1,1,1]","mutagen_history":"[1,0,0,0,0,0,1,1,1,1]","location_rts":"[43,84,434,54,249,198,27,135,290,291]","trial_type":"fractal-mutation","trial_index":164,"time_elapsed":2425237,"internal_node_id":"0.0-5.0-60.0"},{"group":"hexagon_tri","fractal_assignment":["../images/gry_blk.png","../images/org_blu.png","../images/ylw_slt.png","../images/pnk_blu.png","../images/cyn_red.png","../images/blu_wht.png"],"mutagen_generator_assignment":[0,1],"goal":0,"start":1,"action_noise":0.2,"location_history":"[1,3,4,2,3,2,1,5,4,2,1,3,2,3,2,1,5,4,2,1,5,4,2,1,3,4,2,1,5,0]","action_history":"[0,1,1,1,0,0,1,0,1,0,1,0,0,0,0,0,0,1,0,1,0,1,0,0,0,1,0,0,1]","mutagen_history":"[0,1,1,1,0,0,1,0,1,0,1,0,0,0,0,0,0,1,0,1,0,1,0,0,0,1,0,0,1]","location_rts":"[51,278,154,310,194,116,45,39,57,138,42,788,237,766,216,246,502,62,21,152,49,302,62,206,302,74,200,315,143]","trial_type":"fractal-mutation","trial_index":165,"time_elapsed":2464698,"internal_node_id":"0.0-5.0-61.0"},{"group":"hexagon_tri","fractal_assignment":["../images/gry_blk.png","../images/org_blu.png","../images/ylw_slt.png","../images/pnk_blu.png","../images/cyn_red.png","../images/blu_wht.png"],"mutagen_generator_assignment":[0,1],"goal":3,"start":0,"action_noise":0.2,"location_history":"[0,5,4,0,1,5,4,2,3]","action_history":"[0,0,1,0,1,0,1,1]","mutagen_history":"[0,0,1,0,1,0,1,1]","location_rts":"[959,204,163,620,216,123,27,234]","trial_type":"fractal-mutation","trial_index":166,"time_elapsed":2479009,"internal_node_id":"0.0-5.0-62.0"},{"group":"hexagon_tri","fractal_assignment":["../images/gry_blk.png","../images/org_blu.png","../images/ylw_slt.png","../images/pnk_blu.png","../images/cyn_red.png","../images/blu_wht.png"],"mutagen_generator_assignment":[0,1],"goal":5,"start":3,"action_noise":0.2,"location_history":"[3,4,2,1,5]","action_history":"[1,1,0,1]","mutagen_history":"[1,1,0,1]","location_rts":"[138,299,41,63]","trial_type":"fractal-mutation","trial_index":167,"time_elapsed":2487189,"internal_node_id":"0.0-5.0-63.0"},{"group":"hexagon_tri","fractal_assignment":["../images/gry_blk.png","../images/org_blu.png","../images/ylw_slt.png","../images/pnk_blu.png","../images/cyn_red.png","../images/blu_wht.png"],"mutagen_generator_assignment":[0,1],"goal":4,"start":5,"action_noise":0.2,"location_history":"[5,4]","action_history":"[0]","mutagen_history":"[0]","location_rts":"[239]","trial_type":"fractal-mutation","trial_index":168,"time_elapsed":2491961,"internal_node_id":"0.0-5.0-64.0"},{"group":"hexagon_tri","fractal_assignment":["../images/gry_blk.png","../images/org_blu.png","../images/ylw_slt.png","../images/pnk_blu.png","../images/cyn_red.png","../images/blu_wht.png"],"mutagen_generator_assignment":[0,1],"goal":1,"start":4,"action_noise":0.2,"location_history":"[4,0,5,4,0,1]","action_history":"[0,0,1,0,1]","mutagen_history":"[0,0,1,0,1]","location_rts":"[357,257,3,216,72]","trial_type":"fractal-mutation","trial_index":169,"time_elapsed":2501534,"internal_node_id":"0.0-5.0-65.0"},{"group":"hexagon_tri","fractal_assignment":["../images/gry_blk.png","../images/org_blu.png","../images/ylw_slt.png","../images/pnk_blu.png","../images/cyn_red.png","../images/blu_wht.png"],"mutagen_generator_assignment":[0,1],"goal":5,"start":1,"action_noise":0.2,"location_history":"[1,3,2,3,2,1,5]","action_history":"[1,0,1,0,0,1]","mutagen_history":"[1,0,1,0,0,1]","location_rts":"[92,63,49,177,244,281]","trial_type":"fractal-mutation","trial_index":170,"time_elapsed":2512122,"internal_node_id":"0.0-5.0-66.0"},{"group":"hexagon_tri","fractal_assignment":["../images/gry_blk.png","../images/org_blu.png","../images/ylw_slt.png","../images/pnk_blu.png","../images/cyn_red.png","../images/blu_wht.png"],"mutagen_generator_assignment":[0,1],"goal":2,"start":5,"action_noise":0.2,"location_history":"[5,4,0,1,3,4,0,1,3,2]","action_history":"[0,0,1,0,1,0,1,0,0]","mutagen_history":"[0,0,1,0,1,0,1,0,0]","location_rts":"[35,2789,262,199,176,185,188,286,124]","trial_type":"fractal-mutation","trial_index":171,"time_elapsed":2529113,"internal_node_id":"0.0-5.0-67.0"},{"group":"hexagon_tri","fractal_assignment":["../images/gry_blk.png","../images/org_blu.png","../images/ylw_slt.png","../images/pnk_blu.png","../images/cyn_red.png","../images/blu_wht.png"],"mutagen_generator_assignment":[0,1],"goal":3,"start":2,"action_noise":0.2,"location_history":"[2,3]","action_history":"[0]","mutagen_history":"[0]","location_rts":"[1789]","trial_type":"fractal-mutation","trial_index":172,"time_elapsed":2535431,"internal_node_id":"0.0-5.0-68.0"},{"group":"hexagon_tri","fractal_assignment":["../images/gry_blk.png","../images/org_blu.png","../images/ylw_slt.png","../images/pnk_blu.png","../images/cyn_red.png","../images/blu_wht.png"],"mutagen_generator_assignment":[0,1],"goal":4,"start":3,"action_noise":0.2,"location_history":"[3,2,3,4]","action_history":"[0,1,0]","mutagen_history":"[0,1,0]","location_rts":"[63,25,104]","trial_type":"fractal-mutation","trial_index":173,"time_elapsed":2542204,"internal_node_id":"0.0-5.0-69.0"},{"group":"hexagon_tri","fractal_assignment":["../images/gry_blk.png","../images/org_blu.png","../images/ylw_slt.png","../images/pnk_blu.png","../images/cyn_red.png","../images/blu_wht.png"],"mutagen_generator_assignment":[0,1],"goal":0,"start":4,"action_noise":0.2,"location_history":"[4,0]","action_history":"[0]","mutagen_history":"[0]","location_rts":"[212]","trial_type":"fractal-mutation","trial_index":174,"time_elapsed":2546945,"internal_node_id":"0.0-5.0-70.0"},{"group":"hexagon_tri","fractal_assignment":["../images/gry_blk.png","../images/org_blu.png","../images/ylw_slt.png","../images/pnk_blu.png","../images/cyn_red.png","../images/blu_wht.png"],"mutagen_generator_assignment":[0,1],"goal":5,"start":0,"action_noise":0.2,"location_history":"[0,1,3,4,0,5]","action_history":"[1,1,1,1,0]","mutagen_history":"[1,1,1,1,0]","location_rts":"[106,128,148,328,59]","trial_type":"fractal-mutation","trial_index":175,"time_elapsed":2556357,"internal_node_id":"0.0-5.0-71.0"},{"group":"hexagon_tri","fractal_assignment":["../images/gry_blk.png","../images/org_blu.png","../images/ylw_slt.png","../images/pnk_blu.png","../images/cyn_red.png","../images/blu_wht.png"],"mutagen_generator_assignment":[0,1],"goal":0,"start":5,"action_noise":0.2,"location_history":"[5,4,2,1,3,4,2,3,4,0]","action_history":"[0,1,0,0,1,1,1,0,0]","mutagen_history":"[0,1,0,0,1,1,1,0,0]","location_rts":"[116,115,218,250,191,14,15,240,189]","trial_type":"fractal-mutation","trial_index":176,"time_elapsed":2570444,"internal_node_id":"0.0-5.0-72.0"},{"group":"hexagon_tri","fractal_assignment":["../images/gry_blk.png","../images/org_blu.png","../images/ylw_slt.png","../images/pnk_blu.png","../images/cyn_red.png","../images/blu_wht.png"],"mutagen_generator_assignment":[0,1],"goal":3,"start":0,"action_noise":0.2,"location_history":"[0,5,4,2,3]","action_history":"[0,0,1,1]","mutagen_history":"[0,0,1,1]","location_rts":"[45,235,188,89]","trial_type":"fractal-mutation","trial_index":177,"time_elapsed":2578609,"internal_node_id":"0.0-5.0-73.0"},{"group":"hexagon_tri","fractal_assignment":["../images/gry_blk.png","../images/org_blu.png","../images/ylw_slt.png","../images/pnk_blu.png","../images/cyn_red.png","../images/blu_wht.png"],"mutagen_generator_assignment":[0,1],"goal":1,"start":3,"action_noise":0.2,"location_history":"[3,4,2,3,2,3,2,1]","action_history":"[1,0,1,0,0,0,0]","mutagen_history":"[1,0,1,0,0,0,0]","location_rts":"[181,206,111,146,157,180,74]","trial_type":"fractal-mutation","trial_index":178,"time_elapsed":2590341,"internal_node_id":"0.0-5.0-74.0"},{"group":"hexagon_tri","fractal_assignment":["../images/gry_blk.png","../images/org_blu.png","../images/ylw_slt.png","../images/pnk_blu.png","../images/cyn_red.png","../images/blu_wht.png"],"mutagen_generator_assignment":[0,1],"goal":2,"start":1,"action_noise":0.2,"location_history":"[1,5,0,1,3,4,0,5,4,2]","action_history":"[1,1,1,1,1,0,0,0,1]","mutagen_history":"[1,1,1,1,1,0,0,0,1]","location_rts":"[83,99,117,47,29,91,295,18,53]","trial_type":"fractal-mutation","trial_index":179,"time_elapsed":2603914,"internal_node_id":"0.0-5.0-75.0"},{"group":"hexagon_tri","fractal_assignment":["../images/gry_blk.png","../images/org_blu.png","../images/ylw_slt.png","../images/pnk_blu.png","../images/cyn_red.png","../images/blu_wht.png"],"mutagen_generator_assignment":[0,1],"goal":4,"start":2,"action_noise":0.2,"location_history":"[2,3,2,1,5,4]","action_history":"[1,0,0,0,0]","mutagen_history":"[1,0,0,0,0]","location_rts":"[265,95,168,225,259]","trial_type":"fractal-mutation","trial_index":180,"time_elapsed":2613553,"internal_node_id":"0.0-5.0-76.0"},{"group":"hexagon_tri","fractal_assignment":["../images/gry_blk.png","../images/org_blu.png","../images/ylw_slt.png","../images/pnk_blu.png","../images/cyn_red.png","../images/blu_wht.png"],"mutagen_generator_assignment":[0,1],"goal":3,"start":4,"action_noise":0.2,"location_history":"[4,2,1,5,0,5,4,0,5,0,1,3]","action_history":"[1,1,1,0,1,0,1,0,1,1,0]","mutagen_history":"[1,1,1,0,1,0,1,0,1,1,0]","location_rts":"[306,444,251,206,254,42,227,106,147,357,126]","trial_type":"fractal-mutation","trial_index":181,"time_elapsed":2630825,"internal_node_id":"0.0-5.0-77.0"},{"group":"hexagon_tri","fractal_assignment":["../images/gry_blk.png","../images/org_blu.png","../images/ylw_slt.png","../images/pnk_blu.png","../images/cyn_red.png","../images/blu_wht.png"],"mutagen_generator_assignment":[0,1],"goal":0,"start":3,"action_noise":0.2,"location_history":"[3,2,3,2,3,4,2,1,5,0]","action_history":"[0,1,0,1,0,1,0,0,1]","mutagen_history":"[0,1,0,1,0,1,0,0,1]","location_rts":"[143,182,231,53,12,206,182,250,1043]","trial_type":"fractal-mutation","trial_index":182,"time_elapsed":2645869,"internal_node_id":"0.0-5.0-78.0"},{"group":"hexagon_tri","fractal_assignment":["../images/gry_blk.png","../images/org_blu.png","../images/ylw_slt.png","../images/pnk_blu.png","../images/cyn_red.png","../images/blu_wht.png"],"mutagen_generator_assignment":[0,1],"goal":4,"start":0,"action_noise":0.2,"location_history":"[0,5,0,1,5,0,5,0,1,5,0,5,4]","action_history":"[0,1,1,1,1,0,1,0,1,1,0,1]","mutagen_history":"[0,1,1,1,1,0,1,0,1,1,0,1]","location_rts":"[78,1039,89,51,152,248,221,263,174,118,154,182]","trial_type":"fractal-mutation","trial_index":183,"time_elapsed":2664472,"internal_node_id":"0.0-5.0-79.0"},{"group":"hexagon_tri","fractal_assignment":["../images/gry_blk.png","../images/org_blu.png","../images/ylw_slt.png","../images/pnk_blu.png","../images/cyn_red.png","../images/blu_wht.png"],"mutagen_generator_assignment":[0,1],"goal":5,"start":4,"action_noise":0.2,"location_history":"[4,2,1,5]","action_history":"[1,1,1]","mutagen_history":"[1,1,1]","location_rts":"[20,153,122]","trial_type":"fractal-mutation","trial_index":184,"time_elapsed":2671351,"internal_node_id":"0.0-5.0-80.0"},{"group":"hexagon_tri","fractal_assignment":["../images/gry_blk.png","../images/org_blu.png","../images/ylw_slt.png","../images/pnk_blu.png","../images/cyn_red.png","../images/blu_wht.png"],"mutagen_generator_assignment":[0,1],"goal":1,"start":5,"action_noise":0.2,"location_history":"[5,0,5,4,0,5,4,0,1]","action_history":"[1,1,0,0,0,0,0,0]","mutagen_history":"[1,1,0,0,0,0,0,0]","location_rts":"[172,90,236,45,3,73,91,123]","trial_type":"fractal-mutation","trial_index":185,"time_elapsed":2683890,"internal_node_id":"0.0-5.0-81.0"},{"group":"hexagon_tri","fractal_assignment":["../images/gry_blk.png","../images/org_blu.png","../images/ylw_slt.png","../images/pnk_blu.png","../images/cyn_red.png","../images/blu_wht.png"],"mutagen_generator_assignment":[0,1],"goal":2,"start":1,"action_noise":0.2,"location_history":"[1,3,2]","action_history":"[0,1]","mutagen_history":"[0,1]","location_rts":"[327,219]","trial_type":"fractal-mutation","trial_index":186,"time_elapsed":2689990,"internal_node_id":"0.0-5.0-82.0"},{"group":"hexagon_tri","fractal_assignment":["../images/gry_blk.png","../images/org_blu.png","../images/ylw_slt.png","../images/pnk_blu.png","../images/cyn_red.png","../images/blu_wht.png"],"mutagen_generator_assignment":[0,1],"goal":4,"start":2,"action_noise":0.2,"location_history":"[2,1,3,4]","action_history":"[1,0,0]","mutagen_history":"[1,0,0]","location_rts":"[615,335,245]","trial_type":"fractal-mutation","trial_index":187,"time_elapsed":2697768,"internal_node_id":"0.0-5.0-83.0"},{"group":"hexagon_tri","fractal_assignment":["../images/gry_blk.png","../images/org_blu.png","../images/ylw_slt.png","../images/pnk_blu.png","../images/cyn_red.png","../images/blu_wht.png"],"mutagen_generator_assignment":[0,1],"goal":0,"start":4,"action_noise":0.2,"location_history":"[4,2,1,5,0]","action_history":"[1,1,0,1]","mutagen_history":"[1,1,0,1]","location_rts":"[235,325,259,459]","trial_type":"fractal-mutation","trial_index":188,"time_elapsed":2706664,"internal_node_id":"0.0-5.0-84.0"},{"group":"hexagon_tri","fractal_assignment":["../images/gry_blk.png","../images/org_blu.png","../images/ylw_slt.png","../images/pnk_blu.png","../images/cyn_red.png","../images/blu_wht.png"],"mutagen_generator_assignment":[0,1],"goal":5,"start":0,"action_noise":0.2,"location_history":"[0,5]","action_history":"[0]","mutagen_history":"[0]","location_rts":"[270]","trial_type":"fractal-mutation","trial_index":189,"time_elapsed":2711463,"internal_node_id":"0.0-5.0-85.0"},{"group":"hexagon_tri","fractal_assignment":["../images/gry_blk.png","../images/org_blu.png","../images/ylw_slt.png","../images/pnk_blu.png","../images/cyn_red.png","../images/blu_wht.png"],"mutagen_generator_assignment":[0,1],"goal":3,"start":5,"action_noise":0.2,"location_history":"[5,0,1,5,0,1,3]","action_history":"[1,0,1,0,1,0]","mutagen_history":"[1,0,1,0,1,0]","location_rts":"[274,293,216,230,188,157]","trial_type":"fractal-mutation","trial_index":190,"time_elapsed":2722484,"internal_node_id":"0.0-5.0-86.0"},{"group":"hexagon_tri","fractal_assignment":["../images/gry_blk.png","../images/org_blu.png","../images/ylw_slt.png","../images/pnk_blu.png","../images/cyn_red.png","../images/blu_wht.png"],"mutagen_generator_assignment":[0,1],"goal":1,"start":3,"action_noise":0.2,"location_history":"[3,2,3,2,1]","action_history":"[0,0,0,0]","mutagen_history":"[0,0,0,0]","location_rts":"[347,63,110,237]","trial_type":"fractal-mutation","trial_index":191,"time_elapsed":2730853,"internal_node_id":"0.0-5.0-87.0"},{"group":"hexagon_tri","fractal_assignment":["../images/gry_blk.png","../images/org_blu.png","../images/ylw_slt.png","../images/pnk_blu.png","../images/cyn_red.png","../images/blu_wht.png"],"mutagen_generator_assignment":[0,1],"goal":2,"start":1,"action_noise":0.2,"location_history":"[1,3,2]","action_history":"[0,0]","mutagen_history":"[0,0]","location_rts":"[241,175]","trial_type":"fractal-mutation","trial_index":192,"time_elapsed":2736825,"internal_node_id":"0.0-5.0-88.0"},{"group":"hexagon_tri","fractal_assignment":["../images/gry_blk.png","../images/org_blu.png","../images/ylw_slt.png","../images/pnk_blu.png","../images/cyn_red.png","../images/blu_wht.png"],"mutagen_generator_assignment":[0,1],"goal":0,"start":2,"action_noise":0.2,"location_history":"[2,1,3,2,3,2,1,3,4,0]","action_history":"[0,0,0,1,0,0,0,1,1]","mutagen_history":"[0,0,0,1,0,0,0,1,1]","location_rts":"[325,49,53,184,271,146,59,218,4]","trial_type":"fractal-mutation","trial_index":193,"time_elapsed":2750867,"internal_node_id":"0.0-5.0-89.0"},{"group":"hexagon_tri","fractal_assignment":["../images/gry_blk.png","../images/org_blu.png","../images/ylw_slt.png","../images/pnk_blu.png","../images/cyn_red.png","../images/blu_wht.png"],"mutagen_generator_assignment":[0,1],"goal":5,"start":0,"action_noise":0.2,"location_history":"[0,5]","action_history":"[1]","mutagen_history":"[1]","location_rts":"[391]","trial_type":"fractal-mutation","trial_index":194,"time_elapsed":2755791,"internal_node_id":"0.0-5.0-90.0"},{"group":"hexagon_tri","fractal_assignment":["../images/gry_blk.png","../images/org_blu.png","../images/ylw_slt.png","../images/pnk_blu.png","../images/cyn_red.png","../images/blu_wht.png"],"mutagen_generator_assignment":[0,1],"goal":1,"start":5,"action_noise":0.2,"location_history":"[5,0,1]","action_history":"[1,1]","mutagen_history":"[1,1]","location_rts":"[176,21]","trial_type":"fractal-mutation","trial_index":195,"time_elapsed":2761548,"internal_node_id":"0.0-5.0-91.0"},{"group":"hexagon_tri","fractal_assignment":["../images/gry_blk.png","../images/org_blu.png","../images/ylw_slt.png","../images/pnk_blu.png","../images/cyn_red.png","../images/blu_wht.png"],"mutagen_generator_assignment":[0,1],"goal":3,"start":1,"action_noise":0.2,"location_history":"[1,3]","action_history":"[0]","mutagen_history":"[0]","location_rts":"[665]","trial_type":"fractal-mutation","trial_index":196,"time_elapsed":2766742,"internal_node_id":"0.0-5.0-92.0"},{"group":"hexagon_tri","fractal_assignment":["../images/gry_blk.png","../images/org_blu.png","../images/ylw_slt.png","../images/pnk_blu.png","../images/cyn_red.png","../images/blu_wht.png"],"mutagen_generator_assignment":[0,1],"goal":4,"start":3,"action_noise":0.2,"location_history":"[3,2,1,5,0,1,5,0,1,5,0,5,4]","action_history":"[0,0,1,1,1,1,1,1,1,1,0,0]","mutagen_history":"[0,0,1,1,1,1,1,1,1,1,0,0]","location_rts":"[209,35,70,66,201,166,144,100,207,434,64,414]","trial_type":"fractal-mutation","trial_index":197,"time_elapsed":2784684,"internal_node_id":"0.0-5.0-93.0"},{"group":"hexagon_tri","fractal_assignment":["../images/gry_blk.png","../images/org_blu.png","../images/ylw_slt.png","../images/pnk_blu.png","../images/cyn_red.png","../images/blu_wht.png"],"mutagen_generator_assignment":[0,1],"goal":2,"start":4,"action_noise":0.2,"location_history":"[4,2]","action_history":"[1]","mutagen_history":"[1]","location_rts":"[318]","trial_type":"fractal-mutation","trial_index":198,"time_elapsed":2789532,"internal_node_id":"0.0-5.0-94.0"},{"group":"hexagon_tri","fractal_assignment":["../images/gry_blk.png","../images/org_blu.png","../images/ylw_slt.png","../images/pnk_blu.png","../images/cyn_red.png","../images/blu_wht.png"],"mutagen_generator_assignment":[0,1],"goal":4,"start":2,"action_noise":0.2,"location_history":"[2,3,4]","action_history":"[1,0]","mutagen_history":"[1,0]","location_rts":"[359,188]","trial_type":"fractal-mutation","trial_index":199,"time_elapsed":2795634,"internal_node_id":"0.0-5.0-95.0"},{"group":"hexagon_tri","fractal_assignment":["../images/gry_blk.png","../images/org_blu.png","../images/ylw_slt.png","../images/pnk_blu.png","../images/cyn_red.png","../images/blu_wht.png"],"mutagen_generator_assignment":[0,1],"goal":0,"start":4,"action_noise":0.2,"location_history":"[4,0]","action_history":"[0]","mutagen_history":"[0]","location_rts":"[504]","trial_type":"fractal-mutation","trial_index":200,"time_elapsed":2800662,"internal_node_id":"0.0-5.0-96.0"},{"group":"hexagon_tri","fractal_assignment":["../images/gry_blk.png","../images/org_blu.png","../images/ylw_slt.png","../images/pnk_blu.png","../images/cyn_red.png","../images/blu_wht.png"],"mutagen_generator_assignment":[0,1],"goal":5,"start":0,"action_noise":0.2,"location_history":"[0,5]","action_history":"[0]","mutagen_history":"[0]","location_rts":"[177]","trial_type":"fractal-mutation","trial_index":201,"time_elapsed":2805365,"internal_node_id":"0.0-5.0-97.0"},{"group":"hexagon_tri","fractal_assignment":["../images/gry_blk.png","../images/org_blu.png","../images/ylw_slt.png","../images/pnk_blu.png","../images/cyn_red.png","../images/blu_wht.png"],"mutagen_generator_assignment":[0,1],"goal":1,"start":5,"action_noise":0.2,"location_history":"[5,4,2,1]","action_history":"[0,0,0]","mutagen_history":"[0,0,0]","location_rts":"[250,875,1053]","trial_type":"fractal-mutation","trial_index":202,"time_elapsed":2814120,"internal_node_id":"0.0-5.0-98.0"},{"group":"hexagon_tri","fractal_assignment":["../images/gry_blk.png","../images/org_blu.png","../images/ylw_slt.png","../images/pnk_blu.png","../images/cyn_red.png","../images/blu_wht.png"],"mutagen_generator_assignment":[0,1],"goal":3,"start":1,"action_noise":0.2,"location_history":"[1,3]","action_history":"[0]","mutagen_history":"[0]","location_rts":"[127]","trial_type":"fractal-mutation","trial_index":203,"time_elapsed":2818771,"internal_node_id":"0.0-5.0-99.0"},{"view_history":"[{\"page_index\":0,\"viewing_time\":12519}]","rt":12519,"trial_type":"instructions","trial_index":204,"time_elapsed":2832291,"internal_node_id":"0.0-6.0"},{"rt":3826,"responses":"{\"Q0\":\"NOPE\"}","trial