[{"view_history":"[{\"page_index\":0,\"viewing_time\":21955},{\"page_index\":1,\"viewing_time\":16276},{\"page_index\":2,\"viewing_time\":10596},{\"page_index\":3,\"viewing_time\":5564}]","rt":54391,"trial_type":"instructions","trial_index":0,"time_elapsed":54393,"internal_node_id":"0.0-0.0"},{"view_history":"[{\"page_index\":0,\"viewing_time\":13236},{\"page_index\":1,\"viewing_time\":23143}]","rt":36380,"trial_type":"instructions","trial_index":1,"time_elapsed":91772,"internal_node_id":"0.0-1.0"},{"group":"hexagon_bi","room_assignment":["grey","purple","green","blue","red","yellow"],"door_color_assignment":["white","black"],"door_generator_assignment":[0,1],"goal":4,"start":0,"action_noise":0.2,"location_history":"[0,5,4]","action_history":"[0,1]","door_history":"[0,1]","location_rts":"[6422,2180]","trial_type":"two-door-navigation","trial_index":2,"time_elapsed":105888,"internal_node_id":"0.0-2.0-0.0"},{"group":"hexagon_bi","room_assignment":["grey","purple","green","blue","red","yellow"],"door_color_assignment":["white","black"],"door_generator_assignment":[0,1],"goal":3,"start":4,"action_noise":0.2,"location_history":"[4,3]","action_history":"[0]","door_history":"[0]","location_rts":"[4765]","trial_type":"two-door-navigation","trial_index":3,"time_elapsed":115161,"internal_node_id":"0.0-2.0-1.0"},{"group":"hexagon_bi","room_assignment":["grey","purple","green","blue","red","yellow"],"door_color_assignment":["white","black"],"door_generator_assignment":[0,1],"goal":5,"start":3,"action_noise":0.2,"location_history":"[3,2,3,4,3,2,3,2,1,2,1,0,1,0,1,0,1,0,5]","action_history":"[1,0,0,0,1,1,0,1,0,0,0,0,0,1,1,1,1,0]","door_history":"[1,0,0,0,1,1,0,1,0,0,0,0,0,1,1,1,1,0]","location_rts":"[2700,3528,1558,1329,1017,930,4162,5394,3428,1229,579,739,592,879,381,517,467,1053]","trial_type":"two-door-navigation","trial_index":4,"time_elapsed":167215,"internal_node_id":"0.0-2.0-2.0"},{"group":"hexagon_bi","room_assignment":["grey","purple","green","blue","red","yellow"],"door_color_assignment":["white","black"],"door_generator_assignment":[0,1],"goal":2,"start":5,"action_noise":0.2,"location_history":"[5,4,5,0,5,0,5,4,5,0,5,0,1,2]","action_history":"[1,1,0,0,0,1,1,1,0,0,1,1,0]","door_history":"[1,1,0,0,0,1,1,1,0,0,1,1,0]","location_rts":"[2222,786,1445,524,593,1261,996,656,1049,500,694,377,617]","trial_type":"two-door-navigation","trial_index":5,"time_elapsed":195472,"internal_node_id":"0.0-2.0-3.0"},{"group":"hexagon_bi","room_assignment":["grey","purple","green","blue","red","yellow"],"door_color_assignment":["white","black"],"door_generator_assignment":[0,1],"goal":1,"start":2,"action_noise":0.2,"location_history":"[2,3,4,5,4,5,4,5,0,1]","action_history":"[0,1,1,1,1,1,0,0,0]","door_history":"[0,1,1,1,1,1,0,0,0]","location_rts":"[8456,777,412,380,494,424,1072,786,420]","trial_type":"two-door-navigation","trial_index":6,"time_elapsed":221232,"internal_node_id":"0.0-2.0-4.0"},{"group":"hexagon_bi","room_assignment":["grey","purple","green","blue","red","yellow"],"door_color_assignment":["white","black"],"door_generator_assignment":[0,1],"goal":4,"start":1,"action_noise":0.2,"location_history":"[1,2,1,0,1,2,1,0,1,0,5,4]","action_history":"[0,1,1,1,0,0,1,1,0,0,1]","door_history":"[0,1,1,1,0,0,1,1,0,0,1]","location_rts":"[3524,873,553,625,732,441,568,492,747,471,610]","trial_type":"two-door-navigation","trial_index":7,"time_elapsed":245404,"internal_node_id":"0.0-2.0-5.0"},{"group":"hexagon_bi","room_assignment":["grey","purple","green","blue","red","yellow"],"door_color_assignment":["white","black"],"door_generator_assignment":[0,1],"goal":1,"start":4,"action_noise":0.2,"location_history":"[4,3,2,1]","action_history":"[0,1,1]","door_history":"[0,1,1]","location_rts":"[3399,1050,444]","trial_type":"two-door-navigation","trial_index":8,"time_elapsed":256812,"internal_node_id":"0.0-2.0-6.0"},{"group":"hexagon_bi","room_assignment":["grey","purple","green","blue","red","yellow"],"door_color_assignment":["white","black"],"door_generator_assignment":[0,1],"goal":5,"start":1,"action_noise":0.2,"location_history":"[1,0,5]","action_history":"[0,0]","door_history":"[0,0]","location_rts":"[1675,415]","trial_type":"two-door-navigation","trial_index":9,"time_elapsed":264410,"internal_node_id":"0.0-2.0-7.0"},{"group":"hexagon_bi","room_assignment":["grey","purple","green","blue","red","yellow"],"door_color_assignment":["white","black"],"door_generator_assignment":[0,1],"goal":0,"start":5,"action_noise":0.2,"location_history":"[5,0]","action_history":"[0]","door_history":"[0]","location_rts":"[2754]","trial_type":"two-door-navigation","trial_index":10,"time_elapsed":271670,"internal_node_id":"0.0-2.0-8.0"},{"group":"hexagon_bi","room_assignment":["grey","purple","green","blue","red","yellow"],"door_color_assignment":["white","black"],"door_generator_assignment":[0,1],"goal":2,"start":0,"action_noise":0.2,"location_history":"[0,5,4,5,0,5,0,1,0,1,2]","action_history":"[0,1,1,0,0,0,1,1,1,0]","door_history":"[0,1,1,0,0,0,1,1,1,0]","location_rts":"[3936,985,375,1601,420,1556,613,389,416,7184]","trial_type":"two-door-navigation","trial_index":11,"time_elapsed":302686,"internal_node_id":"0.0-2.0-9.0"},{"group":"hexagon_bi","room_assignment":["grey","purple","green","blue","red","yellow"],"door_color_assignment":["white","black"],"door_generator_assignment":[0,1],"goal":3,"start":2,"action_noise":0.2,"location_history":"[2,3]","action_history":"[1]","door_history":"[1]","location_rts":"[11904]","trial_type":"two-door-navigation","trial_index":12,"time_elapsed":319097,"internal_node_id":"0.0-2.0-10.0"},{"group":"hexagon_bi","room_assignment":["grey","purple","green","blue","red","yellow"],"door_color_assignment":["white","black"],"door_generator_assignment":[0,1],"goal":0,"start":3,"action_noise":0.2,"location_history":"[3,4,3,2,1,2,1,2,3,2,3,4,5,0]","action_history":"[0,0,1,1,0,0,0,0,1,0,0,1,0]","door_history":"[0,0,1,1,0,0,0,0,1,0,0,1,0]","location_rts":"[1799,1809,1283,467,641,422,608,1072,701,808,431,1571,746]","trial_type":"two-door-navigation","trial_index":13,"time_elapsed":347998,"internal_node_id":"0.0-2.0-11.0"},{"group":"hexagon_bi","room_assignment":["grey","purple","green","blue","red","yellow"],"door_color_assignment":["white","black"],"door_generator_assignment":[0,1],"goal":2,"start":0,"action_noise":0.2,"location_history":"[0,1,2]","action_history":"[1,0]","door_history":"[1,0]","location_rts":"[9843,1046]","trial_type":"two-door-navigation","trial_index":14,"time_elapsed":364394,"internal_node_id":"0.0-2.0-12.0"},{"group":"hexagon_bi","room_assignment":["grey","purple","green","blue","red","yellow"],"door_color_assignment":["white","black"],"door_generator_assignment":[0,1],"goal":5,"start":2,"action_noise":0.2,"location_history":"[2,1,0,1,2,1,2,1,2,1,0,1,2,1,2,3,2,3,4,3,4,5]","action_history":"[0,1,1,0,0,1,0,0,0,1,1,0,0,0,1,1,1,0,0,1,1]","door_history":"[0,1,1,0,0,1,0,0,0,1,1,0,0,0,1,1,1,0,0,1,1]","location_rts":"[2247,796,511,645,540,878,553,330,1099,1211,700,434,361,471,707,396,361,386,289,1683,1046]","trial_type":"two-door-navigation","trial_index":15,"time_elapsed":404645,"internal_node_id":"0.0-2.0-13.0"},{"group":"hexagon_bi","room_assignment":["grey","purple","green","blue","red","yellow"],"door_color_assignment":["white","black"],"door_generator_assignment":[0,1],"goal":4,"start":5,"action_noise":0.2,"location_history":"[5,0,1,2,1,0,5,0,1,2,1,0,5,0,1,0,1,0,1,2,3,4]","action_history":"[0,1,0,0,1,0,0,1,0,0,1,0,0,1,1,1,0,1,0,1,0]","door_history":"[0,1,0,0,1,0,0,1,0,0,1,0,0,1,1,1,0,1,0,1,0]","location_rts":"[1879,1214,585,362,551,460,400,601,429,328,415,406,346,462,507,1265,774,622,459,415,458]","trial_type":"two-door-navigation","trial_index":16,"time_elapsed":442164,"internal_node_id":"0.0-2.0-14.0"},{"group":"hexagon_bi","room_assignment":["grey","purple","green","blue","red","yellow"],"door_color_assignment":["white","black"],"door_generator_assignment":[0,1],"goal":3,"start":4,"action_noise":0.2,"location_history":"[4,3]","action_history":"[0]","door_history":"[0]","location_rts":"[6014]","trial_type":"two-door-navigation","trial_index":17,"time_elapsed":452682,"internal_node_id":"0.0-2.0-15.0"},{"group":"hexagon_bi","room_assignment":["grey","purple","green","blue","red","yellow"],"door_color_assignment":["white","black"],"door_generator_assignment":[0,1],"goal":1,"start":3,"action_noise":0.2,"location_history":"[3,2,3,2,3,4,5,4,3,2,3,4,5,4,5,0,5,0,1]","action_history":"[1,0,1,1,0,1,1,0,1,1,0,0,1,1,0,0,1,1]","door_history":"[1,0,1,1,0,1,1,0,1,1,0,0,1,1,0,0,1,1]","location_rts":"[3075,845,640,377,1293,542,335,388,388,375,781,366,620,448,403,357,484,526]","trial_type":"two-door-navigation","trial_index":18,"time_elapsed":486505,"internal_node_id":"0.0-2.0-16.0"},{"group":"hexagon_bi","room_assignment":["grey","purple","green","blue","red","yellow"],"door_color_assignment":["white","black"],"door_generator_assignment":[0,1],"goal":5,"start":1,"action_noise":0.2,"location_history":"[1,2,1,2,1,2,3,4,5]","action_history":"[0,0,1,0,0,1,0,1]","door_history":"[0,0,1,0,0,1,0,1]","location_rts":"[2172,609,669,445,448,295,699,337]","trial_type":"two-door-navigation","trial_index":19,"time_elapsed":503706,"internal_node_id":"0.0-2.0-17.0"},{"group":"hexagon_bi","room_assignment":["grey","purple","green","blue","red","yellow"],"door_color_assignment":["white","black"],"door_generator_assignment":[0,1],"goal":4,"start":5,"action_noise":0.2,"location_history":"[5,0,1,0,1,0,1,0,1,0,5,4]","action_history":"[0,1,1,1,0,1,1,1,0,0,1]","door_history":"[0,1,1,1,0,1,1,1,0,0,1]","location_rts":"[2513,755,448,645,674,489,367,388,1049,720,616]","trial_type":"two-door-navigation","trial_index":20,"time_elapsed":526903,"internal_node_id":"0.0-2.0-18.0"},{"group":"hexagon_bi","room_assignment":["grey","purple","green","blue","red","yellow"],"door_color_assignment":["white","black"],"door_generator_assignment":[0,1],"goal":0,"start":4,"action_noise":0.2,"location_history":"[4,3,4,3,2,1,2,1,0]","action_history":"[0,0,0,1,1,0,1,1]","door_history":"[0,0,0,1,1,0,1,1]","location_rts":"[2172,558,1203,343,607,1435,436,650]","trial_type":"two-door-navigation","trial_index":21,"time_elapsed":545848,"internal_node_id":"0.0-2.0-19.0"},{"group":"hexagon_bi","room_assignment":["grey","purple","green","blue","red","yellow"],"door_color_assignment":["white","black"],"door_generator_assignment":[0,1],"goal":1,"start":0,"action_noise":0.2,"location_history":"[0,5,0,1]","action_history":"[0,1,1]","door_history":"[0,1,1]","location_rts":"[4649,591,1737]","trial_type":"two-door-navigation","trial_index":22,"time_elapsed":559342,"internal_node_id":"0.0-2.0-20.0"},{"group":"hexagon_bi","room_assignment":["grey","purple","green","blue","red","yellow"],"door_color_assignment":["white","black"],"door_generator_assignment":[0,1],"goal":3,"start":1,"action_noise":0.2,"location_history":"[1,2,3]","action_history":"[0,1]","door_history":"[0,1]","location_rts":"[9117,1576]","trial_type":"two-door-navigation","trial_index":23,"time_elapsed":575547,"internal_node_id":"0.0-2.0-21.0"},{"group":"hexagon_bi","room_assignment":["grey","purple","green","blue","red","yellow"],"door_color_assignment":["white","black"],"door_generator_assignment":[0,1],"goal":2,"start":3,"action_noise":0.2,"location_history":"[3,2]","action_history":"[0]","door_history":"[0]","location_rts":"[21078]","trial_type":"two-door-navigation","trial_index":24,"time_elapsed":601130,"internal_node_id":"0.0-2.0-22.0"},{"group":"hexagon_bi","room_assignment":["grey","purple","green","blue","red","yellow"],"door_color_assignment":["white","black"],"door_generator_assignment":[0,1],"goal":0,"start":2,"action_noise":0.2,"location_history":"[2,3,2,1,0]","action_history":"[1,1,0,0]","door_history":"[1,1,0,0]","location_rts":"[2581,1872,1303,1492]","trial_type":"two-door-navigation","trial_index":25,"time_elapsed":615893,"internal_node_id":"0.0-2.0-23.0"},{"group":"hexagon_bi","room_assignment":["grey","purple","green","blue","red","yellow"],"door_color_assignment":["white","black"],"door_generator_assignment":[0,1],"goal":3,"start":0,"action_noise":0.2,"location_history":"[0,5,0,1,0,5,4,5,4,5,0,1,0,5,0,5,4,3]","action_history":"[0,0,1,1,0,1,1,0,1,0,1,1,0,0,0,1,0]","door_history":"[0,0,1,1,0,1,1,0,1,0,1,1,0,0,0,1,0]","location_rts":"[8755,818,749,654,939,2334,2839,931,576,1178,974,654,761,437,478,1149,1080]","trial_type":"two-door-navigation","trial_index":26,"time_elapsed":661765,"internal_node_id":"0.0-2.0-24.0"},{"group":"hexagon_bi","room_assignment":["grey","purple","green","blue","red","yellow"],"door_color_assignment":["white","black"],"door_generator_assignment":[0,1],"goal":1,"start":3,"action_noise":0.2,"location_history":"[3,2,1]","action_history":"[1,0]","door_history":"[1,0]","location_rts":"[4360,966]","trial_type":"two-door-navigation","trial_index":27,"time_elapsed":672624,"internal_node_id":"0.0-2.0-25.0"},{"group":"hexagon_bi","room_assignment":["grey","purple","green","blue","red","yellow"],"door_color_assignment":["white","black"],"door_generator_assignment":[0,1],"goal":2,"start":1,"action_noise":0.2,"location_history":"[1,2]","action_history":"[0]","door_history":"[0]","location_rts":"[7352]","trial_type":"two-door-navigation","trial_index":28,"time_elapsed":684496,"internal_node_id":"0.0-2.0-26.0"},{"group":"hexagon_bi","room_assignment":["grey","purple","green","blue","red","yellow"],"door_color_assignment":["white","black"],"door_generator_assignment":[0,1],"goal":5,"start":2,"action_noise":0.2,"location_history":"[2,1,0,5]","action_history":"[0,1,0]","door_history":"[0,1,0]","location_rts":"[1860,1122,783]","trial_type":"two-door-navigation","trial_index":29,"time_elapsed":694819,"internal_node_id":"0.0-2.0-27.0"},{"group":"hexagon_bi","room_assignment":["grey","purple","green","blue","red","yellow"],"door_color_assignment":["white","black"],"door_generator_assignment":[0,1],"goal":4,"start":5,"action_noise":0.2,"location_history":"[5,0,1,2,1,2,3,2,1,2,1,2,3,4]","action_history":"[0,1,0,0,1,0,0,1,0,0,0,1,0]","door_history":"[0,1,0,0,1,0,0,1,0,0,0,1,0]","location_rts":"[3747,2994,1077,359,983,853,988,1183,606,883,930,592,793]","trial_type":"two-door-navigation","trial_index":30,"time_elapsed":727355,"internal_node_id":"0.0-2.0-28.0"},{"group":"hexagon_bi","room_assignment":["grey","purple","green","blue","red","yellow"],"door_color_assignment":["white","black"],"door_generator_assignment":[0,1],"goal":5,"start":4,"action_noise":0.2,"location_history":"[4,3,4,5]","action_history":"[0,0,1]","door_history":"[0,0,1]","location_rts":"[3505,2149,680]","trial_type":"two-door-navigation","trial_index":31,"time_elapsed":740197,"internal_node_id":"0.0-2.0-29.0"},{"group":"hexagon_bi","room_assignment":["grey","purple","green","blue","red","yellow"],"door_color_assignment":["white","black"],"door_generator_assignment":[0,1],"goal":3,"start":5,"action_noise":0.2,"location_history":"[5,4,5,0,5,0,1,0,5,0,1,2,1,2,1,2,1,2,1,2,3]","action_history":"[1,1,0,0,1,0,1,0,0,1,0,1,0,0,1,1,0,0,0,1]","door_history":"[1,1,0,0,1,0,1,0,0,1,0,1,0,0,1,1,0,0,0,1]","location_rts":"[5859,937,1017,694,749,1376,876,711,353,826,704,1536,1268,655,1231,865,867,416,919,711]","trial_type":"two-door-navigation","trial_index":32,"time_elapsed":786345,"internal_node_id":"0.0-2.0-30.0"},{"group":"hexagon_bi","room_assignment":["grey","purple","green","blue","red","yellow"],"door_color_assignment":["white","black"],"door_generator_assignment":[0,1],"goal":0,"start":3,"action_noise":0.2,"location_history":"[3,4,5,0]","action_history":"[0,1,0]","door_history":"[0,1,0]","location_rts":"[6616,892,927]","trial_type":"two-door-navigation","trial_index":33,"time_elapsed":801300,"internal_node_id":"0.0-2.0-31.0"},{"group":"hexagon_bi","room_assignment":["grey","purple","green","blue","red","yellow"],"door_color_assignment":["white","black"],"door_generator_assignment":[0,1],"goal":4,"start":0,"action_noise":0.2,"location_history":"[0,1,2,3,4]","action_history":"[1,0,1,0]","door_history":"[1,0,1,0]","location_rts":"[2850,927,400,430]","trial_type":"two-door-navigation","trial_index":34,"time_elapsed":813420,"internal_node_id":"0.0-2.0-32.0"},{"group":"hexagon_bi","room_assignment":["grey","purple","green","blue","red","yellow"],"door_color_assignment":["white","black"],"door_generator_assignment":[0,1],"goal":1,"start":4,"action_noise":0.2,"location_history":"[4,3,2,1]","action_history":"[1,1,0]","door_history":"[1,1,0]","location_rts":"[3053,1193,938]","trial_type":"two-door-navigation","trial_index":35,"time_elapsed":825118,"internal_node_id":"0.0-2.0-33.0"},{"group":"hexagon_bi","room_assignment":["grey","purple","green","blue","red","yellow"],"door_color_assignment":["white","black"],"door_generator_assignment":[0,1],"goal":2,"start":1,"action_noise":0.2,"location_history":"[1,2]","action_history":"[0]","door_history":"[0]","location_rts":"[5602]","trial_type":"two-door-navigation","trial_index":36,"time_elapsed":835223,"internal_node_id":"0.0-2.0-34.0"},{"group":"hexagon_bi","room_assignment":["grey","purple","green","blue","red","yellow"],"door_color_assignment":["white","black"],"door_generator_assignment":[0,1],"goal":0,"start":2,"action_noise":0.2,"location_history":"[2,3,4,5,0]","action_history":"[1,0,1,0]","door_history":"[1,0,1,0]","location_rts":"[2087,1266,1973,481]","trial_type":"two-door-navigation","trial_index":37,"time_elapsed":848551,"internal_node_id":"0.0-2.0-35.0"},{"group":"hexagon_bi","room_assignment":["grey","purple","green","blue","red","yellow"],"door_color_assignment":["white","black"],"door_generator_assignment":[0,1],"goal":5,"start":0,"action_noise":0.2,"location_history":"[0,5]","action_history":"[0]","door_history":"[0]","location_rts":"[3800]","trial_type":"two-door-navigation","trial_index":38,"time_elapsed":856855,"internal_node_id":"0.0-2.0-36.0"},{"group":"hexagon_bi","room_assignment":["grey","purple","green","blue","red","yellow"],"door_color_assignment":["white","black"],"door_generator_assignment":[0,1],"goal":2,"start":5,"action_noise":0.2,"location_history":"[5,4,5,4,5,4,3,4,5,0,5,4,5,0,1,2]","action_history":"[0,1,0,0,1,0,0,1,1,0,1,1,0,1,0]","door_history":"[0,1,0,0,1,0,0,1,1,0,1,1,0,1,0]","location_rts":"[8554,2636,522,1252,1338,1058,1168,755,1289,730,860,1113,532,693,451]","trial_type":"two-door-navigation","trial_index":39,"time_elapsed":898377,"internal_node_id":"0.0-2.0-37.0"},{"group":"hexagon_bi","room_assignment":["grey","purple","green","blue","red","yellow"],"door_color_assignment":["white","black"],"door_generator_assignment":[0,1],"goal":1,"start":2,"action_noise":0.2,"location_history":"[2,3,2,1]","action_history":"[1,1,0]","door_history":"[1,1,0]","location_rts":"[3155,1399,1360]","trial_type":"two-door-navigation","trial_index":40,"time_elapsed":910801,"internal_node_id":"0.0-2.0-38.0"},{"group":"hexagon_bi","room_assignment":["grey","purple","green","blue","red","yellow"],"door_color_assignment":["white","black"],"door_generator_assignment":[0,1],"goal":4,"start":1,"action_noise":0.2,"location_history":"[1,2,3,4]","action_history":"[0,1,0]","door_history":"[0,1,0]","location_rts":"[3828,1047,630]","trial_type":"two-door-navigation","trial_index":41,"time_elapsed":922820,"internal_node_id":"0.0-2.0-39.0"},{"group":"hexagon_bi","room_assignment":["grey","purple","green","blue","red","yellow"],"door_color_assignment":["white","black"],"door_generator_assignment":[0,1],"goal":3,"start":4,"action_noise":0.2,"location_history":"[4,5,4,3]","action_history":"[0,1,0]","door_history":"[0,1,0]","location_rts":"[3055,437,870]","trial_type":"two-door-navigation","trial_index":42,"time_elapsed":933694,"internal_node_id":"0.0-2.0-40.0"},{"group":"hexagon_bi","room_assignment":["grey","purple","green","blue","red","yellow"],"door_color_assignment":["white","black"],"door_generator_assignment":[0,1],"goal":5,"start":3,"action_noise":0.2,"location_history":"[3,4,3,2,3,4,5]","action_history":"[0,1,1,0,0,1]","door_history":"[0,1,1,0,0,1]","location_rts":"[2191,803,1154,566,810,633]","trial_type":"two-door-navigation","trial_index":43,"time_elapsed":949373,"internal_node_id":"0.0-2.0-41.0"},{"group":"hexagon_bi","room_assignment":["grey","purple","green","blue","red","yellow"],"door_color_assignment":["white","black"],"door_generator_assignment":[0,1],"goal":3,"start":5,"action_noise":0.2,"location_history":"[5,4,5,0,5,4,3]","action_history":"[0,1,0,0,1,1]","door_history":"[0,1,0,0,1,1]","location_rts":"[1523,535,853,686,865,452]","trial_type":"two-door-navigation","trial_index":44,"time_elapsed":963816,"internal_node_id":"0.0-2.0-42.0"},{"group":"hexagon_bi","room_assignment":["grey","purple","green","blue","red","yellow"],"door_color_assignment":["white","black"],"door_generator_assignment":[0,1],"goal":0,"start":3,"action_noise":0.2,"location_history":"[3,4,3,2,1,0]","action_history":"[0,0,1,0,1]","door_history":"[0,0,1,0,1]","location_rts":"[2167,486,837,747,560]","trial_type":"two-door-navigation","trial_index":45,"time_elapsed":977140,"internal_node_id":"0.0-2.0-43.0"},{"group":"hexagon_bi","room_assignment":["grey","purple","green","blue","red","yellow"],"door_color_assignment":["white","black"],"door_generator_assignment":[0,1],"goal":2,"start":0,"action_noise":0.2,"location_history":"[0,5,0,1,2]","action_history":"[0,0,1,0]","door_history":"[0,0,1,0]","location_rts":"[1621,1994,1039,804]","trial_type":"two-door-navigation","trial_index":46,"time_elapsed":990125,"internal_node_id":"0.0-2.0-44.0"},{"group":"hexagon_bi","room_assignment":["grey","purple","green","blue","red","yellow"],"door_color_assignment":["white","black"],"door_generator_assignment":[0,1],"goal":4,"start":2,"action_noise":0.2,"location_history":"[2,3,4]","action_history":"[1,0]","door_history":"[1,0]","location_rts":"[2115,780]","trial_type":"two-door-navigation","trial_index":47,"time_elapsed":998533,"internal_node_id":"0.0-2.0-45.0"},{"group":"hexagon_bi","room_assignment":["grey","purple","green","blue","red","yellow"],"door_color_assignment":["white","black"],"door_generator_assignment":[0,1],"goal":1,"start":4,"action_noise":0.2,"location_history":"[4,5,0,5,4,5,0,1]","action_history":"[1,1,0,1,1,0,1]","door_history":"[1,1,0,1,1,0,1]","location_rts":"[3912,467,1300,433,451,690,696]","trial_type":"two-door-navigation","trial_index":48,"time_elapsed":1017029,"internal_node_id":"0.0-2.0-46.0"},{"group":"hexagon_bi","room_assignment":["grey","purple","green","blue","red","yellow"],"door_color_assignment":["white","black"],"door_generator_assignment":[0,1],"goal":4,"start":1,"action_noise":0.2,"location_history":"[1,0,5,4]","action_history":"[1,0,1]","door_history":"[1,0,1]","location_rts":"[4105,512,359]","trial_type":"two-door-navigation","trial_index":49,"time_elapsed":1028536,"internal_node_id":"0.0-2.0-47.0"},{"group":"hexagon_bi","room_assignment":["grey","purple","green","blue","red","yellow"],"door_color_assignment":["white","black"],"door_generator_assignment":[0,1],"goal":1,"start":4,"action_noise":0.2,"location_history":"[4,5,4,5,0,5,4,5,4,5,4,3,2,1]","action_history":"[0,1,1,0,0,1,0,1,1,0,0,1,0]","door_history":"[0,1,1,0,0,1,0,1,1,0,0,1,0]","location_rts":"[2326,370,573,675,1561,404,621,449,377,351,478,617,780]","trial_type":"two-door-navigation","trial_index":50,"time_elapsed":1054699,"internal_node_id":"0.0-2.0-48.0"},{"group":"hexagon_bi","room_assignment":["grey","purple","green","blue","red","yellow"],"door_color_assignment":["white","black"],"door_generator_assignment":[0,1],"goal":3,"start":1,"action_noise":0.2,"location_history":"[1,0,5,0,5,0,5,4,3]","action_history":"[1,0,0,1,0,0,1,0]","door_history":"[1,0,0,1,0,0,1,0]","location_rts":"[3783,574,569,762,779,566,619,466]","trial_type":"two-door-navigation","trial_index":51,"time_elapsed":1074365,"internal_node_id":"0.0-2.0-49.0"},{"group":"hexagon_bi","room_assignment":["grey","purple","green","blue","red","yellow"],"door_color_assignment":["white","black"],"door_generator_assignment":[0,1],"goal":5,"start":3,"action_noise":0.2,"location_history":"[3,4,3,4,3,4,3,2,1,2,1,2,3,2,1,0,5]","action_history":"[0,1,0,1,0,0,1,1,0,0,0,1,1,0,0,1]","door_history":"[0,1,0,1,0,0,1,1,0,0,0,1,1,0,0,1]","location_rts":"[1969,603,1326,993,520,382,669,484,577,575,795,761,1696,432,382,415]","trial_type":"two-door-navigation","trial_index":52,"time_elapsed":1106524,"internal_node_id":"0.0-2.0-50.0"},{"group":"hexagon_bi","room_assignment":["grey","purple","green","blue","red","yellow"],"door_color_assignment":["white","black"],"door_generator_assignment":[0,1],"goal":0,"start":5,"action_noise":0.2,"location_history":"[5,4,3,4,5,4,5,0]","action_history":"[1,0,0,1,1,0,0]","door_history":"[1,0,0,1,1,0,0]","location_rts":"[7860,776,963,515,506,655,990]","trial_type":"two-door-navigation","trial_index":53,"time_elapsed":1129327,"internal_node_id":"0.0-2.0-51.0"},{"group":"hexagon_bi","room_assignment":["grey","purple","green","blue","red","yellow"],"door_color_assignment":["white","black"],"door_generator_assignment":[0,1],"goal":2,"start":0,"action_noise":0.2,"location_history":"[0,1,0,5,0,1,2]","action_history":"[1,1,0,0,1,0]","door_history":"[1,1,0,0,1,0]","location_rts":"[3246,416,513,808,819,500]","trial_type":"two-door-navigation","trial_index":54,"time_elapsed":1145173,"internal_node_id":"0.0-2.0-52.0"},{"group":"hexagon_bi","room_assignment":["grey","purple","green","blue","red","yellow"],"door_color_assignment":["white","black"],"door_generator_assignment":[0,1],"goal":1,"start":2,"action_noise":0.2,"location_history":"[2,1]","action_history":"[0]","door_history":"[0]","location_rts":"[3075]","trial_type":"two-door-navigation","trial_index":55,"time_elapsed":1152754,"internal_node_id":"0.0-2.0-53.0"},{"group":"hexagon_bi","room_assignment":["grey","purple","green","blue","red","yellow"],"door_color_assignment":["white","black"],"door_generator_assignment":[0,1],"goal":2,"start":1,"action_noise":0.2,"location_history":"[1,0,5,4,3,4,5,4,3,2]","action_history":"[1,0,1,0,0,1,1,0,1]","door_history":"[1,0,1,0,0,1,1,0,1]","location_rts":"[3335,621,788,439,928,814,480,365,1183]","trial_type":"two-door-navigation","trial_index":56,"time_elapsed":1174265,"internal_node_id":"0.0-2.0-54.0"},{"group":"hexagon_bi","room_assignment":["grey","purple","green","blue","red","yellow"],"door_color_assignment":["white","black"],"door_generator_assignment":[0,1],"goal":5,"start":2,"action_noise":0.2,"location_history":"[2,3,4,3,2,1,0,1,0,5]","action_history":"[1,0,0,1,0,1,0,1,0]","door_history":"[1,0,0,1,0,1,0,1,0]","location_rts":"[1922,527,661,344,1154,1070,906,663,542]","trial_type":"two-door-navigation","trial_index":57,"time_elapsed":1194601,"internal_node_id":"0.0-2.0-55.0"},{"group":"hexagon_bi","room_assignment":["grey","purple","green","blue","red","yellow"],"door_color_assignment":["white","black"],"door_generator_assignment":[0,1],"goal":4,"start":5,"action_noise":0.2,"location_history":"[5,4]","action_history":"[1]","door_history":"[1]","location_rts":"[5068]","trial_type":"two-door-navigation","trial_index":58,"time_elapsed":1204177,"internal_node_id":"0.0-2.0-56.0"},{"group":"hexagon_bi","room_assignment":["grey","purple","green","blue","red","yellow"],"door_color_assignment":["white","black"],"door_generator_assignment":[0,1],"goal":3,"start":4,"action_noise":0.2,"location_history":"[4,3]","action_history":"[0]","door_history":"[0]","location_rts":"[1626]","trial_type":"two-door-navigation","trial_index":59,"time_elapsed":1210311,"internal_node_id":"0.0-2.0-57.0"},{"group":"hexagon_bi","room_assignment":["grey","purple","green","blue","red","yellow"],"door_color_assignment":["white","black"],"door_generator_assignment":[0,1],"goal":0,"start":3,"action_noise":0.2,"location_history":"[3,4,5,0]","action_history":"[0,1,0]","door_history":"[0,1,0]","location_rts":"[1627,672,626]","trial_type":"two-door-navigation","trial_index":60,"time_elapsed":1219759,"internal_node_id":"0.0-2.0-58.0"},{"group":"hexagon_bi","room_assignment":["grey","purple","green","blue","red","yellow"],"door_color_assignment":["white","black"],"door_generator_assignment":[0,1],"goal":2,"start":0,"action_noise":0.2,"location_history":"[0,1,0,5,0,5,4,3,2]","action_history":"[1,0,0,0,1,1,0,1]","door_history":"[1,0,0,0,1,1,0,1]","location_rts":"[4209,408,429,1350,282,1363,1066,594]","trial_type":"two-door-navigation","trial_index":61,"time_elapsed":1241011,"internal_node_id":"0.0-2.0-59.0"},{"group":"hexagon_bi","room_assignment":["grey","purple","green","blue","red","yellow"],"door_color_assignment":["white","black"],"door_generator_assignment":[0,1],"goal":1,"start":2,"action_noise":0.2,"location_history":"[2,3,4,5,4,3,4,5,0,1]","action_history":"[1,0,1,1,0,0,1,0,1]","door_history":"[1,0,1,1,0,0,1,0,1]","location_rts":"[1818,725,484,483,351,616,549,591,1137]","trial_type":"two-door-navigation","trial_index":62,"time_elapsed":1260316,"internal_node_id":"0.0-2.0-60.0"},{"group":"hexagon_bi","room_assignment":["grey","purple","green","blue","red","yellow"],"door_color_assignment":["white","black"],"door_generator_assignment":[0,1],"goal":0,"start":1,"action_noise":0.2,"location_history":"[1,2,3,4,5,4,3,4,3,4,5,0]","action_history":"[0,1,0,1,0,1,0,1,0,1,0]","door_history":"[0,1,0,1,0,1,0,1,0,1,0]","location_rts":"[4101,491,771,416,422,351,441,318,375,340,554]","trial_type":"two-door-navigation","trial_index":63,"time_elapsed":1283476,"internal_node_id":"0.0-2.0-61.0"},{"group":"hexagon_bi","room_assignment":["grey","purple","green","blue","red","yellow"],"door_color_assignment":["white","black"],"door_generator_assignment":[0,1],"goal":3,"start":0,"action_noise":0.2,"location_history":"[0,1,2,1,0,1,0,5,4,3]","action_history":"[1,0,0,1,1,0,0,1,0]","door_history":"[1,0,0,1,1,0,0,1,0]","location_rts":"[1696,573,1781,770,601,592,607,1014,696]","trial_type":"two-door-navigation","trial_index":64,"time_elapsed":1304360,"internal_node_id":"0.0-2.0-62.0"},{"group":"hexagon_bi","room_assignment":["grey","purple","green","blue","red","yellow"],"door_color_assignment":["white","black"],"door_generator_assignment":[0,1],"goal":5,"start":3,"action_noise":0.2,"location_history":"[3,4,3,2,1,0,1,2,1,0,5]","action_history":"[0,1,1,0,1,0,1,0,1,0]","door_history":"[0,1,1,0,1,0,1,0,1,0]","location_rts":"[1633,1132,2588,1057,439,337,377,505,360,363]","trial_type":"two-door-navigation","trial_index":65,"time_elapsed":1326723,"internal_node_id":"0.0-2.0-63.0"},{"group":"hexagon_bi","room_assignment":["grey","purple","green","blue","red","yellow"],"door_color_assignment":["white","black"],"door_generator_assignment":[0,1],"goal":4,"start":5,"action_noise":0.2,"location_history":"[5,4]","action_history":"[1]","door_history":"[1]","location_rts":"[2492]","trial_type":"two-door-navigation","trial_index":66,"time_elapsed":1333733,"internal_node_id":"0.0-2.0-64.0"},{"group":"hexagon_bi","room_assignment":["grey","purple","green","blue","red","yellow"],"door_color_assignment":["white","black"],"door_generator_assignment":[0,1],"goal":1,"start":4,"action_noise":0.2,"location_history":"[4,5,0,5,4,3,2,1]","action_history":"[1,0,0,1,0,1,0]","door_history":"[1,0,0,1,0,1,0]","location_rts":"[4483,885,1284,286,910,2124,375]","trial_type":"two-door-navigation","trial_index":67,"time_elapsed":1354686,"internal_node_id":"0.0-2.0-65.0"},{"group":"hexagon_bi","room_assignment":["grey","purple","green","blue","red","yellow"],"door_color_assignment":["white","black"],"door_generator_assignment":[0,1],"goal":5,"start":1,"action_noise":0.2,"location_history":"[1,2,3,2,3,4,5]","action_history":"[0,1,0,1,0,1]","door_history":"[0,1,0,1,0,1]","location_rts":"[1675,431,746,486,392,886]","trial_type":"two-door-navigation","trial_index":68,"time_elapsed":1368869,"internal_node_id":"0.0-2.0-66.0"},{"group":"hexagon_bi","room_assignment":["grey","purple","green","blue","red","yellow"],"door_color_assignment":["white","black"],"door_generator_assignment":[0,1],"goal":2,"start":5,"action_noise":0.2,"location_history":"[5,0,5,4,3,4,3,2]","action_history":"[1,0,1,0,1,0,1]","door_history":"[1,0,1,0,1,0,1]","location_rts":"[3059,432,387,1022,447,272,390]","trial_type":"two-door-navigation","trial_index":69,"time_elapsed":1385428,"internal_node_id":"0.0-2.0-67.0"},{"group":"hexagon_bi","room_assignment":["grey","purple","green","blue","red","yellow"],"door_color_assignment":["white","black"],"door_generator_assignment":[0,1],"goal":3,"start":2,"action_noise":0.2,"location_history":"[2,1,2,3]","action_history":"[0,0,1]","door_history":"[0,0,1]","location_rts":"[1095,674,685]","trial_type":"two-door-navigation","trial_index":70,"time_elapsed":1394399,"internal_node_id":"0.0-2.0-68.0"},{"group":"hexagon_bi","room_assignment":["grey","purple","green","blue","red","yellow"],"door_color_assignment":["white","black"],"door_generator_assignment":[0,1],"goal":4,"start":3,"action_noise":0.2,"location_history":"[3,2,1,0,5,0,1,2,3,4]","action_history":"[1,0,1,0,1,1,0,1,0]","door_history":"[1,0,1,0,1,1,0,1,0]","location_rts":"[1844,423,455,384,890,594,238,846,397]","trial_type":"two-door-navigation","trial_index":71,"time_elapsed":1413049,"internal_node_id":"0.0-2.0-69.0"},{"group":"hexagon_bi","room_assignment":["grey","purple","green","blue","red","yellow"],"door_color_assignment":["white","black"],"door_generator_assignment":[0,1],"goal":0,"start":4,"action_noise":0.2,"location_history":"[4,5,0]","action_history":"[1,0]","door_history":"[1,0]","location_rts":"[4679,387]","trial_type":"two-door-navigation","trial_index":72,"time_elapsed":1423625,"internal_node_id":"0.0-2.0-70.0"},{"group":"hexagon_bi","room_assignment":["grey","purple","green","blue","red","yellow"],"door_color_assignment":["white","black"],"door_generator_assignment":[0,1],"goal":5,"start":0,"action_noise":0.2,"location_history":"[0,1,2,3,4,3,2,3,4,5]","action_history":"[0,0,1,0,0,1,1,0,1]","door_history":"[0,0,1,0,0,1,1,0,1]","location_rts":"[1661,729,278,382,604,780,832,456,618]","trial_type":"two-door-navigation","trial_index":73,"time_elapsed":1442523,"internal_node_id":"0.0-2.0-71.0"},{"group":"hexagon_bi","room_assignment":["grey","purple","green","blue","red","yellow"],"door_color_assignment":["white","black"],"door_generator_assignment":[0,1],"goal":0,"start":5,"action_noise":0.2,"location_history":"[5,4,3,2,3,4,3,4,3,2,1,0]","action_history":"[1,0,0,1,0,0,1,0,1,0,1]","door_history":"[1,0,0,1,0,0,1,0,1,0,1]","location_rts":"[1649,491,521,490,996,453,452,350,403,371,353]","trial_type":"two-door-navigation","trial_index":74,"time_elapsed":1463622,"internal_node_id":"0.0-2.0-72.0"},{"group":"hexagon_bi","room_assignment":["grey","purple","green","blue","red","yellow"],"door_color_assignment":["white","black"],"door_generator_assignment":[0,1],"goal":3,"start":0,"action_noise":0.2,"location_history":"[0,1,2,3]","action_history":"[1,0,1]","door_history":"[1,0,1]","location_rts":"[2488,470,343]","trial_type":"two-door-navigation","trial_index":75,"time_elapsed":1473455,"internal_node_id":"0.0-2.0-73.0"},{"group":"hexagon_bi","room_assignment":["grey","purple","green","blue","red","yellow"],"door_color_assignment":["white","black"],"door_generator_assignment":[0,1],"goal":1,"start":3,"action_noise":0.2,"location_history":"[3,2,1]","action_history":"[1,0]","door_history":"[1,0]","location_rts":"[2163,372]","trial_type":"two-door-navigation","trial_index":76,"time_elapsed":1481500,"internal_node_id":"0.0-2.0-74.0"},{"group":"hexagon_bi","room_assignment":["grey","purple","green","blue","red","yellow"],"door_color_assignment":["white","black"],"door_generator_assignment":[0,1],"goal":2,"start":1,"action_noise":0.2,"location_history":"[1,2]","action_history":"[0]","door_history":"[0]","location_rts":"[6511]","trial_type":"two-door-navigation","trial_index":77,"time_elapsed":1492519,"internal_node_id":"0.0-2.0-75.0"},{"group":"hexagon_bi","room_assignment":["grey","purple","green","blue","red","yellow"],"door_color_assignment":["white","black"],"door_generator_assignment":[0,1],"goal":4,"start":2,"action_noise":0.2,"location_history":"[2,3,2,3,2,1,0,1,2,1,0,1,0,5,4]","action_history":"[1,0,1,1,0,1,1,0,0,1,0,1,0,1]","door_history":"[1,0,1,1,0,1,1,0,0,1,0,1,0,1]","location_rts":"[1899,789,295,482,504,768,357,813,1312,539,362,407,302,427]","trial_type":"two-door-navigation","trial_index":78,"time_elapsed":1519355,"internal_node_id":"0.0-2.0-76.0"},{"group":"hexagon_bi","room_assignment":["grey","purple","green","blue","red","yellow"],"door_color_assignment":["white","black"],"door_generator_assignment":[0,1],"goal":3,"start":4,"action_noise":0.2,"location_history":"[4,3]","action_history":"[0]","door_history":"[0]","location_rts":"[1295]","trial_type":"two-door-navigation","trial_index":79,"time_elapsed":1525158,"internal_node_id":"0.0-2.0-77.0"},{"group":"hexagon_bi","room_assignment":["grey","purple","green","blue","red","yellow"],"door_color_assignment":["white","black"],"door_generator_assignment":[0,1],"goal":0,"start":3,"action_noise":0.2,"location_history":"[3,4,3,4,5,0]","action_history":"[0,1,0,1,0]","door_history":"[0,1,0,1,0]","location_rts":"[1618,367,356,348,432]","trial_type":"two-door-navigation","trial_index":80,"time_elapsed":1536815,"internal_node_id":"0.0-2.0-78.0"},{"group":"hexagon_bi","room_assignment":["grey","purple","green","blue","red","yellow"],"door_color_assignment":["white","black"],"door_generator_assignment":[0,1],"goal":4,"start":0,"action_noise":0.2,"location_history":"[0,1,0,5,4]","action_history":"[1,1,0,1]","door_history":"[1,1,0,1]","location_rts":"[2648,684,277,532]","trial_type":"two-door-navigation","trial_index":81,"time_elapsed":1548477,"internal_node_id":"0.0-2.0-79.0"},{"group":"hexagon_bi","room_assignment":["grey","purple","green","blue","red","yellow"],"door_color_assignment":["white","black"],"door_generator_assignment":[0,1],"goal":5,"start":4,"action_noise":0.2,"location_history":"[4,3,2,1,2,3,4,5]","action_history":"[0,1,0,0,1,0,1]","door_history":"[0,1,0,0,1,0,1]","location_rts":"[1441,295,372,684,219,1393,381]","trial_type":"two-door-navigation","trial_index":82,"time_elapsed":1563801,"internal_node_id":"0.0-2.0-80.0"},{"group":"hexagon_bi","room_assignment":["grey","purple","green","blue","red","yellow"],"door_color_assignment":["white","black"],"door_generator_assignment":[0,1],"goal":1,"start":5,"action_noise":0.2,"location_history":"[5,0,5,4,3,2,3,4,5,0,5,4,5,0,1]","action_history":"[1,0,1,0,1,1,0,1,0,1,0,1,0,1]","door_history":"[1,0,1,0,1,1,0,1,0,1,0,1,0,1]","location_rts":"[2796,379,369,368,520,376,237,1062,307,473,310,364,374,420]","trial_type":"two-door-navigation","trial_index":83,"time_elapsed":1589742,"internal_node_id":"0.0-2.0-81.0"},{"group":"hexagon_bi","room_assignment":["grey","purple","green","blue","red","yellow"],"door_color_assignment":["white","black"],"door_generator_assignment":[0,1],"goal":2,"start":1,"action_noise":0.2,"location_history":"[1,2]","action_history":"[0]","door_history":"[0]","location_rts":"[3124]","trial_type":"two-door-navigation","trial_index":84,"time_elapsed":1597378,"internal_node_id":"0.0-2.0-82.0"},{"group":"hexagon_bi","room_assignment":["grey","purple","green","blue","red","yellow"],"door_color_assignment":["white","black"],"door_generator_assignment":[0,1],"goal":4,"start":2,"action_noise":0.2,"location_history":"[2,1,0,5,4]","action_history":"[0,1,0,1]","door_history":"[0,1,0,1]","location_rts":"[2618,426,1348,445]","trial_type":"two-door-navigation","trial_index":85,"time_elapsed":1609742,"internal_node_id":"0.0-2.0-83.0"},{"group":"hexagon_bi","room_assignment":["grey","purple","green","blue","red","yellow"],"door_color_assignment":["white","black"],"door_generator_assignment":[0,1],"goal":0,"start":4,"action_noise":0.2,"location_history":"[4,3,2,1,0]","action_history":"[0,1,0,1]","door_history":"[0,1,0,1]","location_rts":"[1481,836,315,283]","trial_type":"two-door-navigation","trial_index":86,"time_elapsed":1620183,"internal_node_id":"0.0-2.0-84.0"},{"group":"hexagon_bi","room_assignment":["grey","purple","green","blue","red","yellow"],"door_color_assignment":["white","black"],"door_generator_assignment":[0,1],"goal":5,"start":0,"action_noise":0.2,"location_history":"[0,5]","action_history":"[0]","door_history":"[0]","location_rts":"[4165]","trial_type":"two-door-navigation","trial_index":87,"time_elapsed":1628853,"internal_node_id":"0.0-2.0-85.0"},{"group":"hexagon_bi","room_assignment":["grey","purple","green","blue","red","yellow"],"door_color_assignment":["white","black"],"door_generator_assignment":[0,1],"goal":3,"start":5,"action_noise":0.2,"location_history":"[5,0,1,2,1,0,5,4,3]","action_history":"[1,0,1,0,1,0,1,0]","door_history":"[1,0,1,0,1,0,1,0]","location_rts":"[14407,3522,6980,571,8361,2663,7676,5819]","trial_type":"two-door-navigation","trial_index":88,"time_elapsed":1690412,"internal_node_id":"0.0-2.0-86.0"},{"group":"hexagon_bi","room_assignment":["grey","purple","green","blue","red","yellow"],"door_color_assignment":["white","black"],"door_generator_assignment":[0,1],"goal":1,"start":3,"action_noise":0.2,"location_history":"[3,2,3,2,1]","action_history":"[1,0,1,0]","door_history":"[1,0,1,0]","location_rts":"[5644,9854,1923,463]","trial_type":"two-door-navigation","trial_index":89,"time_elapsed":1715816,"internal_node_id":"0.0-2.0-87.0"},{"group":"hexagon_bi","room_assignment":["grey","purple","green","blue","red","yellow"],"door_color_assignment":["white","black"],"door_generator_assignment":[0,1],"goal":2,"start":1,"action_noise":0.2,"location_history":"[1,2]","action_history":"[0]","door_history":"[0]","location_rts":"[4171]","trial_type":"two-door-navigation","trial_index":90,"time_elapsed":1724492,"internal_node_id":"0.0-2.0-88.0"},{"group":"hexagon_bi","room_assignment":["grey","purple","green","blue","red","yellow"],"door_color_assignment":["white","black"],"door_generator_assignment":[0,1],"goal":0,"start":2,"action_noise":0.2,"location_history":"[2,3,4,5,0]","action_history":"[0,0,0,0]","door_history":"[0,0,0,0]","location_rts":"[6701,8860,822,490]","trial_type":"two-door-navigation","trial_index":91,"time_elapsed":1748881,"internal_node_id":"0.0-2.0-89.0"},{"group":"hexagon_bi","room_assignment":["grey","purple","green","blue","red","yellow"],"door_color_assignment":["white","black"],"door_generator_assignment":[0,1],"goal":5,"start":0,"action_noise":0.2,"location_history":"[0,5]","action_history":"[0]","door_history":"[0]","location_rts":"[1589]","trial_type":"two-door-navigation","trial_index":92,"time_elapsed":1754975,"internal_node_id":"0.0-2.0-90.0"},{"group":"hexagon_bi","room_assignment":["grey","purple","green","blue","red","yellow"],"door_color_assignment":["white","black"],"door_generator_assignment":[0,1],"goal":1,"start":5,"action_noise":0.2,"location_history":"[5,4,5,0,5,0,1]","action_history":"[1,1,0,1,0,1]","door_history":"[1,1,0,1,0,1]","location_rts":"[5605,3777,1274,624,358,403]","trial_type":"two-door-navigation","trial_index":93,"time_elapsed":1776551,"internal_node_id":"0.0-2.0-91.0"},{"group":"hexagon_bi","room_assignment":["grey","purple","green","blue","red","yellow"],"door_color_assignment":["white","black"],"door_generator_assignment":[0,1],"goal":3,"start":1,"action_noise":0.2,"location_history":"[1,2,1,0,5,4,3]","action_history":"[0,0,1,0,1,0]","door_history":"[0,0,1,0,1,0]","location_rts":"[1863,1917,706,743,327,382]","trial_type":"two-door-navigation","trial_index":94,"time_elapsed":1792022,"internal_node_id":"0.0-2.0-92.0"},{"group":"hexagon_bi","room_assignment":["grey","purple","green","blue","red","yellow"],"door_color_assignment":["white","black"],"door_generator_assignment":[0,1],"goal":4,"start":3,"action_noise":0.2,"location_history":"[3,4]","action_history":"[0]","door_history":"[0]","location_rts":"[3858]","trial_type":"two-door-navigation","trial_index":95,"time_elapsed":1800383,"internal_node_id":"0.0-2.0-93.0"},{"group":"hexagon_bi","room_assignment":["grey","purple","green","blue","red","yellow"],"door_color_assignment":["white","black"],"door_generator_assignment":[0,1],"goal":2,"start":4,"action_noise":0.2,"location_history":"[4,3,2]","action_history":"[0,1]","door_history":"[0,1]","location_rts":"[4108,371]","trial_type":"two-door-navigation","trial_index":96,"time_elapsed":1810377,"internal_node_id":"0.0-2.0-94.0"},{"group":"hexagon_bi","room_assignment":["grey","purple","green","blue","red","yellow"],"door_color_assignment":["white","black"],"door_generator_assignment":[0,1],"goal":4,"start":2,"action_noise":0.2,"location_history":"[2,1,2,1,0,1,0,1,0,5,0,1,2,1,2,1,0,5,4]","action_history":"[0,1,0,0,1,0,1,1,0,1,1,1,0,0,0,1,0,0]","door_history":"[0,1,0,0,1,0,1,1,0,1,1,1,0,0,0,1,0,0]","location_rts":"[5003,737,387,1124,442,403,379,935,331,1360,1551,1624,681,514,569,881,450,416]","trial_type":"two-door-navigation","trial_index":97,"time_elapsed":1849772,"internal_node_id":"0.0-2.0-95.0"},{"group":"hexagon_bi","room_assignment":["grey","purple","green","blue","red","yellow"],"door_color_assignment":["white","black"],"door_generator_assignment":[0,1],"goal":0,"start":4,"action_noise":0.2,"location_history":"[4,3,4,3,2,3,4,5,0]","action_history":"[0,0,0,1,1,0,0,0]","door_history":"[0,0,0,1,1,0,0,0]","location_rts":"[2864,1226,392,424,538,399,442,422]","trial_type":"two-door-navigation","trial_index":98,"time_elapsed":1868009,"internal_node_id":"0.0-2.0-96.0"},{"group":"hexagon_bi","room_assignment":["grey","purple","green","blue","red","yellow"],"door_color_assignment":["white","black"],"door_generator_assignment":[0,1],"goal":5,"start":0,"action_noise":0.2,"location_history":"[0,5]","action_history":"[0]","door_history":"[0]","location_rts":"[1784]","trial_type":"two-door-navigation","trial_index":99,"time_elapsed":1874299,"internal_node_id":"0.0-2.0-97.0"},{"group":"hexagon_bi","room_assignment":["grey","purple","green","blue","red","yellow"],"door_color_assignment":["white","black"],"door_generator_assignment":[0,1],"goal":1,"start":5,"action_noise":0.2,"location_history":"[5,4,3,4,5,0,5,0,1]","action_history":"[1,0,0,0,0,0,0,1]","door_history":"[1,0,0,0,0,0,0,1]","location_rts":"[2063,406,481,468,423,790,817,367]","trial_type":"two-door-navigation","trial_index":100,"time_elapsed":1891651,"internal_node_id":"0.0-2.0-98.0"},{"group":"hexagon_bi","room_assignment":["grey","purple","green","blue","red","yellow"],"door_color_assignment":["white","black"],"door_generator_assignment":[0,1],"goal":3,"start":1,"action_noise":0.2,"location_history":"[1,2,1,0,5,0,1,2,1,2,3]","action_history":"[0,1,0,0,0,1,0,0,0,1]","door_history":"[0,1,0,0,0,1,0,0,0,1]","location_rts":"[1270,831,384,458,394,700,574,422,609,440]","trial_type":"two-door-navigation","trial_index":101,"time_elapsed":1911290,"internal_node_id":"0.0-2.0-99.0"},{"view_history":"[{\"page_index\":0,\"viewing_time\":4119}]","rt":4119,"trial_type":"instructions","trial_index":102,"time_elapsed":1916409,"internal_node_id":"0.0-3.0"},{"view_history":"[{\"page_index\":0,\"viewing_time\":1810},{\"page_index\":1,\"viewing_time\":19299}]","rt":21109,"trial_type":"instructions","trial_index":103,"time_elapsed":1938518,"internal_node_id":"0.0-4.0"},{"group":"hexagon_bi","fractal_assignment":["../images/pnk_blu.png","../images/org_blu.png","../images/ylw_slt.png","../images/cyn_red.png","../images/blu_wht.png","../images/gry_blk.png"],"mutagen_generator_assignment":[1,0],"goal":4,"start":0,"action_noise":0.2,"location_history":"[0,1,2,3,2,1,2,1,2,3,2,1,0,5,0,5,4]","action_history":"[1,0,1,1,0,0,0,1,1,1,0,0,0,0,0,1]","mutagen_history":"[0,1,0,0,1,1,1,0,0,0,1,1,1,1,1,0]","location_rts":"[2235,2204,1898,1612,838,507,581,549,504,1514,499,511,1638,969,497,440]","trial_type":"fractal-mutation","trial_index":104,"time_elapsed":1975113,"internal_node_id":"0.0-5.0-0.0"},{"group":"hexagon_bi","fractal_assignment":["../images/pnk_blu.png","../images/org_blu.png","../images/ylw_slt.png","../images/cyn_red.png","../images/blu_wht.png","../images/gry_blk.png"],"mutagen_generator_assignment":[1,0],"goal":3,"start":4,"action_noise":0.2,"location_history":"[4,3]","action_history":"[0]","mutagen_history":"[1]","location_rts":"[3040]","trial_type":"fractal-mutation","trial_index":105,"time_elapsed":1982663,"internal_node_id":"0.0-5.0-1.0"},{"group":"hexagon_bi","fractal_assignment":["../images/pnk_blu.png","../images/org_blu.png","../images/ylw_slt.png","../images/cyn_red.png","../images/blu_wht.png","../images/gry_blk.png"],"mutagen_generator_assignment":[1,0],"goal":5,"start":3,"action_noise":0.2,"location_history":"[3,2,1,2,3,4,5]","action_history":"[0,0,0,0,0,1]","mutagen_history":"[1,1,1,1,1,0]","location_rts":"[1243,747,522,487,1359,830]","trial_type":"fractal-mutation","trial_index":106,"time_elapsed":1997388,"internal_node_id":"0.0-5.0-2.0"},{"group":"hexagon_bi","fractal_assignment":["../images/pnk_blu.png","../images/org_blu.png","../images/ylw_slt.png","../images/cyn_red.png","../images/blu_wht.png","../images/gry_blk.png"],"mutagen_generator_assignment":[1,0],"goal":2,"start":5,"action_noise":0.2,"location_history":"[5,0,5,4,3,4,3,4,3,2]","action_history":"[1,1,0,0,0,0,0,1,1]","mutagen_history":"[0,0,1,1,1,1,1,0,0]","location_rts":"[853,748,419,467,518,777,562,889,954]","trial_type":"fractal-mutation","trial_index":107,"time_elapsed":2016113,"internal_node_id":"0.0-5.0-3.0"},{"group":"hexagon_bi","fractal_assignment":["../images/pnk_blu.png","../images/org_blu.png","../images/ylw_slt.png","../images/cyn_red.png","../images/blu_wht.png","../images/gry_blk.png"],"mutagen_generator_assignment":[1,0],"goal":1,"start":2,"action_noise":0.2,"location_history":"[2,1]","action_history":"[1]","mutagen_history":"[0]","location_rts":"[891]","trial_type":"fractal-mutation","trial_index":108,"time_elapsed":2021512,"internal_node_id":"0.0-5.0-4.0"},{"group":"hexagon_bi","fractal_assignment":["../images/pnk_blu.png","../images/org_blu.png","../images/ylw_slt.png","../images/cyn_red.png","../images/blu_wht.png","../images/gry_blk.png"],"mutagen_generator_assignment":[1,0],"goal":4,"start":1,"action_noise":0.2,"location_history":"[1,0,5,4]","action_history":"[0,0,0]","mutagen_history":"[1,1,1]","location_rts":"[930,452,573]","trial_type":"fractal-mutation","trial_index":109,"time_elapsed":2029981,"internal_node_id":"0.0-5.0-5.0"},{"group":"hexagon_bi","fractal_assignment":["../images/pnk_blu.png","../images/org_blu.png","../images/ylw_slt.png","../images/cyn_red.png","../images/blu_wht.png","../images/gry_blk.png"],"mutagen_generator_assignment":[1,0],"goal":1,"start":4,"action_noise":0.2,"location_history":"[4,3,2,3,4,5,4,5,4,3,2,1]","action_history":"[0,1,1,1,1,1,1,1,0,1,0]","mutagen_history":"[1,0,0,0,0,0,0,0,1,0,1]","location_rts":"[669,831,464,417,500,903,407,871,461,723,1224]","trial_type":"fractal-mutation","trial_index":110,"time_elapsed":2052007,"internal_node_id":"0.0-5.0-6.0"},{"group":"hexagon_bi","fractal_assignment":["../images/pnk_blu.png","../images/org_blu.png","../images/ylw_slt.png","../images/cyn_red.png","../images/blu_wht.png","../images/gry_blk.png"],"mutagen_generator_assignment":[1,0],"goal":5,"start":1,"action_noise":0.2,"location_history":"[1,2,3,2,1,0,5]","action_history":"[0,1,1,0,1,0]","mutagen_history":"[1,0,0,1,0,1]","location_rts":"[1914,573,896,410,1287,440]","trial_type":"fractal-mutation","trial_index":111,"time_elapsed":2067049,"internal_node_id":"0.0-5.0-7.0"},{"group":"hexagon_bi","fractal_assignment":["../images/pnk_blu.png","../images/org_blu.png","../images/ylw_slt.png","../images/cyn_red.png","../images/blu_wht.png","../images/gry_blk.png"],"mutagen_generator_assignment":[1,0],"goal":0,"start":5,"action_noise":0.2,"location_history":"[5,4,5,0]","action_history":"[1,1,1]","mutagen_history":"[0,0,0]","location_rts":"[1800,620,598]","trial_type":"fractal-mutation","trial_index":112,"time_elapsed":2076579,"internal_node_id":"0.0-5.0-8.0"},{"group":"hexagon_bi","fractal_assignment":["../images/pnk_blu.png","../images/org_blu.png","../images/ylw_slt.png","../images/cyn_red.png","../images/blu_wht.png","../images/gry_blk.png"],"mutagen_generator_assignment":[1,0],"goal":2,"start":0,"action_noise":0.2,"location_history":"[0,5,0,5,4,5,4,5,0,1,0,1,2]","action_history":"[0,0,0,1,1,1,1,0,1,1,1,0]","mutagen_history":"[1,1,1,0,0,0,0,1,0,0,0,1]","location_rts":"[1551,869,1093,482,481,441,911,745,690,537,467,514]","trial_type":"fractal-mutation","trial_index":113,"time_elapsed":2100897,"internal_node_id":"0.0-5.0-9.0"},{"group":"hexagon_bi","fractal_assignment":["../images/pnk_blu.png","../images/org_blu.png","../images/ylw_slt.png","../images/cyn_red.png","../images/blu_wht.png","../images/gry_blk.png"],"mutagen_generator_assignment":[1,0],"goal":3,"start":2,"action_noise":0.2,"location_history":"[2,3]","action_history":"[1]","mutagen_history":"[0]","location_rts":"[2510]","trial_type":"fractal-mutation","trial_index":114,"time_elapsed":2107913,"internal_node_id":"0.0-5.0-10.0"},{"group":"hexagon_bi","fractal_assignment":["../images/pnk_blu.png","../images/org_blu.png","../images/ylw_slt.png","../images/cyn_red.png","../images/blu_wht.png","../images/gry_blk.png"],"mutagen_generator_assignment":[1,0],"goal":0,"start":3,"action_noise":0.2,"location_history":"[3,4,3,4,3,4,5,4,5,4,5,0]","action_history":"[0,0,0,0,0,0,0,1,1,1,0]","mutagen_history":"[1,1,1,1,1,1,1,0,0,0,1]","location_rts":"[1201,509,467,483,624,734,676,1162,659,595,535]","trial_type":"fractal-mutation","trial_index":115,"time_elapsed":2130101,"internal_node_id":"0.0-5.0-11.0"},{"group":"hexagon_bi","fractal_assignment":["../images/pnk_blu.png","../images/org_blu.png","../images/ylw_slt.png","../images/cyn_red.png","../images/blu_wht.png","../images/gry_blk.png"],"mutagen_generator_assignment":[1,0],"goal":2,"start":0,"action_noise":0.2,"location_history":"[0,5,0,5,4,3,2]","action_history":"[0,1,0,1,0,1]","mutagen_history":"[1,0,1,0,1,0]","location_rts":"[1590,695,640,416,1923,609]","trial_type":"fractal-mutation","trial_index":116,"time_elapsed":2145501,"internal_node_id":"0.0-5.0-12.0"},{"group":"hexagon_bi","fractal_assignment":["../images/pnk_blu.png","../images/org_blu.png","../images/ylw_slt.png","../images/cyn_red.png","../images/blu_wht.png","../images/gry_blk.png"],"mutagen_generator_assignment":[1,0],"goal":5,"start":2,"action_noise":0.2,"location_history":"[2,1,0,1,2,1,2,1,0,1,2,3,2,1,0,5]","action_history":"[0,1,1,0,0,0,0,1,0,1,0,1,0,1,0]","mutagen_history":"[1,0,0,1,1,1,1,0,1,0,1,0,1,0,1]","location_rts":"[1875,864,384,467,381,435,368,1113,489,753,417,724,395,604,425]","trial_type":"fractal-mutation","trial_index":117,"time_elapsed":2173749,"internal_node_id":"0.0-5.0-13.0"},{"group":"hexagon_bi","fractal_assignment":["../images/pnk_blu.png","../images/org_blu.png","../images/ylw_slt.png","../images/cyn_red.png","../images/blu_wht.png","../images/gry_blk.png"],"mutagen_generator_assignment":[1,0],"goal":4,"start":5,"action_noise":0.2,"location_history":"[5,0,1,2,3,4]","action_history":"[0,1,0,1,1]","mutagen_history":"[1,0,1,0,0]","location_rts":"[1712,524,518,319,427]","trial_type":"fractal-mutation","trial_index":118,"time_elapsed":2185767,"internal_node_id":"0.0-5.0-14.0"},{"group":"hexagon_bi","fractal_assignment":["../images/pnk_blu.png","../images/org_blu.png","../images/ylw_slt.png","../images/cyn_red.png","../images/blu_wht.png","../images/gry_blk.png"],"mutagen_generator_assignment":[1,0],"goal":3,"start":4,"action_noise":0.2,"location_history":"[4,3]","action_history":"[0]","mutagen_history":"[1]","location_rts":"[1526]","trial_type":"fractal-mutation","trial_index":119,"time_elapsed":2191802,"internal_node_id":"0.0-5.0-15.0"},{"group":"hexagon_bi","fractal_assignment":["../images/pnk_blu.png","../images/org_blu.png","../images/ylw_slt.png","../images/cyn_red.png","../images/blu_wht.png","../images/gry_blk.png"],"mutagen_generator_assignment":[1,0],"goal":1,"start":3,"action_noise":0.2,"location_history":"[3,4,5,4,5,0,5,0,5,0,1]","action_history":"[0,0,1,1,1,1,0,0,0,1]","mutagen_history":"[1,1,0,0,0,0,1,1,1,0]","location_rts":"[3136,468,540,475,933,491,861,478,516,1170]","trial_type":"fractal-mutation","trial_index":120,"time_elapsed":2214417,"internal_node_id":"0.0-5.0-16.0"},{"group":"hexagon_bi","fractal_assignment":["../images/pnk_blu.png","../images/org_blu.png","../images/ylw_slt.png","../images/cyn_red.png","../images/blu_wht.png","../images/gry_blk.png"],"mutagen_generator_assignment":[1,0],"goal":5,"start":1,"action_noise":0.2,"location_history":"[1,0,5]","action_history":"[1,0]","mutagen_history":"[0,1]","location_rts":"[3902,526]","trial_type":"fractal-mutation","trial_index":121,"time_elapsed":2224356,"internal_node_id":"0.0-5.0-17.0"},{"group":"hexagon_bi","fractal_assignment":["../images/pnk_blu.png","../images/org_blu.png","../images/ylw_slt.png","../images/cyn_red.png","../images/blu_wht.png","../images/gry_blk.png"],"mutagen_generator_assignment":[1,0],"goal":4,"start":5,"action_noise":0.2,"location_history":"[5,0,1,2,1,0,5,0,5,4]","action_history":"[0,1,0,0,0,0,1,0,1]","mutagen_history":"[1,0,1,1,1,1,0,1,0]","location_rts":"[1460,919,461,404,402,657,1175,824,528]","trial_type":"fractal-mutation","trial_index":122,"time_elapsed":2243730,"internal_node_id":"0.0-5.0-18.0"},{"group":"hexagon_bi","fractal_assignment":["../images/pnk_blu.png","../images/org_blu.png","../images/ylw_slt.png","../images/cyn_red.png","../images/blu_wht.png","../images/gry_blk.png"],"mutagen_generator_assignment":[1,0],"goal":0,"start":4,"action_noise":0.2,"location_history":"[4,3,4,3,2,1,2,3,2,3,4,5,0]","action_history":"[0,0,1,1,1,0,1,1,1,0,1,1]","mutagen_history":"[1,1,0,0,0,1,0,0,0,1,0,0]","location_rts":"[2748,1272,715,824,635,646,479,600,816,495,994,442]","trial_type":"fractal-mutation","trial_index":123,"time_elapsed":2269937,"internal_node_id":"0.0-5.0-19.0"},{"group":"hexagon_bi","fractal_assignment":["../images/pnk_blu.png","../images/org_blu.png","../images/ylw_slt.png","../images/cyn_red.png","../images/blu_wht.png","../images/gry_blk.png"],"mutagen_generator_assignment":[1,0],"goal":1,"start":0,"action_noise":0.2,"location_history":"[0,5,4,3,2,3,2,1]","action_history":"[0,1,0,1,1,0,0]","mutagen_history":"[1,0,1,0,0,1,1]","location_rts":"[1856,541,626,724,491,445,1174]","trial_type":"fractal-mutation","trial_index":124,"time_elapsed":2286319,"internal_node_id":"0.0-5.0-20.0"},{"group":"hexagon_bi","fractal_assignment":["../images/pnk_blu.png","../images/org_blu.png","../images/ylw_slt.png","../images/cyn_red.png","../images/blu_wht.png","../images/gry_blk.png"],"mutagen_generator_assignment":[1,0],"goal":3,"start":1,"action_noise":0.2,"location_history":"[1,2,3]","action_history":"[0,1]","mutagen_history":"[1,0]","location_rts":"[2404,643]","trial_type":"fractal-mutation","trial_index":125,"time_elapsed":2294882,"internal_node_id":"0.0-5.0-21.0"},{"group":"hexagon_bi","fractal_assignment":["../images/pnk_blu.png","../images/org_blu.png","../images/ylw_slt.png","../images/cyn_red.png","../images/blu_wht.png","../images/gry_blk.png"],"mutagen_generator_assignment":[1,0],"goal":2,"start":3,"action_noise":0.2,"location_history":"[3,4,3,2]","action_history":"[1,0,1]","mutagen_history":"[0,1,0]","location_rts":"[1943,393,546]","trial_type":"fractal-mutation","trial_index":126,"time_elapsed":2304278,"internal_node_id":"0.0-5.0-22.0"},{"group":"hexagon_bi","fractal_assignment":["../images/pnk_blu.png","../images/org_blu.png","../images/ylw_slt.png","../images/cyn_red.png","../images/blu_wht.png","../images/gry_blk.png"],"mutagen_generator_assignment":[1,0],"goal":0,"start":2,"action_noise":0.2,"location_history":"[2,3,2,1,0]","action_history":"[0,1,0,1]","mutagen_history":"[1,0,1,0]","location_rts":"[4517,352,526,505]","trial_type":"fractal-mutation","trial_index":127,"time_elapsed":2317691,"internal_node_id":"0.0-5.0-23.0"},{"group":"hexagon_bi","fractal_assignment":["../images/pnk_blu.png","../images/org_blu.png","../images/ylw_slt.png","../images/cyn_red.png","../images/blu_wht.png","../images/gry_blk.png"],"mutagen_generator_assignment":[1,0],"goal":3,"start":0,"action_noise":0.2,"location_history":"[0,5,4,3]","action_history":"[0,1,0]","mutagen_history":"[1,0,1]","location_rts":"[851,393,827]","trial_type":"fractal-mutation","trial_index":128,"time_elapsed":2326280,"internal_node_id":"0.0-5.0-24.0"},{"group":"hexagon_bi","fractal_assignment":["../images/pnk_blu.png","../images/org_blu.png","../images/ylw_slt.png","../images/cyn_red.png","../images/blu_wht.png","../images/gry_blk.png"],"mutagen_generator_assignment":[1,0],"goal":1,"start":3,"action_noise":0.2,"location_history":"[3,4,3,4,5,0,5,4,3,2,3,2,3,2,1]","action_history":"[0,0,0,1,0,0,1,0,1,1,0,1,1,0]","mutagen_history":"[1,1,1,0,1,1,0,1,0,0,1,0,0,1]","location_rts":"[2089,519,751,496,861,814,658,592,622,630,545,763,456,479]","trial_type":"fractal-mutation","trial_index":129,"time_elapsed":2354110,"internal_node_id":"0.0-5.0-25.0"},{"group":"hexagon_bi","fractal_assignment":["../images/pnk_blu.png","../images/org_blu.png","../images/ylw_slt.png","../images/cyn_red.png","../images/blu_wht.png","../images/gry_blk.png"],"mutagen_generator_assignment":[1,0],"goal":2,"start":1,"action_noise":0.2,"location_history":"[1,0,1,0,1,2]","action_history":"[1,0,1,0,0]","mutagen_history":"[0,1,0,1,1]","location_rts":"[851,636,757,849,433]","trial_type":"fractal-mutation","trial_index":130,"time_elapsed":2366164,"internal_node_id":"0.0-5.0-26.0"},{"group":"hexagon_bi","fractal_assignment":["../images/pnk_blu.png","../images/org_blu.png","../images/ylw_slt.png","../images/cyn_red.png","../images/blu_wht.png","../images/gry_blk.png"],"mutagen_generator_assignment":[1,0],"goal":5,"start":2,"action_noise":0.2,"location_history":"[2,1,0,5]","action_history":"[1,1,1]","mutagen_history":"[0,0,0]","location_rts":"[989,929,439]","trial_type":"fractal-mutation","trial_index":131,"time_elapsed":2375037,"internal_node_id":"0.0-5.0-27.0"},{"group":"hexagon_bi","fractal_assignment":["../images/pnk_blu.png","../images/org_blu.png","../images/ylw_slt.png","../images/cyn_red.png","../images/blu_wht.png","../images/gry_blk.png"],"mutagen_generator_assignment":[1,0],"goal":4,"start":5,"action_noise":0.2,"location_history":"[5,4]","action_history":"[1]","mutagen_history":"[0]","location_rts":"[1136]","trial_type":"fractal-mutation","trial_index":132,"time_elapsed":2380677,"internal_node_id":"0.0-5.0-28.0"},{"group":"hexagon_bi","fractal_assignment":["../images/pnk_blu.png","../images/org_blu.png","../images/ylw_slt.png","../images/cyn_red.png","../images/blu_wht.png","../images/gry_blk.png"],"mutagen_generator_assignment":[1,0],"goal":5,"start":4,"action_noise":0.2,"location_history":"[4,3,4,5]","action_history":"[0,0,1]","mutagen_history":"[1,1,0]","location_rts":"[1036,634,1176]","trial_type":"fractal-mutation","trial_index":133,"time_elapsed":2390032,"internal_node_id":"0.0-5.0-29.0"},{"group":"hexagon_bi","fractal_assignment":["../images/pnk_blu.png","../images/org_blu.png","../images/ylw_slt.png","../images/cyn_red.png","../images/blu_wht.png","../images/gry_blk.png"],"mutagen_generator_assignment":[1,0],"goal":3,"start":5,"action_noise":0.2,"location_history":"[5,0,5,4,3]","action_history":"[0,0,1,0]","mutagen_history":"[1,1,0,1]","location_rts":"[935,864,1065,1243]","trial_type":"fractal-mutation","trial_index":134,"time_elapsed":2401659,"internal_node_id":"0.0-5.0-30.0"},{"group":"hexagon_bi","fractal_assignment":["../images/pnk_blu.png","../images/org_blu.png","../images/ylw_slt.png","../images/cyn_red.png","../images/blu_wht.png","../images/gry_blk.png"],"mutagen_generator_assignment":[1,0],"goal":0,"start":3,"action_noise":0.2,"location_history":"[3,4,5,0]","action_history":"[0,1,0]","mutagen_history":"[1,0,1]","location_rts":"[1629,442,494]","trial_type":"fractal-mutation","trial_index":135,"time_elapsed":2410745,"internal_node_id":"0.0-5.0-31.0"},{"group":"hexagon_bi","fractal_assignment":["../images/pnk_blu.png","../images/org_blu.png","../images/ylw_slt.png","../images/cyn_red.png","../images/blu_wht.png","../images/gry_blk.png"],"mutagen_generator_assignment":[1,0],"goal":4,"start":0,"action_noise":0.2,"location_history":"[0,1,0,5,0,1,0,5,0,1,0,1,2,3,2,1,0,5,4]","action_history":"[0,1,0,0,1,1,0,0,1,1,0,0,1,1,0,0,0,1]","mutagen_history":"[1,0,1,1,0,0,1,1,0,0,1,1,0,0,1,1,1,0]","location_rts":"[1480,446,497,471,657,637,528,385,548,472,450,734,504,888,459,391,492,431]","trial_type":"fractal-mutation","trial_index":136,"time_elapsed":2442783,"internal_node_id":"0.0-5.0-32.0"},{"group":"hexagon_bi","fractal_assignment":["../images/pnk_blu.png","../images/org_blu.png","../images/ylw_slt.png","../images/cyn_red.png","../images/blu_wht.png","../images/gry_blk.png"],"mutagen_generator_assignment":[1,0],"goal":1,"start":4,"action_noise":0.2,"location_history":"[4,3,4,5,0,1]","action_history":"[0,0,1,0,1]","mutagen_history":"[1,1,0,1,0]","location_rts":"[1673,681,454,1179,910]","trial_type":"fractal-mutation","trial_index":137,"time_elapsed":2456194,"internal_node_id":"0.0-5.0-33.0"},{"group":"hexagon_bi","fractal_assignment":["../images/pnk_blu.png","../images/org_blu.png","../images/ylw_slt.png","../images/cyn_red.png","../images/blu_wht.png","../images/gry_blk.png"],"mutagen_generator_assignment":[1,0],"goal":2,"start":1,"action_noise":0.2,"location_history":"[1,2]","action_history":"[0]","mutagen_history":"[1]","location_rts":"[2848]","trial_type":"fractal-mutation","trial_index":138,"time_elapsed":2463546,"internal_node_id":"0.0-5.0-34.0"},{"group":"hexagon_bi","fractal_assignment":["../images/pnk_blu.png","../images/org_blu.png","../images/ylw_slt.png","../images/cyn_red.png","../images/blu_wht.png","../images/gry_blk.png"],"mutagen_generator_assignment":[1,0],"goal":0,"start":2,"action_noise":0.2,"location_history":"[2,1,2,1,0]","action_history":"[0,0,0,1]","mutagen_history":"[1,1,1,0]","location_rts":"[1880,396,385,1008]","trial_type":"fractal-mutation","trial_index":139,"time_elapsed":2474732,"internal_node_id":"0.0-5.0-35.0"},{"group":"hexagon_bi","fractal_assignment":["../images/pnk_blu.png","../images/org_blu.png","../images/ylw_slt.png","../images/cyn_red.png","../images/blu_wht.png","../images/gry_blk.png"],"mutagen_generator_assignment":[1,0],"goal":5,"start":0,"action_noise":0.2,"location_history":"[0,5]","action_history":"[0]","mutagen_history":"[1]","location_rts":"[1679]","trial_type":"fractal-mutation","trial_index":140,"time_elapsed":2480920,"internal_node_id":"0.0-5.0-36.0"},{"group":"hexagon_bi","fractal_assignment":["../images/pnk_blu.png","../images/org_blu.png","../images/ylw_slt.png","../images/cyn_red.png","../images/blu_wht.png","../images/gry_blk.png"],"mutagen_generator_assignment":[1,0],"goal":2,"start":5,"action_noise":0.2,"location_history":"[5,0,5,4,3,2]","action_history":"[0,1,1,0,1]","mutagen_history":"[1,0,0,1,0]","location_rts":"[1500,619,636,498,815]","trial_type":"fractal-mutation","trial_index":141,"time_elapsed":2493507,"internal_node_id":"0.0-5.0-37.0"},{"group":"hexagon_bi","fractal_assignment":["../images/pnk_blu.png","../images/org_blu.png","../images/ylw_slt.png","../images/cyn_red.png","../images/blu_wht.png","../images/gry_blk.png"],"mutagen_generator_assignment":[1,0],"goal":1,"start":2,"action_noise":0.2,"location_history":"[2,1]","action_history":"[0]","mutagen_history":"[1]","location_rts":"[1949]","trial_type":"fractal-mutation","trial_index":142,"time_elapsed":2499966,"internal_node_id":"0.0-5.0-38.0"},{"group":"hexagon_bi","fractal_assignment":["../images/pnk_blu.png","../images/org_blu.png","../images/ylw_slt.png","../images/cyn_red.png","../images/blu_wht.png","../images/gry_blk.png"],"mutagen_generator_assignment":[1,0],"goal":4,"start":1,"action_noise":0.2,"location_history":"[1,2,1,0,5,0,1,0,5,0,1,0,5,0,1,0,1,2,1,0,1,2,3,2,1,0,1,2,1,0,5,4]","action_history":"[1,0,1,0,0,1,1,1,0,1,1,1,0,1,0,1,0,0,1,1,0,0,1,0,1,1,1,0,0,0,1]","mutagen_history":"[0,1,0,1,1,0,0,0,1,0,0,0,1,0,1,0,1,1,0,0,1,1,0,1,0,0,0,1,1,1,0]","location_rts":"[2909,587,482,803,540,514,433,465,497,799,941,1285,551,492,357,514,412,695,492,520,431,617,667,413,399,611,409,693,464,1750,495]","trial_type":"fractal-mutation","trial_index":143,"time_elapsed":2555836,"internal_node_id":"0.0-5.0-39.0"},{"group":"hexagon_bi","fractal_assignment":["../images/pnk_blu.png","../images/org_blu.png","../images/ylw_slt.png","../images/cyn_red.png","../images/blu_wht.png","../images/gry_blk.png"],"mutagen_generator_assignment":[1,0],"goal":3,"start":4,"action_noise":0.2,"location_history":"[4,3]","action_history":"[0]","mutagen_history":"[1]","location_rts":"[1637]","trial_type":"fractal-mutation","trial_index":144,"time_elapsed":2561977,"internal_node_id":"0.0-5.0-40.0"},{"group":"hexagon_bi","fractal_assignment":["../images/pnk_blu.png","../images/org_blu.png","../images/ylw_slt.png","../images/cyn_red.png","../images/blu_wht.png","../images/gry_blk.png"],"mutagen_generator_assignment":[1,0],"goal":5,"start":3,"action_noise":0.2,"location_history":"[3,2,1,0,5]","action_history":"[1,0,1,0]","mutagen_history":"[0,1,0,1]","location_rts":"[1880,538,1020,811]","trial_type":"fractal-mutation","trial_index":145,"time_elapsed":2573749,"internal_node_id":"0.0-5.0-41.0"},{"group":"hexagon_bi","fractal_assignment":["../images/pnk_blu.png","../images/org_blu.png","../images/ylw_slt.png","../images/cyn_red.png","../images/blu_wht.png","../images/gry_blk.png"],"mutagen_generator_assignment":[1,0],"goal":3,"start":5,"action_noise":0.2,"location_history":"[5,4,5,4,5,4,5,0,5,4,3]","action_history":"[0,1,1,0,1,0,0,1,1,0]","mutagen_history":"[1,0,0,1,0,1,1,0,0,1]","location_rts":"[1325,862,501,406,526,708,388,558,446,814]","trial_type":"fractal-mutation","trial_index":146,"time_elapsed":2593819,"internal_node_id":"0.0-5.0-42.0"},{"group":"hexagon_bi","fractal_assignment":["../images/pnk_blu.png","../images/org_blu.png","../images/ylw_slt.png","../images/cyn_red.png","../images/blu_wht.png","../images/gry_blk.png"],"mutagen_generator_assignment":[1,0],"goal":0,"start":3,"action_noise":0.2,"location_history":"[3,2,1,0]","action_history":"[1,0,1]","mutagen_history":"[0,1,0]","location_rts":"[4033,455,601]","trial_type":"fractal-mutation","trial_index":147,"time_elapsed":2605422,"internal_node_id":"0.0-5.0-43.0"},{"group":"hexagon_bi","fractal_assignment":["../images/pnk_blu.png","../images/org_blu.png","../images/ylw_slt.png","../images/cyn_red.png","../images/blu_wht.png","../images/gry_blk.png"],"mutagen_generator_assignment":[1,0],"goal":2,"start":0,"action_noise":0.2,"location_history":"[0,1,0,1,0,5,4,3,4,3,2]","action_history":"[1,0,0,1,1,0,0,0,1,0]","mutagen_history":"[0,1,1,0,0,1,1,1,0,1]","location_rts":"[1733,507,459,433,364,689,469,973,493,446]","trial_type":"fractal-mutation","trial_index":148,"time_elapsed":2625527,"internal_node_id":"0.0-5.0-44.0"},{"group":"hexagon_bi","fractal_assignment":["../images/pnk_blu.png","../images/org_blu.png","../images/ylw_slt.png","../images/cyn_red.png","../images/blu_wht.png","../images/gry_blk.png"],"mutagen_generator_assignment":[1,0],"goal":4,"start":2,"action_noise":0.2,"location_history":"[2,1,2,3,4]","action_history":"[0,0,1,0]","mutagen_history":"[1,1,0,1]","location_rts":"[1574,416,673,877]","trial_type":"fractal-mutation","trial_index":149,"time_elapsed":2636586,"internal_node_id":"0.0-5.0-45.0"},{"group":"hexagon_bi","fractal_assignment":["../images/pnk_blu.png","../images/org_blu.png","../images/ylw_slt.png","../images/cyn_red.png","../images/blu_wht.png","../images/gry_blk.png"],"mutagen_generator_assignment":[1,0],"goal":1,"start":4,"action_noise":0.2,"location_history":"[4,3,4,3,2,1]","action_history":"[0,0,0,1,0]","mutagen_history":"[1,1,1,0,1]","location_rts":"[1520,666,650,469,479]","trial_type":"fractal-mutation","trial_index":150,"time_elapsed":2648889,"internal_node_id":"0.0-5.0-46.0"},{"group":"hexagon_bi","fractal_assignment":["../images/pnk_blu.png","../images/org_blu.png","../images/ylw_slt.png","../images/cyn_red.png","../images/blu_wht.png","../images/gry_blk.png"],"mutagen_generator_assignment":[1,0],"goal":4,"start":1,"action_noise":0.2,"location_history":"[1,2,3,4]","action_history":"[0,1,0]","mutagen_history":"[1,0,1]","location_rts":"[1220,473,570]","trial_type":"fractal-mutation","trial_index":151,"time_elapsed":2657702,"internal_node_id":"0.0-5.0-47.0"},{"group":"hexagon_bi","fractal_assignment":["../images/pnk_blu.png","../images/org_blu.png","../images/ylw_slt.png","../images/cyn_red.png","../images/blu_wht.png","../images/gry_blk.png"],"mutagen_generator_assignment":[1,0],"goal":1,"start":4,"action_noise":0.2,"location_history":"[4,3,4,3,2,3,2,1]","action_history":"[0,0,0,1,0,1,0]","mutagen_history":"[1,1,1,0,1,0,1]","location_rts":"[1709,624,870,652,563,540,548]","trial_type":"fractal-mutation","trial_index":152,"time_elapsed":2673849,"internal_node_id":"0.0-5.0-48.0"},{"group":"hexagon_bi","fractal_assignment":["../images/pnk_blu.png","../images/org_blu.png","../images/ylw_slt.png","../images/cyn_red.png","../images/blu_wht.png","../images/gry_blk.png"],"mutagen_generator_assignment":[1,0],"goal":3,"start":1,"action_noise":0.2,"location_history":"[1,0,5,4,3]","action_history":"[1,0,0,1]","mutagen_history":"[0,1,1,0]","location_rts":"[1933,959,432,362]","trial_type":"fractal-mutation","trial_index":153,"time_elapsed":2685112,"internal_node_id":"0.0-5.0-49.0"},{"group":"hexagon_bi","fractal_assignment":["../images/pnk_blu.png","../images/org_blu.png","../images/ylw_slt.png","../images/cyn_red.png","../images/blu_wht.png","../images/gry_blk.png"],"mutagen_generator_assignment":[1,0],"goal":5,"start":3,"action_noise":0.2,"location_history":"[3,4,5]","action_history":"[0,1]","mutagen_history":"[1,0]","location_rts":"[1268,454]","trial_type":"fractal-mutation","trial_index":154,"time_elapsed":2692374,"internal_node_id":"0.0-5.0-50.0"},{"group":"hexagon_bi","fractal_assignment":["../images/pnk_blu.png","../images/org_blu.png","../images/ylw_slt.png","../images/cyn_red.png","../images/blu_wht.png","../images/gry_blk.png"],"mutagen_generator_assignment":[1,0],"goal":0,"start":5,"action_noise":0.2,"location_history":"[5,0]","action_history":"[0]","mutagen_history":"[1]","location_rts":"[1395]","trial_type":"fractal-mutation","trial_index":155,"time_elapsed":2698277,"internal_node_id":"0.0-5.0-51.0"},{"group":"hexagon_bi","fractal_assignment":["../images/pnk_blu.png","../images/org_blu.png","../images/ylw_slt.png","../images/cyn_red.png","../images/blu_wht.png","../images/gry_blk.png"],"mutagen_generator_assignment":[1,0],"goal":2,"start":0,"action_noise":0.2,"location_history":"[0,1,2]","action_history":"[1,0]","mutagen_history":"[0,1]","location_rts":"[2329,485]","trial_type":"fractal-mutation","trial_index":156,"time_elapsed":2706604,"internal_node_id":"0.0-5.0-52.0"},{"group":"hexagon_bi","fractal_assignment":["../images/pnk_blu.png","../images/org_blu.png","../images/ylw_slt.png","../images/cyn_red.png","../images/blu_wht.png","../images/gry_blk.png"],"mutagen_generator_assignment":[1,0],"goal":1,"start":2,"action_noise":0.2,"location_history":"[2,3,2,1]","action_history":"[0,1,0]","mutagen_history":"[1,0,1]","location_rts":"[1440,519,437]","trial_type":"fractal-mutation","trial_index":157,"time_elapsed":2715519,"internal_node_id":"0.0-5.0-53.0"},{"group":"hexagon_bi","fractal_assignment":["../images/pnk_blu.png","../images/org_blu.png","../images/ylw_slt.png","../images/cyn_red.png","../images/blu_wht.png","../images/gry_blk.png"],"mutagen_generator_assignment":[1,0],"goal":2,"start":1,"action_noise":0.2,"location_history":"[1,2]","action_history":"[0]","mutagen_history":"[1]","location_rts":"[1439]","trial_type":"fractal-mutation","trial_index":158,"time_elapsed":2721471,"internal_node_id":"0.0-5.0-54.0"},{"group":"hexagon_bi","fractal_assignment":["../images/pnk_blu.png","../images/org_blu.png","../images/ylw_slt.png","../images/cyn_red.png","../images/blu_wht.png","../images/gry_blk.png"],"mutagen_generator_assignment":[1,0],"goal":5,"start":2,"action_noise":0.2,"location_history":"[2,1,0,1,2,3,2,1,2,3,2,1,2,3,4,3,4,5]","action_history":"[0,1,0,0,1,1,0,0,1,1,0,0,1,0,0,0,1]","mutagen_history":"[1,0,1,1,0,0,1,1,0,0,1,1,0,1,1,1,0]","location_rts":"[1456,652,476,575,598,501,358,1277,434,484,370,434,559,958,476,781,532]","trial_type":"fractal-mutation","trial_index":159,"time_elapsed":2752958,"internal_node_id":"0.0-5.0-55.0"},{"group":"hexagon_bi","fractal_assignment":["../images/pnk_blu.png","../images/org_blu.png","../images/ylw_slt.png","../images/cyn_red.png","../images/blu_wht.png","../images/gry_blk.png"],"mutagen_generator_assignment":[1,0],"goal":4,"start":5,"action_noise":0.2,"location_history":"[5,0,1,2,1,2,1,2,3,4]","action_history":"[0,1,0,0,0,1,1,1,0]","mutagen_history":"[1,0,1,1,1,0,0,0,1]","location_rts":"[2502,531,401,383,381,513,380,464,295]","trial_type":"fractal-mutation","trial_index":160,"time_elapsed":2771344,"internal_node_id":"0.0-5.0-56.0"},{"group":"hexagon_bi","fractal_assignment":["../images/pnk_blu.png","../images/org_blu.png","../images/ylw_slt.png","../images/cyn_red.png","../images/blu_wht.png","../images/gry_blk.png"],"mutagen_generator_assignment":[1,0],"goal":3,"start":4,"action_noise":0.2,"location_history":"[4,3]","action_history":"[1]","mutagen_history":"[0]","location_rts":"[2597]","trial_type":"fractal-mutation","trial_index":161,"time_elapsed":2778445,"internal_node_id":"0.0-5.0-57.0"},{"group":"hexagon_bi","fractal_assignment":["../images/pnk_blu.png","../images/org_blu.png","../images/ylw_slt.png","../images/cyn_red.png","../images/blu_wht.png","../images/gry_blk.png"],"mutagen_generator_assignment":[1,0],"goal":0,"start":3,"action_noise":0.2,"location_history":"[3,2,3,4,3,4,5,4,5,0]","action_history":"[0,1,0,0,1,1,1,0,0]","mutagen_history":"[1,0,1,1,0,0,0,1,1]","location_rts":"[3068,602,365,437,828,434,930,417,692]","trial_type":"fractal-mutation","trial_index":162,"time_elapsed":2798764,"internal_node_id":"0.0-5.0-58.0"},{"group":"hexagon_bi","fractal_assignment":["../images/pnk_blu.png","../images/org_blu.png","../images/ylw_slt.png","../images/cyn_red.png","../images/blu_wht.png","../images/gry_blk.png"],"mutagen_generator_assignment":[1,0],"goal":2,"start":0,"action_noise":0.2,"location_history":"[0,1,2]","action_history":"[1,0]","mutagen_history":"[0,1]","location_rts":"[1685,559]","trial_type":"fractal-mutation","trial_index":163,"time_elapsed":2806516,"internal_node_id":"0.0-5.0-59.0"},{"group":"hexagon_bi","fractal_assignment":["../images/pnk_blu.png","../images/org_blu.png","../images/ylw_slt.png","../images/cyn_red.png","../images/blu_wht.png","../images/gry_blk.png"],"mutagen_generator_assignment":[1,0],"goal":1,"start":2,"action_noise":0.2,"location_history":"[2,1]","action_history":"[0]","mutagen_history":"[1]","location_rts":"[1774]","trial_type":"fractal-mutation","trial_index":164,"time_elapsed":2812799,"internal_node_id":"0.0-5.0-60.0"},{"group":"hexagon_bi","fractal_assignment":["../images/pnk_blu.png","../images/org_blu.png","../images/ylw_slt.png","../images/cyn_red.png","../images/blu_wht.png","../images/gry_blk.png"],"mutagen_generator_assignment":[1,0],"goal":0,"start":1,"action_noise":0.2,"location_history":"[1,2,1,2,3,2,3,2,3,4,5,0]","action_history":"[0,1,0,0,1,0,0,1,0,0,1]","mutagen_history":"[1,0,1,1,0,1,1,0,1,1,0]","location_rts":"[1711,674,407,377,502,486,859,980,658,1113,466]","trial_type":"fractal-mutation","trial_index":165,"time_elapsed":2835580,"internal_node_id":"0.0-5.0-61.0"},{"group":"hexagon_bi","fractal_assignment":["../images/pnk_blu.png","../images/org_blu.png","../images/ylw_slt.png","../images/cyn_red.png","../images/blu_wht.png","../images/gry_blk.png"],"mutagen_generator_assignment":[1,0],"goal":3,"start":0,"action_noise":0.2,"location_history":"[0,5,0,1,2,1,0,1,2,1,0,5,0,1,0,5,0,5,4,5,0,5,4,5,0,1,2,1,2,1,2,1,0,5,0,5,4,5,4,5,0,1,0,1,2,3]","action_history":"[0,0,1,0,0,1,1,1,1,1,0,0,1,1,0,0,1,0,1,0,0,1,1,0,0,0,1,0,0,0,0,1,0,0,0,1,1,1,1,0,1,1,0,0,0]","mutagen_history":"[1,1,0,1,1,0,0,0,0,0,1,1,0,0,1,1,0,1,0,1,1,0,0,1,1,1,0,1,1,1,1,0,1,1,1,0,0,0,0,1,0,0,1,1,1]","location_rts":"[3493,978,697,463,479,468,497,561,735,985,532,501,787,818,358,443,371,481,263,400,494,643,2184,566,484,428,552,457,485,411,551,415,495,410,450,407,1052,529,564,507,562,414,422,439,1103]","trial_type":"fractal-mutation","trial_index":166,"time_elapsed":2913581,"internal_node_id":"0.0-5.0-62.0"},{"group":"hexagon_bi","fractal_assignment":["../images/pnk_blu.png","../images/org_blu.png","../images/ylw_slt.png","../images/cyn_red.png","../images/blu_wht.png","../images/gry_blk.png"],"mutagen_generator_assignment":[1,0],"goal":5,"start":3,"action_noise":0.2,"location_history":"[3,4,5]","action_history":"[0,0]","mutagen_history":"[1,1]","location_rts":"[1582,536]","trial_type":"fractal-mutation","trial_index":167,"time_elapsed":2921211,"internal_node_id":"0.0-5.0-63.0"},{"group":"hexagon_bi","fractal_assignment":["../images/pnk_blu.png","../images/org_blu.png","../images/ylw_slt.png","../images/cyn_red.png","../images/blu_wht.png","../images/gry_blk.png"],"mutagen_generator_assignment":[1,0],"goal":4,"start":5,"action_noise":0.2,"location_history":"[5,0,5,4]","action_history":"[0,0,1]","mutagen_history":"[1,1,0]","location_rts":"[1609,546,1871]","trial_type":"fractal-mutation","trial_index":168,"time_elapsed":2931752,"internal_node_id":"0.0-5.0-64.0"},{"group":"hexagon_bi","fractal_assignment":["../images/pnk_blu.png","../images/org_blu.png","../images/ylw_slt.png","../images/cyn_red.png","../images/blu_wht.png","../images/gry_blk.png"],"mutagen_generator_assignment":[1,0],"goal":1,"start":4,"action_noise":0.2,"location_history":"[4,3,2,3,4,5,0,5,0,5,0,1]","action_history":"[0,1,1,0,1,0,0,0,1,0,0]","mutagen_history":"[1,0,0,1,0,1,1,1,0,1,1]","location_rts":"[732,608,534,483,471,1034,507,458,364,666,654]","trial_type":"fractal-mutation","trial_index":169,"time_elapsed":2952805,"internal_node_id":"0.0-5.0-65.0"},{"group":"hexagon_bi","fractal_assignment":["../images/pnk_blu.png","../images/org_blu.png","../images/ylw_slt.png","../images/cyn_red.png","../images/blu_wht.png","../images/gry_blk.png"],"mutagen_generator_assignment":[1,0],"goal":5,"start":1,"action_noise":0.2,"location_history":"[1,2,1,0,5]","action_history":"[0,0,1,0]","mutagen_history":"[1,1,0,1]","location_rts":"[2572,758,514,472]","trial_type":"fractal-mutation","trial_index":170,"time_elapsed":2964647,"internal_node_id":"0.0-5.0-66.0"},{"group":"hexagon_bi","fractal_assignment":["../images/pnk_blu.png","../images/org_blu.png","../images/ylw_slt.png","../images/cyn_red.png","../images/blu_wht.png","../images/gry_blk.png"],"mutagen_generator_assignment":[1,0],"goal":2,"start":5,"action_noise":0.2,"location_history":"[5,0,5,4,3,2]","action_history":"[0,0,1,0,0]","mutagen_history":"[1,1,0,1,1]","location_rts":"[1124,650,350,553,423]","trial_type":"fractal-mutation","trial_index":171,"time_elapsed":2976270,"internal_node_id":"0.0-5.0-67.0"},{"group":"hexagon_bi","fractal_assignment":["../images/pnk_blu.png","../images/org_blu.png","../images/ylw_slt.png","../images/cyn_red.png","../images/blu_wht.png","../images/gry_blk.png"],"mutagen_generator_assignment":[1,0],"goal":3,"start":2,"action_noise":0.2,"location_history":"[2,3]","action_history":"[0]","mutagen_history":"[1]","location_rts":"[1063]","trial_type":"fractal-mutation","trial_index":172,"time_elapsed":2981838,"internal_node_id":"0.0-5.0-68.0"},{"group":"hexagon_bi","fractal_assignment":["../images/pnk_blu.png","../images/org_blu.png","../images/ylw_slt.png","../images/cyn_red.png","../images/blu_wht.png","../images/gry_blk.png"],"mutagen_generator_assignment":[1,0],"goal":4,"start":3,"action_noise":0.2,"location_history":"[3,4]","action_history":"[0]","mutagen_history":"[1]","location_rts":"[1913]","trial_type":"fractal-mutation","trial_index":173,"time_elapsed":2988254,"internal_node_id":"0.0-5.0-69.0"},{"group":"hexagon_bi","fractal_assignment":["../images/pnk_blu.png","../images/org_blu.png","../images/ylw_slt.png","../images/cyn_red.png","../images/blu_wht.png","../images/gry_blk.png"],"mutagen_generator_assignment":[1,0],"goal":0,"start":4,"action_noise":0.2,"location_history":"[4,3,4,5,4,3,4,3,4,3,2,1,0]","action_history":"[0,1,0,1,0,1,0,0,1,1,0,1]","mutagen_history":"[1,0,1,0,1,0,1,1,0,0,1,0]","location_rts":"[1467,593,442,648,499,470,416,524,554,453,939,460]","trial_type":"fractal-mutation","trial_index":174,"time_elapsed":3011273,"internal_node_id":"0.0-5.0-70.0"},{"group":"hexagon_bi","fractal_assignment":["../images/pnk_blu.png","../images/org_blu.png","../images/ylw_slt.png","../images/cyn_red.png","../images/blu_wht.png","../images/gry_blk.png"],"mutagen_generator_assignment":[1,0],"goal":5,"start":0,"action_noise":0.2,"location_history":"[0,1,0,1,2,1,2,1,2,3,2,3,2,3,4,5]","action_history":"[1,0,1,0,0,1,0,0,0,1,1,1,0,0,1]","mutagen_history":"[0,1,0,1,1,0,1,1,1,0,0,0,1,1,0]","location_rts":"[5289,456,602,484,322,437,533,497,383,890,437,566,747,728,900]","trial_type":"fractal-mutation","trial_index":175,"time_elapsed":3043106,"internal_node_id":"0.0-5.0-71.0"},{"group":"hexagon_bi","fractal_assignment":["../images/pnk_blu.png","../images/org_blu.png","../images/ylw_slt.png","../images/cyn_red.png","../images/blu_wht.png","../images/gry_blk.png"],"mutagen_generator_assignment":[1,0],"goal":0,"start":5,"action_noise":0.2,"location_history":"[5,0]","action_history":"[0]","mutagen_history":"[1]","location_rts":"[1015]","trial_type":"fractal-mutation","trial_index":176,"time_elapsed":3048628,"internal_node_id":"0.0-5.0-72.0"},{"group":"hexagon_bi","fractal_assignment":["../images/pnk_blu.png","../images/org_blu.png","../images/ylw_slt.png","../images/cyn_red.png","../images/blu_wht.png","../images/gry_blk.png"],"mutagen_generator_assignment":[1,0],"goal":3,"start":0,"action_noise":0.2,"location_history":"[0,1,0,5,0,1,2,1,0,5,4,3]","action_history":"[0,0,0,0,1,0,0,0,0,1,0]","mutagen_history":"[1,1,1,1,0,1,1,1,1,0,1]","location_rts":"[1757,907,493,658,618,601,480,455,529,633,959]","trial_type":"fractal-mutation","trial_index":177,"time_elapsed":3071260,"internal_node_id":"0.0-5.0-73.0"},{"group":"hexagon_bi","fractal_assignment":["../images/pnk_blu.png","../images/org_blu.png","../images/ylw_slt.png","../images/cyn_red.png","../images/blu_wht.png","../images/gry_blk.png"],"mutagen_generator_assignment":[1,0],"goal":1,"start":3,"action_noise":0.2,"location_history":"[3,2,1]","action_history":"[0,0]","mutagen_history":"[1,1]","location_rts":"[1316,419]","trial_type":"fractal-mutation","trial_index":178,"time_elapsed":3078504,"internal_node_id":"0.0-5.0-74.0"},{"group":"hexagon_bi","fractal_assignment":["../images/pnk_blu.png","../images/org_blu.png","../images/ylw_slt.png","../images/cyn_red.png","../images/blu_wht.png","../images/gry_blk.png"],"mutagen_generator_assignment":[1,0],"goal":2,"start":1,"action_noise":0.2,"location_history":"[1,2]","action_history":"[0]","mutagen_history":"[1]","location_rts":"[1503]","trial_type":"fractal-mutation","trial_index":179,"time_elapsed":3084513,"internal_node_id":"0.0-5.0-75.0"},{"group":"hexagon_bi","fractal_assignment":["../images/pnk_blu.png","../images/org_blu.png","../images/ylw_slt.png","../images/cyn_red.png","../images/blu_wht.png","../images/gry_blk.png"],"mutagen_generator_assignment":[1,0],"goal":4,"start":2,"action_noise":0.2,"location_history":"[2,1,2,1,2,3,2,1,0,1,0,5,0,5,0,5,4]","action_history":"[0,0,0,0,1,0,0,1,1,0,0,0,0,0,0,1]","mutagen_history":"[1,1,1,1,0,1,1,0,0,1,1,1,1,1,1,0]","location_rts":"[1001,381,414,360,419,915,435,517,707,408,428,511,569,453,584,489]","trial_type":"fractal-mutation","trial_index":180,"time_elapsed":3112680,"internal_node_id":"0.0-5.0-76.0"},{"group":"hexagon_bi","fractal_assignment":["../images/pnk_blu.png","../images/org_blu.png","../images/ylw_slt.png","../images/cyn_red.png","../images/blu_wht.png","../images/gry_blk.png"],"mutagen_generator_assignment":[1,0],"goal":3,"start":4,"action_noise":0.2,"location_history":"[4,3]","action_history":"[0]","mutagen_history":"[1]","location_rts":"[832]","trial_type":"fractal-mutation","trial_index":181,"time_elapsed":3118022,"internal_node_id":"0.0-5.0-77.0"},{"group":"hexagon_bi","fractal_assignment":["../images/pnk_blu.png","../images/org_blu.png","../images/ylw_slt.png","../images/cyn_red.png","../images/blu_wht.png","../images/gry_blk.png"],"mutagen_generator_assignment":[1,0],"goal":0,"start":3,"action_noise":0.2,"location_history":"[3,4,3,4,3,2,3,4,3,4,5,0]","action_history":"[0,1,0,0,1,1,0,0,1,1,0]","mutagen_history":"[1,0,1,1,0,0,1,1,0,0,1]","location_rts":"[992,1166,532,444,434,692,406,405,724,414,499]","trial_type":"fractal-mutation","trial_index":182,"time_elapsed":3139278,"internal_node_id":"0.0-5.0-78.0"},{"group":"hexagon_bi","fractal_assignment":["../images/pnk_blu.png","../images/org_blu.png","../images/ylw_slt.png","../images/cyn_red.png","../images/blu_wht.png","../images/gry_blk.png"],"mutagen_generator_assignment":[1,0],"goal":4,"start":0,"action_noise":0.2,"location_history":"[0,5,0,5,0,1,0,5,0,5,0,5,4]","action_history":"[0,1,0,0,1,1,0,0,0,0,1,1]","mutagen_history":"[1,0,1,1,0,0,1,1,1,1,0,0]","location_rts":"[1016,504,617,387,705,615,388,413,458,794,452,492]","trial_type":"fractal-mutation","trial_index":183,"time_elapsed":3161672,"internal_node_id":"0.0-5.0-79.0"},{"group":"hexagon_bi","fractal_assignment":["../images/pnk_blu.png","../images/org_blu.png","../images/ylw_slt.png","../images/cyn_red.png","../images/blu_wht.png","../images/gry_blk.png"],"mutagen_generator_assignment":[1,0],"goal":5,"start":4,"action_noise":0.2,"location_history":"[4,5]","action_history":"[1]","mutagen_history":"[0]","location_rts":"[2677]","trial_type":"fractal-mutation","trial_index":184,"time_elapsed":3168855,"internal_node_id":"0.0-5.0-80.0"},{"group":"hexagon_bi","fractal_assignment":["../images/pnk_blu.png","../images/org_blu.png","../images/ylw_slt.png","../images/cyn_red.png","../images/blu_wht.png","../images/gry_blk.png"],"mutagen_generator_assignment":[1,0],"goal":1,"start":5,"action_noise":0.2,"location_history":"[5,0,1]","action_history":"[0,1]","mutagen_history":"[1,0]","location_rts":"[1290,549]","trial_type":"fractal-mutation","trial_index":185,"time_elapsed":3176202,"internal_node_id":"0.0-5.0-81.0"},{"group":"hexagon_bi","fractal_assignment":["../images/pnk_blu.png","../images/org_blu.png","../images/ylw_slt.png","../images/cyn_red.png","../images/blu_wht.png","../images/gry_blk.png"],"mutagen_generator_assignment":[1,0],"goal":2,"start":1,"action_noise":0.2,"location_history":"[1,2]","action_history":"[0]","mutagen_history":"[1]","location_rts":"[666]","trial_type":"fractal-mutation","trial_index":186,"time_elapsed":3181371,"internal_node_id":"0.0-5.0-82.0"},{"group":"hexagon_bi","fractal_assignment":["../images/pnk_blu.png","../images/org_blu.png","../images/ylw_slt.png","../images/cyn_red.png","../images/blu_wht.png","../images/gry_blk.png"],"mutagen_generator_assignment":[1,0],"goal":4,"start":2,"action_noise":0.2,"location_history":"[2,1,2,3,4]","action_history":"[0,0,1,1]","mutagen_history":"[1,1,0,0]","location_rts":"[2578,480,357,757]","trial_type":"fractal-mutation","trial_index":187,"time_elapsed":3193059,"internal_node_id":"0.0-5.0-83.0"},{"group":"hexagon_bi","fractal_assignment":["../images/pnk_blu.png","../images/org_blu.png","../images/ylw_slt.png","../images/cyn_red.png","../images/blu_wht.png","../images/gry_blk.png"],"mutagen_generator_assignment":[1,0],"goal":0,"start":4,"action_noise":0.2,"location_history":"[4,5,0]","action_history":"[1,0]","mutagen_history":"[0,1]","location_rts":"[1594,635]","trial_type":"fractal-mutation","trial_index":188,"time_elapsed":3200796,"internal_node_id":"0.0-5.0-84.0"},{"group":"hexagon_bi","fractal_assignment":["../images/pnk_blu.png","../images/org_blu.png","../images/ylw_slt.png","../images/cyn_red.png","../images/blu_wht.png","../images/gry_blk.png"],"mutagen_generator_assignment":[1,0],"goal":5,"start":0,"action_noise":0.2,"location_history":"[0,5]","action_history":"[1]","mutagen_history":"[0]","location_rts":"[2048]","trial_type":"fractal-mutation","trial_index":189,"time_elapsed":3207353,"internal_node_id":"0.0-5.0-85.0"},{"group":"hexagon_bi","fractal_assignment":["../images/pnk_blu.png","../images/org_blu.png","../images/ylw_slt.png","../images/cyn_red.png","../images/blu_wht.png","../images/gry_blk.png"],"mutagen_generator_assignment":[1,0],"goal":3,"start":5,"action_noise":0.2,"location_history":"[5,0,5,4,5,0,1,2,1,0,1,2,3]","action_history":"[0,1,1,0,0,1,0,0,1,1,0,1]","mutagen_history":"[1,0,0,1,1,0,1,1,0,0,1,0]","location_rts":"[1312,793,574,875,761,561,890,514,583,502,682,490]","trial_type":"fractal-mutation","trial_index":190,"time_elapsed":3231446,"internal_node_id":"0.0-5.0-86.0"},{"group":"hexagon_bi","fractal_assignment":["../images/pnk_blu.png","../images/org_blu.png","../images/ylw_slt.png","../images/cyn_red.png","../images/blu_wht.png","../images/gry_blk.png"],"mutagen_generator_assignment":[1,0],"goal":1,"start":3,"action_noise":0.2,"location_history":"[3,2,3,4,5,4,5,4,3,4,3,2,3,2,3,2,3,4,5,4,5,4,5,0,1]","action_history":"[0,1,0,1,0,1,1,0,0,0,1,0,1,0,0,1,0,1,0,1,1,1,0,1]","mutagen_history":"[1,0,1,0,1,0,0,1,1,1,0,1,0,1,1,0,1,0,1,0,0,0,1,0]","location_rts":"[1029,764,450,664,678,502,1037,564,449,533,942,439,451,384,315,434,421,760,735,558,1189,426,384,1487]","trial_type":"fractal-mutation","trial_index":191,"time_elapsed":3274642,"internal_node_id":"0.0-5.0-87.0"},{"group":"hexagon_bi","fractal_assignment":["../images/pnk_blu.png","../images/org_blu.png","../images/ylw_slt.png","../images/cyn_red.png","../images/blu_wht.png","../images/gry_blk.png"],"mutagen_generator_assignment":[1,0],"goal":2,"start":1,"action_noise":0.2,"location_history":"[1,2]","action_history":"[0]","mutagen_history":"[1]","location_rts":"[1113]","trial_type":"fractal-mutation","trial_index":192,"time_elapsed":3280261,"internal_node_id":"0.0-5.0-88.0"},{"group":"hexagon_bi","fractal_assignment":["../images/pnk_blu.png","../images/org_blu.png","../images/ylw_slt.png","../images/cyn_red.png","../images/blu_wht.png","../images/gry_blk.png"],"mutagen_generator_assignment":[1,0],"goal":0,"start":2,"action_noise":0.2,"location_history":"[2,3,2,1,2,1,0]","action_history":"[1,1,0,0,0,1]","mutagen_history":"[0,0,1,1,1,0]","location_rts":"[1966,867,537,496,553,336]","trial_type":"fractal-mutation","trial_index":193,"time_elapsed":3294541,"internal_node_id":"0.0-5.0-89.0"},{"group":"hexagon_bi","fractal_assignment":["../images/pnk_blu.png","../images/org_blu.png","../images/ylw_slt.png","../images/cyn_red.png","../images/blu_wht.png","../images/gry_blk.png"],"mutagen_generator_assignment":[1,0],"goal":5,"start":0,"action_noise":0.2,"location_history":"[0,1,2,1,0,5]","action_history":"[1,0,1,1,0]","mutagen_history":"[0,1,0,0,1]","location_rts":"[1492,563,438,411,496]","trial_type":"fractal-mutation","trial_index":194,"time_elapsed":3306456,"internal_node_id":"0.0-5.0-90.0"},{"group":"hexagon_bi","fractal_assignment":["../images/pnk_blu.png","../images/org_blu.png","../images/ylw_slt.png","../images/cyn_red.png","../images/blu_wht.png","../images/gry_blk.png"],"mutagen_generator_assignment":[1,0],"goal":1,"start":5,"action_noise":0.2,"location_history":"[5,0,5,0,5,4,3,4,5,4,5,0,1]","action_history":"[0,0,1,0,1,1,0,0,1,0,0,1]","mutagen_history":"[1,1,0,1,0,0,1,1,0,1,1,0]","location_rts":"[1559,562,559,428,405,409,412,444,717,567,310,743]","trial_type":"fractal-mutation","trial_index":195,"time_elapsed":3329127,"internal_node_id":"0.0-5.0-91.0"},{"group":"hexagon_bi","fractal_assignment":["../images/pnk_blu.png","../images/org_blu.png","../images/ylw_slt.png","../images/cyn_red.png","../images/blu_wht.png","../images/gry_blk.png"],"mutagen_generator_assignment":[1,0],"goal":3,"start":1,"action_noise":0.2,"location_history":"[1,2,3]","action_history":"[0,1]","mutagen_history":"[1,0]","location_rts":"[939,992]","trial_type":"fractal-mutation","trial_index":196,"time_elapsed":3336570,"internal_node_id":"0.0-5.0-92.0"},{"group":"hexagon_bi","fractal_assignment":["../images/pnk_blu.png","../images/org_blu.png","../images/ylw_slt.png","../images/cyn_red.png","../images/blu_wht.png","../images/gry_blk.png"],"mutagen_generator_assignment":[1,0],"goal":4,"start":3,"action_noise":0.2,"location_history":"[3,2,1,0,1,2,1,0,1,2,3,4]","action_history":"[0,0,0,1,0,0,1,1,0,1,0]","mutagen_history":"[1,1,1,0,1,1,0,0,1,0,1]","location_rts":"[1008,423,679,655,415,404,705,475,483,343,781]","trial_type":"fractal-mutation","trial_index":197,"time_elapsed":3357492,"internal_node_id":"0.0-5.0-93.0"},{"group":"hexagon_bi","fractal_assignment":["../images/pnk_blu.png","../images/org_blu.png","../images/ylw_slt.png","../images/cyn_red.png","../images/blu_wht.png","../images/gry_blk.png"],"mutagen_generator_assignment":[1,0],"goal":2,"start":4,"action_noise":0.2,"location_history":"[4,3,2]","action_history":"[0,1]","mutagen_history":"[1,0]","location_rts":"[976,476]","trial_type":"fractal-mutation","trial_index":198,"time_elapsed":3364453,"internal_node_id":"0.0-5.0-94.0"},{"group":"hexagon_bi","fractal_assignment":["../images/pnk_blu.png","../images/org_blu.png","../images/ylw_slt.png","../images/cyn_red.png","../images/blu_wht.png","../images/gry_blk.png"],"mutagen_generator_assignment":[1,0],"goal":4,"start":2,"action_noise":0.2,"location_history":"[2,1,2,1,0,5,4]","action_history":"[0,1,0,1,0,0]","mutagen_history":"[1,0,1,0,1,1]","location_rts":"[1818,2000,1673,491,579,412]","trial_type":"fractal-mutation","trial_index":199,"time_elapsed":3380952,"internal_node_id":"0.0-5.0-95.0"},{"group":"hexagon_bi","fractal_assignment":["../images/pnk_blu.png","../images/org_blu.png","../images/ylw_slt.png","../images/cyn_red.png","../images/blu_wht.png","../images/gry_blk.png"],"mutagen_generator_assignment":[1,0],"goal":0,"start":4,"action_noise":0.2,"location_history":"[4,5,0]","action_history":"[1,1]","mutagen_history":"[0,0]","location_rts":"[499,452]","trial_type":"fractal-mutation","trial_index":200,"time_elapsed":3387411,"internal_node_id":"0.0-5.0-96.0"},{"group":"hexagon_bi","fractal_assignment":["../images/pnk_blu.png","../images/org_blu.png","../images/ylw_slt.png","../images/cyn_red.png","../images/blu_wht.png","../images/gry_blk.png"],"mutagen_generator_assignment":[1,0],"goal":5,"start":0,"action_noise":0.2,"location_history":"[0,5]","action_history":"[0]","mutagen_history":"[1]","location_rts":"[1165]","trial_type":"fractal-mutation","trial_index":201,"time_elapsed":3393084,"internal_node_id":"0.0-5.0-97.0"},{"group":"hexagon_bi","fractal_assignment":["../images/pnk_blu.png","../images/org_blu.png","../images/ylw_slt.png","../images/cyn_red.png","../images/blu_wht.png","../images/gry_blk.png"],"mutagen_generator_assignment":[1,0],"goal":1,"start":5,"action_noise":0.2,"location_history":"[5,4,3,4,5,4,3,4,5,4,3,2,3,4,3,4,3,2,1]","action_history":"[0,0,0,1,1,0,0,0,1,0,0,0,0,0,0,0,1,0]","mutagen_history":"[1,1,1,0,0,1,1,1,0,1,1,1,1,1,1,1,0,1]","location_rts":"[835,1051,1440,903,589,723,547,425,390,386,314,447,358,337,431,496,800,645]","trial_type":"fractal-mutation","trial_index":202,"time_elapsed":3425776,"internal_node_id":"0.0-5.0-98.0"},{"group":"hexagon_bi","fractal_assignment":["../images/pnk_blu.png","../images/org_blu.png","../images/ylw_slt.png","../images/cyn_red.png","../images/blu_wht.png","../images/gry_blk.png"],"mutagen_generator_assignment":[1,0],"goal":3,"start":1,"action_noise":0.2,"location_history":"[1,2,1,2,3]","action_history":"[0,1,0,0]","mutagen_history":"[1,0,1,1]","location_rts":"[502,725,435,406]","trial_type":"fractal-mutation","trial_index":203,"time_elapsed":3435362,"internal_node_id":"0.0-5.0-99.0"},{"view_history":"[{\"page_index\":0,\"viewing_time\":7731}]","rt":7731,"trial_type":"instructions","trial_index":204,"time_elapsed":3444093,"internal_node_id":"0.0-6.0"},{"rt":22576,"responses":"{\"Q0\":\"progress bar would have been nice, everything else all good\"}","trial_type":"survey-text","trial_index":205,"time_elapsed":3467674,"internal_node_id":"0.0-7.0"}]