[{"view_history":"[{\"page_index\":0,\"viewing_time\":4222},{\"page_index\":1,\"viewing_time\":9465},{\"page_index\":2,\"viewing_time\":24710},{\"page_index\":3,\"viewing_time\":5007}]","rt":43406,"trial_type":"instructions","trial_index":0,"time_elapsed":43408,"internal_node_id":"0.0-0.0"},{"view_history":"[{\"page_index\":0,\"viewing_time\":4415},{\"page_index\":1,\"viewing_time\":72613}]","rt":77030,"trial_type":"instructions","trial_index":1,"time_elapsed":121439,"internal_node_id":"0.0-1.0"},{"group":"hexagon_tri","room_assignment":["grey","green","yellow","red","purple","blue"],"door_color_assignment":["white","black"],"door_generator_assignment":[0,1],"goal":4,"start":0,"action_noise":0.2,"location_history":"[0,1,3,4]","action_history":"[1,0,1]","door_history":"[1,0,1]","location_rts":"[6374,3044,2871]","trial_type":"two-door-navigation","trial_index":2,"time_elapsed":140290,"internal_node_id":"0.0-2.0-0.0"},{"group":"hexagon_tri","room_assignment":["grey","green","yellow","red","purple","blue"],"door_color_assignment":["white","black"],"door_generator_assignment":[0,1],"goal":3,"start":4,"action_noise":0.2,"location_history":"[4,0,5,4,0,5,4,0,5,0,5,4,2,3]","action_history":"[1,0,1,0,0,0,0,0,1,0,0,1,1]","door_history":"[1,0,1,0,0,0,0,0,1,0,0,1,1]","location_rts":"[3001,2069,1547,1441,831,1546,844,657,1285,2088,1137,1226,1154]","trial_type":"two-door-navigation","trial_index":3,"time_elapsed":175875,"internal_node_id":"0.0-2.0-1.0"},{"group":"hexagon_tri","room_assignment":["grey","green","yellow","red","purple","blue"],"door_color_assignment":["white","black"],"door_generator_assignment":[0,1],"goal":5,"start":3,"action_noise":0.2,"location_history":"[3,4,0,1,5]","action_history":"[1,0,0,0]","door_history":"[1,0,0,0]","location_rts":"[1885,1553,991,707]","trial_type":"two-door-navigation","trial_index":4,"time_elapsed":188646,"internal_node_id":"0.0-2.0-2.0"},{"group":"hexagon_tri","room_assignment":["grey","green","yellow","red","purple","blue"],"door_color_assignment":["white","black"],"door_generator_assignment":[0,1],"goal":2,"start":5,"action_noise":0.2,"location_history":"[5,0,1,5,0,5,4,2]","action_history":"[1,1,1,1,0,0,1]","door_history":"[1,1,1,1,0,0,1]","location_rts":"[2139,7751,758,470,972,1072,5256]","trial_type":"two-door-navigation","trial_index":5,"time_elapsed":217705,"internal_node_id":"0.0-2.0-3.0"},{"group":"hexagon_tri","room_assignment":["grey","green","yellow","red","purple","blue"],"door_color_assignment":["white","black"],"door_generator_assignment":[0,1],"goal":1,"start":2,"action_noise":0.2,"location_history":"[2,1]","action_history":"[1]","door_history":"[1]","location_rts":"[1582]","trial_type":"two-door-navigation","trial_index":6,"time_elapsed":223806,"internal_node_id":"0.0-2.0-4.0"},{"group":"hexagon_tri","room_assignment":["grey","green","yellow","red","purple","blue"],"door_color_assignment":["white","black"],"door_generator_assignment":[0,1],"goal":4,"start":1,"action_noise":0.2,"location_history":"[1,5,0,5,4]","action_history":"[1,1,0,0]","door_history":"[1,1,0,0]","location_rts":"[1807,766,1178,513]","trial_type":"two-door-navigation","trial_index":7,"time_elapsed":235648,"internal_node_id":"0.0-2.0-5.0"},{"group":"hexagon_tri","room_assignment":["grey","green","yellow","red","purple","blue"],"door_color_assignment":["white","black"],"door_generator_assignment":[0,1],"goal":1,"start":4,"action_noise":0.2,"location_history":"[4,2,1]","action_history":"[1,1]","door_history":"[1,1]","location_rts":"[1603,523]","trial_type":"two-door-navigation","trial_index":8,"time_elapsed":243319,"internal_node_id":"0.0-2.0-6.0"},{"group":"hexagon_tri","room_assignment":["grey","green","yellow","red","purple","blue"],"door_color_assignment":["white","black"],"door_generator_assignment":[0,1],"goal":5,"start":1,"action_noise":0.2,"location_history":"[1,5]","action_history":"[1]","door_history":"[1]","location_rts":"[724]","trial_type":"two-door-navigation","trial_index":9,"time_elapsed":248568,"internal_node_id":"0.0-2.0-7.0"},{"group":"hexagon_tri","room_assignment":["grey","green","yellow","red","purple","blue"],"door_color_assignment":["white","black"],"door_generator_assignment":[0,1],"goal":0,"start":5,"action_noise":0.2,"location_history":"[5,0]","action_history":"[1]","door_history":"[1]","location_rts":"[928]","trial_type":"two-door-navigation","trial_index":10,"time_elapsed":254016,"internal_node_id":"0.0-2.0-8.0"},{"group":"hexagon_tri","room_assignment":["grey","green","yellow","red","purple","blue"],"door_color_assignment":["white","black"],"door_generator_assignment":[0,1],"goal":2,"start":0,"action_noise":0.2,"location_history":"[0,1,5,0,1,3,2]","action_history":"[1,1,1,1,0,0]","door_history":"[1,1,1,1,0,0]","location_rts":"[994,562,867,611,1428,604]","trial_type":"two-door-navigation","trial_index":11,"time_elapsed":268703,"internal_node_id":"0.0-2.0-9.0"},{"group":"hexagon_tri","room_assignment":["grey","green","yellow","red","purple","blue"],"door_color_assignment":["white","black"],"door_generator_assignment":[0,1],"goal":3,"start":2,"action_noise":0.2,"location_history":"[2,3]","action_history":"[1]","door_history":"[1]","location_rts":"[1757]","trial_type":"two-door-navigation","trial_index":12,"time_elapsed":274985,"internal_node_id":"0.0-2.0-10.0"},{"group":"hexagon_tri","room_assignment":["grey","green","yellow","red","purple","blue"],"door_color_assignment":["white","black"],"door_generator_assignment":[0,1],"goal":0,"start":3,"action_noise":0.2,"location_history":"[3,4,2,3,4,0]","action_history":"[1,1,1,1,0]","door_history":"[1,1,1,1,0]","location_rts":"[4393,679,489,564,906]","trial_type":"two-door-navigation","trial_index":13,"time_elapsed":290612,"internal_node_id":"0.0-2.0-11.0"},{"group":"hexagon_tri","room_assignment":["grey","green","yellow","red","purple","blue"],"door_color_assignment":["white","black"],"door_generator_assignment":[0,1],"goal":2,"start":0,"action_noise":0.2,"location_history":"[0,1,3,4,2]","action_history":"[1,1,1,1]","door_history":"[1,1,1,1]","location_rts":"[1185,458,705,682]","trial_type":"two-door-navigation","trial_index":14,"time_elapsed":301238,"internal_node_id":"0.0-2.0-12.0"},{"group":"hexagon_tri","room_assignment":["grey","green","yellow","red","purple","blue"],"door_color_assignment":["white","black"],"door_generator_assignment":[0,1],"goal":5,"start":2,"action_noise":0.2,"location_history":"[2,3,2,1,5]","action_history":"[1,0,0,0]","door_history":"[1,0,0,0]","location_rts":"[798,987,491,551]","trial_type":"two-door-navigation","trial_index":15,"time_elapsed":312252,"internal_node_id":"0.0-2.0-13.0"},{"group":"hexagon_tri","room_assignment":["grey","green","yellow","red","purple","blue"],"door_color_assignment":["white","black"],"door_generator_assignment":[0,1],"goal":4,"start":5,"action_noise":0.2,"location_history":"[5,4]","action_history":"[0]","door_history":"[0]","location_rts":"[2810]","trial_type":"two-door-navigation","trial_index":16,"time_elapsed":319588,"internal_node_id":"0.0-2.0-14.0"},{"group":"hexagon_tri","room_assignment":["grey","green","yellow","red","purple","blue"],"door_color_assignment":["white","black"],"door_generator_assignment":[0,1],"goal":3,"start":4,"action_noise":0.2,"location_history":"[4,2,3]","action_history":"[1,1]","door_history":"[1,1]","location_rts":"[1218,648]","trial_type":"two-door-navigation","trial_index":17,"time_elapsed":326997,"internal_node_id":"0.0-2.0-15.0"},{"group":"hexagon_tri","room_assignment":["grey","green","yellow","red","purple","blue"],"door_color_assignment":["white","black"],"door_generator_assignment":[0,1],"goal":1,"start":3,"action_noise":0.2,"location_history":"[3,2,3,2,1]","action_history":"[1,1,1,0]","door_history":"[1,1,1,0]","location_rts":"[2005,671,492,1161]","trial_type":"two-door-navigation","trial_index":18,"time_elapsed":338910,"internal_node_id":"0.0-2.0-16.0"},{"group":"hexagon_tri","room_assignment":["grey","green","yellow","red","purple","blue"],"door_color_assignment":["white","black"],"door_generator_assignment":[0,1],"goal":5,"start":1,"action_noise":0.2,"location_history":"[1,3,4,2,1,5]","action_history":"[1,1,1,0,0]","door_history":"[1,1,1,0,0]","location_rts":"[1216,607,607,1249,497]","trial_type":"two-door-navigation","trial_index":19,"time_elapsed":351685,"internal_node_id":"0.0-2.0-17.0"},{"group":"hexagon_tri","room_assignment":["grey","green","yellow","red","purple","blue"],"door_color_assignment":["white","black"],"door_generator_assignment":[0,1],"goal":4,"start":5,"action_noise":0.2,"location_history":"[5,0,1,3,2,3,4]","action_history":"[1,1,1,1,1,1]","door_history":"[1,1,1,1,1,1]","location_rts":"[2164,3233,1870,855,546,563]","trial_type":"two-door-navigation","trial_index":20,"time_elapsed":371011,"internal_node_id":"0.0-2.0-18.0"},{"group":"hexagon_tri","room_assignment":["grey","green","yellow","red","purple","blue"],"door_color_assignment":["white","black"],"door_generator_assignment":[0,1],"goal":0,"start":4,"action_noise":0.2,"location_history":"[4,0]","action_history":"[1]","door_history":"[1]","location_rts":"[1001]","trial_type":"two-door-navigation","trial_index":21,"time_elapsed":376540,"internal_node_id":"0.0-2.0-19.0"},{"group":"hexagon_tri","room_assignment":["grey","green","yellow","red","purple","blue"],"door_color_assignment":["white","black"],"door_generator_assignment":[0,1],"goal":1,"start":0,"action_noise":0.2,"location_history":"[0,1]","action_history":"[1]","door_history":"[1]","location_rts":"[3531]","trial_type":"two-door-navigation","trial_index":22,"time_elapsed":384587,"internal_node_id":"0.0-2.0-20.0"},{"group":"hexagon_tri","room_assignment":["grey","green","yellow","red","purple","blue"],"door_color_assignment":["white","black"],"door_generator_assignment":[0,1],"goal":3,"start":1,"action_noise":0.2,"location_history":"[1,5,0,1,3]","action_history":"[1,1,1,1]","door_history":"[1,1,1,1]","location_rts":"[1009,632,1708,678]","trial_type":"two-door-navigation","trial_index":23,"time_elapsed":396187,"internal_node_id":"0.0-2.0-21.0"},{"group":"hexagon_tri","room_assignment":["grey","green","yellow","red","purple","blue"],"door_color_assignment":["white","black"],"door_generator_assignment":[0,1],"goal":2,"start":3,"action_noise":0.2,"location_history":"[3,4,2]","action_history":"[1,0]","door_history":"[1,0]","location_rts":"[4906,1219]","trial_type":"two-door-navigation","trial_index":24,"time_elapsed":407851,"internal_node_id":"0.0-2.0-22.0"},{"group":"hexagon_tri","room_assignment":["grey","green","yellow","red","purple","blue"],"door_color_assignment":["white","black"],"door_generator_assignment":[0,1],"goal":0,"start":2,"action_noise":0.2,"location_history":"[2,1,5,4,0]","action_history":"[0,0,0,0]","door_history":"[0,0,0,0]","location_rts":"[2473,607,683,594]","trial_type":"two-door-navigation","trial_index":25,"time_elapsed":419783,"internal_node_id":"0.0-2.0-23.0"},{"group":"hexagon_tri","room_assignment":["grey","green","yellow","red","purple","blue"],"door_color_assignment":["white","black"],"door_generator_assignment":[0,1],"goal":3,"start":0,"action_noise":0.2,"location_history":"[0,5,4,0,5,4,0,1,3]","action_history":"[0,0,0,0,0,1,1,0]","door_history":"[0,0,0,0,0,1,1,0]","location_rts":"[1254,468,960,478,545,965,552,925]","trial_type":"two-door-navigation","trial_index":26,"time_elapsed":438079,"internal_node_id":"0.0-2.0-24.0"},{"group":"hexagon_tri","room_assignment":["grey","green","yellow","red","purple","blue"],"door_color_assignment":["white","black"],"door_generator_assignment":[0,1],"goal":1,"start":3,"action_noise":0.2,"location_history":"[3,2,3,4,2,1]","action_history":"[1,1,1,1,1]","door_history":"[1,1,1,1,1]","location_rts":"[5590,717,1200,4012,628]","trial_type":"two-door-navigation","trial_index":27,"time_elapsed":458830,"internal_node_id":"0.0-2.0-25.0"},{"group":"hexagon_tri","room_assignment":["grey","green","yellow","red","purple","blue"],"door_color_assignment":["white","black"],"door_generator_assignment":[0,1],"goal":2,"start":1,"action_noise":0.2,"location_history":"[1,3,2]","action_history":"[0,0]","door_history":"[0,0]","location_rts":"[1054,382]","trial_type":"two-door-navigation","trial_index":28,"time_elapsed":465815,"internal_node_id":"0.0-2.0-26.0"},{"group":"hexagon_tri","room_assignment":["grey","green","yellow","red","purple","blue"],"door_color_assignment":["white","black"],"door_generator_assignment":[0,1],"goal":5,"start":2,"action_noise":0.2,"location_history":"[2,1,5]","action_history":"[0,0]","door_history":"[0,0]","location_rts":"[1151,595]","trial_type":"two-door-navigation","trial_index":29,"time_elapsed":473100,"internal_node_id":"0.0-2.0-27.0"},{"group":"hexagon_tri","room_assignment":["grey","green","yellow","red","purple","blue"],"door_color_assignment":["white","black"],"door_generator_assignment":[0,1],"goal":4,"start":5,"action_noise":0.2,"location_history":"[5,4]","action_history":"[0]","door_history":"[0]","location_rts":"[895]","trial_type":"two-door-navigation","trial_index":30,"time_elapsed":478522,"internal_node_id":"0.0-2.0-28.0"},{"group":"hexagon_tri","room_assignment":["grey","green","yellow","red","purple","blue"],"door_color_assignment":["white","black"],"door_generator_assignment":[0,1],"goal":5,"start":4,"action_noise":0.2,"location_history":"[4,0,5]","action_history":"[0,0]","door_history":"[0,0]","location_rts":"[2147,963]","trial_type":"two-door-navigation","trial_index":31,"time_elapsed":487209,"internal_node_id":"0.0-2.0-29.0"},{"group":"hexagon_tri","room_assignment":["grey","green","yellow","red","purple","blue"],"door_color_assignment":["white","black"],"door_generator_assignment":[0,1],"goal":3,"start":5,"action_noise":0.2,"location_history":"[5,4,0,1,3]","action_history":"[0,0,0,0]","door_history":"[0,0,0,0]","location_rts":"[1852,592,851,471]","trial_type":"two-door-navigation","trial_index":32,"time_elapsed":498552,"internal_node_id":"0.0-2.0-30.0"},{"group":"hexagon_tri","room_assignment":["grey","green","yellow","red","purple","blue"],"door_color_assignment":["white","black"],"door_generator_assignment":[0,1],"goal":0,"start":3,"action_noise":0.2,"location_history":"[3,2,1,3,4,0]","action_history":"[0,0,0,1,1]","door_history":"[0,0,0,1,1]","location_rts":"[1389,888,1331,913,511]","trial_type":"two-door-navigation","trial_index":33,"time_elapsed":512198,"internal_node_id":"0.0-2.0-31.0"},{"group":"hexagon_tri","room_assignment":["grey","green","yellow","red","purple","blue"],"door_color_assignment":["white","black"],"door_generator_assignment":[0,1],"goal":4,"start":0,"action_noise":0.2,"location_history":"[0,5,0,5,4]","action_history":"[0,1,0,0]","door_history":"[0,1,0,0]","location_rts":"[1945,409,550,436]","trial_type":"two-door-navigation","trial_index":34,"time_elapsed":523124,"internal_node_id":"0.0-2.0-32.0"},{"group":"hexagon_tri","room_assignment":["grey","green","yellow","red","purple","blue"],"door_color_assignment":["white","black"],"door_generator_assignment":[0,1],"goal":1,"start":4,"action_noise":0.2,"location_history":"[4,0,5,4,0,1]","action_history":"[0,0,0,0,0]","door_history":"[0,0,0,0,0]","location_rts":"[1250,455,782,1245,483]","trial_type":"two-door-navigation","trial_index":35,"time_elapsed":535940,"internal_node_id":"0.0-2.0-33.0"},{"group":"hexagon_tri","room_assignment":["grey","green","yellow","red","purple","blue"],"door_color_assignment":["white","black"],"door_generator_assignment":[0,1],"goal":2,"start":1,"action_noise":0.2,"location_history":"[1,5,0,5,4,0,1,5,0,1,3,4,2]","action_history":"[0,0,0,0,0,1,1,1,1,1,0,0]","door_history":"[0,0,0,0,0,1,1,1,1,1,0,0]","location_rts":"[1349,5181,690,874,2554,497,587,443,452,439,1824,1540]","trial_type":"two-door-navigation","trial_index":36,"time_elapsed":568151,"internal_node_id":"0.0-2.0-34.0"},{"group":"hexagon_tri","room_assignment":["grey","green","yellow","red","purple","blue"],"door_color_assignment":["white","black"],"door_generator_assignment":[0,1],"goal":0,"start":2,"action_noise":0.2,"location_history":"[2,1,3,4,2,3,4,2,3,4,2,3,4,0]","action_history":"[0,0,0,1,1,1,1,1,1,1,1,1,0]","door_history":"[0,0,0,1,1,1,1,1,1,1,1,1,0]","location_rts":"[1688,398,734,941,1246,484,493,460,463,704,426,1075,3265]","trial_type":"two-door-navigation","trial_index":37,"time_elapsed":597286,"internal_node_id":"0.0-2.0-35.0"},{"group":"hexagon_tri","room_assignment":["grey","green","yellow","red","purple","blue"],"door_color_assignment":["white","black"],"door_generator_assignment":[0,1],"goal":5,"start":0,"action_noise":0.2,"location_history":"[0,5]","action_history":"[0]","door_history":"[0]","location_rts":"[4153]","trial_type":"two-door-navigation","trial_index":38,"time_elapsed":605960,"internal_node_id":"0.0-2.0-36.0"},{"group":"hexagon_tri","room_assignment":["grey","green","yellow","red","purple","blue"],"door_color_assignment":["white","black"],"door_generator_assignment":[0,1],"goal":2,"start":5,"action_noise":0.2,"location_history":"[5,4,0,5,4,0,5,0,1,5,0,1,3,2]","action_history":"[0,0,0,0,0,1,1,1,1,1,1,0,0]","door_history":"[0,0,0,0,0,1,1,1,1,1,1,0,0]","location_rts":"[6323,611,2215,1023,805,1397,496,633,467,374,400,645,378]","trial_type":"two-door-navigation","trial_index":39,"time_elapsed":638516,"internal_node_id":"0.0-2.0-37.0"},{"group":"hexagon_tri","room_assignment":["grey","green","yellow","red","purple","blue"],"door_color_assignment":["white","black"],"door_generator_assignment":[0,1],"goal":1,"start":2,"action_noise":0.2,"location_history":"[2,3,2,1]","action_history":"[1,1,1]","door_history":"[1,1,1]","location_rts":"[19924,435,536]","trial_type":"two-door-navigation","trial_index":40,"time_elapsed":666009,"internal_node_id":"0.0-2.0-38.0"},{"group":"hexagon_tri","room_assignment":["grey","green","yellow","red","purple","blue"],"door_color_assignment":["white","black"],"door_generator_assignment":[0,1],"goal":4,"start":1,"action_noise":0.2,"location_history":"[1,5,4]","action_history":"[1,0]","door_history":"[1,0]","location_rts":"[1219,1025]","trial_type":"two-door-navigation","trial_index":41,"time_elapsed":673949,"internal_node_id":"0.0-2.0-39.0"},{"group":"hexagon_tri","room_assignment":["grey","green","yellow","red","purple","blue"],"door_color_assignment":["white","black"],"door_generator_assignment":[0,1],"goal":3,"start":4,"action_noise":0.2,"location_history":"[4,0,5,4,0,5,4,0,5,0,5,0,1,3]","action_history":"[0,0,0,0,0,0,0,0,1,1,1,1,1]","door_history":"[0,0,0,0,0,0,0,0,1,1,1,1,1]","location_rts":"[1112,418,344,442,396,431,577,1417,1684,488,413,413,387]","trial_type":"two-door-navigation","trial_index":42,"time_elapsed":699241,"internal_node_id":"0.0-2.0-40.0"},{"group":"hexagon_tri","room_assignment":["grey","green","yellow","red","purple","blue"],"door_color_assignment":["white","black"],"door_generator_assignment":[0,1],"goal":5,"start":3,"action_noise":0.2,"location_history":"[3,2,1,5]","action_history":"[0,0,1]","door_history":"[0,0,1]","location_rts":"[1068,426,904]","trial_type":"two-door-navigation","trial_index":43,"time_elapsed":708207,"internal_node_id":"0.0-2.0-41.0"},{"group":"hexagon_tri","room_assignment":["grey","green","yellow","red","purple","blue"],"door_color_assignment":["white","black"],"door_generator_assignment":[0,1],"goal":3,"start":5,"action_noise":0.2,"location_history":"[5,4,2,1,5,0,1,5,4,0,5,4,2,1,3]","action_history":"[0,1,0,1,0,1,0,0,0,0,0,0,0,0]","door_history":"[0,1,0,1,0,1,0,0,0,0,0,0,0,0]","location_rts":"[1737,760,415,573,431,593,1240,1568,505,451,715,502,540,402]","trial_type":"two-door-navigation","trial_index":44,"time_elapsed":737083,"internal_node_id":"0.0-2.0-42.0"},{"group":"hexagon_tri","room_assignment":["grey","green","yellow","red","purple","blue"],"door_color_assignment":["white","black"],"door_generator_assignment":[0,1],"goal":0,"start":3,"action_noise":0.2,"location_history":"[3,4,0]","action_history":"[0,0]","door_history":"[0,0]","location_rts":"[1628,397]","trial_type":"two-door-navigation","trial_index":45,"time_elapsed":744646,"internal_node_id":"0.0-2.0-43.0"},{"group":"hexagon_tri","room_assignment":["grey","green","yellow","red","purple","blue"],"door_color_assignment":["white","black"],"door_generator_assignment":[0,1],"goal":2,"start":0,"action_noise":0.2,"location_history":"[0,5,0,5,4,0,5,4,2]","action_history":"[0,0,0,0,0,0,0,1]","door_history":"[0,0,0,0,0,0,0,1]","location_rts":"[702,504,348,371,512,370,427,1696]","trial_type":"two-door-navigation","trial_index":46,"time_elapsed":761251,"internal_node_id":"0.0-2.0-44.0"},{"group":"hexagon_tri","room_assignment":["grey","green","yellow","red","purple","blue"],"door_color_assignment":["white","black"],"door_generator_assignment":[0,1],"goal":4,"start":2,"action_noise":0.2,"location_history":"[2,1,3,2,3,2,3,4]","action_history":"[0,1,0,1,0,1,1]","door_history":"[0,1,0,1,0,1,1]","location_rts":"[2600,2072,874,707,305,376,339]","trial_type":"two-door-navigation","trial_index":47,"time_elapsed":779163,"internal_node_id":"0.0-2.0-45.0"},{"group":"hexagon_tri","room_assignment":["grey","green","yellow","red","purple","blue"],"door_color_assignment":["white","black"],"door_generator_assignment":[0,1],"goal":1,"start":4,"action_noise":0.2,"location_history":"[4,2,3,4,0,5,0,1]","action_history":"[1,1,1,1,0,0,1]","door_history":"[1,1,1,1,0,0,1]","location_rts":"[6076,454,575,1956,753,668,28616]","trial_type":"two-door-navigation","trial_index":48,"time_elapsed":829026,"internal_node_id":"0.0-2.0-46.0"},{"group":"hexagon_tri","room_assignment":["grey","green","yellow","red","purple","blue"],"door_color_assignment":["white","black"],"door_generator_assignment":[0,1],"goal":4,"start":1,"action_noise":0.2,"location_history":"[1,5,4]","action_history":"[1,1]","door_history":"[1,1]","location_rts":"[4264,1083]","trial_type":"two-door-navigation","trial_index":49,"time_elapsed":839916,"internal_node_id":"0.0-2.0-47.0"},{"group":"hexagon_tri","room_assignment":["grey","green","yellow","red","purple","blue"],"door_color_assignment":["white","black"],"door_generator_assignment":[0,1],"goal":1,"start":4,"action_noise":0.2,"location_history":"[4,2,1]","action_history":"[1,0]","door_history":"[1,0]","location_rts":"[2266,1345]","trial_type":"two-door-navigation","trial_index":50,"time_elapsed":849111,"internal_node_id":"0.0-2.0-48.0"},{"group":"hexagon_tri","room_assignment":["grey","green","yellow","red","purple","blue"],"door_color_assignment":["white","black"],"door_generator_assignment":[0,1],"goal":3,"start":1,"action_noise":0.2,"location_history":"[1,3]","action_history":"[0]","door_history":"[0]","location_rts":"[1203]","trial_type":"two-door-navigation","trial_index":51,"time_elapsed":854838,"internal_node_id":"0.0-2.0-49.0"},{"group":"hexagon_tri","room_assignment":["grey","green","yellow","red","purple","blue"],"door_color_assignment":["white","black"],"door_generator_assignment":[0,1],"goal":5,"start":3,"action_noise":0.2,"location_history":"[3,4,2,1,3,4,2,3,4,2,1,5]","action_history":"[1,0,0,0,0,1,1,1,1,1,1]","door_history":"[1,0,0,0,0,1,1,1,1,1,1]","location_rts":"[2209,138,478,587,707,1695,448,2442,694,610,563]","trial_type":"two-door-navigation","trial_index":52,"time_elapsed":880114,"internal_node_id":"0.0-2.0-50.0"},{"group":"hexagon_tri","room_assignment":["grey","green","yellow","red","purple","blue"],"door_color_assignment":["white","black"],"door_generator_assignment":[0,1],"goal":0,"start":5,"action_noise":0.2,"location_history":"[5,0]","action_history":"[1]","door_history":"[1]","location_rts":"[29481]","trial_type":"two-door-navigation","trial_index":53,"time_elapsed":914114,"internal_node_id":"0.0-2.0-51.0"},{"group":"hexagon_tri","room_assignment":["grey","green","yellow","red","purple","blue"],"door_color_assignment":["white","black"],"door_generator_assignment":[0,1],"goal":2,"start":0,"action_noise":0.2,"location_history":"[0,5,0,1,5,4,2]","action_history":"[1,1,1,1,1,1]","door_history":"[1,1,1,1,1,1]","location_rts":"[7887,441,744,387,55,429]","trial_type":"two-door-navigation","trial_index":54,"time_elapsed":933680,"internal_node_id":"0.0-2.0-52.0"},{"group":"hexagon_tri","room_assignment":["grey","green","yellow","red","purple","blue"],"door_color_assignment":["white","black"],"door_generator_assignment":[0,1],"goal":1,"start":2,"action_noise":0.2,"location_history":"[2,1]","action_history":"[0]","door_history":"[0]","location_rts":"[10816]","trial_type":"two-door-navigation","trial_index":55,"time_elapsed":949017,"internal_node_id":"0.0-2.0-53.0"},{"group":"hexagon_tri","room_assignment":["grey","green","yellow","red","purple","blue"],"door_color_assignment":["white","black"],"door_generator_assignment":[0,1],"goal":2,"start":1,"action_noise":0.2,"location_history":"[1,3,4,0,1,5,4,0,5,4,2]","action_history":"[1,0,0,1,0,0,0,0,0,0]","door_history":"[1,0,0,1,0,0,0,0,0,0]","location_rts":"[5674,790,406,500,1125,553,344,479,2632,409]","trial_type":"two-door-navigation","trial_index":56,"time_elapsed":976088,"internal_node_id":"0.0-2.0-54.0"},{"group":"hexagon_tri","room_assignment":["grey","green","yellow","red","purple","blue"],"door_color_assignment":["white","black"],"door_generator_assignment":[0,1],"goal":5,"start":2,"action_noise":0.2,"location_history":"[2,3,4,0,1,5]","action_history":"[1,1,1,1,1]","door_history":"[1,1,1,1,1]","location_rts":"[11479,1079,772,357,459]","trial_type":"two-door-navigation","trial_index":57,"time_elapsed":998844,"internal_node_id":"0.0-2.0-55.0"},{"group":"hexagon_tri","room_assignment":["grey","green","yellow","red","purple","blue"],"door_color_assignment":["white","black"],"door_generator_assignment":[0,1],"goal":4,"start":5,"action_noise":0.2,"location_history":"[5,4]","action_history":"[0]","door_history":"[0]","location_rts":"[3818]","trial_type":"two-door-navigation","trial_index":58,"time_elapsed":1007188,"internal_node_id":"0.0-2.0-56.0"},{"group":"hexagon_tri","room_assignment":["grey","green","yellow","red","purple","blue"],"door_color_assignment":["white","black"],"door_generator_assignment":[0,1],"goal":3,"start":4,"action_noise":0.2,"location_history":"[4,2,1,5,4,0,5,4,0,5,0,5,0,5,4,0,1,3]","action_history":"[1,0,1,0,0,0,0,0,0,0,0,1,1,0,0,1,0]","door_history":"[1,0,1,0,0,0,0,0,0,0,0,1,1,0,0,1,0]","location_rts":"[1117,120,577,510,422,637,522,685,679,472,1089,1958,629,939,588,504,481]","trial_type":"two-door-navigation","trial_index":59,"time_elapsed":1039964,"internal_node_id":"0.0-2.0-57.0"},{"group":"hexagon_tri","room_assignment":["grey","green","yellow","red","purple","blue"],"door_color_assignment":["white","black"],"door_generator_assignment":[0,1],"goal":0,"start":3,"action_noise":0.2,"location_history":"[3,4,2,1,3,4,0]","action_history":"[0,1,0,0,0,0]","door_history":"[0,1,0,0,0,0]","location_rts":"[17457,1005,456,486,1557,742]","trial_type":"two-door-navigation","trial_index":60,"time_elapsed":1071273,"internal_node_id":"0.0-2.0-58.0"},{"group":"hexagon_tri","room_assignment":["grey","green","yellow","red","purple","blue"],"door_color_assignment":["white","black"],"door_generator_assignment":[0,1],"goal":2,"start":0,"action_noise":0.2,"location_history":"[0,1,5,4,2]","action_history":"[1,1,0,1]","door_history":"[1,1,0,1]","location_rts":"[7941,944,1083,16180]","trial_type":"two-door-navigation","trial_index":61,"time_elapsed":1105005,"internal_node_id":"0.0-2.0-59.0"},{"group":"hexagon_tri","room_assignment":["grey","green","yellow","red","purple","blue"],"door_color_assignment":["white","black"],"door_generator_assignment":[0,1],"goal":1,"start":2,"action_noise":0.2,"location_history":"[2,3,2,1]","action_history":"[0,0,0]","door_history":"[0,0,0]","location_rts":"[1036,737,563]","trial_type":"two-door-navigation","trial_index":62,"time_elapsed":1113896,"internal_node_id":"0.0-2.0-60.0"},{"group":"hexagon_tri","room_assignment":["grey","green","yellow","red","purple","blue"],"door_color_assignment":["white","black"],"door_generator_assignment":[0,1],"goal":0,"start":1,"action_noise":0.2,"location_history":"[1,3,2,1,3,2,1,3,2,1,5,0]","action_history":"[0,0,0,0,0,0,0,0,0,1,1]","door_history":"[0,0,0,0,0,0,0,0,0,1,1]","location_rts":"[3147,2003,772,1626,1195,472,1712,2336,724,721,395]","trial_type":"two-door-navigation","trial_index":63,"time_elapsed":1143730,"internal_node_id":"0.0-2.0-61.0"},{"group":"hexagon_tri","room_assignment":["grey","green","yellow","red","purple","blue"],"door_color_assignment":["white","black"],"door_generator_assignment":[0,1],"goal":3,"start":0,"action_noise":0.2,"location_history":"[0,1,5,0,1,5,4,0,5,4,0,5,4,0,1,3]","action_history":"[1,1,1,1,1,0,0,0,0,0,0,0,0,0,0]","door_history":"[1,1,1,1,1,0,0,0,0,0,0,0,0,0,0]","location_rts":"[31524,684,608,855,296,416,496,382,389,971,338,473,497,429,2692]","trial_type":"two-door-navigation","trial_index":64,"time_elapsed":1203586,"internal_node_id":"0.0-2.0-62.0"},{"group":"hexagon_tri","room_assignment":["grey","green","yellow","red","purple","blue"],"door_color_assignment":["white","black"],"door_generator_assignment":[0,1],"goal":5,"start":3,"action_noise":0.2,"location_history":"[3,4,0,5]","action_history":"[1,1,0]","door_history":"[1,1,0]","location_rts":"[1393,14684,1053]","trial_type":"two-door-navigation","trial_index":65,"time_elapsed":1227274,"internal_node_id":"0.0-2.0-63.0"},{"group":"hexagon_tri","room_assignment":["grey","green","yellow","red","purple","blue"],"door_color_assignment":["white","black"],"door_generator_assignment":[0,1],"goal":4,"start":5,"action_noise":0.2,"location_history":"[5,0,5,0,1,5,0,1,3,2,3,2,1,5,0,1,3,2,1,3,2,3,2,1,3,2,3,4]","action_history":"[1,1,1,1,1,1,1,0,0,0,0,0,1,1,0,0,0,0,0,0,0,0,0,0,1,1,1]","door_history":"[1,1,1,1,1,1,1,0,0,0,0,0,1,1,0,0,0,0,0,0,0,0,0,0,1,1,1]","location_rts":"[3169,5809,552,384,719,394,149,697,446,733,634,691,894,516,820,552,1465,535,326,1078,513,1136,768,831,1082,308,403]","trial_type":"two-door-navigation","trial_index":66,"time_elapsed":1284031,"internal_node_id":"0.0-2.0-64.0"},{"group":"hexagon_tri","room_assignment":["grey","green","yellow","red","purple","blue"],"door_color_assignment":["white","black"],"door_generator_assignment":[0,1],"goal":1,"start":4,"action_noise":0.2,"location_history":"[4,2,3,4,2,3,4,0,5,4,0,5,4,0,5,4,2,3,4,2,1]","action_history":"[1,1,1,1,1,0,0,0,0,0,0,0,0,0,1,1,1,1,1,0]","door_history":"[1,1,1,1,1,0,0,0,0,0,0,0,0,0,1,1,1,1,1,0]","location_rts":"[24149,826,307,378,226,373,463,402,658,946,370,342,766,1146,1258,662,388,497,346,570]","trial_type":"two-door-navigation","trial_index":67,"time_elapsed":1343030,"internal_node_id":"0.0-2.0-65.0"},{"group":"hexagon_tri","room_assignment":["grey","green","yellow","red","purple","blue"],"door_color_assignment":["white","black"],"door_generator_assignment":[0,1],"goal":5,"start":1,"action_noise":0.2,"location_history":"[1,5]","action_history":"[0]","door_history":"[0]","location_rts":"[1463]","trial_type":"two-door-navigation","trial_index":68,"time_elapsed":1349012,"internal_node_id":"0.0-2.0-66.0"},{"group":"hexagon_tri","room_assignment":["grey","green","yellow","red","purple","blue"],"door_color_assignment":["white","black"],"door_generator_assignment":[0,1],"goal":2,"start":5,"action_noise":0.2,"location_history":"[5,4,2]","action_history":"[1,1]","door_history":"[1,1]","location_rts":"[12404,990]","trial_type":"two-door-navigation","trial_index":69,"time_elapsed":1367939,"internal_node_id":"0.0-2.0-67.0"},{"group":"hexagon_tri","room_assignment":["grey","green","yellow","red","purple","blue"],"door_color_assignment":["white","black"],"door_generator_assignment":[0,1],"goal":3,"start":2,"action_noise":0.2,"location_history":"[2,3]","action_history":"[1]","door_history":"[1]","location_rts":"[4878]","trial_type":"two-door-navigation","trial_index":70,"time_elapsed":1377340,"internal_node_id":"0.0-2.0-68.0"},{"group":"hexagon_tri","room_assignment":["grey","green","yellow","red","purple","blue"],"door_color_assignment":["white","black"],"door_generator_assignment":[0,1],"goal":4,"start":3,"action_noise":0.2,"location_history":"[3,2,3,2,1,3,2,1,3,4]","action_history":"[0,0,0,0,0,0,0,0,0]","door_history":"[0,0,0,0,0,0,0,0,0]","location_rts":"[2404,469,635,521,1036,2913,827,848,571]","trial_type":"two-door-navigation","trial_index":71,"time_elapsed":1400251,"internal_node_id":"0.0-2.0-69.0"},{"group":"hexagon_tri","room_assignment":["grey","green","yellow","red","purple","blue"],"door_color_assignment":["white","black"],"door_generator_assignment":[0,1],"goal":0,"start":4,"action_noise":0.2,"location_history":"[4,0]","action_history":"[0]","door_history":"[0]","location_rts":"[1048]","trial_type":"two-door-navigation","trial_index":72,"time_elapsed":1405827,"internal_node_id":"0.0-2.0-70.0"},{"group":"hexagon_tri","room_assignment":["grey","green","yellow","red","purple","blue"],"door_color_assignment":["white","black"],"door_generator_assignment":[0,1],"goal":5,"start":0,"action_noise":0.2,"location_history":"[0,1,5]","action_history":"[1,1]","door_history":"[1,1]","location_rts":"[991,4957]","trial_type":"two-door-navigation","trial_index":73,"time_elapsed":1417337,"internal_node_id":"0.0-2.0-71.0"},{"group":"hexagon_tri","room_assignment":["grey","green","yellow","red","purple","blue"],"door_color_assignment":["white","black"],"door_generator_assignment":[0,1],"goal":0,"start":5,"action_noise":0.2,"location_history":"[5,4,2,3,4,2,3,4,2,1,3,4,0]","action_history":"[1,1,1,1,1,1,0,0,0,0,0,0]","door_history":"[1,1,1,1,1,1,0,0,0,0,0,0]","location_rts":"[3066,430,587,425,837,674,328,425,409,354,473,462]","trial_type":"two-door-navigation","trial_index":74,"time_elapsed":1441567,"internal_node_id":"0.0-2.0-72.0"},{"group":"hexagon_tri","room_assignment":["grey","green","yellow","red","purple","blue"],"door_color_assignment":["white","black"],"door_generator_assignment":[0,1],"goal":3,"start":0,"action_noise":0.2,"location_history":"[0,1,3]","action_history":"[1,0]","door_history":"[1,0]","location_rts":"[1640,133]","trial_type":"two-door-navigation","trial_index":75,"time_elapsed":1448901,"internal_node_id":"0.0-2.0-73.0"},{"group":"hexagon_tri","room_assignment":["grey","green","yellow","red","purple","blue"],"door_color_assignment":["white","black"],"door_generator_assignment":[0,1],"goal":1,"start":3,"action_noise":0.2,"location_history":"[3,4,0,1]","action_history":"[1,0,1]","door_history":"[1,0,1]","location_rts":"[1215,2751,1369]","trial_type":"two-door-navigation","trial_index":76,"time_elapsed":1460811,"internal_node_id":"0.0-2.0-74.0"},{"group":"hexagon_tri","room_assignment":["grey","green","yellow","red","purple","blue"],"door_color_assignment":["white","black"],"door_generator_assignment":[0,1],"goal":2,"start":1,"action_noise":0.2,"location_history":"[1,5,0,1,5,0,5,4,0,5,0,5,0,5,4,0,5,0,5,4,0,5,0,5,4,2]","action_history":"[0,1,0,0,0,0,0,0,0,1,1,1,1,0,0,0,1,0,0,0,0,0,0,0,0]","door_history":"[0,1,0,0,0,0,0,0,0,1,1,1,1,0,0,0,1,0,0,0,0,0,0,0,0]","location_rts":"[1291,398,508,405,2166,882,803,595,416,915,1685,490,1339,3155,510,586,300,670,254,320,294,296,290,352,381]","trial_type":"two-door-navigation","trial_index":77,"time_elapsed":1509162,"internal_node_id":"0.0-2.0-75.0"},{"group":"hexagon_tri","room_assignment":["grey","green","yellow","red","purple","blue"],"door_color_assignment":["white","black"],"door_generator_assignment":[0,1],"goal":4,"start":2,"action_noise":0.2,"location_history":"[2,3,2,1,3,2,1,3,2,1,3,4]","action_history":"[1,0,0,0,0,0,0,0,1,0,0]","door_history":"[1,0,0,0,0,0,0,0,1,0,0]","location_rts":"[1132,948,378,474,427,615,637,65112,1644,366,406]","trial_type":"two-door-navigation","trial_index":78,"time_elapsed":1596014,"internal_node_id":"0.0-2.0-76.0"},{"group":"hexagon_tri","room_assignment":["grey","green","yellow","red","purple","blue"],"door_color_assignment":["white","black"],"door_generator_assignment":[0,1],"goal":3,"start":4,"action_noise":0.2,"location_history":"[4,2,1,3]","action_history":"[1,1,1]","door_history":"[1,1,1]","location_rts":"[7460,706,570]","trial_type":"two-door-navigation","trial_index":79,"time_elapsed":1611304,"internal_node_id":"0.0-2.0-77.0"},{"group":"hexagon_tri","room_assignment":["grey","green","yellow","red","purple","blue"],"door_color_assignment":["white","black"],"door_generator_assignment":[0,1],"goal":0,"start":3,"action_noise":0.2,"location_history":"[3,2,1,5,4,0]","action_history":"[0,0,1,0,0]","door_history":"[0,0,1,0,0]","location_rts":"[1230,1332,1913,886,638]","trial_type":"two-door-navigation","trial_index":80,"time_elapsed":1625890,"internal_node_id":"0.0-2.0-78.0"},{"group":"hexagon_tri","room_assignment":["grey","green","yellow","red","purple","blue"],"door_color_assignment":["white","black"],"door_generator_assignment":[0,1],"goal":4,"start":0,"action_noise":0.2,"location_history":"[0,1,5,4]","action_history":"[1,1,1]","door_history":"[1,1,1]","location_rts":"[5141,26479,580]","trial_type":"two-door-navigation","trial_index":81,"time_elapsed":1664720,"internal_node_id":"0.0-2.0-79.0"},{"group":"hexagon_tri","room_assignment":["grey","green","yellow","red","purple","blue"],"door_color_assignment":["white","black"],"door_generator_assignment":[0,1],"goal":5,"start":4,"action_noise":0.2,"location_history":"[4,2,1,5]","action_history":"[1,0,1]","door_history":"[1,0,1]","location_rts":"[1018,3138,984]","trial_type":"two-door-navigation","trial_index":82,"time_elapsed":1676414,"internal_node_id":"0.0-2.0-80.0"},{"group":"hexagon_tri","room_assignment":["grey","green","yellow","red","purple","blue"],"door_color_assignment":["white","black"],"door_generator_assignment":[0,1],"goal":1,"start":5,"action_noise":0.2,"location_history":"[5,0,5,0,1]","action_history":"[1,0,0,1]","door_history":"[1,0,0,1]","location_rts":"[1068,1290,518,423]","trial_type":"two-door-navigation","trial_index":83,"time_elapsed":1687312,"internal_node_id":"0.0-2.0-81.0"},{"group":"hexagon_tri","room_assignment":["grey","green","yellow","red","purple","blue"],"door_color_assignment":["white","black"],"door_generator_assignment":[0,1],"goal":2,"start":1,"action_noise":0.2,"location_history":"[1,3,4,2]","action_history":"[0,1,0]","door_history":"[0,1,0]","location_rts":"[1477,564,1055]","trial_type":"two-door-navigation","trial_index":84,"time_elapsed":1696972,"internal_node_id":"0.0-2.0-82.0"},{"group":"hexagon_tri","room_assignment":["grey","green","yellow","red","purple","blue"],"door_color_assignment":["white","black"],"door_generator_assignment":[0,1],"goal":4,"start":2,"action_noise":0.2,"location_history":"[2,3,2,1,5,0,1,5,0,5,4]","action_history":"[1,0,0,0,1,1,1,1,0,1]","door_history":"[1,0,0,0,1,1,1,1,0,1]","location_rts":"[4906,1229,1066,417,480,636,706,465,1005,15689]","trial_type":"two-door-navigation","trial_index":85,"time_elapsed":1737273,"internal_node_id":"0.0-2.0-83.0"},{"group":"hexagon_tri","room_assignment":["grey","green","yellow","red","purple","blue"],"door_color_assignment":["white","black"],"door_generator_assignment":[0,1],"goal":0,"start":4,"action_noise":0.2,"location_history":"[4,2,1,3,4,2,3,2,1,3,2,3,4,2,1,3,2,1,5,0]","action_history":"[1,0,1,1,1,1,0,0,0,0,1,1,1,0,0,0,0,1,1]","door_history":"[1,0,1,1,1,1,0,0,0,0,1,1,1,0,0,0,0,1,1]","location_rts":"[1615,11912,1596,480,423,412,328,514,611,525,465,355,480,718,970,397,404,529,291]","trial_type":"two-door-navigation","trial_index":86,"time_elapsed":1783178,"internal_node_id":"0.0-2.0-84.0"},{"group":"hexagon_tri","room_assignment":["grey","green","yellow","red","purple","blue"],"door_color_assignment":["white","black"],"door_generator_assignment":[0,1],"goal":5,"start":0,"action_noise":0.2,"location_history":"[0,5]","action_history":"[0]","door_history":"[0]","location_rts":"[36616]","trial_type":"two-door-navigation","trial_index":87,"time_elapsed":1824320,"internal_node_id":"0.0-2.0-85.0"},{"group":"hexagon_tri","room_assignment":["grey","green","yellow","red","purple","blue"],"door_color_assignment":["white","black"],"door_generator_assignment":[0,1],"goal":3,"start":5,"action_noise":0.2,"location_history":"[5,0,5,0,5,4,2,1,3]","action_history":"[1,0,0,0,0,1,0,0]","door_history":"[1,0,0,0,0,1,0,0]","location_rts":"[1073,912,554,389,936,744,487,395]","trial_type":"two-door-navigation","trial_index":88,"time_elapsed":1841472,"internal_node_id":"0.0-2.0-86.0"},{"group":"hexagon_tri","room_assignment":["grey","green","yellow","red","purple","blue"],"door_color_assignment":["white","black"],"door_generator_assignment":[0,1],"goal":1,"start":3,"action_noise":0.2,"location_history":"[3,4,0,5,4,2,3,2,3,2,3,2,1]","action_history":"[1,0,1,0,0,1,0,1,0,0,0,0]","door_history":"[1,0,1,0,0,1,0,1,0,0,0,0]","location_rts":"[961,733,1072,425,399,1126,2127,853,959,466,299,1534]","trial_type":"two-door-navigation","trial_index":89,"time_elapsed":1868202,"internal_node_id":"0.0-2.0-87.0"},{"group":"hexagon_tri","room_assignment":["grey","green","yellow","red","purple","blue"],"door_color_assignment":["white","black"],"door_generator_assignment":[0,1],"goal":2,"start":1,"action_noise":0.2,"location_history":"[1,3,4,2]","action_history":"[1,1,1]","door_history":"[1,1,1]","location_rts":"[811,965,825]","trial_type":"two-door-navigation","trial_index":90,"time_elapsed":1877368,"internal_node_id":"0.0-2.0-88.0"},{"group":"hexagon_tri","room_assignment":["grey","green","yellow","red","purple","blue"],"door_color_assignment":["white","black"],"door_generator_assignment":[0,1],"goal":0,"start":2,"action_noise":0.2,"location_history":"[2,3,4,0]","action_history":"[1,0,0]","door_history":"[1,0,0]","location_rts":"[1242,4725,704]","trial_type":"two-door-navigation","trial_index":91,"time_elapsed":1890603,"internal_node_id":"0.0-2.0-89.0"},{"group":"hexagon_tri","room_assignment":["grey","green","yellow","red","purple","blue"],"door_color_assignment":["white","black"],"door_generator_assignment":[0,1],"goal":5,"start":0,"action_noise":0.2,"location_history":"[0,1,5]","action_history":"[1,1]","door_history":"[1,1]","location_rts":"[1685,721]","trial_type":"two-door-navigation","trial_index":92,"time_elapsed":1898551,"internal_node_id":"0.0-2.0-90.0"},{"group":"hexagon_tri","room_assignment":["grey","green","yellow","red","purple","blue"],"door_color_assignment":["white","black"],"door_generator_assignment":[0,1],"goal":1,"start":5,"action_noise":0.2,"location_history":"[5,4,2,3,4,2,1]","action_history":"[1,1,1,1,1,1]","door_history":"[1,1,1,1,1,1]","location_rts":"[5550,1680,1001,719,2845,1016]","trial_type":"two-door-navigation","trial_index":93,"time_elapsed":1920987,"internal_node_id":"0.0-2.0-91.0"},{"group":"hexagon_tri","room_assignment":["grey","green","yellow","red","purple","blue"],"door_color_assignment":["white","black"],"door_generator_assignment":[0,1],"goal":3,"start":1,"action_noise":0.2,"location_history":"[1,5,4,0,1,3]","action_history":"[1,0,0,1,0]","door_history":"[1,0,0,1,0]","location_rts":"[26013,518,216,2149,289]","trial_type":"two-door-navigation","trial_index":94,"time_elapsed":1958775,"internal_node_id":"0.0-2.0-92.0"},{"group":"hexagon_tri","room_assignment":["grey","green","yellow","red","purple","blue"],"door_color_assignment":["white","black"],"door_generator_assignment":[0,1],"goal":4,"start":3,"action_noise":0.2,"location_history":"[3,4]","action_history":"[1]","door_history":"[1]","location_rts":"[1335]","trial_type":"two-door-navigation","trial_index":95,"time_elapsed":1964642,"internal_node_id":"0.0-2.0-93.0"},{"group":"hexagon_tri","room_assignment":["grey","green","yellow","red","purple","blue"],"door_color_assignment":["white","black"],"door_generator_assignment":[0,1],"goal":2,"start":4,"action_noise":0.2,"location_history":"[4,2]","action_history":"[1]","door_history":"[1]","location_rts":"[8297]","trial_type":"two-door-navigation","trial_index":96,"time_elapsed":1977460,"internal_node_id":"0.0-2.0-94.0"},{"group":"hexagon_tri","room_assignment":["grey","green","yellow","red","purple","blue"],"door_color_assignment":["white","black"],"door_generator_assignment":[0,1],"goal":4,"start":2,"action_noise":0.2,"location_history":"[2,3,4]","action_history":"[1,0]","door_history":"[1,0]","location_rts":"[1090,438]","trial_type":"two-door-navigation","trial_index":97,"time_elapsed":1984523,"internal_node_id":"0.0-2.0-95.0"},{"group":"hexagon_tri","room_assignment":["grey","green","yellow","red","purple","blue"],"door_color_assignment":["white","black"],"door_generator_assignment":[0,1],"goal":0,"start":4,"action_noise":0.2,"location_history":"[4,0]","action_history":"[0]","door_history":"[0]","location_rts":"[1923]","trial_type":"two-door-navigation","trial_index":98,"time_elapsed":1991002,"internal_node_id":"0.0-2.0-96.0"},{"group":"hexagon_tri","room_assignment":["grey","green","yellow","red","purple","blue"],"door_color_assignment":["white","black"],"door_generator_assignment":[0,1],"goal":5,"start":0,"action_noise":0.2,"location_history":"[0,1,5]","action_history":"[1,0]","door_history":"[1,0]","location_rts":"[970,2202]","trial_type":"two-door-navigation","trial_index":99,"time_elapsed":1999718,"internal_node_id":"0.0-2.0-97.0"},{"group":"hexagon_tri","room_assignment":["grey","green","yellow","red","purple","blue"],"door_color_assignment":["white","black"],"door_generator_assignment":[0,1],"goal":1,"start":5,"action_noise":0.2,"location_history":"[5,0,1]","action_history":"[0,1]","door_history":"[0,1]","location_rts":"[4157,734]","trial_type":"two-door-navigation","trial_index":100,"time_elapsed":2010154,"internal_node_id":"0.0-2.0-98.0"},{"group":"hexagon_tri","room_assignment":["grey","green","yellow","red","purple","blue"],"door_color_assignment":["white","black"],"door_generator_assignment":[0,1],"goal":3,"start":1,"action_noise":0.2,"location_history":"[1,3]","action_history":"[0]","door_history":"[0]","location_rts":"[1393]","trial_type":"two-door-navigation","trial_index":101,"time_elapsed":2016069,"internal_node_id":"0.0-2.0-99.0"},{"view_history":"[{\"page_index\":0,\"viewing_time\":3937}]","rt":3937,"trial_type":"instructions","trial_index":102,"time_elapsed":2021006,"internal_node_id":"0.0-3.0"},{"view_history":"[{\"page_index\":0,\"viewing_time\":2600},{\"page_index\":1,\"viewing_time\":25008}]","rt":27609,"trial_type":"instructions","trial_index":103,"time_elapsed":2049616,"internal_node_id":"0.0-4.0"},{"group":"hexagon_tri","fractal_assignment":["../images/cyn_red.png","../images/blu_wht.png","../images/pnk_blu.png","../images/gry_blk.png","../images/org_blu.png","../images/ylw_slt.png"],"mutagen_generator_assignment":[0,1],"goal":4,"start":0,"action_noise":0.2,"location_history":"[0,1,5,0,1,3,4]","action_history":"[1,1,1,1,1,1]","mutagen_history":"[1,1,1,1,1,1]","location_rts":"[4351,1257,4544,1055,2201,5066]","trial_type":"fractal-mutation","trial_index":104,"time_elapsed":2077818,"internal_node_id":"0.0-5.0-0.0"},{"group":"hexagon_tri","fractal_assignment":["../images/cyn_red.png","../images/blu_wht.png","../images/pnk_blu.png","../images/gry_blk.png","../images/org_blu.png","../images/ylw_slt.png"],"mutagen_generator_assignment":[0,1],"goal":3,"start":4,"action_noise":0.2,"location_history":"[4,0,1,3]","action_history":"[0,1,0]","mutagen_history":"[0,1,0]","location_rts":"[7984,2930,1023]","trial_type":"fractal-mutation","trial_index":105,"time_elapsed":2096353,"internal_node_id":"0.0-5.0-1.0"},{"group":"hexagon_tri","fractal_assignment":["../images/cyn_red.png","../images/blu_wht.png","../images/pnk_blu.png","../images/gry_blk.png","../images/org_blu.png","../images/ylw_slt.png"],"mutagen_generator_assignment":[0,1],"goal":5,"start":3,"action_noise":0.2,"location_history":"[3,2,1,3,2,1,5]","action_history":"[0,0,0,0,0,0]","mutagen_history":"[0,0,0,0,0,0]","location_rts":"[13418,1341,752,1249,611,5618]","trial_type":"fractal-mutation","trial_index":106,"time_elapsed":2129033,"internal_node_id":"0.0-5.0-2.0"},{"group":"hexagon_tri","fractal_assignment":["../images/cyn_red.png","../images/blu_wht.png","../images/pnk_blu.png","../images/gry_blk.png","../images/org_blu.png","../images/ylw_slt.png"],"mutagen_generator_assignment":[0,1],"goal":2,"start":5,"action_noise":0.2,"location_history":"[5,4,0,1,5,0,5,4,2]","action_history":"[0,0,1,1,1,0,0,0]","mutagen_history":"[0,0,1,1,1,0,0,0]","location_rts":"[1299,579,423,134,460,1027,1755,4810]","trial_type":"fractal-mutation","trial_index":107,"time_elapsed":2151294,"internal_node_id":"0.0-5.0-3.0"},{"group":"hexagon_tri","fractal_assignment":["../images/cyn_red.png","../images/blu_wht.png","../images/pnk_blu.png","../images/gry_blk.png","../images/org_blu.png","../images/ylw_slt.png"],"mutagen_generator_assignment":[0,1],"goal":1,"start":2,"action_noise":0.2,"location_history":"[2,1]","action_history":"[1]","mutagen_history":"[1]","location_rts":"[4617]","trial_type":"fractal-mutation","trial_index":108,"time_elapsed":2160447,"internal_node_id":"0.0-5.0-4.0"},{"group":"hexagon_tri","fractal_assignment":["../images/cyn_red.png","../images/blu_wht.png","../images/pnk_blu.png","../images/gry_blk.png","../images/org_blu.png","../images/ylw_slt.png"],"mutagen_generator_assignment":[0,1],"goal":4,"start":1,"action_noise":0.2,"location_history":"[1,5,0,1,3,2,3,2,1,5,4]","action_history":"[1,1,1,0,0,1,1,0,1,0]","mutagen_history":"[1,1,1,0,0,1,1,0,1,0]","location_rts":"[1775,534,831,600,1874,1347,614,150,278,371]","trial_type":"fractal-mutation","trial_index":109,"time_elapsed":2183288,"internal_node_id":"0.0-5.0-5.0"},{"group":"hexagon_tri","fractal_assignment":["../images/cyn_red.png","../images/blu_wht.png","../images/pnk_blu.png","../images/gry_blk.png","../images/org_blu.png","../images/ylw_slt.png"],"mutagen_generator_assignment":[0,1],"goal":1,"start":4,"action_noise":0.2,"location_history":"[4,0,1]","action_history":"[0,1]","mutagen_history":"[0,1]","location_rts":"[908,1126]","trial_type":"fractal-mutation","trial_index":110,"time_elapsed":2190899,"internal_node_id":"0.0-5.0-6.0"},{"group":"hexagon_tri","fractal_assignment":["../images/cyn_red.png","../images/blu_wht.png","../images/pnk_blu.png","../images/gry_blk.png","../images/org_blu.png","../images/ylw_slt.png"],"mutagen_generator_assignment":[0,1],"goal":5,"start":1,"action_noise":0.2,"location_history":"[1,3,4,0,5]","action_history":"[0,1,0,1]","mutagen_history":"[0,1,0,1]","location_rts":"[787,393,832,93]","trial_type":"fractal-mutation","trial_index":111,"time_elapsed":2200635,"internal_node_id":"0.0-5.0-7.0"},{"group":"hexagon_tri","fractal_assignment":["../images/cyn_red.png","../images/blu_wht.png","../images/pnk_blu.png","../images/gry_blk.png","../images/org_blu.png","../images/ylw_slt.png"],"mutagen_generator_assignment":[0,1],"goal":0,"start":5,"action_noise":0.2,"location_history":"[5,0]","action_history":"[0]","mutagen_history":"[0]","location_rts":"[649]","trial_type":"fractal-mutation","trial_index":112,"time_elapsed":2205828,"internal_node_id":"0.0-5.0-8.0"},{"group":"hexagon_tri","fractal_assignment":["../images/cyn_red.png","../images/blu_wht.png","../images/pnk_blu.png","../images/gry_blk.png","../images/org_blu.png","../images/ylw_slt.png"],"mutagen_generator_assignment":[0,1],"goal":2,"start":0,"action_noise":0.2,"location_history":"[0,1,3,4,0,1,5,4,2]","action_history":"[1,0,1,1,1,0,0,0]","mutagen_history":"[1,0,1,1,1,0,0,0]","location_rts":"[861,605,837,554,580,1026,841,486]","trial_type":"fractal-mutation","trial_index":113,"time_elapsed":2223348,"internal_node_id":"0.0-5.0-9.0"},{"group":"hexagon_tri","fractal_assignment":["../images/cyn_red.png","../images/blu_wht.png","../images/pnk_blu.png","../images/gry_blk.png","../images/org_blu.png","../images/ylw_slt.png"],"mutagen_generator_assignment":[0,1],"goal":3,"start":2,"action_noise":0.2,"location_history":"[2,1,3]","action_history":"[0,0]","mutagen_history":"[0,0]","location_rts":"[3728,1178]","trial_type":"fractal-mutation","trial_index":114,"time_elapsed":2233812,"internal_node_id":"0.0-5.0-10.0"},{"group":"hexagon_tri","fractal_assignment":["../images/cyn_red.png","../images/blu_wht.png","../images/pnk_blu.png","../images/gry_blk.png","../images/org_blu.png","../images/ylw_slt.png"],"mutagen_generator_assignment":[0,1],"goal":0,"start":3,"action_noise":0.2,"location_history":"[3,2,1,5,0]","action_history":"[0,0,0,0]","mutagen_history":"[0,0,0,0]","location_rts":"[745,676,480,687]","trial_type":"fractal-mutation","trial_index":115,"time_elapsed":2244023,"internal_node_id":"0.0-5.0-11.0"},{"group":"hexagon_tri","fractal_assignment":["../images/cyn_red.png","../images/blu_wht.png","../images/pnk_blu.png","../images/gry_blk.png","../images/org_blu.png","../images/ylw_slt.png"],"mutagen_generator_assignment":[0,1],"goal":2,"start":0,"action_noise":0.2,"location_history":"[0,1,5,4,2]","action_history":"[0,1,0,1]","mutagen_history":"[0,1,0,1]","location_rts":"[1008,1872,1028,4251]","trial_type":"fractal-mutation","trial_index":116,"time_elapsed":2259809,"internal_node_id":"0.0-5.0-12.0"},{"group":"hexagon_tri","fractal_assignment":["../images/cyn_red.png","../images/blu_wht.png","../images/pnk_blu.png","../images/gry_blk.png","../images/org_blu.png","../images/ylw_slt.png"],"mutagen_generator_assignment":[0,1],"goal":5,"start":2,"action_noise":0.2,"location_history":"[2,1,5]","action_history":"[0,1]","mutagen_history":"[0,1]","location_rts":"[18180,1186]","trial_type":"fractal-mutation","trial_index":117,"time_elapsed":2284730,"internal_node_id":"0.0-5.0-13.0"},{"group":"hexagon_tri","fractal_assignment":["../images/cyn_red.png","../images/blu_wht.png","../images/pnk_blu.png","../images/gry_blk.png","../images/org_blu.png","../images/ylw_slt.png"],"mutagen_generator_assignment":[0,1],"goal":4,"start":5,"action_noise":0.2,"location_history":"[5,0,1,3,4]","action_history":"[1,1,1,1]","mutagen_history":"[1,1,1,1]","location_rts":"[1852,742,1497,122]","trial_type":"fractal-mutation","trial_index":118,"time_elapsed":2296637,"internal_node_id":"0.0-5.0-14.0"},{"group":"hexagon_tri","fractal_assignment":["../images/cyn_red.png","../images/blu_wht.png","../images/pnk_blu.png","../images/gry_blk.png","../images/org_blu.png","../images/ylw_slt.png"],"mutagen_generator_assignment":[0,1],"goal":3,"start":4,"action_noise":0.2,"location_history":"[4,2,3]","action_history":"[1,1]","mutagen_history":"[1,1]","location_rts":"[1563,705]","trial_type":"fractal-mutation","trial_index":119,"time_elapsed":2304483,"internal_node_id":"0.0-5.0-15.0"},{"group":"hexagon_tri","fractal_assignment":["../images/cyn_red.png","../images/blu_wht.png","../images/pnk_blu.png","../images/gry_blk.png","../images/org_blu.png","../images/ylw_slt.png"],"mutagen_generator_assignment":[0,1],"goal":1,"start":3,"action_noise":0.2,"location_history":"[3,4,0,5,4,2,3,4,2,3,4,2,3,2,1]","action_history":"[1,1,1,1,1,1,1,1,1,1,1,1,0,0]","mutagen_history":"[1,1,1,1,1,1,1,1,1,1,1,1,0,0]","location_rts":"[2736,2105,738,4006,1005,969,256,521,689,833,607,2439,871,1259]","trial_type":"fractal-mutation","trial_index":120,"time_elapsed":2341466,"internal_node_id":"0.0-5.0-16.0"},{"group":"hexagon_tri","fractal_assignment":["../images/cyn_red.png","../images/blu_wht.png","../images/pnk_blu.png","../images/gry_blk.png","../images/org_blu.png","../images/ylw_slt.png"],"mutagen_generator_assignment":[0,1],"goal":5,"start":1,"action_noise":0.2,"location_history":"[1,3,4,0,5]","action_history":"[0,1,0,1]","mutagen_history":"[0,1,0,1]","location_rts":"[17909,82,1737,1348]","trial_type":"fractal-mutation","trial_index":121,"time_elapsed":2370185,"internal_node_id":"0.0-5.0-17.0"},{"group":"hexagon_tri","fractal_assignment":["../images/cyn_red.png","../images/blu_wht.png","../images/pnk_blu.png","../images/gry_blk.png","../images/org_blu.png","../images/ylw_slt.png"],"mutagen_generator_assignment":[0,1],"goal":4,"start":5,"action_noise":0.2,"location_history":"[5,0,1,5,0,5,0,5,4]","action_history":"[0,1,1,1,1,1,0,0]","mutagen_history":"[0,1,1,1,1,1,0,0]","location_rts":"[1843,10354,870,206,439,399,1359,6067]","trial_type":"fractal-mutation","trial_index":122,"time_elapsed":2403474,"internal_node_id":"0.0-5.0-18.0"},{"group":"hexagon_tri","fractal_assignment":["../images/cyn_red.png","../images/blu_wht.png","../images/pnk_blu.png","../images/gry_blk.png","../images/org_blu.png","../images/ylw_slt.png"],"mutagen_generator_assignment":[0,1],"goal":0,"start":4,"action_noise":0.2,"location_history":"[4,0]","action_history":"[0]","mutagen_history":"[0]","location_rts":"[649]","trial_type":"fractal-mutation","trial_index":123,"time_elapsed":2408655,"internal_node_id":"0.0-5.0-19.0"},{"group":"hexagon_tri","fractal_assignment":["../images/cyn_red.png","../images/blu_wht.png","../images/pnk_blu.png","../images/gry_blk.png","../images/org_blu.png","../images/ylw_slt.png"],"mutagen_generator_assignment":[0,1],"goal":1,"start":0,"action_noise":0.2,"location_history":"[0,1]","action_history":"[1]","mutagen_history":"[1]","location_rts":"[1443]","trial_type":"fractal-mutation","trial_index":124,"time_elapsed":2414635,"internal_node_id":"0.0-5.0-20.0"},{"group":"hexagon_tri","fractal_assignment":["../images/cyn_red.png","../images/blu_wht.png","../images/pnk_blu.png","../images/gry_blk.png","../images/org_blu.png","../images/ylw_slt.png"],"mutagen_generator_assignment":[0,1],"goal":3,"start":1,"action_noise":0.2,"location_history":"[1,3]","action_history":"[1]","mutagen_history":"[1]","location_rts":"[2089]","trial_type":"fractal-mutation","trial_index":125,"time_elapsed":2421257,"internal_node_id":"0.0-5.0-21.0"},{"group":"hexagon_tri","fractal_assignment":["../images/cyn_red.png","../images/blu_wht.png","../images/pnk_blu.png","../images/gry_blk.png","../images/org_blu.png","../images/ylw_slt.png"],"mutagen_generator_assignment":[0,1],"goal":2,"start":3,"action_noise":0.2,"location_history":"[3,2]","action_history":"[1]","mutagen_history":"[1]","location_rts":"[891]","trial_type":"fractal-mutation","trial_index":126,"time_elapsed":2426689,"internal_node_id":"0.0-5.0-22.0"},{"group":"hexagon_tri","fractal_assignment":["../images/cyn_red.png","../images/blu_wht.png","../images/pnk_blu.png","../images/gry_blk.png","../images/org_blu.png","../images/ylw_slt.png"],"mutagen_generator_assignment":[0,1],"goal":0,"start":2,"action_noise":0.2,"location_history":"[2,1,3,4,2,1,5,0]","action_history":"[1,0,1,1,1,1,1]","mutagen_history":"[1,0,1,1,1,1,1]","location_rts":"[955,230,2487,1361,547,835,195]","trial_type":"fractal-mutation","trial_index":127,"time_elapsed":2444029,"internal_node_id":"0.0-5.0-23.0"},{"group":"hexagon_tri","fractal_assignment":["../images/cyn_red.png","../images/blu_wht.png","../images/pnk_blu.png","../images/gry_blk.png","../images/org_blu.png","../images/ylw_slt.png"],"mutagen_generator_assignment":[0,1],"goal":3,"start":0,"action_noise":0.2,"location_history":"[0,1,3]","action_history":"[0,0]","mutagen_history":"[0,0]","location_rts":"[30440,117]","trial_type":"fractal-mutation","trial_index":128,"time_elapsed":2480144,"internal_node_id":"0.0-5.0-24.0"},{"group":"hexagon_tri","fractal_assignment":["../images/cyn_red.png","../images/blu_wht.png","../images/pnk_blu.png","../images/gry_blk.png","../images/org_blu.png","../images/ylw_slt.png"],"mutagen_generator_assignment":[0,1],"goal":1,"start":3,"action_noise":0.2,"location_history":"[3,4,2,3,4,2,3,2,1]","action_history":"[1,1,1,1,1,0,1,1]","mutagen_history":"[1,1,1,1,1,0,1,1]","location_rts":"[1578,719,2055,307,145,36,153,67]","trial_type":"fractal-mutation","trial_index":129,"time_elapsed":2497017,"internal_node_id":"0.0-5.0-25.0"},{"group":"hexagon_tri","fractal_assignment":["../images/cyn_red.png","../images/blu_wht.png","../images/pnk_blu.png","../images/gry_blk.png","../images/org_blu.png","../images/ylw_slt.png"],"mutagen_generator_assignment":[0,1],"goal":2,"start":1,"action_noise":0.2,"location_history":"[1,5,0,5,4,2]","action_history":"[0,1,0,0,1]","mutagen_history":"[0,1,0,0,1]","location_rts":"[1628,221,950,4783,1011]","trial_type":"fractal-mutation","trial_index":130,"time_elapsed":2514264,"internal_node_id":"0.0-5.0-26.0"},{"group":"hexagon_tri","fractal_assignment":["../images/cyn_red.png","../images/blu_wht.png","../images/pnk_blu.png","../images/gry_blk.png","../images/org_blu.png","../images/ylw_slt.png"],"mutagen_generator_assignment":[0,1],"goal":5,"start":2,"action_noise":0.2,"location_history":"[2,1,5]","action_history":"[0,1]","mutagen_history":"[0,1]","location_rts":"[4305,1034]","trial_type":"fractal-mutation","trial_index":131,"time_elapsed":2525172,"internal_node_id":"0.0-5.0-27.0"},{"group":"hexagon_tri","fractal_assignment":["../images/cyn_red.png","../images/blu_wht.png","../images/pnk_blu.png","../images/gry_blk.png","../images/org_blu.png","../images/ylw_slt.png"],"mutagen_generator_assignment":[0,1],"goal":4,"start":5,"action_noise":0.2,"location_history":"[5,0,1,5,0,5,0,1,3,2,3,4]","action_history":"[0,1,1,1,0,1,1,1,0,1,0]","mutagen_history":"[0,1,1,1,0,1,1,1,0,1,0]","location_rts":"[1088,175,3829,768,440,989,930,715,648,578,499]","trial_type":"fractal-mutation","trial_index":132,"time_elapsed":2550875,"internal_node_id":"0.0-5.0-28.0"},{"group":"hexagon_tri","fractal_assignment":["../images/cyn_red.png","../images/blu_wht.png","../images/pnk_blu.png","../images/gry_blk.png","../images/org_blu.png","../images/ylw_slt.png"],"mutagen_generator_assignment":[0,1],"goal":5,"start":4,"action_noise":0.2,"location_history":"[4,0,1,5]","action_history":"[0,1,1]","mutagen_history":"[0,1,1]","location_rts":"[949,2872,1287]","trial_type":"fractal-mutation","trial_index":133,"time_elapsed":2562571,"internal_node_id":"0.0-5.0-29.0"},{"group":"hexagon_tri","fractal_assignment":["../images/cyn_red.png","../images/blu_wht.png","../images/pnk_blu.png","../images/gry_blk.png","../images/org_blu.png","../images/ylw_slt.png"],"mutagen_generator_assignment":[0,1],"goal":3,"start":5,"action_noise":0.2,"location_history":"[5,0,1,5,4,0,1,5,0,1,3]","action_history":"[1,0,1,1,0,1,1,1,1,0]","mutagen_history":"[1,0,1,1,0,1,1,1,1,0]","location_rts":"[6469,84,297,493,1432,43,35,544,539,731]","trial_type":"fractal-mutation","trial_index":134,"time_elapsed":2587177,"internal_node_id":"0.0-5.0-30.0"},{"group":"hexagon_tri","fractal_assignment":["../images/cyn_red.png","../images/blu_wht.png","../images/pnk_blu.png","../images/gry_blk.png","../images/org_blu.png","../images/ylw_slt.png"],"mutagen_generator_assignment":[0,1],"goal":0,"start":3,"action_noise":0.2,"location_history":"[3,2,3,4,2,1,3,4,2,3,4,0]","action_history":"[1,1,1,1,1,1,1,1,1,1,1]","mutagen_history":"[1,1,1,1,1,1,1,1,1,1,1]","location_rts":"[7597,1149,8004,4674,100,155,642,828,148,65,481]","trial_type":"fractal-mutation","trial_index":135,"time_elapsed":2625896,"internal_node_id":"0.0-5.0-31.0"},{"group":"hexagon_tri","fractal_assignment":["../images/cyn_red.png","../images/blu_wht.png","../images/pnk_blu.png","../images/gry_blk.png","../images/org_blu.png","../images/ylw_slt.png"],"mutagen_generator_assignment":[0,1],"goal":4,"start":0,"action_noise":0.2,"location_history":"[0,1,3,4]","action_history":"[1,1,1]","mutagen_history":"[1,1,1]","location_rts":"[18534,43,287]","trial_type":"fractal-mutation","trial_index":136,"time_elapsed":2652083,"internal_node_id":"0.0-5.0-32.0"},{"group":"hexagon_tri","fractal_assignment":["../images/cyn_red.png","../images/blu_wht.png","../images/pnk_blu.png","../images/gry_blk.png","../images/org_blu.png","../images/ylw_slt.png"],"mutagen_generator_assignment":[0,1],"goal":1,"start":4,"action_noise":0.2,"location_history":"[4,2,3,4,2,3,4,0,5,4,2,3,4,2,3,2,3,4,0,5,0,5,0,5,4,2,3,4,2,3,4,2,3,2,1]","action_history":"[1,1,1,1,1,1,1,0,1,0,1,1,1,1,0,1,1,1,1,1,1,1,1,1,1,1,1,1,1,1,1,0,0,0]","mutagen_history":"[1,1,1,1,1,1,1,0,1,0,1,1,1,1,0,1,1,1,1,1,1,1,1,1,1,1,1,1,1,1,1,0,0,0]","location_rts":"[2398,610,267,17,392,1984,38,105,156,29,255,523,1050,1120,87,1360,1591,2413,129,1788,876,25,1236,118,123,104,371,484,1057,18784,820,757,729,654]","trial_type":"fractal-mutation","trial_index":137,"time_elapsed":2733182,"internal_node_id":"0.0-5.0-33.0"},{"group":"hexagon_tri","fractal_assignment":["../images/cyn_red.png","../images/blu_wht.png","../images/pnk_blu.png","../images/gry_blk.png","../images/org_blu.png","../images/ylw_slt.png"],"mutagen_generator_assignment":[0,1],"goal":2,"start":1,"action_noise":0.2,"location_history":"[1,5,0,1,5,0,1,5,4,2]","action_history":"[1,1,1,0,1,1,0,1,1]","mutagen_history":"[1,1,1,0,1,1,0,1,1]","location_rts":"[1714,1889,554,33,634,499,1274,795,593]","trial_type":"fractal-mutation","trial_index":138,"time_elapsed":2753980,"internal_node_id":"0.0-5.0-34.0"},{"group":"hexagon_tri","fractal_assignment":["../images/cyn_red.png","../images/blu_wht.png","../images/pnk_blu.png","../images/gry_blk.png","../images/org_blu.png","../images/ylw_slt.png"],"mutagen_generator_assignment":[0,1],"goal":0,"start":2,"action_noise":0.2,"location_history":"[2,3,4,2,3,4,2,1,5,4,2,1,5,0]","action_history":"[1,0,1,1,1,1,1,1,1,1,1,1,1]","mutagen_history":"[1,0,1,1,1,1,1,1,1,1,1,1,1]","location_rts":"[2223,1002,294,1216,16,316,1722,1076,516,1204,124,76,613]","trial_type":"fractal-mutation","trial_index":139,"time_elapsed":2781325,"internal_node_id":"0.0-5.0-35.0"},{"group":"hexagon_tri","fractal_assignment":["../images/cyn_red.png","../images/blu_wht.png","../images/pnk_blu.png","../images/gry_blk.png","../images/org_blu.png","../images/ylw_slt.png"],"mutagen_generator_assignment":[0,1],"goal":5,"start":0,"action_noise":0.2,"location_history":"[0,5]","action_history":"[0]","mutagen_history":"[0]","location_rts":"[25021]","trial_type":"fractal-mutation","trial_index":140,"time_elapsed":2810874,"internal_node_id":"0.0-5.0-36.0"},{"group":"hexagon_tri","fractal_assignment":["../images/cyn_red.png","../images/blu_wht.png","../images/pnk_blu.png","../images/gry_blk.png","../images/org_blu.png","../images/ylw_slt.png"],"mutagen_generator_assignment":[0,1],"goal":2,"start":5,"action_noise":0.2,"location_history":"[5,4,2]","action_history":"[0,1]","mutagen_history":"[0,1]","location_rts":"[818,105]","trial_type":"fractal-mutation","trial_index":141,"time_elapsed":2817360,"internal_node_id":"0.0-5.0-37.0"},{"group":"hexagon_tri","fractal_assignment":["../images/cyn_red.png","../images/blu_wht.png","../images/pnk_blu.png","../images/gry_blk.png","../images/org_blu.png","../images/ylw_slt.png"],"mutagen_generator_assignment":[0,1],"goal":1,"start":2,"action_noise":0.2,"location_history":"[2,3,4,2,1]","action_history":"[1,1,1,0]","mutagen_history":"[1,1,1,0]","location_rts":"[1112,189,43,102]","trial_type":"fractal-mutation","trial_index":142,"time_elapsed":2826436,"internal_node_id":"0.0-5.0-38.0"},{"group":"hexagon_tri","fractal_assignment":["../images/cyn_red.png","../images/blu_wht.png","../images/pnk_blu.png","../images/gry_blk.png","../images/org_blu.png","../images/ylw_slt.png"],"mutagen_generator_assignment":[0,1],"goal":4,"start":1,"action_noise":0.2,"location_history":"[1,3,4]","action_history":"[1,1]","mutagen_history":"[1,1]","location_rts":"[1855,45]","trial_type":"fractal-mutation","trial_index":143,"time_elapsed":2833909,"internal_node_id":"0.0-5.0-39.0"},{"group":"hexagon_tri","fractal_assignment":["../images/cyn_red.png","../images/blu_wht.png","../images/pnk_blu.png","../images/gry_blk.png","../images/org_blu.png","../images/ylw_slt.png"],"mutagen_generator_assignment":[0,1],"goal":3,"start":4,"action_noise":0.2,"location_history":"[4,2,1,5,0,5,4,2,3]","action_history":"[1,0,1,1,0,0,1,1]","mutagen_history":"[1,0,1,1,0,0,1,1]","location_rts":"[952,45,84,1153,134,82,1544,3549]","trial_type":"fractal-mutation","trial_index":144,"time_elapsed":2853246,"internal_node_id":"0.0-5.0-40.0"},{"group":"hexagon_tri","fractal_assignment":["../images/cyn_red.png","../images/blu_wht.png","../images/pnk_blu.png","../images/gry_blk.png","../images/org_blu.png","../images/ylw_slt.png"],"mutagen_generator_assignment":[0,1],"goal":5,"start":3,"action_noise":0.2,"location_history":"[3,2,1,5]","action_history":"[1,1,1]","mutagen_history":"[1,1,1]","location_rts":"[5539,92,26]","trial_type":"fractal-mutation","trial_index":145,"time_elapsed":2865507,"internal_node_id":"0.0-5.0-41.0"},{"group":"hexagon_tri","fractal_assignment":["../images/cyn_red.png","../images/blu_wht.png","../images/pnk_blu.png","../images/gry_blk.png","../images/org_blu.png","../images/ylw_slt.png"],"mutagen_generator_assignment":[0,1],"goal":3,"start":5,"action_noise":0.2,"location_history":"[5,4,2,3]","action_history":"[0,0,1]","mutagen_history":"[0,0,1]","location_rts":"[41708,65,83]","trial_type":"fractal-mutation","trial_index":146,"time_elapsed":2913968,"internal_node_id":"0.0-5.0-42.0"},{"group":"hexagon_tri","fractal_assignment":["../images/cyn_red.png","../images/blu_wht.png","../images/pnk_blu.png","../images/gry_blk.png","../images/org_blu.png","../images/ylw_slt.png"],"mutagen_generator_assignment":[0,1],"goal":0,"start":3,"action_noise":0.2,"location_history":"[3,4,0]","action_history":"[1,1]","mutagen_history":"[1,1]","location_rts":"[856,59]","trial_type":"fractal-mutation","trial_index":147,"time_elapsed":2920469,"internal_node_id":"0.0-5.0-43.0"},{"group":"hexagon_tri","fractal_assignment":["../images/cyn_red.png","../images/blu_wht.png","../images/pnk_blu.png","../images/gry_blk.png","../images/org_blu.png","../images/ylw_slt.png"],"mutagen_generator_assignment":[0,1],"goal":2,"start":0,"action_noise":0.2,"location_history":"[0,1,5,0,1,5,0,5,0,5,4,2]","action_history":"[1,1,1,1,0,1,0,1,1,1,1]","mutagen_history":"[1,1,1,1,0,1,0,1,1,1,1]","location_rts":"[700,112,58,88,11,3341,9,130,1240,118,121]","trial_type":"fractal-mutation","trial_index":148,"time_elapsed":2941264,"internal_node_id":"0.0-5.0-44.0"},{"group":"hexagon_tri","fractal_assignment":["../images/cyn_red.png","../images/blu_wht.png","../images/pnk_blu.png","../images/gry_blk.png","../images/org_blu.png","../images/ylw_slt.png"],"mutagen_generator_assignment":[0,1],"goal":4,"start":2,"action_noise":0.2,"location_history":"[2,1,5,0,1,3,4]","action_history":"[1,0,0,1,1,1]","mutagen_history":"[1,0,0,1,1,1]","location_rts":"[5273,16,56,2146,152,1662]","trial_type":"fractal-mutation","trial_index":149,"time_elapsed":2960300,"internal_node_id":"0.0-5.0-45.0"},{"group":"hexagon_tri","fractal_assignment":["../images/cyn_red.png","../images/blu_wht.png","../images/pnk_blu.png","../images/gry_blk.png","../images/org_blu.png","../images/ylw_slt.png"],"mutagen_generator_assignment":[0,1],"goal":1,"start":4,"action_noise":0.2,"location_history":"[4,2,3,2,1]","action_history":"[1,1,1,0]","mutagen_history":"[1,1,1,0]","location_rts":"[793,80,113,10]","trial_type":"fractal-mutation","trial_index":150,"time_elapsed":2968939,"internal_node_id":"0.0-5.0-46.0"},{"group":"hexagon_tri","fractal_assignment":["../images/cyn_red.png","../images/blu_wht.png","../images/pnk_blu.png","../images/gry_blk.png","../images/org_blu.png","../images/ylw_slt.png"],"mutagen_generator_assignment":[0,1],"goal":4,"start":1,"action_noise":0.2,"location_history":"[1,5,4]","action_history":"[1,1]","mutagen_history":"[1,1]","location_rts":"[132,107]","trial_type":"fractal-mutation","trial_index":151,"time_elapsed":2974755,"internal_node_id":"0.0-5.0-47.0"},{"group":"hexagon_tri","fractal_assignment":["../images/cyn_red.png","../images/blu_wht.png","../images/pnk_blu.png","../images/gry_blk.png","../images/org_blu.png","../images/ylw_slt.png"],"mutagen_generator_assignment":[0,1],"goal":1,"start":4,"action_noise":0.2,"location_history":"[4,0,1]","action_history":"[1,1]","mutagen_history":"[1,1]","location_rts":"[1268,131]","trial_type":"fractal-mutation","trial_index":152,"time_elapsed":2981737,"internal_node_id":"0.0-5.0-48.0"},{"group":"hexagon_tri","fractal_assignment":["../images/cyn_red.png","../images/blu_wht.png","../images/pnk_blu.png","../images/gry_blk.png","../images/org_blu.png","../images/ylw_slt.png"],"mutagen_generator_assignment":[0,1],"goal":3,"start":1,"action_noise":0.2,"location_history":"[1,3]","action_history":"[0]","mutagen_history":"[0]","location_rts":"[630]","trial_type":"fractal-mutation","trial_index":153,"time_elapsed":2986898,"internal_node_id":"0.0-5.0-49.0"},{"group":"hexagon_tri","fractal_assignment":["../images/cyn_red.png","../images/blu_wht.png","../images/pnk_blu.png","../images/gry_blk.png","../images/org_blu.png","../images/ylw_slt.png"],"mutagen_generator_assignment":[0,1],"goal":5,"start":3,"action_noise":0.2,"location_history":"[3,4,2,1,5]","action_history":"[1,1,0,1]","mutagen_history":"[1,1,0,1]","location_rts":"[550,44,138,1039]","trial_type":"fractal-mutation","trial_index":154,"time_elapsed":2996309,"internal_node_id":"0.0-5.0-50.0"},{"group":"hexagon_tri","fractal_assignment":["../images/cyn_red.png","../images/blu_wht.png","../images/pnk_blu.png","../images/gry_blk.png","../images/org_blu.png","../images/ylw_slt.png"],"mutagen_generator_assignment":[0,1],"goal":0,"start":5,"action_noise":0.2,"location_history":"[5,0]","action_history":"[1]","mutagen_history":"[1]","location_rts":"[4969]","trial_type":"fractal-mutation","trial_index":155,"time_elapsed":3005811,"internal_node_id":"0.0-5.0-51.0"},{"group":"hexagon_tri","fractal_assignment":["../images/cyn_red.png","../images/blu_wht.png","../images/pnk_blu.png","../images/gry_blk.png","../images/org_blu.png","../images/ylw_slt.png"],"mutagen_generator_assignment":[0,1],"goal":2,"start":0,"action_noise":0.2,"location_history":"[0,1,5,4,0,5,0,1,5,0,1,5,4,2]","action_history":"[1,1,0,0,0,1,1,1,1,1,1,0,1]","mutagen_history":"[1,1,0,0,0,1,1,1,1,1,1,0,1]","location_rts":"[765,64,126,56,111,1043,1356,74,3398,707,984,697,844]","trial_type":"fractal-mutation","trial_index":156,"time_elapsed":3033005,"internal_node_id":"0.0-5.0-52.0"},{"group":"hexagon_tri","fractal_assignment":["../images/cyn_red.png","../images/blu_wht.png","../images/pnk_blu.png","../images/gry_blk.png","../images/org_blu.png","../images/ylw_slt.png"],"mutagen_generator_assignment":[0,1],"goal":1,"start":2,"action_noise":0.2,"location_history":"[2,1]","action_history":"[1]","mutagen_history":"[1]","location_rts":"[3628]","trial_type":"fractal-mutation","trial_index":157,"time_elapsed":3041169,"internal_node_id":"0.0-5.0-53.0"},{"group":"hexagon_tri","fractal_assignment":["../images/cyn_red.png","../images/blu_wht.png","../images/pnk_blu.png","../images/gry_blk.png","../images/org_blu.png","../images/ylw_slt.png"],"mutagen_generator_assignment":[0,1],"goal":2,"start":1,"action_noise":0.2,"location_history":"[1,3,4,2]","action_history":"[1,1,1]","mutagen_history":"[1,1,1]","location_rts":"[1030,106,99]","trial_type":"fractal-mutation","trial_index":158,"time_elapsed":3048993,"internal_node_id":"0.0-5.0-54.0"},{"group":"hexagon_tri","fractal_assignment":["../images/cyn_red.png","../images/blu_wht.png","../images/pnk_blu.png","../images/gry_blk.png","../images/org_blu.png","../images/ylw_slt.png"],"mutagen_generator_assignment":[0,1],"goal":5,"start":2,"action_noise":0.2,"location_history":"[2,3,4,0,5]","action_history":"[1,0,1,0]","mutagen_history":"[1,0,1,0]","location_rts":"[10298,60,30,22]","trial_type":"fractal-mutation","trial_index":159,"time_elapsed":3067079,"internal_node_id":"0.0-5.0-55.0"},{"group":"hexagon_tri","fractal_assignment":["../images/cyn_red.png","../images/blu_wht.png","../images/pnk_blu.png","../images/gry_blk.png","../images/org_blu.png","../images/ylw_slt.png"],"mutagen_generator_assignment":[0,1],"goal":4,"start":5,"action_noise":0.2,"location_history":"[5,0,1,3,2,1,3,4]","action_history":"[1,1,0,1,1,0,1]","mutagen_history":"[1,1,0,1,1,0,1]","location_rts":"[824,166,53,130,708,65,14]","trial_type":"fractal-mutation","trial_index":160,"time_elapsed":3079801,"internal_node_id":"0.0-5.0-56.0"},{"group":"hexagon_tri","fractal_assignment":["../images/cyn_red.png","../images/blu_wht.png","../images/pnk_blu.png","../images/gry_blk.png","../images/org_blu.png","../images/ylw_slt.png"],"mutagen_generator_assignment":[0,1],"goal":3,"start":4,"action_noise":0.2,"location_history":"[4,2,1,5,4,0,1,5,4,2,3]","action_history":"[1,0,1,0,1,1,1,1,0,1]","mutagen_history":"[1,0,1,0,1,1,1,1,0,1]","location_rts":"[3627,73,74,35,98,2761,135,43,115,2986]","trial_type":"fractal-mutation","trial_index":161,"time_elapsed":3103588,"internal_node_id":"0.0-5.0-57.0"},{"group":"hexagon_tri","fractal_assignment":["../images/cyn_red.png","../images/blu_wht.png","../images/pnk_blu.png","../images/gry_blk.png","../images/org_blu.png","../images/ylw_slt.png"],"mutagen_generator_assignment":[0,1],"goal":0,"start":3,"action_noise":0.2,"location_history":"[3,4,2,3,2,1,5,0]","action_history":"[1,1,1,0,0,1,1]","mutagen_history":"[1,1,1,0,0,1,1]","location_rts":"[4294,61,3460,13,87,71,495]","trial_type":"fractal-mutation","trial_index":162,"time_elapsed":3122786,"internal_node_id":"0.0-5.0-58.0"},{"group":"hexagon_tri","fractal_assignment":["../images/cyn_red.png","../images/blu_wht.png","../images/pnk_blu.png","../images/gry_blk.png","../images/org_blu.png","../images/ylw_slt.png"],"mutagen_generator_assignment":[0,1],"goal":2,"start":0,"action_noise":0.2,"location_history":"[0,1,5,0,5,4,0,1,5,4,2]","action_history":"[1,1,1,1,1,0,1,1,0,1]","mutagen_history":"[1,1,1,1,1,0,1,1,0,1]","location_rts":"[7159,144,64,104,56,75,657,145,43,76]","trial_type":"fractal-mutation","trial_index":163,"time_elapsed":3145121,"internal_node_id":"0.0-5.0-59.0"},{"group":"hexagon_tri","fractal_assignment":["../images/cyn_red.png","../images/blu_wht.png","../images/pnk_blu.png","../images/gry_blk.png","../images/org_blu.png","../images/ylw_slt.png"],"mutagen_generator_assignment":[0,1],"goal":1,"start":2,"action_noise":0.2,"location_history":"[2,1]","action_history":"[1]","mutagen_history":"[1]","location_rts":"[889]","trial_type":"fractal-mutation","trial_index":164,"time_elapsed":3150549,"internal_node_id":"0.0-5.0-60.0"},{"group":"hexagon_tri","fractal_assignment":["../images/cyn_red.png","../images/blu_wht.png","../images/pnk_blu.png","../images/gry_blk.png","../images/org_blu.png","../images/ylw_slt.png"],"mutagen_generator_assignment":[0,1],"goal":0,"start":1,"action_noise":0.2,"location_history":"[1,3,2,1,5,0]","action_history":"[0,0,0,1,1]","mutagen_history":"[0,0,0,1,1]","location_rts":"[16014,129,25,0,141]","trial_type":"fractal-mutation","trial_index":165,"time_elapsed":3175516,"internal_node_id":"0.0-5.0-61.0"},{"group":"hexagon_tri","fractal_assignment":["../images/cyn_red.png","../images/blu_wht.png","../images/pnk_blu.png","../images/gry_blk.png","../images/org_blu.png","../images/ylw_slt.png"],"mutagen_generator_assignment":[0,1],"goal":3,"start":0,"action_noise":0.2,"location_history":"[0,1,5,0,5,0,1,3]","action_history":"[1,0,0,0,1,1,0]","mutagen_history":"[1,0,0,0,1,1,0]","location_rts":"[1056,37,128,163,10,127,28]","trial_type":"fractal-mutation","trial_index":166,"time_elapsed":3187925,"internal_node_id":"0.0-5.0-62.0"},{"group":"hexagon_tri","fractal_assignment":["../images/cyn_red.png","../images/blu_wht.png","../images/pnk_blu.png","../images/gry_blk.png","../images/org_blu.png","../images/ylw_slt.png"],"mutagen_generator_assignment":[0,1],"goal":5,"start":3,"action_noise":0.2,"location_history":"[3,4,2,1,3,2,3,2,1,3,2,1,3,4,2,3,2,3,4,0,1,3,2,1,3,2,1,5]","action_history":"[0,1,0,1,0,1,0,0,0,0,0,0,1,0,1,0,1,1,0,1,0,0,0,0,0,1,0]","mutagen_history":"[0,1,0,1,0,1,0,0,0,0,0,0,1,0,1,0,1,1,0,1,0,0,0,0,0,1,0]","location_rts":"[1254,25,6,63,83,1834,160,915,662,569,416,2029,642,57,121,97,141,66,523,118,37,57,59,62,119,1346,36]","trial_type":"fractal-mutation","trial_index":167,"time_elapsed":3230737,"internal_node_id":"0.0-5.0-63.0"},{"group":"hexagon_tri","fractal_assignment":["../images/cyn_red.png","../images/blu_wht.png","../images/pnk_blu.png","../images/gry_blk.png","../images/org_blu.png","../images/ylw_slt.png"],"mutagen_generator_assignment":[0,1],"goal":4,"start":5,"action_noise":0.2,"location_history":"[5,4]","action_history":"[1]","mutagen_history":"[1]","location_rts":"[4057]","trial_type":"fractal-mutation","trial_index":168,"time_elapsed":3239332,"internal_node_id":"0.0-5.0-64.0"},{"group":"hexagon_tri","fractal_assignment":["../images/cyn_red.png","../images/blu_wht.png","../images/pnk_blu.png","../images/gry_blk.png","../images/org_blu.png","../images/ylw_slt.png"],"mutagen_generator_assignment":[0,1],"goal":1,"start":4,"action_noise":0.2,"location_history":"[4,2,1]","action_history":"[1,0]","mutagen_history":"[1,0]","location_rts":"[862,511]","trial_type":"fractal-mutation","trial_index":169,"time_elapsed":3246274,"internal_node_id":"0.0-5.0-65.0"},{"group":"hexagon_tri","fractal_assignment":["../images/cyn_red.png","../images/blu_wht.png","../images/pnk_blu.png","../images/gry_blk.png","../images/org_blu.png","../images/ylw_slt.png"],"mutagen_generator_assignment":[0,1],"goal":5,"start":1,"action_noise":0.2,"location_history":"[1,3,4,0,5]","action_history":"[0,1,0,1]","mutagen_history":"[0,1,0,1]","location_rts":"[1375,119,28,1629]","trial_type":"fractal-mutation","trial_index":170,"time_elapsed":3257096,"internal_node_id":"0.0-5.0-66.0"},{"group":"hexagon_tri","fractal_assignment":["../images/cyn_red.png","../images/blu_wht.png","../images/pnk_blu.png","../images/gry_blk.png","../images/org_blu.png","../images/ylw_slt.png"],"mutagen_generator_assignment":[0,1],"goal":2,"start":5,"action_noise":0.2,"location_history":"[5,0,5,0,5,0,1,3,4,0,5,0,1,5,4,0,5,4,0,1,5,4,0,1,5,4,0,1,3,4,0,1,3,4,0,5,0,5,0,1,3,2]","action_history":"[1,0,1,1,1,1,0,1,0,1,1,1,1,0,1,1,0,0,1,0,0,0,1,1,0,0,1,1,1,1,1,0,1,0,1,1,0,1,0,1,0]","mutagen_history":"[1,0,1,1,1,1,0,1,0,1,1,1,1,0,1,1,0,0,1,0,0,0,1,1,0,0,1,1,1,1,1,0,1,0,1,1,0,1,0,1,0]","location_rts":"[733,54,5,186,3780,140,68,127,144,145,7615,46,123,776,160,157,46,20,150,174,23,48,84,11,131,82,654,79,20,127,2656,28,167,108,156,16,180,511,61,38,839]","trial_type":"fractal-mutation","trial_index":171,"time_elapsed":3323691,"internal_node_id":"0.0-5.0-67.0"},{"group":"hexagon_tri","fractal_assignment":["../images/cyn_red.png","../images/blu_wht.png","../images/pnk_blu.png","../images/gry_blk.png","../images/org_blu.png","../images/ylw_slt.png"],"mutagen_generator_assignment":[0,1],"goal":3,"start":2,"action_noise":0.2,"location_history":"[2,1,3]","action_history":"[0,1]","mutagen_history":"[0,1]","location_rts":"[35089,184]","trial_type":"fractal-mutation","trial_index":172,"time_elapsed":3364540,"internal_node_id":"0.0-5.0-68.0"},{"group":"hexagon_tri","fractal_assignment":["../images/cyn_red.png","../images/blu_wht.png","../images/pnk_blu.png","../images/gry_blk.png","../images/org_blu.png","../images/ylw_slt.png"],"mutagen_generator_assignment":[0,1],"goal":4,"start":3,"action_noise":0.2,"location_history":"[3,2,1,5,4]","action_history":"[0,0,1,0]","mutagen_history":"[0,0,1,0]","location_rts":"[844,136,170,166]","trial_type":"fractal-mutation","trial_index":173,"time_elapsed":3374085,"internal_node_id":"0.0-5.0-69.0"},{"group":"hexagon_tri","fractal_assignment":["../images/cyn_red.png","../images/blu_wht.png","../images/pnk_blu.png","../images/gry_blk.png","../images/org_blu.png","../images/ylw_slt.png"],"mutagen_generator_assignment":[0,1],"goal":0,"start":4,"action_noise":0.2,"location_history":"[4,0]","action_history":"[0]","mutagen_history":"[0]","location_rts":"[2089]","trial_type":"fractal-mutation","trial_index":174,"time_elapsed":3380705,"internal_node_id":"0.0-5.0-70.0"},{"group":"hexagon_tri","fractal_assignment":["../images/cyn_red.png","../images/blu_wht.png","../images/pnk_blu.png","../images/gry_blk.png","../images/org_blu.png","../images/ylw_slt.png"],"mutagen_generator_assignment":[0,1],"goal":5,"start":0,"action_noise":0.2,"location_history":"[0,1,3,4,0,1,5]","action_history":"[1,0,1,0,1,1]","mutagen_history":"[1,0,1,0,1,1]","location_rts":"[119,145,71,22,68,125]","trial_type":"fractal-mutation","trial_index":175,"time_elapsed":3390950,"internal_node_id":"0.0-5.0-71.0"},{"group":"hexagon_tri","fractal_assignment":["../images/cyn_red.png","../images/blu_wht.png","../images/pnk_blu.png","../images/gry_blk.png","../images/org_blu.png","../images/ylw_slt.png"],"mutagen_generator_assignment":[0,1],"goal":0,"start":5,"action_noise":0.2,"location_history":"[5,0]","action_history":"[1]","mutagen_history":"[1]","location_rts":"[3021]","trial_type":"fractal-mutation","trial_index":176,"time_elapsed":3398515,"internal_node_id":"0.0-5.0-72.0"},{"group":"hexagon_tri","fractal_assignment":["../images/cyn_red.png","../images/blu_wht.png","../images/pnk_blu.png","../images/gry_blk.png","../images/org_blu.png","../images/ylw_slt.png"],"mutagen_generator_assignment":[0,1],"goal":3,"start":0,"action_noise":0.2,"location_history":"[0,1,3]","action_history":"[1,0]","mutagen_history":"[1,0]","location_rts":"[7,92]","trial_type":"fractal-mutation","trial_index":177,"time_elapsed":3404178,"internal_node_id":"0.0-5.0-73.0"},{"group":"hexagon_tri","fractal_assignment":["../images/cyn_red.png","../images/blu_wht.png","../images/pnk_blu.png","../images/gry_blk.png","../images/org_blu.png","../images/ylw_slt.png"],"mutagen_generator_assignment":[0,1],"goal":1,"start":3,"action_noise":0.2,"location_history":"[3,4,2,1]","action_history":"[1,1,0]","mutagen_history":"[1,1,0]","location_rts":"[1479,2091,6]","trial_type":"fractal-mutation","trial_index":178,"time_elapsed":3414349,"internal_node_id":"0.0-5.0-74.0"},{"group":"hexagon_tri","fractal_assignment":["../images/cyn_red.png","../images/blu_wht.png","../images/pnk_blu.png","../images/gry_blk.png","../images/org_blu.png","../images/ylw_slt.png"],"mutagen_generator_assignment":[0,1],"goal":2,"start":1,"action_noise":0.2,"location_history":"[1,5,4,0,1,3,4,2]","action_history":"[1,0,0,1,0,1,1]","mutagen_history":"[1,0,0,1,0,1,1]","location_rts":"[2790,73,73,3,157,38,7]","trial_type":"fractal-mutation","trial_index":179,"time_elapsed":3428209,"internal_node_id":"0.0-5.0-75.0"},{"group":"hexagon_tri","fractal_assignment":["../images/cyn_red.png","../images/blu_wht.png","../images/pnk_blu.png","../images/gry_blk.png","../images/org_blu.png","../images/ylw_slt.png"],"mutagen_generator_assignment":[0,1],"goal":4,"start":2,"action_noise":0.2,"location_history":"[2,3,2,3,2,3,2,3,2,1,3,2,3,4]","action_history":"[1,0,1,0,1,0,1,0,1,0,1,1,1]","mutagen_history":"[1,0,1,0,1,0,1,0,1,0,1,1,1]","location_rts":"[3450,46,6,56,105,130,107,36,103,45,127,86,113]","trial_type":"fractal-mutation","trial_index":180,"time_elapsed":3449593,"internal_node_id":"0.0-5.0-76.0"},{"group":"hexagon_tri","fractal_assignment":["../images/cyn_red.png","../images/blu_wht.png","../images/pnk_blu.png","../images/gry_blk.png","../images/org_blu.png","../images/ylw_slt.png"],"mutagen_generator_assignment":[0,1],"goal":3,"start":4,"action_noise":0.2,"location_history":"[4,2,3]","action_history":"[1,1]","mutagen_history":"[1,1]","location_rts":"[7345,37]","trial_type":"fractal-mutation","trial_index":181,"time_elapsed":3462560,"internal_node_id":"0.0-5.0-77.0"},{"group":"hexagon_tri","fractal_assignment":["../images/cyn_red.png","../images/blu_wht.png","../images/pnk_blu.png","../images/gry_blk.png","../images/org_blu.png","../images/ylw_slt.png"],"mutagen_generator_assignment":[0,1],"goal":0,"start":3,"action_noise":0.2,"location_history":"[3,4,0]","action_history":"[1,0]","mutagen_history":"[1,0]","location_rts":"[750,171]","trial_type":"fractal-mutation","trial_index":182,"time_elapsed":3469042,"internal_node_id":"0.0-5.0-78.0"},{"group":"hexagon_tri","fractal_assignment":["../images/cyn_red.png","../images/blu_wht.png","../images/pnk_blu.png","../images/gry_blk.png","../images/org_blu.png","../images/ylw_slt.png"],"mutagen_generator_assignment":[0,1],"goal":4,"start":0,"action_noise":0.2,"location_history":"[0,1,5,0,1,3,2,1,5,0,1,3,4]","action_history":"[1,1,1,0,0,0,1,1,1,0,0,1]","mutagen_history":"[1,1,1,0,0,0,1,1,1,0,0,1]","location_rts":"[705,54,25,137,145,56,428,2534,10,32,10,34]","trial_type":"fractal-mutation","trial_index":183,"time_elapsed":3489119,"internal_node_id":"0.0-5.0-79.0"},{"group":"hexagon_tri","fractal_assignment":["../images/cyn_red.png","../images/blu_wht.png","../images/pnk_blu.png","../images/gry_blk.png","../images/org_blu.png","../images/ylw_slt.png"],"mutagen_generator_assignment":[0,1],"goal":5,"start":4,"action_noise":0.2,"location_history":"[4,0,1,5]","action_history":"[1,0,1]","mutagen_history":"[1,0,1]","location_rts":"[845,85,129]","trial_type":"fractal-mutation","trial_index":184,"time_elapsed":3496778,"internal_node_id":"0.0-5.0-80.0"},{"group":"hexagon_tri","fractal_assignment":["../images/cyn_red.png","../images/blu_wht.png","../images/pnk_blu.png","../images/gry_blk.png","../images/org_blu.png","../images/ylw_slt.png"],"mutagen_generator_assignment":[0,1],"goal":1,"start":5,"action_noise":0.2,"location_history":"[5,0,5,4,2,3,4,0,5,0,1]","action_history":"[1,0,0,1,1,1,0,1,1,1]","mutagen_history":"[1,0,0,1,1,1,0,1,1,1]","location_rts":"[315,138,75,196,253,108,91,54,11114,88]","trial_type":"fractal-mutation","trial_index":185,"time_elapsed":3523044,"internal_node_id":"0.0-5.0-81.0"},{"group":"hexagon_tri","fractal_assignment":["../images/cyn_red.png","../images/blu_wht.png","../images/pnk_blu.png","../images/gry_blk.png","../images/org_blu.png","../images/ylw_slt.png"],"mutagen_generator_assignment":[0,1],"goal":2,"start":1,"action_noise":0.2,"location_history":"[1,3,4,0,1,3,4,2]","action_history":"[0,1,0,1,0,1,1]","mutagen_history":"[0,1,0,1,0,1,1]","location_rts":"[32,72,26,25,17,88,143]","trial_type":"fractal-mutation","trial_index":186,"time_elapsed":3534167,"internal_node_id":"0.0-5.0-82.0"},{"group":"hexagon_tri","fractal_assignment":["../images/cyn_red.png","../images/blu_wht.png","../images/pnk_blu.png","../images/gry_blk.png","../images/org_blu.png","../images/ylw_slt.png"],"mutagen_generator_assignment":[0,1],"goal":4,"start":2,"action_noise":0.2,"location_history":"[2,3,2,3,2,3,4]","action_history":"[1,0,1,0,1,1]","mutagen_history":"[1,0,1,0,1,1]","location_rts":"[2066,61,63,78,131,113]","trial_type":"fractal-mutation","trial_index":187,"time_elapsed":3546348,"internal_node_id":"0.0-5.0-83.0"},{"group":"hexagon_tri","fractal_assignment":["../images/cyn_red.png","../images/blu_wht.png","../images/pnk_blu.png","../images/gry_blk.png","../images/org_blu.png","../images/ylw_slt.png"],"mutagen_generator_assignment":[0,1],"goal":0,"start":4,"action_noise":0.2,"location_history":"[4,0]","action_history":"[1]","mutagen_history":"[1]","location_rts":"[1740]","trial_type":"fractal-mutation","trial_index":188,"time_elapsed":3552736,"internal_node_id":"0.0-5.0-84.0"},{"group":"hexagon_tri","fractal_assignment":["../images/cyn_red.png","../images/blu_wht.png","../images/pnk_blu.png","../images/gry_blk.png","../images/org_blu.png","../images/ylw_slt.png"],"mutagen_generator_assignment":[0,1],"goal":5,"start":0,"action_noise":0.2,"location_history":"[0,5]","action_history":"[0]","mutagen_history":"[0]","location_rts":"[113]","trial_type":"fractal-mutation","trial_index":189,"time_elapsed":3557380,"internal_node_id":"0.0-5.0-85.0"},{"group":"hexagon_tri","fractal_assignment":["../images/cyn_red.png","../images/blu_wht.png","../images/pnk_blu.png","../images/gry_blk.png","../images/org_blu.png","../images/ylw_slt.png"],"mutagen_generator_assignment":[0,1],"goal":3,"start":5,"action_noise":0.2,"location_history":"[5,0,5,0,1,5,4,2,3]","action_history":"[1,1,1,1,1,0,1,1]","mutagen_history":"[1,1,1,1,1,0,1,1]","location_rts":"[45,947,102,51,112,4,15,150]","trial_type":"fractal-mutation","trial_index":190,"time_elapsed":3570578,"internal_node_id":"0.0-5.0-86.0"},{"group":"hexagon_tri","fractal_assignment":["../images/cyn_red.png","../images/blu_wht.png","../images/pnk_blu.png","../images/gry_blk.png","../images/org_blu.png","../images/ylw_slt.png"],"mutagen_generator_assignment":[0,1],"goal":1,"start":3,"action_noise":0.2,"location_history":"[3,4,2,3,4,2,3,4,2,3,4,0,1]","action_history":"[1,1,1,1,1,1,1,1,1,1,0,1]","mutagen_history":"[1,1,1,1,1,1,1,1,1,1,0,1]","location_rts":"[764,93,77,204,214,147,175,183,1565,1086,116,124]","trial_type":"fractal-mutation","trial_index":191,"time_elapsed":3591234,"internal_node_id":"0.0-5.0-87.0"},{"group":"hexagon_tri","fractal_assignment":["../images/cyn_red.png","../images/blu_wht.png","../images/pnk_blu.png","../images/gry_blk.png","../images/org_blu.png","../images/ylw_slt.png"],"mutagen_generator_assignment":[0,1],"goal":2,"start":1,"action_noise":0.2,"location_history":"[1,3,4,2]","action_history":"[1,0,1]","mutagen_history":"[1,0,1]","location_rts":"[1006,116,83]","trial_type":"fractal-mutation","trial_index":192,"time_elapsed":3599044,"internal_node_id":"0.0-5.0-88.0"},{"group":"hexagon_tri","fractal_assignment":["../images/cyn_red.png","../images/blu_wht.png","../images/pnk_blu.png","../images/gry_blk.png","../images/org_blu.png","../images/ylw_slt.png"],"mutagen_generator_assignment":[0,1],"goal":0,"start":2,"action_noise":0.2,"location_history":"[2,1,5,4,0]","action_history":"[1,0,0,0]","mutagen_history":"[1,0,0,0]","location_rts":"[4797,78,76,122]","trial_type":"fractal-mutation","trial_index":193,"time_elapsed":3611992,"internal_node_id":"0.0-5.0-89.0"},{"group":"hexagon_tri","fractal_assignment":["../images/cyn_red.png","../images/blu_wht.png","../images/pnk_blu.png","../images/gry_blk.png","../images/org_blu.png","../images/ylw_slt.png"],"mutagen_generator_assignment":[0,1],"goal":5,"start":0,"action_noise":0.2,"location_history":"[0,5]","action_history":"[0]","mutagen_history":"[0]","location_rts":"[87]","trial_type":"fractal-mutation","trial_index":194,"time_elapsed":3616618,"internal_node_id":"0.0-5.0-90.0"},{"group":"hexagon_tri","fractal_assignment":["../images/cyn_red.png","../images/blu_wht.png","../images/pnk_blu.png","../images/gry_blk.png","../images/org_blu.png","../images/ylw_slt.png"],"mutagen_generator_assignment":[0,1],"goal":1,"start":5,"action_noise":0.2,"location_history":"[5,0,1]","action_history":"[1,1]","mutagen_history":"[1,1]","location_rts":"[2900,114]","trial_type":"fractal-mutation","trial_index":195,"time_elapsed":3625208,"internal_node_id":"0.0-5.0-91.0"},{"group":"hexagon_tri","fractal_assignment":["../images/cyn_red.png","../images/blu_wht.png","../images/pnk_blu.png","../images/gry_blk.png","../images/org_blu.png","../images/ylw_slt.png"],"mutagen_generator_assignment":[0,1],"goal":3,"start":1,"action_noise":0.2,"location_history":"[1,3]","action_history":"[1]","mutagen_history":"[1]","location_rts":"[20]","trial_type":"fractal-mutation","trial_index":196,"time_elapsed":3629766,"internal_node_id":"0.0-5.0-92.0"},{"group":"hexagon_tri","fractal_assignment":["../images/cyn_red.png","../images/blu_wht.png","../images/pnk_blu.png","../images/gry_blk.png","../images/org_blu.png","../images/ylw_slt.png"],"mutagen_generator_assignment":[0,1],"goal":4,"start":3,"action_noise":0.2,"location_history":"[3,2,3,2,1,5,0,1,5,4]","action_history":"[0,1,0,0,1,0,0,1,0]","mutagen_history":"[0,1,0,0,1,0,0,1,0]","location_rts":"[71,3100,83,22,182,152,32,2117,46]","trial_type":"fractal-mutation","trial_index":197,"time_elapsed":3648334,"internal_node_id":"0.0-5.0-93.0"},{"group":"hexagon_tri","fractal_assignment":["../images/cyn_red.png","../images/blu_wht.png","../images/pnk_blu.png","../images/gry_blk.png","../images/org_blu.png","../images/ylw_slt.png"],"mutagen_generator_assignment":[0,1],"goal":2,"start":4,"action_noise":0.2,"location_history":"[4,0,5,4,0,5,0,5,4,2]","action_history":"[0,1,0,1,0,1,1,0,1]","mutagen_history":"[0,1,0,1,0,1,1,0,1]","location_rts":"[152,7129,93,77,31,27,105,14,24]","trial_type":"fractal-mutation","trial_index":198,"time_elapsed":3668842,"internal_node_id":"0.0-5.0-94.0"},{"group":"hexagon_tri","fractal_assignment":["../images/cyn_red.png","../images/blu_wht.png","../images/pnk_blu.png","../images/gry_blk.png","../images/org_blu.png","../images/ylw_slt.png"],"mutagen_generator_assignment":[0,1],"goal":4,"start":2,"action_noise":0.2,"location_history":"[2,3,4]","action_history":"[1,0]","mutagen_history":"[1,0]","location_rts":"[40074,90]","trial_type":"fractal-mutation","trial_index":199,"time_elapsed":3714573,"internal_node_id":"0.0-5.0-95.0"},{"group":"hexagon_tri","fractal_assignment":["../images/cyn_red.png","../images/blu_wht.png","../images/pnk_blu.png","../images/gry_blk.png","../images/org_blu.png","../images/ylw_slt.png"],"mutagen_generator_assignment":[0,1],"goal":0,"start":4,"action_noise":0.2,"location_history":"[4,2,3,4,2,3,4,2,1,5,4,0]","action_history":"[0,1,1,1,1,1,1,0,1,0,0]","mutagen_history":"[0,1,1,1,1,1,1,0,1,0,0]","location_rts":"[15643,129,87,787,637,1037,676,80,71,104,4]","trial_type":"fractal-mutation","trial_index":200,"time_elapsed":3748667,"internal_node_id":"0.0-5.0-96.0"},{"group":"hexagon_tri","fractal_assignment":["../images/cyn_red.png","../images/blu_wht.png","../images/pnk_blu.png","../images/gry_blk.png","../images/org_blu.png","../images/ylw_slt.png"],"mutagen_generator_assignment":[0,1],"goal":5,"start":0,"action_noise":0.2,"location_history":"[0,1,3,4,2,1,3,2,3,4,0,1,3,4,2,3,2,3,2,3,4,0,5]","action_history":"[1,0,1,1,0,1,0,1,1,0,0,0,0,1,0,1,1,0,1,1,0,0]","mutagen_history":"[1,0,1,1,0,1,0,1,1,0,0,0,0,1,0,1,1,0,1,1,0,0]","location_rts":"[7057,31,1,152,45,68,29,109,5706,588,1048,112,269,1022,24,82,1470,33,2013,1021,11,77]","trial_type":"fractal-mutation","trial_index":201,"time_elapsed":3795801,"internal_node_id":"0.0-5.0-97.0"},{"group":"hexagon_tri","fractal_assignment":["../images/cyn_red.png","../images/blu_wht.png","../images/pnk_blu.png","../images/gry_blk.png","../images/org_blu.png","../images/ylw_slt.png"],"mutagen_generator_assignment":[0,1],"goal":1,"start":5,"action_noise":0.2,"location_history":"[5,0,5,0,5,0,5,0,1]","action_history":"[1,0,1,0,1,0,1,1]","mutagen_history":"[1,0,1,0,1,0,1,1]","location_rts":"[1259,55,157,115,48,27,102,2707]","trial_type":"fractal-mutation","trial_index":202,"time_elapsed":3812044,"internal_node_id":"0.0-5.0-98.0"},{"group":"hexagon_tri","fractal_assignment":["../images/cyn_red.png","../images/blu_wht.png","../images/pnk_blu.png","../images/gry_blk.png","../images/org_blu.png","../images/ylw_slt.png"],"mutagen_generator_assignment":[0,1],"goal":3,"start":1,"action_noise":0.2,"location_history":"[1,5,4,0,1,3]","action_history":"[1,1,1,1,0]","mutagen_history":"[1,1,1,1,0]","location_rts":"[17769,90,35,132,45]","trial_type":"fractal-mutation","trial_index":203,"time_elapsed":3838764,"internal_node_id":"0.0-5.0-99.0"},{"view_history":"[{\"page_index\":0,\"viewing_time\":10843}]","rt":10844,"trial_type":"instructions","trial_index":204,"time_elapsed":3850610,"internal_node_id":"0.0-6.0"},{"rt":5122,"responses":"{\"Q0\":\"no\"}","trial_type":"survey-text","trial_index":205,"time_elapsed":3856736,"internal_node_id":"0.0-7.0"}]