[{"view_history":"[{\"page_index\":0,\"viewing_time\":2599},{\"page_index\":1,\"viewing_time\":30960},{\"page_index\":2,\"viewing_time\":19247},{\"page_index\":3,\"viewing_time\":9816}]","rt":62622,"trial_type":"instructions","trial_index":0,"time_elapsed":62624,"internal_node_id":"0.0-0.0"},{"view_history":"[{\"page_index\":0,\"viewing_time\":2886},{\"page_index\":1,\"viewing_time\":26351}]","rt":29238,"trial_type":"instructions","trial_index":1,"time_elapsed":92863,"internal_node_id":"0.0-1.0"},{"group":"hexagon_bi","room_assignment":["purple","red","yellow","grey","blue","green"],"door_color_assignment":["white","black"],"door_generator_assignment":[0,1],"goal":4,"start":0,"action_noise":0.2,"location_history":"[0,5,4]","action_history":"[0,0]","door_history":"[0,0]","location_rts":"[3565,3215]","trial_type":"two-door-navigation","trial_index":2,"time_elapsed":105194,"internal_node_id":"0.0-2.0-0.0"},{"group":"hexagon_bi","room_assignment":["purple","red","yellow","grey","blue","green"],"door_color_assignment":["white","black"],"door_generator_assignment":[0,1],"goal":3,"start":4,"action_noise":0.2,"location_history":"[4,5,4,5,0,5,4,5,4,3]","action_history":"[1,1,0,0,0,1,1,1,0]","door_history":"[1,1,0,0,0,1,1,1,0]","location_rts":"[3300,1019,1661,2436,869,977,628,684,924]","trial_type":"two-door-navigation","trial_index":3,"time_elapsed":130473,"internal_node_id":"0.0-2.0-1.0"},{"group":"hexagon_bi","room_assignment":["purple","red","yellow","grey","blue","green"],"door_color_assignment":["white","black"],"door_generator_assignment":[0,1],"goal":5,"start":3,"action_noise":0.2,"location_history":"[3,4,5]","action_history":"[0,1]","door_history":"[0,1]","location_rts":"[3325,1683]","trial_type":"two-door-navigation","trial_index":4,"time_elapsed":141027,"internal_node_id":"0.0-2.0-2.0"},{"group":"hexagon_bi","room_assignment":["purple","red","yellow","grey","blue","green"],"door_color_assignment":["white","black"],"door_generator_assignment":[0,1],"goal":2,"start":5,"action_noise":0.2,"location_history":"[5,0,1,0,5,4,5,4,3,2]","action_history":"[0,0,1,0,1,1,0,0,1]","door_history":"[0,0,1,0,1,1,0,0,1]","location_rts":"[2033,1204,1580,1556,1153,631,1200,638,1960]","trial_type":"two-door-navigation","trial_index":5,"time_elapsed":165713,"internal_node_id":"0.0-2.0-3.0"},{"group":"hexagon_bi","room_assignment":["purple","red","yellow","grey","blue","green"],"door_color_assignment":["white","black"],"door_generator_assignment":[0,1],"goal":1,"start":2,"action_noise":0.2,"location_history":"[2,3,4,3,2,3,4,3,2,3,2,3,2,3,4,3,4,5,0,5,0,1]","action_history":"[1,0,0,1,1,0,0,1,1,1,0,0,1,0,0,0,1,0,0,0,1]","door_history":"[1,0,0,1,1,0,0,1,1,1,0,0,1,0,0,0,1,0,0,0,1]","location_rts":"[2164,660,478,1150,552,1342,576,1344,462,595,783,865,1331,1021,658,1037,1053,1531,1432,980,480]","trial_type":"two-door-navigation","trial_index":6,"time_elapsed":211744,"internal_node_id":"0.0-2.0-4.0"},{"group":"hexagon_bi","room_assignment":["purple","red","yellow","grey","blue","green"],"door_color_assignment":["white","black"],"door_generator_assignment":[0,1],"goal":4,"start":1,"action_noise":0.2,"location_history":"[1,2,1,0,5,0,1,2,1,2,3,4]","action_history":"[0,0,1,0,1,1,0,0,1,1,0]","door_history":"[0,0,1,0,1,1,0,0,1,1,0]","location_rts":"[2246,475,1158,1378,1112,1874,355,570,697,851,1091]","trial_type":"two-door-navigation","trial_index":7,"time_elapsed":238399,"internal_node_id":"0.0-2.0-5.0"},{"group":"hexagon_bi","room_assignment":["purple","red","yellow","grey","blue","green"],"door_color_assignment":["white","black"],"door_generator_assignment":[0,1],"goal":1,"start":4,"action_noise":0.2,"location_history":"[4,5,0,5,0,5,4,3,4,5,4,5,4,3,2,3,2,3,2,1]","action_history":"[1,0,0,1,0,1,0,0,1,1,1,1,0,1,0,0,1,0,0]","door_history":"[1,0,0,1,0,1,0,0,1,1,1,1,0,1,0,0,1,0,0]","location_rts":"[1859,591,487,1222,2016,1170,1496,390,820,828,1015,345,338,1074,1007,1142,865,982,591]","trial_type":"two-door-navigation","trial_index":8,"time_elapsed":279730,"internal_node_id":"0.0-2.0-6.0"},{"group":"hexagon_bi","room_assignment":["purple","red","yellow","grey","blue","green"],"door_color_assignment":["white","black"],"door_generator_assignment":[0,1],"goal":5,"start":1,"action_noise":0.2,"location_history":"[1,2,1,2,3,4,5]","action_history":"[0,0,0,1,0,1]","door_history":"[0,0,0,1,0,1]","location_rts":"[2707,562,1451,366,1013,1237]","trial_type":"two-door-navigation","trial_index":9,"time_elapsed":296708,"internal_node_id":"0.0-2.0-7.0"},{"group":"hexagon_bi","room_assignment":["purple","red","yellow","grey","blue","green"],"door_color_assignment":["white","black"],"door_generator_assignment":[0,1],"goal":0,"start":5,"action_noise":0.2,"location_history":"[5,4,3,4,5,4,5,4,3,2,3,4,5,0]","action_history":"[1,0,0,0,1,0,1,0,0,1,0,1,0]","door_history":"[1,0,0,0,1,0,1,0,0,1,0,1,0]","location_rts":"[1841,1010,589,316,211,1029,923,981,610,1134,997,1517,1020]","trial_type":"two-door-navigation","trial_index":10,"time_elapsed":325704,"internal_node_id":"0.0-2.0-8.0"},{"group":"hexagon_bi","room_assignment":["purple","red","yellow","grey","blue","green"],"door_color_assignment":["white","black"],"door_generator_assignment":[0,1],"goal":2,"start":0,"action_noise":0.2,"location_history":"[0,5,0,5,4,5,0,5,0,1,2]","action_history":"[0,0,0,1,0,0,1,1,1,0]","door_history":"[0,0,0,1,0,0,1,1,1,0]","location_rts":"[1126,443,303,201,1691,549,1024,583,284,122]","trial_type":"two-door-navigation","trial_index":11,"time_elapsed":345840,"internal_node_id":"0.0-2.0-9.0"},{"group":"hexagon_bi","room_assignment":["purple","red","yellow","grey","blue","green"],"door_color_assignment":["white","black"],"door_generator_assignment":[0,1],"goal":3,"start":2,"action_noise":0.2,"location_history":"[2,3]","action_history":"[1]","door_history":"[1]","location_rts":"[2398]","trial_type":"two-door-navigation","trial_index":12,"time_elapsed":352807,"internal_node_id":"0.0-2.0-10.0"},{"group":"hexagon_bi","room_assignment":["purple","red","yellow","grey","blue","green"],"door_color_assignment":["white","black"],"door_generator_assignment":[0,1],"goal":0,"start":3,"action_noise":0.2,"location_history":"[3,2,3,2,3,4,5,0]","action_history":"[1,0,1,0,0,1,0]","door_history":"[1,0,1,0,0,1,0]","location_rts":"[2213,637,990,909,311,1828,846]","trial_type":"two-door-navigation","trial_index":13,"time_elapsed":371224,"internal_node_id":"0.0-2.0-11.0"},{"group":"hexagon_bi","room_assignment":["purple","red","yellow","grey","blue","green"],"door_color_assignment":["white","black"],"door_generator_assignment":[0,1],"goal":2,"start":0,"action_noise":0.2,"location_history":"[0,5,0,1,0,5,0,5,4,3,2]","action_history":"[0,1,0,1,0,0,0,1,0,1]","door_history":"[0,1,0,1,0,0,0,1,0,1]","location_rts":"[1167,754,921,1453,893,566,548,232,844,858]","trial_type":"two-door-navigation","trial_index":14,"time_elapsed":393183,"internal_node_id":"0.0-2.0-12.0"},{"group":"hexagon_bi","room_assignment":["purple","red","yellow","grey","blue","green"],"door_color_assignment":["white","black"],"door_generator_assignment":[0,1],"goal":5,"start":2,"action_noise":0.2,"location_history":"[2,1,2,1,2,1,0,1,2,3,2,3,2,1,0,5]","action_history":"[0,1,0,0,1,1,0,0,1,0,1,1,0,1,0]","door_history":"[0,1,0,0,1,1,0,0,1,0,1,1,0,1,0]","location_rts":"[4809,850,1150,843,1228,676,1044,1077,657,1168,620,368,1078,1138,692]","trial_type":"two-door-navigation","trial_index":15,"time_elapsed":429380,"internal_node_id":"0.0-2.0-13.0"},{"group":"hexagon_bi","room_assignment":["purple","red","yellow","grey","blue","green"],"door_color_assignment":["white","black"],"door_generator_assignment":[0,1],"goal":4,"start":5,"action_noise":0.2,"location_history":"[5,0,5,4]","action_history":"[0,0,1]","door_history":"[0,0,1]","location_rts":"[16417,36063,5864]","trial_type":"two-door-navigation","trial_index":16,"time_elapsed":494294,"internal_node_id":"0.0-2.0-14.0"},{"group":"hexagon_bi","room_assignment":["purple","red","yellow","grey","blue","green"],"door_color_assignment":["white","black"],"door_generator_assignment":[0,1],"goal":3,"start":4,"action_noise":0.2,"location_history":"[4,5,0,5,0,5,4,3]","action_history":"[1,0,0,1,0,1,0]","door_history":"[1,0,0,1,0,1,0]","location_rts":"[2270,1030,860,844,595,1153,1874]","trial_type":"two-door-navigation","trial_index":17,"time_elapsed":513584,"internal_node_id":"0.0-2.0-15.0"},{"group":"hexagon_bi","room_assignment":["purple","red","yellow","grey","blue","green"],"door_color_assignment":["white","black"],"door_generator_assignment":[0,1],"goal":1,"start":3,"action_noise":0.2,"location_history":"[3,2,3,4,3,4,5,4,3,2,1]","action_history":"[0,1,0,1,0,1,1,0,1,0]","door_history":"[0,1,0,1,0,1,1,0,1,0]","location_rts":"[2068,496,748,1057,1087,1838,301,596,731,804]","trial_type":"two-door-navigation","trial_index":18,"time_elapsed":537009,"internal_node_id":"0.0-2.0-16.0"},{"group":"hexagon_bi","room_assignment":["purple","red","yellow","grey","blue","green"],"door_color_assignment":["white","black"],"door_generator_assignment":[0,1],"goal":5,"start":1,"action_noise":0.2,"location_history":"[1,2,1,2,1,0,5]","action_history":"[0,1,0,0,1,0]","door_history":"[0,1,0,0,1,0]","location_rts":"[8624,8323,700,562,540,557]","trial_type":"two-door-navigation","trial_index":19,"time_elapsed":565938,"internal_node_id":"0.0-2.0-17.0"},{"group":"hexagon_bi","room_assignment":["purple","red","yellow","grey","blue","green"],"door_color_assignment":["white","black"],"door_generator_assignment":[0,1],"goal":4,"start":5,"action_noise":0.2,"location_history":"[5,0,5,4]","action_history":"[1,0,1]","door_history":"[1,0,1]","location_rts":"[4098,419,966]","trial_type":"two-door-navigation","trial_index":20,"time_elapsed":577983,"internal_node_id":"0.0-2.0-18.0"},{"group":"hexagon_bi","room_assignment":["purple","red","yellow","grey","blue","green"],"door_color_assignment":["white","black"],"door_generator_assignment":[0,1],"goal":0,"start":4,"action_noise":0.2,"location_history":"[4,5,0]","action_history":"[1,0]","door_history":"[1,0]","location_rts":"[1284,637]","trial_type":"two-door-navigation","trial_index":21,"time_elapsed":585449,"internal_node_id":"0.0-2.0-19.0"},{"group":"hexagon_bi","room_assignment":["purple","red","yellow","grey","blue","green"],"door_color_assignment":["white","black"],"door_generator_assignment":[0,1],"goal":1,"start":0,"action_noise":0.2,"location_history":"[0,1]","action_history":"[1]","door_history":"[1]","location_rts":"[1284]","trial_type":"two-door-navigation","trial_index":22,"time_elapsed":591257,"internal_node_id":"0.0-2.0-20.0"},{"group":"hexagon_bi","room_assignment":["purple","red","yellow","grey","blue","green"],"door_color_assignment":["white","black"],"door_generator_assignment":[0,1],"goal":3,"start":1,"action_noise":0.2,"location_history":"[1,2,3]","action_history":"[0,1]","door_history":"[0,1]","location_rts":"[1237,759]","trial_type":"two-door-navigation","trial_index":23,"time_elapsed":598792,"internal_node_id":"0.0-2.0-21.0"},{"group":"hexagon_bi","room_assignment":["purple","red","yellow","grey","blue","green"],"door_color_assignment":["white","black"],"door_generator_assignment":[0,1],"goal":2,"start":3,"action_noise":0.2,"location_history":"[3,4,3,4,5,4,3,4,3,4,3,4,3,2]","action_history":"[0,0,1,0,1,0,0,1,0,1,0,0,1]","door_history":"[0,0,1,0,1,0,0,1,0,1,0,0,1]","location_rts":"[16856,29633,594,1055,917,684,242,309,1251,634,677,510,592]","trial_type":"two-door-navigation","trial_index":24,"time_elapsed":669495,"internal_node_id":"0.0-2.0-22.0"},{"group":"hexagon_bi","room_assignment":["purple","red","yellow","grey","blue","green"],"door_color_assignment":["white","black"],"door_generator_assignment":[0,1],"goal":0,"start":2,"action_noise":0.2,"location_history":"[2,3,4,5,0]","action_history":"[1,0,1,0]","door_history":"[1,0,1,0]","location_rts":"[3527,605,832,1399]","trial_type":"two-door-navigation","trial_index":25,"time_elapsed":683455,"internal_node_id":"0.0-2.0-23.0"},{"group":"hexagon_bi","room_assignment":["purple","red","yellow","grey","blue","green"],"door_color_assignment":["white","black"],"door_generator_assignment":[0,1],"goal":3,"start":0,"action_noise":0.2,"location_history":"[0,5,4,3]","action_history":"[0,1,0]","door_history":"[0,1,0]","location_rts":"[8637,734,41325]","trial_type":"two-door-navigation","trial_index":26,"time_elapsed":740709,"internal_node_id":"0.0-2.0-24.0"},{"group":"hexagon_bi","room_assignment":["purple","red","yellow","grey","blue","green"],"door_color_assignment":["white","black"],"door_generator_assignment":[0,1],"goal":1,"start":3,"action_noise":0.2,"location_history":"[3,2,3,4,5,0,1]","action_history":"[0,1,0,1,0,1]","door_history":"[0,1,0,1,0,1]","location_rts":"[30562,1118,531,1284,956,671]","trial_type":"two-door-navigation","trial_index":27,"time_elapsed":785450,"internal_node_id":"0.0-2.0-25.0"},{"group":"hexagon_bi","room_assignment":["purple","red","yellow","grey","blue","green"],"door_color_assignment":["white","black"],"door_generator_assignment":[0,1],"goal":2,"start":1,"action_noise":0.2,"location_history":"[1,2]","action_history":"[0]","door_history":"[0]","location_rts":"[998]","trial_type":"two-door-navigation","trial_index":28,"time_elapsed":790972,"internal_node_id":"0.0-2.0-26.0"},{"group":"hexagon_bi","room_assignment":["purple","red","yellow","grey","blue","green"],"door_color_assignment":["white","black"],"door_generator_assignment":[0,1],"goal":5,"start":2,"action_noise":0.2,"location_history":"[2,3,4,5]","action_history":"[1,0,1]","door_history":"[1,0,1]","location_rts":"[1473,549,912]","trial_type":"two-door-navigation","trial_index":29,"time_elapsed":800464,"internal_node_id":"0.0-2.0-27.0"},{"group":"hexagon_bi","room_assignment":["purple","red","yellow","grey","blue","green"],"door_color_assignment":["white","black"],"door_generator_assignment":[0,1],"goal":4,"start":5,"action_noise":0.2,"location_history":"[5,0,1,0,5,0,1,2,1,2,1,0,5,4]","action_history":"[0,1,0,1,0,1,0,1,0,0,1,0,1]","door_history":"[0,1,0,1,0,1,0,1,0,0,1,0,1]","location_rts":"[8184,346,993,769,805,673,1474,1044,579,637,541,814,1040]","trial_type":"two-door-navigation","trial_index":30,"time_elapsed":835113,"internal_node_id":"0.0-2.0-28.0"},{"group":"hexagon_bi","room_assignment":["purple","red","yellow","grey","blue","green"],"door_color_assignment":["white","black"],"door_generator_assignment":[0,1],"goal":5,"start":4,"action_noise":0.2,"location_history":"[4,3,2,1,0,1,2,3,4,5]","action_history":"[0,1,0,1,0,0,1,0,1]","door_history":"[0,1,0,1,0,0,1,0,1]","location_rts":"[1244,705,579,621,688,628,887,659,613]","trial_type":"two-door-navigation","trial_index":31,"time_elapsed":854407,"internal_node_id":"0.0-2.0-29.0"},{"group":"hexagon_bi","room_assignment":["purple","red","yellow","grey","blue","green"],"door_color_assignment":["white","black"],"door_generator_assignment":[0,1],"goal":3,"start":5,"action_noise":0.2,"location_history":"[5,0,1,0,5,0,1,2,1,0,5,4,5,0,5,0,1,2,3]","action_history":"[0,1,0,1,0,1,0,0,1,0,1,0,1,0,0,1,0,1]","door_history":"[0,1,0,1,0,1,0,0,1,0,1,0,1,0,0,1,0,1]","location_rts":"[757,403,719,743,728,711,532,630,899,1055,647,1157,708,668,516,352,676,1014]","trial_type":"two-door-navigation","trial_index":32,"time_elapsed":889167,"internal_node_id":"0.0-2.0-30.0"},{"group":"hexagon_bi","room_assignment":["purple","red","yellow","grey","blue","green"],"door_color_assignment":["white","black"],"door_generator_assignment":[0,1],"goal":0,"start":3,"action_noise":0.2,"location_history":"[3,4,3,2,3,4,3,4,3,4,3,4,5,4,3,4,5,0]","action_history":"[0,1,0,1,0,1,0,0,1,0,1,1,1,1,0,1,0]","door_history":"[0,1,0,1,0,1,0,0,1,0,1,1,1,1,0,1,0]","location_rts":"[6070,399,608,842,736,1010,504,298,638,854,1460,474,527,526,1293,878,770]","trial_type":"two-door-navigation","trial_index":33,"time_elapsed":927899,"internal_node_id":"0.0-2.0-31.0"},{"group":"hexagon_bi","room_assignment":["purple","red","yellow","grey","blue","green"],"door_color_assignment":["white","black"],"door_generator_assignment":[0,1],"goal":4,"start":0,"action_noise":0.2,"location_history":"[0,5,4]","action_history":"[0,1]","door_history":"[0,1]","location_rts":"[1011,1125]","trial_type":"two-door-navigation","trial_index":34,"time_elapsed":935575,"internal_node_id":"0.0-2.0-32.0"},{"group":"hexagon_bi","room_assignment":["purple","red","yellow","grey","blue","green"],"door_color_assignment":["white","black"],"door_generator_assignment":[0,1],"goal":1,"start":4,"action_noise":0.2,"location_history":"[4,3,4,3,2,3,2,3,4,5,0,1]","action_history":"[1,0,0,1,0,1,1,0,1,0,1]","door_history":"[1,0,0,1,0,1,1,0,1,0,1]","location_rts":"[2002,641,1803,593,838,932,348,722,1380,1124,874]","trial_type":"two-door-navigation","trial_index":35,"time_elapsed":961591,"internal_node_id":"0.0-2.0-33.0"},{"group":"hexagon_bi","room_assignment":["purple","red","yellow","grey","blue","green"],"door_color_assignment":["white","black"],"door_generator_assignment":[0,1],"goal":2,"start":1,"action_noise":0.2,"location_history":"[1,0,1,2]","action_history":"[0,1,0]","door_history":"[0,1,0]","location_rts":"[918,630,756]","trial_type":"two-door-navigation","trial_index":36,"time_elapsed":970461,"internal_node_id":"0.0-2.0-34.0"},{"group":"hexagon_bi","room_assignment":["purple","red","yellow","grey","blue","green"],"door_color_assignment":["white","black"],"door_generator_assignment":[0,1],"goal":0,"start":2,"action_noise":0.2,"location_history":"[2,3,4,5,0]","action_history":"[1,0,1,0]","door_history":"[1,0,1,0]","location_rts":"[919,745,982,622]","trial_type":"two-door-navigation","trial_index":37,"time_elapsed":981302,"internal_node_id":"0.0-2.0-35.0"},{"group":"hexagon_bi","room_assignment":["purple","red","yellow","grey","blue","green"],"door_color_assignment":["white","black"],"door_generator_assignment":[0,1],"goal":5,"start":0,"action_noise":0.2,"location_history":"[0,1,2,1,2,1,0,5]","action_history":"[1,0,1,0,0,1,0]","door_history":"[1,0,1,0,0,1,0]","location_rts":"[941,980,864,639,1270,510,858]","trial_type":"two-door-navigation","trial_index":38,"time_elapsed":998038,"internal_node_id":"0.0-2.0-36.0"},{"group":"hexagon_bi","room_assignment":["purple","red","yellow","grey","blue","green"],"door_color_assignment":["white","black"],"door_generator_assignment":[0,1],"goal":2,"start":5,"action_noise":0.2,"location_history":"[5,4,5,0,5,4,3,2]","action_history":"[0,1,0,1,0,0,1]","door_history":"[0,1,0,1,0,0,1]","location_rts":"[1207,768,787,1459,608,1060,764]","trial_type":"two-door-navigation","trial_index":39,"time_elapsed":1015350,"internal_node_id":"0.0-2.0-37.0"},{"group":"hexagon_bi","room_assignment":["purple","red","yellow","grey","blue","green"],"door_color_assignment":["white","black"],"door_generator_assignment":[0,1],"goal":1,"start":2,"action_noise":0.2,"location_history":"[2,1]","action_history":"[1]","door_history":"[1]","location_rts":"[1645]","trial_type":"two-door-navigation","trial_index":40,"time_elapsed":1021514,"internal_node_id":"0.0-2.0-38.0"},{"group":"hexagon_bi","room_assignment":["purple","red","yellow","grey","blue","green"],"door_color_assignment":["white","black"],"door_generator_assignment":[0,1],"goal":4,"start":1,"action_noise":0.2,"location_history":"[1,2,3,4]","action_history":"[0,1,0]","door_history":"[0,1,0]","location_rts":"[2240,919,953]","trial_type":"two-door-navigation","trial_index":41,"time_elapsed":1032183,"internal_node_id":"0.0-2.0-39.0"},{"group":"hexagon_bi","room_assignment":["purple","red","yellow","grey","blue","green"],"door_color_assignment":["white","black"],"door_generator_assignment":[0,1],"goal":3,"start":4,"action_noise":0.2,"location_history":"[4,3]","action_history":"[1]","door_history":"[1]","location_rts":"[1461]","trial_type":"two-door-navigation","trial_index":42,"time_elapsed":1038169,"internal_node_id":"0.0-2.0-40.0"},{"group":"hexagon_bi","room_assignment":["purple","red","yellow","grey","blue","green"],"door_color_assignment":["white","black"],"door_generator_assignment":[0,1],"goal":5,"start":3,"action_noise":0.2,"location_history":"[3,4,3,2,1,0,5]","action_history":"[1,0,1,0,1,0]","door_history":"[1,0,1,0,1,0]","location_rts":"[1878,542,1040,1077,723,803]","trial_type":"two-door-navigation","trial_index":43,"time_elapsed":1053848,"internal_node_id":"0.0-2.0-41.0"},{"group":"hexagon_bi","room_assignment":["purple","red","yellow","grey","blue","green"],"door_color_assignment":["white","black"],"door_generator_assignment":[0,1],"goal":3,"start":5,"action_noise":0.2,"location_history":"[5,0,5,0,5,0,1,2,3]","action_history":"[1,0,1,0,0,1,0,1]","door_history":"[1,0,1,0,0,1,0,1]","location_rts":"[1341,548,996,1119,379,701,668,684]","trial_type":"two-door-navigation","trial_index":44,"time_elapsed":1072003,"internal_node_id":"0.0-2.0-42.0"},{"group":"hexagon_bi","room_assignment":["purple","red","yellow","grey","blue","green"],"door_color_assignment":["white","black"],"door_generator_assignment":[0,1],"goal":0,"start":3,"action_noise":0.2,"location_history":"[3,4,5,0]","action_history":"[0,1,0]","door_history":"[0,1,0]","location_rts":"[1057,733,709]","trial_type":"two-door-navigation","trial_index":45,"time_elapsed":1081074,"internal_node_id":"0.0-2.0-43.0"},{"group":"hexagon_bi","room_assignment":["purple","red","yellow","grey","blue","green"],"door_color_assignment":["white","black"],"door_generator_assignment":[0,1],"goal":2,"start":0,"action_noise":0.2,"location_history":"[0,5,4,3,4,3,4,5,0,1,2]","action_history":"[0,1,0,1,0,0,1,0,1,0]","door_history":"[0,1,0,1,0,0,1,0,1,0]","location_rts":"[907,1013,696,870,686,930,405,771,649,669]","trial_type":"two-door-navigation","trial_index":46,"time_elapsed":1102484,"internal_node_id":"0.0-2.0-44.0"},{"group":"hexagon_bi","room_assignment":["purple","red","yellow","grey","blue","green"],"door_color_assignment":["white","black"],"door_generator_assignment":[0,1],"goal":4,"start":2,"action_noise":0.2,"location_history":"[2,1,0,5,4]","action_history":"[0,1,0,1]","door_history":"[0,1,0,1]","location_rts":"[1089,565,700,703]","trial_type":"two-door-navigation","trial_index":47,"time_elapsed":1113121,"internal_node_id":"0.0-2.0-45.0"},{"group":"hexagon_bi","room_assignment":["purple","red","yellow","grey","blue","green"],"door_color_assignment":["white","black"],"door_generator_assignment":[0,1],"goal":1,"start":4,"action_noise":0.2,"location_history":"[4,3,2,3,2,3,2,3,2,1]","action_history":"[0,1,0,1,1,0,1,1,0]","door_history":"[0,1,0,1,1,0,1,1,0]","location_rts":"[11762,677,807,582,793,533,758,847,669]","trial_type":"two-door-navigation","trial_index":48,"time_elapsed":1143221,"internal_node_id":"0.0-2.0-46.0"},{"group":"hexagon_bi","room_assignment":["purple","red","yellow","grey","blue","green"],"door_color_assignment":["white","black"],"door_generator_assignment":[0,1],"goal":4,"start":1,"action_noise":0.2,"location_history":"[1,2,1,2,1,0,1,0,5,4]","action_history":"[0,1,0,0,1,1,1,0,1]","door_history":"[0,1,0,0,1,1,1,0,1]","location_rts":"[915,1222,653,852,654,532,442,437,918]","trial_type":"two-door-navigation","trial_index":49,"time_elapsed":1162536,"internal_node_id":"0.0-2.0-47.0"},{"group":"hexagon_bi","room_assignment":["purple","red","yellow","grey","blue","green"],"door_color_assignment":["white","black"],"door_generator_assignment":[0,1],"goal":1,"start":4,"action_noise":0.2,"location_history":"[4,3,4,3,4,5,0,1]","action_history":"[0,1,0,0,1,0,1]","door_history":"[0,1,0,0,1,0,1]","location_rts":"[4511,402,1195,696,477,755,645]","trial_type":"two-door-navigation","trial_index":50,"time_elapsed":1181860,"internal_node_id":"0.0-2.0-48.0"},{"group":"hexagon_bi","room_assignment":["purple","red","yellow","grey","blue","green"],"door_color_assignment":["white","black"],"door_generator_assignment":[0,1],"goal":3,"start":1,"action_noise":0.2,"location_history":"[1,0,1,2,3]","action_history":"[1,0,0,1]","door_history":"[1,0,0,1]","location_rts":"[3095,762,1346,622]","trial_type":"two-door-navigation","trial_index":51,"time_elapsed":1195269,"internal_node_id":"0.0-2.0-49.0"},{"group":"hexagon_bi","room_assignment":["purple","red","yellow","grey","blue","green"],"door_color_assignment":["white","black"],"door_generator_assignment":[0,1],"goal":5,"start":3,"action_noise":0.2,"location_history":"[3,4,5]","action_history":"[0,1]","door_history":"[0,1]","location_rts":"[1145,788]","trial_type":"two-door-navigation","trial_index":52,"time_elapsed":1202742,"internal_node_id":"0.0-2.0-50.0"},{"group":"hexagon_bi","room_assignment":["purple","red","yellow","grey","blue","green"],"door_color_assignment":["white","black"],"door_generator_assignment":[0,1],"goal":0,"start":5,"action_noise":0.2,"location_history":"[5,4,5,0]","action_history":"[0,1,0]","door_history":"[0,1,0]","location_rts":"[1503,609,1077]","trial_type":"two-door-navigation","trial_index":53,"time_elapsed":1212495,"internal_node_id":"0.0-2.0-51.0"},{"group":"hexagon_bi","room_assignment":["purple","red","yellow","grey","blue","green"],"door_color_assignment":["white","black"],"door_generator_assignment":[0,1],"goal":2,"start":0,"action_noise":0.2,"location_history":"[0,1,0,1,2]","action_history":"[0,1,0,0]","door_history":"[0,1,0,0]","location_rts":"[982,623,805,584]","trial_type":"two-door-navigation","trial_index":54,"time_elapsed":1223066,"internal_node_id":"0.0-2.0-52.0"},{"group":"hexagon_bi","room_assignment":["purple","red","yellow","grey","blue","green"],"door_color_assignment":["white","black"],"door_generator_assignment":[0,1],"goal":1,"start":2,"action_noise":0.2,"location_history":"[2,1]","action_history":"[0]","door_history":"[0]","location_rts":"[7682]","trial_type":"two-door-navigation","trial_index":55,"time_elapsed":1235275,"internal_node_id":"0.0-2.0-53.0"},{"group":"hexagon_bi","room_assignment":["purple","red","yellow","grey","blue","green"],"door_color_assignment":["white","black"],"door_generator_assignment":[0,1],"goal":2,"start":1,"action_noise":0.2,"location_history":"[1,0,5,4,3,4,5,4,5,0,1,2]","action_history":"[1,0,1,0,1,0,1,0,0,1,0]","door_history":"[1,0,1,0,1,0,1,0,0,1,0]","location_rts":"[1160,2702,3984,470,876,935,935,695,483,832,718]","trial_type":"two-door-navigation","trial_index":56,"time_elapsed":1263803,"internal_node_id":"0.0-2.0-54.0"},{"group":"hexagon_bi","room_assignment":["purple","red","yellow","grey","blue","green"],"door_color_assignment":["white","black"],"door_generator_assignment":[0,1],"goal":5,"start":2,"action_noise":0.2,"location_history":"[2,1,0,5]","action_history":"[0,1,1]","door_history":"[0,1,1]","location_rts":"[1447,516,654]","trial_type":"two-door-navigation","trial_index":57,"time_elapsed":1272982,"internal_node_id":"0.0-2.0-55.0"},{"group":"hexagon_bi","room_assignment":["purple","red","yellow","grey","blue","green"],"door_color_assignment":["white","black"],"door_generator_assignment":[0,1],"goal":4,"start":5,"action_noise":0.2,"location_history":"[5,0,5,0,1,0,5,0,5,4]","action_history":"[1,0,0,1,0,1,0,0,1]","door_history":"[1,0,0,1,0,1,0,0,1]","location_rts":"[2041,297,1221,374,812,975,606,1268,132]","trial_type":"two-door-navigation","trial_index":58,"time_elapsed":1293447,"internal_node_id":"0.0-2.0-56.0"},{"group":"hexagon_bi","room_assignment":["purple","red","yellow","grey","blue","green"],"door_color_assignment":["white","black"],"door_generator_assignment":[0,1],"goal":3,"start":4,"action_noise":0.2,"location_history":"[4,5,0,1,2,3]","action_history":"[1,0,1,0,1]","door_history":"[1,0,1,0,1]","location_rts":"[2252,1128,1523,1733,1255]","trial_type":"two-door-navigation","trial_index":59,"time_elapsed":1309935,"internal_node_id":"0.0-2.0-57.0"},{"group":"hexagon_bi","room_assignment":["purple","red","yellow","grey","blue","green"],"door_color_assignment":["white","black"],"door_generator_assignment":[0,1],"goal":0,"start":3,"action_noise":0.2,"location_history":"[3,4,5,4,5,0]","action_history":"[0,1,0,1,0]","door_history":"[0,1,0,1,0]","location_rts":"[1405,588,566,4083,530]","trial_type":"two-door-navigation","trial_index":60,"time_elapsed":1325853,"internal_node_id":"0.0-2.0-58.0"},{"group":"hexagon_bi","room_assignment":["purple","red","yellow","grey","blue","green"],"door_color_assignment":["white","black"],"door_generator_assignment":[0,1],"goal":2,"start":0,"action_noise":0.2,"location_history":"[0,5,4,3,2]","action_history":"[0,1,0,1]","door_history":"[0,1,0,1]","location_rts":"[735,550,544,1638]","trial_type":"two-door-navigation","trial_index":61,"time_elapsed":1336926,"internal_node_id":"0.0-2.0-59.0"},{"group":"hexagon_bi","room_assignment":["purple","red","yellow","grey","blue","green"],"door_color_assignment":["white","black"],"door_generator_assignment":[0,1],"goal":1,"start":2,"action_noise":0.2,"location_history":"[2,1]","action_history":"[0]","door_history":"[0]","location_rts":"[868]","trial_type":"two-door-navigation","trial_index":62,"time_elapsed":1342323,"internal_node_id":"0.0-2.0-60.0"},{"group":"hexagon_bi","room_assignment":["purple","red","yellow","grey","blue","green"],"door_color_assignment":["white","black"],"door_generator_assignment":[0,1],"goal":0,"start":1,"action_noise":0.2,"location_history":"[1,2,3,4,5,0]","action_history":"[0,1,0,1,0]","door_history":"[0,1,0,1,0]","location_rts":"[849,608,421,590,695]","trial_type":"two-door-navigation","trial_index":63,"time_elapsed":1354207,"internal_node_id":"0.0-2.0-61.0"},{"group":"hexagon_bi","room_assignment":["purple","red","yellow","grey","blue","green"],"door_color_assignment":["white","black"],"door_generator_assignment":[0,1],"goal":3,"start":0,"action_noise":0.2,"location_history":"[0,1,2,1,0,1,2,1,2,1,0,1,0,5,0,1,2,3]","action_history":"[0,1,0,1,1,0,1,0,0,1,1,0,0,0,1,0,0]","door_history":"[0,1,0,1,1,0,1,0,0,1,1,0,0,0,1,0,0]","location_rts":"[798,541,614,1093,870,594,791,567,406,595,552,829,404,462,842,414,522]","trial_type":"two-door-navigation","trial_index":64,"time_elapsed":1385950,"internal_node_id":"0.0-2.0-62.0"},{"group":"hexagon_bi","room_assignment":["purple","red","yellow","grey","blue","green"],"door_color_assignment":["white","black"],"door_generator_assignment":[0,1],"goal":5,"start":3,"action_noise":0.2,"location_history":"[3,2,1,2,3,2,3,4,5]","action_history":"[1,0,0,1,1,0,0,1]","door_history":"[1,0,0,1,1,0,0,1]","location_rts":"[1307,468,565,492,565,729,476,567]","trial_type":"two-door-navigation","trial_index":65,"time_elapsed":1402782,"internal_node_id":"0.0-2.0-63.0"},{"group":"hexagon_bi","room_assignment":["purple","red","yellow","grey","blue","green"],"door_color_assignment":["white","black"],"door_generator_assignment":[0,1],"goal":4,"start":5,"action_noise":0.2,"location_history":"[5,0,1,2,3,2,1,0,5,4]","action_history":"[0,1,0,1,0,0,1,0,1]","door_history":"[0,1,0,1,0,0,1,0,1]","location_rts":"[534,798,587,784,597,570,413,1233,642]","trial_type":"two-door-navigation","trial_index":66,"time_elapsed":1421638,"internal_node_id":"0.0-2.0-64.0"},{"group":"hexagon_bi","room_assignment":["purple","red","yellow","grey","blue","green"],"door_color_assignment":["white","black"],"door_generator_assignment":[0,1],"goal":1,"start":4,"action_noise":0.2,"location_history":"[4,3,4,5,4,5,0,1]","action_history":"[0,1,0,1,0,0,1]","door_history":"[0,1,0,1,0,0,1]","location_rts":"[1765,437,842,896,649,574,537]","trial_type":"two-door-navigation","trial_index":67,"time_elapsed":1437961,"internal_node_id":"0.0-2.0-65.0"},{"group":"hexagon_bi","room_assignment":["purple","red","yellow","grey","blue","green"],"door_color_assignment":["white","black"],"door_generator_assignment":[0,1],"goal":5,"start":1,"action_noise":0.2,"location_history":"[1,2,3,4,3,4,3,4,3,2,1,0,5]","action_history":"[0,1,0,1,1,0,0,1,1,0,1,0]","door_history":"[0,1,0,1,1,0,0,1,1,0,1,0]","location_rts":"[963,569,582,1023,1037,315,791,259,1359,255,588,421]","trial_type":"two-door-navigation","trial_index":68,"time_elapsed":1461910,"internal_node_id":"0.0-2.0-66.0"},{"group":"hexagon_bi","room_assignment":["purple","red","yellow","grey","blue","green"],"door_color_assignment":["white","black"],"door_generator_assignment":[0,1],"goal":2,"start":5,"action_noise":0.2,"location_history":"[5,0,5,4,3,2]","action_history":"[1,0,1,0,1]","door_history":"[1,0,1,0,1]","location_rts":"[799,715,904,662,547]","trial_type":"two-door-navigation","trial_index":69,"time_elapsed":1474247,"internal_node_id":"0.0-2.0-67.0"},{"group":"hexagon_bi","room_assignment":["purple","red","yellow","grey","blue","green"],"door_color_assignment":["white","black"],"door_generator_assignment":[0,1],"goal":3,"start":2,"action_noise":0.2,"location_history":"[2,3]","action_history":"[0]","door_history":"[0]","location_rts":"[598]","trial_type":"two-door-navigation","trial_index":70,"time_elapsed":1479403,"internal_node_id":"0.0-2.0-68.0"},{"group":"hexagon_bi","room_assignment":["purple","red","yellow","grey","blue","green"],"door_color_assignment":["white","black"],"door_generator_assignment":[0,1],"goal":4,"start":3,"action_noise":0.2,"location_history":"[3,4]","action_history":"[0]","door_history":"[0]","location_rts":"[680]","trial_type":"two-door-navigation","trial_index":71,"time_elapsed":1484636,"internal_node_id":"0.0-2.0-69.0"},{"group":"hexagon_bi","room_assignment":["purple","red","yellow","grey","blue","green"],"door_color_assignment":["white","black"],"door_generator_assignment":[0,1],"goal":0,"start":4,"action_noise":0.2,"location_history":"[4,3,2,1,0]","action_history":"[0,1,0,1]","door_history":"[0,1,0,1]","location_rts":"[5791,597,586,1126]","trial_type":"two-door-navigation","trial_index":72,"time_elapsed":1500316,"internal_node_id":"0.0-2.0-70.0"},{"group":"hexagon_bi","room_assignment":["purple","red","yellow","grey","blue","green"],"door_color_assignment":["white","black"],"door_generator_assignment":[0,1],"goal":5,"start":0,"action_noise":0.2,"location_history":"[0,5]","action_history":"[0]","door_history":"[0]","location_rts":"[704]","trial_type":"two-door-navigation","trial_index":73,"time_elapsed":1505544,"internal_node_id":"0.0-2.0-71.0"},{"group":"hexagon_bi","room_assignment":["purple","red","yellow","grey","blue","green"],"door_color_assignment":["white","black"],"door_generator_assignment":[0,1],"goal":0,"start":5,"action_noise":0.2,"location_history":"[5,4,3,2,1,2,1,2,3,2,1,0]","action_history":"[1,0,1,0,0,1,0,1,1,0,1]","door_history":"[1,0,1,0,0,1,0,1,1,0,1]","location_rts":"[1150,521,636,506,712,869,297,463,564,274,914]","trial_type":"two-door-navigation","trial_index":74,"time_elapsed":1527233,"internal_node_id":"0.0-2.0-72.0"},{"group":"hexagon_bi","room_assignment":["purple","red","yellow","grey","blue","green"],"door_color_assignment":["white","black"],"door_generator_assignment":[0,1],"goal":3,"start":0,"action_noise":0.2,"location_history":"[0,5,4,3]","action_history":"[0,1,0]","door_history":"[0,1,0]","location_rts":"[716,778,418]","trial_type":"two-door-navigation","trial_index":75,"time_elapsed":1535814,"internal_node_id":"0.0-2.0-73.0"},{"group":"hexagon_bi","room_assignment":["purple","red","yellow","grey","blue","green"],"door_color_assignment":["white","black"],"door_generator_assignment":[0,1],"goal":1,"start":3,"action_noise":0.2,"location_history":"[3,4,5,0,5,0,5,0,5,0,1]","action_history":"[0,1,0,1,0,0,1,0,0,1]","door_history":"[0,1,0,1,0,0,1,0,0,1]","location_rts":"[30396,359,308,616,386,423,344,416,685,564]","trial_type":"two-door-navigation","trial_index":76,"time_elapsed":1584032,"internal_node_id":"0.0-2.0-74.0"},{"group":"hexagon_bi","room_assignment":["purple","red","yellow","grey","blue","green"],"door_color_assignment":["white","black"],"door_generator_assignment":[0,1],"goal":2,"start":1,"action_noise":0.2,"location_history":"[1,2]","action_history":"[0]","door_history":"[0]","location_rts":"[40196]","trial_type":"two-door-navigation","trial_index":77,"time_elapsed":1628763,"internal_node_id":"0.0-2.0-75.0"},{"group":"hexagon_bi","room_assignment":["purple","red","yellow","grey","blue","green"],"door_color_assignment":["white","black"],"door_generator_assignment":[0,1],"goal":4,"start":2,"action_noise":0.2,"location_history":"[2,3,4]","action_history":"[1,0]","door_history":"[1,0]","location_rts":"[896,323]","trial_type":"two-door-navigation","trial_index":78,"time_elapsed":1635557,"internal_node_id":"0.0-2.0-76.0"},{"group":"hexagon_bi","room_assignment":["purple","red","yellow","grey","blue","green"],"door_color_assignment":["white","black"],"door_generator_assignment":[0,1],"goal":3,"start":4,"action_noise":0.2,"location_history":"[4,3]","action_history":"[0]","door_history":"[0]","location_rts":"[80895]","trial_type":"two-door-navigation","trial_index":79,"time_elapsed":1720978,"internal_node_id":"0.0-2.0-77.0"},{"group":"hexagon_bi","room_assignment":["purple","red","yellow","grey","blue","green"],"door_color_assignment":["white","black"],"door_generator_assignment":[0,1],"goal":0,"start":3,"action_noise":0.2,"location_history":"[3,4,3,2,3,2,3,4,5,4,5,0]","action_history":"[1,0,1,0,1,0,0,1,0,1,0]","door_history":"[1,0,1,0,1,0,0,1,0,1,0]","location_rts":"[874,447,905,331,515,322,334,303,338,1819,602]","trial_type":"two-door-navigation","trial_index":80,"time_elapsed":1742520,"internal_node_id":"0.0-2.0-78.0"},{"group":"hexagon_bi","room_assignment":["purple","red","yellow","grey","blue","green"],"door_color_assignment":["white","black"],"door_generator_assignment":[0,1],"goal":4,"start":0,"action_noise":0.2,"location_history":"[0,5,0,5,0,1,2,1,0,1,2,1,0,1,2,1,2,1,2,1,0,5,4]","action_history":"[0,1,0,0,1,0,1,0,0,1,0,1,1,1,0,0,0,1,0,1,0,1]","door_history":"[0,1,0,0,1,0,1,0,0,1,0,1,1,1,0,0,0,1,0,1,0,1]","location_rts":"[1043,610,390,309,252,509,525,416,616,430,553,1308,420,355,362,4714,473,591,354,839,516,7475]","trial_type":"two-door-navigation","trial_index":81,"time_elapsed":1791551,"internal_node_id":"0.0-2.0-79.0"},{"group":"hexagon_bi","room_assignment":["purple","red","yellow","grey","blue","green"],"door_color_assignment":["white","black"],"door_generator_assignment":[0,1],"goal":5,"start":4,"action_noise":0.2,"location_history":"[4,3,2,1,0,5]","action_history":"[0,1,0,1,0]","door_history":"[0,1,0,1,0]","location_rts":"[1821,539,375,844,347]","trial_type":"two-door-navigation","trial_index":82,"time_elapsed":1804123,"internal_node_id":"0.0-2.0-80.0"},{"group":"hexagon_bi","room_assignment":["purple","red","yellow","grey","blue","green"],"door_color_assignment":["white","black"],"door_generator_assignment":[0,1],"goal":1,"start":5,"action_noise":0.2,"location_history":"[5,4,3,2,1]","action_history":"[1,0,1,0]","door_history":"[1,0,1,0]","location_rts":"[505,333,393,762]","trial_type":"two-door-navigation","trial_index":83,"time_elapsed":1813721,"internal_node_id":"0.0-2.0-81.0"},{"group":"hexagon_bi","room_assignment":["purple","red","yellow","grey","blue","green"],"door_color_assignment":["white","black"],"door_generator_assignment":[0,1],"goal":2,"start":1,"action_noise":0.2,"location_history":"[1,2]","action_history":"[0]","door_history":"[0]","location_rts":"[551]","trial_type":"two-door-navigation","trial_index":84,"time_elapsed":1818794,"internal_node_id":"0.0-2.0-82.0"},{"group":"hexagon_bi","room_assignment":["purple","red","yellow","grey","blue","green"],"door_color_assignment":["white","black"],"door_generator_assignment":[0,1],"goal":4,"start":2,"action_noise":0.2,"location_history":"[2,1,0,5,4]","action_history":"[0,1,0,1]","door_history":"[0,1,0,1]","location_rts":"[533,482,353,761]","trial_type":"two-door-navigation","trial_index":85,"time_elapsed":1828501,"internal_node_id":"0.0-2.0-83.0"},{"group":"hexagon_bi","room_assignment":["purple","red","yellow","grey","blue","green"],"door_color_assignment":["white","black"],"door_generator_assignment":[0,1],"goal":0,"start":4,"action_noise":0.2,"location_history":"[4,3,2,3,4,5,0]","action_history":"[0,1,1,0,1,0]","door_history":"[0,1,1,0,1,0]","location_rts":"[873,465,7317,349,708,382]","trial_type":"two-door-navigation","trial_index":86,"time_elapsed":1848213,"internal_node_id":"0.0-2.0-84.0"},{"group":"hexagon_bi","room_assignment":["purple","red","yellow","grey","blue","green"],"door_color_assignment":["white","black"],"door_generator_assignment":[0,1],"goal":5,"start":0,"action_noise":0.2,"location_history":"[0,5]","action_history":"[0]","door_history":"[0]","location_rts":"[727]","trial_type":"two-door-navigation","trial_index":87,"time_elapsed":1853464,"internal_node_id":"0.0-2.0-85.0"},{"group":"hexagon_bi","room_assignment":["purple","red","yellow","grey","blue","green"],"door_color_assignment":["white","black"],"door_generator_assignment":[0,1],"goal":3,"start":5,"action_noise":0.2,"location_history":"[5,4,5,4,3]","action_history":"[0,1,0,0]","door_history":"[0,1,0,0]","location_rts":"[596,605,385,989]","trial_type":"two-door-navigation","trial_index":88,"time_elapsed":1863626,"internal_node_id":"0.0-2.0-86.0"},{"group":"hexagon_bi","room_assignment":["purple","red","yellow","grey","blue","green"],"door_color_assignment":["white","black"],"door_generator_assignment":[0,1],"goal":1,"start":3,"action_noise":0.2,"location_history":"[3,4,5,0,1]","action_history":"[0,1,0,1]","door_history":"[0,1,0,1]","location_rts":"[3923,379,297,697]","trial_type":"two-door-navigation","trial_index":89,"time_elapsed":1876492,"internal_node_id":"0.0-2.0-87.0"},{"group":"hexagon_bi","room_assignment":["purple","red","yellow","grey","blue","green"],"door_color_assignment":["white","black"],"door_generator_assignment":[0,1],"goal":2,"start":1,"action_noise":0.2,"location_history":"[1,2]","action_history":"[0]","door_history":"[0]","location_rts":"[615]","trial_type":"two-door-navigation","trial_index":90,"time_elapsed":1881629,"internal_node_id":"0.0-2.0-88.0"},{"group":"hexagon_bi","room_assignment":["purple","red","yellow","grey","blue","green"],"door_color_assignment":["white","black"],"door_generator_assignment":[0,1],"goal":0,"start":2,"action_noise":0.2,"location_history":"[2,1,0]","action_history":"[0,1]","door_history":"[0,1]","location_rts":"[617,601]","trial_type":"two-door-navigation","trial_index":91,"time_elapsed":1888392,"internal_node_id":"0.0-2.0-89.0"},{"group":"hexagon_bi","room_assignment":["purple","red","yellow","grey","blue","green"],"door_color_assignment":["white","black"],"door_generator_assignment":[0,1],"goal":5,"start":0,"action_noise":0.2,"location_history":"[0,5]","action_history":"[0]","door_history":"[0]","location_rts":"[874]","trial_type":"two-door-navigation","trial_index":92,"time_elapsed":1893793,"internal_node_id":"0.0-2.0-90.0"},{"group":"hexagon_bi","room_assignment":["purple","red","yellow","grey","blue","green"],"door_color_assignment":["white","black"],"door_generator_assignment":[0,1],"goal":1,"start":5,"action_noise":0.2,"location_history":"[5,0,5,0,5,0,1]","action_history":"[1,0,1,0,0,1]","door_history":"[1,0,1,0,0,1]","location_rts":"[827,454,618,391,461,392]","trial_type":"two-door-navigation","trial_index":93,"time_elapsed":1906553,"internal_node_id":"0.0-2.0-91.0"},{"group":"hexagon_bi","room_assignment":["purple","red","yellow","grey","blue","green"],"door_color_assignment":["white","black"],"door_generator_assignment":[0,1],"goal":3,"start":1,"action_noise":0.2,"location_history":"[1,2,3]","action_history":"[0,1]","door_history":"[0,1]","location_rts":"[1126,523]","trial_type":"two-door-navigation","trial_index":94,"time_elapsed":1913756,"internal_node_id":"0.0-2.0-92.0"},{"group":"hexagon_bi","room_assignment":["purple","red","yellow","grey","blue","green"],"door_color_assignment":["white","black"],"door_generator_assignment":[0,1],"goal":4,"start":3,"action_noise":0.2,"location_history":"[3,4]","action_history":"[0]","door_history":"[0]","location_rts":"[480]","trial_type":"two-door-navigation","trial_index":95,"time_elapsed":1918763,"internal_node_id":"0.0-2.0-93.0"},{"group":"hexagon_bi","room_assignment":["purple","red","yellow","grey","blue","green"],"door_color_assignment":["white","black"],"door_generator_assignment":[0,1],"goal":2,"start":4,"action_noise":0.2,"location_history":"[4,5,0,1,2]","action_history":"[1,0,1,0]","door_history":"[1,0,1,0]","location_rts":"[1328,410,926,520]","trial_type":"two-door-navigation","trial_index":96,"time_elapsed":1931953,"internal_node_id":"0.0-2.0-94.0"},{"group":"hexagon_bi","room_assignment":["purple","red","yellow","grey","blue","green"],"door_color_assignment":["white","black"],"door_generator_assignment":[0,1],"goal":4,"start":2,"action_noise":0.2,"location_history":"[2,1,2,1,0,1,0,1,2,3,2,3,2,1,0,5,4]","action_history":"[0,1,0,1,0,1,0,0,1,0,1,0,0,1,0,1]","door_history":"[0,1,0,1,0,1,0,0,1,0,1,0,0,1,0,1]","location_rts":"[118090,500,654,336,596,559,396,244,247,340,594,554,463,644,519,893]","trial_type":"two-door-navigation","trial_index":97,"time_elapsed":2077420,"internal_node_id":"0.0-2.0-95.0"},{"group":"hexagon_bi","room_assignment":["purple","red","yellow","grey","blue","green"],"door_color_assignment":["white","black"],"door_generator_assignment":[0,1],"goal":0,"start":4,"action_noise":0.2,"location_history":"[4,3,2,1,0]","action_history":"[0,1,0,1]","door_history":"[0,1,0,1]","location_rts":"[784,359,269,799]","trial_type":"two-door-navigation","trial_index":98,"time_elapsed":2087954,"internal_node_id":"0.0-2.0-96.0"},{"group":"hexagon_bi","room_assignment":["purple","red","yellow","grey","blue","green"],"door_color_assignment":["white","black"],"door_generator_assignment":[0,1],"goal":5,"start":0,"action_noise":0.2,"location_history":"[0,5]","action_history":"[0]","door_history":"[0]","location_rts":"[3699]","trial_type":"two-door-navigation","trial_index":99,"time_elapsed":2096715,"internal_node_id":"0.0-2.0-97.0"},{"group":"hexagon_bi","room_assignment":["purple","red","yellow","grey","blue","green"],"door_color_assignment":["white","black"],"door_generator_assignment":[0,1],"goal":1,"start":5,"action_noise":0.2,"location_history":"[5,4,3,2,1]","action_history":"[1,0,1,0]","door_history":"[1,0,1,0]","location_rts":"[648,376,600,584]","trial_type":"two-door-navigation","trial_index":100,"time_elapsed":2106509,"internal_node_id":"0.0-2.0-98.0"},{"group":"hexagon_bi","room_assignment":["purple","red","yellow","grey","blue","green"],"door_color_assignment":["white","black"],"door_generator_assignment":[0,1],"goal":3,"start":1,"action_noise":0.2,"location_history":"[1,2,3]","action_history":"[0,1]","door_history":"[0,1]","location_rts":"[702,470]","trial_type":"two-door-navigation","trial_index":101,"time_elapsed":2113224,"internal_node_id":"0.0-2.0-99.0"},{"view_history":"[{\"page_index\":0,\"viewing_time\":45509}]","rt":45509,"trial_type":"instructions","trial_index":102,"time_elapsed":2159733,"internal_node_id":"0.0-3.0"},{"view_history":"[{\"page_index\":0,\"viewing_time\":2424},{\"page_index\":1,\"viewing_time\":11296}]","rt":13721,"trial_type":"instructions","trial_index":103,"time_elapsed":2174462,"internal_node_id":"0.0-4.0"},{"group":"hexagon_bi","fractal_assignment":["../images/ylw_slt.png","../images/pnk_blu.png","../images/cyn_red.png","../images/blu_wht.png","../images/gry_blk.png","../images/org_blu.png"],"mutagen_generator_assignment":[0,1],"goal":4,"start":0,"action_noise":0.2,"location_history":"[0,5,4]","action_history":"[0,1]","mutagen_history":"[0,1]","location_rts":"[5949,3476]","trial_type":"fractal-mutation","trial_index":104,"time_elapsed":2189564,"internal_node_id":"0.0-5.0-0.0"},{"group":"hexagon_bi","fractal_assignment":["../images/ylw_slt.png","../images/pnk_blu.png","../images/cyn_red.png","../images/blu_wht.png","../images/gry_blk.png","../images/org_blu.png"],"mutagen_generator_assignment":[0,1],"goal":3,"start":4,"action_noise":0.2,"location_history":"[4,5,0,5,4,5,4,5,4,3]","action_history":"[1,0,0,1,1,0,1,1,0]","mutagen_history":"[1,0,0,1,1,0,1,1,0]","location_rts":"[727,886,245,182,146,893,322,1516,508]","trial_type":"fractal-mutation","trial_index":105,"time_elapsed":2207769,"internal_node_id":"0.0-5.0-1.0"},{"group":"hexagon_bi","fractal_assignment":["../images/ylw_slt.png","../images/pnk_blu.png","../images/cyn_red.png","../images/blu_wht.png","../images/gry_blk.png","../images/org_blu.png"],"mutagen_generator_assignment":[0,1],"goal":5,"start":3,"action_noise":0.2,"location_history":"[3,4,5]","action_history":"[0,1]","mutagen_history":"[0,1]","location_rts":"[1674,1010]","trial_type":"fractal-mutation","trial_index":106,"time_elapsed":2216019,"internal_node_id":"0.0-5.0-2.0"},{"group":"hexagon_bi","fractal_assignment":["../images/ylw_slt.png","../images/pnk_blu.png","../images/cyn_red.png","../images/blu_wht.png","../images/gry_blk.png","../images/org_blu.png"],"mutagen_generator_assignment":[0,1],"goal":2,"start":5,"action_noise":0.2,"location_history":"[5,0,1,2]","action_history":"[0,1,0]","mutagen_history":"[0,1,0]","location_rts":"[912,884,960]","trial_type":"fractal-mutation","trial_index":107,"time_elapsed":2225353,"internal_node_id":"0.0-5.0-3.0"},{"group":"hexagon_bi","fractal_assignment":["../images/ylw_slt.png","../images/pnk_blu.png","../images/cyn_red.png","../images/blu_wht.png","../images/gry_blk.png","../images/org_blu.png"],"mutagen_generator_assignment":[0,1],"goal":1,"start":2,"action_noise":0.2,"location_history":"[2,1]","action_history":"[0]","mutagen_history":"[0]","location_rts":"[546]","trial_type":"fractal-mutation","trial_index":108,"time_elapsed":2230426,"internal_node_id":"0.0-5.0-4.0"},{"group":"hexagon_bi","fractal_assignment":["../images/ylw_slt.png","../images/pnk_blu.png","../images/cyn_red.png","../images/blu_wht.png","../images/gry_blk.png","../images/org_blu.png"],"mutagen_generator_assignment":[0,1],"goal":4,"start":1,"action_noise":0.2,"location_history":"[1,2,3,2,1,0,5,4]","action_history":"[0,1,1,0,1,0,1]","mutagen_history":"[0,1,1,0,1,0,1]","location_rts":"[425,799,1233,457,1134,988,999]","trial_type":"fractal-mutation","trial_index":109,"time_elapsed":2247168,"internal_node_id":"0.0-5.0-5.0"},{"group":"hexagon_bi","fractal_assignment":["../images/ylw_slt.png","../images/pnk_blu.png","../images/cyn_red.png","../images/blu_wht.png","../images/gry_blk.png","../images/org_blu.png"],"mutagen_generator_assignment":[0,1],"goal":1,"start":4,"action_noise":0.2,"location_history":"[4,5,0,1]","action_history":"[1,0,1]","mutagen_history":"[1,0,1]","location_rts":"[691,1019,1032]","trial_type":"fractal-mutation","trial_index":110,"time_elapsed":2256497,"internal_node_id":"0.0-5.0-6.0"},{"group":"hexagon_bi","fractal_assignment":["../images/ylw_slt.png","../images/pnk_blu.png","../images/cyn_red.png","../images/blu_wht.png","../images/gry_blk.png","../images/org_blu.png"],"mutagen_generator_assignment":[0,1],"goal":5,"start":1,"action_noise":0.2,"location_history":"[1,2,3,4,5]","action_history":"[0,1,0,1]","mutagen_history":"[0,1,0,1]","location_rts":"[798,755,865,983]","trial_type":"fractal-mutation","trial_index":111,"time_elapsed":2267531,"internal_node_id":"0.0-5.0-7.0"},{"group":"hexagon_bi","fractal_assignment":["../images/ylw_slt.png","../images/pnk_blu.png","../images/cyn_red.png","../images/blu_wht.png","../images/gry_blk.png","../images/org_blu.png"],"mutagen_generator_assignment":[0,1],"goal":0,"start":5,"action_noise":0.2,"location_history":"[5,0]","action_history":"[0]","mutagen_history":"[0]","location_rts":"[656]","trial_type":"fractal-mutation","trial_index":112,"time_elapsed":2272723,"internal_node_id":"0.0-5.0-8.0"},{"group":"hexagon_bi","fractal_assignment":["../images/ylw_slt.png","../images/pnk_blu.png","../images/cyn_red.png","../images/blu_wht.png","../images/gry_blk.png","../images/org_blu.png"],"mutagen_generator_assignment":[0,1],"goal":2,"start":0,"action_noise":0.2,"location_history":"[0,5,4,5,0,5,4,5,0,5,4,3,2]","action_history":"[0,1,1,0,0,1,1,0,1,0,0,1]","mutagen_history":"[0,1,1,0,0,1,1,0,1,0,0,1]","location_rts":"[798,835,1130,589,709,390,935,520,383,837,1125,1374]","trial_type":"fractal-mutation","trial_index":113,"time_elapsed":2298249,"internal_node_id":"0.0-5.0-9.0"},{"group":"hexagon_bi","fractal_assignment":["../images/ylw_slt.png","../images/pnk_blu.png","../images/cyn_red.png","../images/blu_wht.png","../images/gry_blk.png","../images/org_blu.png"],"mutagen_generator_assignment":[0,1],"goal":3,"start":2,"action_noise":0.2,"location_history":"[2,1,0,1,0,1,0,5,4,3]","action_history":"[0,1,0,1,1,0,0,1,0]","mutagen_history":"[0,1,0,1,1,0,0,1,0]","location_rts":"[532,1181,877,856,957,389,1215,755,1039]","trial_type":"fractal-mutation","trial_index":114,"time_elapsed":2318779,"internal_node_id":"0.0-5.0-10.0"},{"group":"hexagon_bi","fractal_assignment":["../images/ylw_slt.png","../images/pnk_blu.png","../images/cyn_red.png","../images/blu_wht.png","../images/gry_blk.png","../images/org_blu.png"],"mutagen_generator_assignment":[0,1],"goal":0,"start":3,"action_noise":0.2,"location_history":"[3,2,1,0]","action_history":"[1,0,1]","mutagen_history":"[1,0,1]","location_rts":"[1303,626,736]","trial_type":"fractal-mutation","trial_index":115,"time_elapsed":2328094,"internal_node_id":"0.0-5.0-11.0"},{"group":"hexagon_bi","fractal_assignment":["../images/ylw_slt.png","../images/pnk_blu.png","../images/cyn_red.png","../images/blu_wht.png","../images/gry_blk.png","../images/org_blu.png"],"mutagen_generator_assignment":[0,1],"goal":2,"start":0,"action_noise":0.2,"location_history":"[0,5,4,3,2]","action_history":"[0,1,0,1]","mutagen_history":"[0,1,0,1]","location_rts":"[806,682,822,983]","trial_type":"fractal-mutation","trial_index":116,"time_elapsed":2339954,"internal_node_id":"0.0-5.0-12.0"},{"group":"hexagon_bi","fractal_assignment":["../images/ylw_slt.png","../images/pnk_blu.png","../images/cyn_red.png","../images/blu_wht.png","../images/gry_blk.png","../images/org_blu.png"],"mutagen_generator_assignment":[0,1],"goal":5,"start":2,"action_noise":0.2,"location_history":"[2,3,2,3,4,5]","action_history":"[1,0,1,0,1]","mutagen_history":"[1,0,1,0,1]","location_rts":"[2022,1039,1222,987,738]","trial_type":"fractal-mutation","trial_index":117,"time_elapsed":2354684,"internal_node_id":"0.0-5.0-13.0"},{"group":"hexagon_bi","fractal_assignment":["../images/ylw_slt.png","../images/pnk_blu.png","../images/cyn_red.png","../images/blu_wht.png","../images/gry_blk.png","../images/org_blu.png"],"mutagen_generator_assignment":[0,1],"goal":4,"start":5,"action_noise":0.2,"location_history":"[5,0,1,2,3,4]","action_history":"[0,1,0,1,0]","mutagen_history":"[0,1,0,1,0]","location_rts":"[644,843,617,728,998]","trial_type":"fractal-mutation","trial_index":118,"time_elapsed":2367232,"internal_node_id":"0.0-5.0-14.0"},{"group":"hexagon_bi","fractal_assignment":["../images/ylw_slt.png","../images/pnk_blu.png","../images/cyn_red.png","../images/blu_wht.png","../images/gry_blk.png","../images/org_blu.png"],"mutagen_generator_assignment":[0,1],"goal":3,"start":4,"action_noise":0.2,"location_history":"[4,5,0,5,0,5,4,3]","action_history":"[1,0,0,1,1,0,0]","mutagen_history":"[1,0,0,1,1,0,0]","location_rts":"[932,550,669,355,2235,522,943]","trial_type":"fractal-mutation","trial_index":119,"time_elapsed":2384324,"internal_node_id":"0.0-5.0-15.0"},{"group":"hexagon_bi","fractal_assignment":["../images/ylw_slt.png","../images/pnk_blu.png","../images/cyn_red.png","../images/blu_wht.png","../images/gry_blk.png","../images/org_blu.png"],"mutagen_generator_assignment":[0,1],"goal":1,"start":3,"action_noise":0.2,"location_history":"[3,4,5,0,5,0,5,4,3,2,1]","action_history":"[0,1,0,1,0,0,1,0,1,0]","mutagen_history":"[0,1,0,1,0,0,1,0,1,0]","location_rts":"[1117,937,524,809,416,415,606,727,737,707]","trial_type":"fractal-mutation","trial_index":120,"time_elapsed":2405149,"internal_node_id":"0.0-5.0-16.0"},{"group":"hexagon_bi","fractal_assignment":["../images/ylw_slt.png","../images/pnk_blu.png","../images/cyn_red.png","../images/blu_wht.png","../images/gry_blk.png","../images/org_blu.png"],"mutagen_generator_assignment":[0,1],"goal":5,"start":1,"action_noise":0.2,"location_history":"[1,0,5]","action_history":"[1,0]","mutagen_history":"[1,0]","location_rts":"[948,580]","trial_type":"fractal-mutation","trial_index":121,"time_elapsed":2412233,"internal_node_id":"0.0-5.0-17.0"},{"group":"hexagon_bi","fractal_assignment":["../images/ylw_slt.png","../images/pnk_blu.png","../images/cyn_red.png","../images/blu_wht.png","../images/gry_blk.png","../images/org_blu.png"],"mutagen_generator_assignment":[0,1],"goal":4,"start":5,"action_noise":0.2,"location_history":"[5,0,1,2,1,2,3,4]","action_history":"[1,0,1,0,0,1,0]","mutagen_history":"[1,0,1,0,0,1,0]","location_rts":"[737,609,778,779,1279,554,1113]","trial_type":"fractal-mutation","trial_index":122,"time_elapsed":2428852,"internal_node_id":"0.0-5.0-18.0"},{"group":"hexagon_bi","fractal_assignment":["../images/ylw_slt.png","../images/pnk_blu.png","../images/cyn_red.png","../images/blu_wht.png","../images/gry_blk.png","../images/org_blu.png"],"mutagen_generator_assignment":[0,1],"goal":0,"start":4,"action_noise":0.2,"location_history":"[4,5,0]","action_history":"[1,0]","mutagen_history":"[1,0]","location_rts":"[976,496]","trial_type":"fractal-mutation","trial_index":123,"time_elapsed":2435956,"internal_node_id":"0.0-5.0-19.0"},{"group":"hexagon_bi","fractal_assignment":["../images/ylw_slt.png","../images/pnk_blu.png","../images/cyn_red.png","../images/blu_wht.png","../images/gry_blk.png","../images/org_blu.png"],"mutagen_generator_assignment":[0,1],"goal":1,"start":0,"action_noise":0.2,"location_history":"[0,1]","action_history":"[1]","mutagen_history":"[1]","location_rts":"[879]","trial_type":"fractal-mutation","trial_index":124,"time_elapsed":2441374,"internal_node_id":"0.0-5.0-20.0"},{"group":"hexagon_bi","fractal_assignment":["../images/ylw_slt.png","../images/pnk_blu.png","../images/cyn_red.png","../images/blu_wht.png","../images/gry_blk.png","../images/org_blu.png"],"mutagen_generator_assignment":[0,1],"goal":3,"start":1,"action_noise":0.2,"location_history":"[1,2,3]","action_history":"[0,1]","mutagen_history":"[0,1]","location_rts":"[1086,937]","trial_type":"fractal-mutation","trial_index":125,"time_elapsed":2448987,"internal_node_id":"0.0-5.0-21.0"},{"group":"hexagon_bi","fractal_assignment":["../images/ylw_slt.png","../images/pnk_blu.png","../images/cyn_red.png","../images/blu_wht.png","../images/gry_blk.png","../images/org_blu.png"],"mutagen_generator_assignment":[0,1],"goal":2,"start":3,"action_noise":0.2,"location_history":"[3,4,5,0,1,2]","action_history":"[0,1,0,1,0]","mutagen_history":"[0,1,0,1,0]","location_rts":"[1512,444,803,596,512]","trial_type":"fractal-mutation","trial_index":126,"time_elapsed":2461531,"internal_node_id":"0.0-5.0-22.0"},{"group":"hexagon_bi","fractal_assignment":["../images/ylw_slt.png","../images/pnk_blu.png","../images/cyn_red.png","../images/blu_wht.png","../images/gry_blk.png","../images/org_blu.png"],"mutagen_generator_assignment":[0,1],"goal":0,"start":2,"action_noise":0.2,"location_history":"[2,1,0]","action_history":"[0,1]","mutagen_history":"[0,1]","location_rts":"[502,454]","trial_type":"fractal-mutation","trial_index":127,"time_elapsed":2468047,"internal_node_id":"0.0-5.0-23.0"},{"group":"hexagon_bi","fractal_assignment":["../images/ylw_slt.png","../images/pnk_blu.png","../images/cyn_red.png","../images/blu_wht.png","../images/gry_blk.png","../images/org_blu.png"],"mutagen_generator_assignment":[0,1],"goal":3,"start":0,"action_noise":0.2,"location_history":"[0,1,2,1,2,1,0,1,2,3]","action_history":"[1,0,0,1,0,1,0,0,1]","mutagen_history":"[1,0,0,1,0,1,0,0,1]","location_rts":"[915,414,1037,308,514,390,837,1150,263]","trial_type":"fractal-mutation","trial_index":128,"time_elapsed":2486641,"internal_node_id":"0.0-5.0-24.0"},{"group":"hexagon_bi","fractal_assignment":["../images/ylw_slt.png","../images/pnk_blu.png","../images/cyn_red.png","../images/blu_wht.png","../images/gry_blk.png","../images/org_blu.png"],"mutagen_generator_assignment":[0,1],"goal":1,"start":3,"action_noise":0.2,"location_history":"[3,2,3,4,5,0,5,4,3,2,3,4,3,2,3,4,5,0,1]","action_history":"[1,0,0,1,0,0,1,1,1,1,0,0,1,0,0,1,0,1]","mutagen_history":"[1,0,0,1,0,0,1,1,1,1,0,0,1,0,0,1,0,1]","location_rts":"[1257,476,939,157,603,831,234,527,954,686,272,755,611,285,1413,712,808,646]","trial_type":"fractal-mutation","trial_index":129,"time_elapsed":2520893,"internal_node_id":"0.0-5.0-25.0"},{"group":"hexagon_bi","fractal_assignment":["../images/ylw_slt.png","../images/pnk_blu.png","../images/cyn_red.png","../images/blu_wht.png","../images/gry_blk.png","../images/org_blu.png"],"mutagen_generator_assignment":[0,1],"goal":2,"start":1,"action_noise":0.2,"location_history":"[1,0,1,2]","action_history":"[0,1,0]","mutagen_history":"[0,1,0]","location_rts":"[1205,483,400]","trial_type":"fractal-mutation","trial_index":130,"time_elapsed":2529627,"internal_node_id":"0.0-5.0-26.0"},{"group":"hexagon_bi","fractal_assignment":["../images/ylw_slt.png","../images/pnk_blu.png","../images/cyn_red.png","../images/blu_wht.png","../images/gry_blk.png","../images/org_blu.png"],"mutagen_generator_assignment":[0,1],"goal":5,"start":2,"action_noise":0.2,"location_history":"[2,1,0,5]","action_history":"[0,1,0]","mutagen_history":"[0,1,0]","location_rts":"[487,458,493]","trial_type":"fractal-mutation","trial_index":131,"time_elapsed":2537695,"internal_node_id":"0.0-5.0-27.0"},{"group":"hexagon_bi","fractal_assignment":["../images/ylw_slt.png","../images/pnk_blu.png","../images/cyn_red.png","../images/blu_wht.png","../images/gry_blk.png","../images/org_blu.png"],"mutagen_generator_assignment":[0,1],"goal":4,"start":5,"action_noise":0.2,"location_history":"[5,4]","action_history":"[1]","mutagen_history":"[1]","location_rts":"[498]","trial_type":"fractal-mutation","trial_index":132,"time_elapsed":2542728,"internal_node_id":"0.0-5.0-28.0"},{"group":"hexagon_bi","fractal_assignment":["../images/ylw_slt.png","../images/pnk_blu.png","../images/cyn_red.png","../images/blu_wht.png","../images/gry_blk.png","../images/org_blu.png"],"mutagen_generator_assignment":[0,1],"goal":5,"start":4,"action_noise":0.2,"location_history":"[4,5]","action_history":"[1]","mutagen_history":"[1]","location_rts":"[466]","trial_type":"fractal-mutation","trial_index":133,"time_elapsed":2547731,"internal_node_id":"0.0-5.0-29.0"},{"group":"hexagon_bi","fractal_assignment":["../images/ylw_slt.png","../images/pnk_blu.png","../images/cyn_red.png","../images/blu_wht.png","../images/gry_blk.png","../images/org_blu.png"],"mutagen_generator_assignment":[0,1],"goal":3,"start":5,"action_noise":0.2,"location_history":"[5,4,5,4,5,0,1,2,3]","action_history":"[1,0,1,1,0,1,0,1]","mutagen_history":"[1,0,1,1,0,1,0,1]","location_rts":"[1041,698,727,459,526,900,707,789]","trial_type":"fractal-mutation","trial_index":134,"time_elapsed":2565332,"internal_node_id":"0.0-5.0-30.0"},{"group":"hexagon_bi","fractal_assignment":["../images/ylw_slt.png","../images/pnk_blu.png","../images/cyn_red.png","../images/blu_wht.png","../images/gry_blk.png","../images/org_blu.png"],"mutagen_generator_assignment":[0,1],"goal":0,"start":3,"action_noise":0.2,"location_history":"[3,2,1,0]","action_history":"[1,0,1]","mutagen_history":"[1,0,1]","location_rts":"[846,509,605]","trial_type":"fractal-mutation","trial_index":135,"time_elapsed":2573954,"internal_node_id":"0.0-5.0-31.0"},{"group":"hexagon_bi","fractal_assignment":["../images/ylw_slt.png","../images/pnk_blu.png","../images/cyn_red.png","../images/blu_wht.png","../images/gry_blk.png","../images/org_blu.png"],"mutagen_generator_assignment":[0,1],"goal":4,"start":0,"action_noise":0.2,"location_history":"[0,5,0,5,0,5,4]","action_history":"[1,0,1,0,1,0]","mutagen_history":"[1,0,1,0,1,0]","location_rts":"[679,448,613,509,1017,394]","trial_type":"fractal-mutation","trial_index":136,"time_elapsed":2587356,"internal_node_id":"0.0-5.0-32.0"},{"group":"hexagon_bi","fractal_assignment":["../images/ylw_slt.png","../images/pnk_blu.png","../images/cyn_red.png","../images/blu_wht.png","../images/gry_blk.png","../images/org_blu.png"],"mutagen_generator_assignment":[0,1],"goal":1,"start":4,"action_noise":0.2,"location_history":"[4,3,4,3,2,3,2,1]","action_history":"[0,1,0,1,0,1,0]","mutagen_history":"[0,1,0,1,0,1,0]","location_rts":"[505,458,1160,735,572,618,655]","trial_type":"fractal-mutation","trial_index":137,"time_elapsed":2602965,"internal_node_id":"0.0-5.0-33.0"},{"group":"hexagon_bi","fractal_assignment":["../images/ylw_slt.png","../images/pnk_blu.png","../images/cyn_red.png","../images/blu_wht.png","../images/gry_blk.png","../images/org_blu.png"],"mutagen_generator_assignment":[0,1],"goal":2,"start":1,"action_noise":0.2,"location_history":"[1,2]","action_history":"[0]","mutagen_history":"[0]","location_rts":"[432]","trial_type":"fractal-mutation","trial_index":138,"time_elapsed":2607928,"internal_node_id":"0.0-5.0-34.0"},{"group":"hexagon_bi","fractal_assignment":["../images/ylw_slt.png","../images/pnk_blu.png","../images/cyn_red.png","../images/blu_wht.png","../images/gry_blk.png","../images/org_blu.png"],"mutagen_generator_assignment":[0,1],"goal":0,"start":2,"action_noise":0.2,"location_history":"[2,3,4,3,2,3,2,3,4,5,4,3,2,3,2,3,2,3,4,3,2,1,0]","action_history":"[1,0,0,1,0,1,0,0,1,1,0,1,0,1,1,0,1,0,0,1,0,1]","mutagen_history":"[1,0,0,1,0,1,0,0,1,1,0,1,0,1,1,0,1,0,0,1,0,1]","location_rts":"[586,330,722,253,434,570,484,378,430,723,259,841,453,1128,1162,416,965,570,319,625,550,826]","trial_type":"fractal-mutation","trial_index":139,"time_elapsed":2647334,"internal_node_id":"0.0-5.0-35.0"},{"group":"hexagon_bi","fractal_assignment":["../images/ylw_slt.png","../images/pnk_blu.png","../images/cyn_red.png","../images/blu_wht.png","../images/gry_blk.png","../images/org_blu.png"],"mutagen_generator_assignment":[0,1],"goal":5,"start":0,"action_noise":0.2,"location_history":"[0,5]","action_history":"[0]","mutagen_history":"[0]","location_rts":"[869]","trial_type":"fractal-mutation","trial_index":140,"time_elapsed":2652734,"internal_node_id":"0.0-5.0-36.0"},{"group":"hexagon_bi","fractal_assignment":["../images/ylw_slt.png","../images/pnk_blu.png","../images/cyn_red.png","../images/blu_wht.png","../images/gry_blk.png","../images/org_blu.png"],"mutagen_generator_assignment":[0,1],"goal":2,"start":5,"action_noise":0.2,"location_history":"[5,4,3,2]","action_history":"[1,0,1]","mutagen_history":"[1,0,1]","location_rts":"[788,481,696]","trial_type":"fractal-mutation","trial_index":141,"time_elapsed":2661393,"internal_node_id":"0.0-5.0-37.0"},{"group":"hexagon_bi","fractal_assignment":["../images/ylw_slt.png","../images/pnk_blu.png","../images/cyn_red.png","../images/blu_wht.png","../images/gry_blk.png","../images/org_blu.png"],"mutagen_generator_assignment":[0,1],"goal":1,"start":2,"action_noise":0.2,"location_history":"[2,3,2,3,2,1]","action_history":"[1,0,1,1,0]","mutagen_history":"[1,0,1,1,0]","location_rts":"[547,593,551,973,373]","trial_type":"fractal-mutation","trial_index":142,"time_elapsed":2673150,"internal_node_id":"0.0-5.0-38.0"},{"group":"hexagon_bi","fractal_assignment":["../images/ylw_slt.png","../images/pnk_blu.png","../images/cyn_red.png","../images/blu_wht.png","../images/gry_blk.png","../images/org_blu.png"],"mutagen_generator_assignment":[0,1],"goal":4,"start":1,"action_noise":0.2,"location_history":"[1,2,1,2,1,0,5,4]","action_history":"[1,0,0,1,1,0,1]","mutagen_history":"[1,0,0,1,1,0,1]","location_rts":"[402,507,1307,206,944,435,761]","trial_type":"fractal-mutation","trial_index":143,"time_elapsed":2688472,"internal_node_id":"0.0-5.0-39.0"},{"group":"hexagon_bi","fractal_assignment":["../images/ylw_slt.png","../images/pnk_blu.png","../images/cyn_red.png","../images/blu_wht.png","../images/gry_blk.png","../images/org_blu.png"],"mutagen_generator_assignment":[0,1],"goal":3,"start":4,"action_noise":0.2,"location_history":"[4,5,4,3]","action_history":"[1,0,1]","mutagen_history":"[1,0,1]","location_rts":"[507,491,550]","trial_type":"fractal-mutation","trial_index":144,"time_elapsed":2696604,"internal_node_id":"0.0-5.0-40.0"},{"group":"hexagon_bi","fractal_assignment":["../images/ylw_slt.png","../images/pnk_blu.png","../images/cyn_red.png","../images/blu_wht.png","../images/gry_blk.png","../images/org_blu.png"],"mutagen_generator_assignment":[0,1],"goal":5,"start":3,"action_noise":0.2,"location_history":"[3,4,5]","action_history":"[0,1]","mutagen_history":"[0,1]","location_rts":"[493,697]","trial_type":"fractal-mutation","trial_index":145,"time_elapsed":2703355,"internal_node_id":"0.0-5.0-41.0"},{"group":"hexagon_bi","fractal_assignment":["../images/ylw_slt.png","../images/pnk_blu.png","../images/cyn_red.png","../images/blu_wht.png","../images/gry_blk.png","../images/org_blu.png"],"mutagen_generator_assignment":[0,1],"goal":3,"start":5,"action_noise":0.2,"location_history":"[5,4,5,0,5,4,3]","action_history":"[1,0,1,0,1,0]","mutagen_history":"[1,0,1,0,1,0]","location_rts":"[424,382,484,698,646,460]","trial_type":"fractal-mutation","trial_index":146,"time_elapsed":2716235,"internal_node_id":"0.0-5.0-42.0"},{"group":"hexagon_bi","fractal_assignment":["../images/ylw_slt.png","../images/pnk_blu.png","../images/cyn_red.png","../images/blu_wht.png","../images/gry_blk.png","../images/org_blu.png"],"mutagen_generator_assignment":[0,1],"goal":0,"start":3,"action_noise":0.2,"location_history":"[3,4,3,2,1,2,1,2,1,0]","action_history":"[1,0,1,0,0,1,0,0,1]","mutagen_history":"[1,0,1,0,0,1,0,0,1]","location_rts":"[583,462,524,571,812,417,583,864,460]","trial_type":"fractal-mutation","trial_index":147,"time_elapsed":2734546,"internal_node_id":"0.0-5.0-43.0"},{"group":"hexagon_bi","fractal_assignment":["../images/ylw_slt.png","../images/pnk_blu.png","../images/cyn_red.png","../images/blu_wht.png","../images/gry_blk.png","../images/org_blu.png"],"mutagen_generator_assignment":[0,1],"goal":2,"start":0,"action_noise":0.2,"location_history":"[0,5,4,3,2]","action_history":"[0,1,0,1]","mutagen_history":"[0,1,0,1]","location_rts":"[495,527,551,666]","trial_type":"fractal-mutation","trial_index":148,"time_elapsed":2744529,"internal_node_id":"0.0-5.0-44.0"},{"group":"hexagon_bi","fractal_assignment":["../images/ylw_slt.png","../images/pnk_blu.png","../images/cyn_red.png","../images/blu_wht.png","../images/gry_blk.png","../images/org_blu.png"],"mutagen_generator_assignment":[0,1],"goal":4,"start":2,"action_noise":0.2,"location_history":"[2,1,0,5,4]","action_history":"[0,1,0,1]","mutagen_history":"[0,1,0,1]","location_rts":"[455,783,467,484]","trial_type":"fractal-mutation","trial_index":149,"time_elapsed":2754482,"internal_node_id":"0.0-5.0-45.0"},{"group":"hexagon_bi","fractal_assignment":["../images/ylw_slt.png","../images/pnk_blu.png","../images/cyn_red.png","../images/blu_wht.png","../images/gry_blk.png","../images/org_blu.png"],"mutagen_generator_assignment":[0,1],"goal":1,"start":4,"action_noise":0.2,"location_history":"[4,3,2,1]","action_history":"[0,1,0]","mutagen_history":"[0,1,0]","location_rts":"[375,541,468]","trial_type":"fractal-mutation","trial_index":150,"time_elapsed":2762527,"internal_node_id":"0.0-5.0-46.0"},{"group":"hexagon_bi","fractal_assignment":["../images/ylw_slt.png","../images/pnk_blu.png","../images/cyn_red.png","../images/blu_wht.png","../images/gry_blk.png","../images/org_blu.png"],"mutagen_generator_assignment":[0,1],"goal":4,"start":1,"action_noise":0.2,"location_history":"[1,0,5,4]","action_history":"[1,0,1]","mutagen_history":"[1,0,1]","location_rts":"[505,438,521]","trial_type":"fractal-mutation","trial_index":151,"time_elapsed":2770615,"internal_node_id":"0.0-5.0-47.0"},{"group":"hexagon_bi","fractal_assignment":["../images/ylw_slt.png","../images/pnk_blu.png","../images/cyn_red.png","../images/blu_wht.png","../images/gry_blk.png","../images/org_blu.png"],"mutagen_generator_assignment":[0,1],"goal":1,"start":4,"action_noise":0.2,"location_history":"[4,3,2,1]","action_history":"[0,1,0]","mutagen_history":"[0,1,0]","location_rts":"[558,339,454]","trial_type":"fractal-mutation","trial_index":152,"time_elapsed":2778563,"internal_node_id":"0.0-5.0-48.0"},{"group":"hexagon_bi","fractal_assignment":["../images/ylw_slt.png","../images/pnk_blu.png","../images/cyn_red.png","../images/blu_wht.png","../images/gry_blk.png","../images/org_blu.png"],"mutagen_generator_assignment":[0,1],"goal":3,"start":1,"action_noise":0.2,"location_history":"[1,0,1,0,5,4,3]","action_history":"[1,0,1,0,1,0]","mutagen_history":"[1,0,1,0,1,0]","location_rts":"[359,417,495,460,752,723]","trial_type":"fractal-mutation","trial_index":153,"time_elapsed":2791481,"internal_node_id":"0.0-5.0-49.0"},{"group":"hexagon_bi","fractal_assignment":["../images/ylw_slt.png","../images/pnk_blu.png","../images/cyn_red.png","../images/blu_wht.png","../images/gry_blk.png","../images/org_blu.png"],"mutagen_generator_assignment":[0,1],"goal":5,"start":3,"action_noise":0.2,"location_history":"[3,4,3,4,3,4,3,2,3,2,3,4,3,2,1,0,5]","action_history":"[0,1,0,1,1,0,1,0,1,1,0,0,1,0,1,0]","mutagen_history":"[0,1,0,1,1,0,1,0,1,1,0,0,1,0,1,0]","location_rts":"[458,348,379,500,483,427,490,1001,349,956,291,656,481,590,387,601]","trial_type":"fractal-mutation","trial_index":154,"time_elapsed":2819876,"internal_node_id":"0.0-5.0-50.0"},{"group":"hexagon_bi","fractal_assignment":["../images/ylw_slt.png","../images/pnk_blu.png","../images/cyn_red.png","../images/blu_wht.png","../images/gry_blk.png","../images/org_blu.png"],"mutagen_generator_assignment":[0,1],"goal":0,"start":5,"action_noise":0.2,"location_history":"[5,4,3,2,1,2,1,0]","action_history":"[1,0,1,0,1,0,1]","mutagen_history":"[1,0,1,0,1,0,1]","location_rts":"[847,815,544,547,675,530,531]","trial_type":"fractal-mutation","trial_index":155,"time_elapsed":2835054,"internal_node_id":"0.0-5.0-51.0"},{"group":"hexagon_bi","fractal_assignment":["../images/ylw_slt.png","../images/pnk_blu.png","../images/cyn_red.png","../images/blu_wht.png","../images/gry_blk.png","../images/org_blu.png"],"mutagen_generator_assignment":[0,1],"goal":2,"start":0,"action_noise":0.2,"location_history":"[0,1,0,1,2]","action_history":"[1,0,1,0]","mutagen_history":"[1,0,1,0]","location_rts":"[588,435,943,554]","trial_type":"fractal-mutation","trial_index":156,"time_elapsed":2845182,"internal_node_id":"0.0-5.0-52.0"},{"group":"hexagon_bi","fractal_assignment":["../images/ylw_slt.png","../images/pnk_blu.png","../images/cyn_red.png","../images/blu_wht.png","../images/gry_blk.png","../images/org_blu.png"],"mutagen_generator_assignment":[0,1],"goal":1,"start":2,"action_noise":0.2,"location_history":"[2,3,4,5,0,1]","action_history":"[1,0,1,0,1]","mutagen_history":"[1,0,1,0,1]","location_rts":"[387,387,632,450,424]","trial_type":"fractal-mutation","trial_index":157,"time_elapsed":2856159,"internal_node_id":"0.0-5.0-53.0"},{"group":"hexagon_bi","fractal_assignment":["../images/ylw_slt.png","../images/pnk_blu.png","../images/cyn_red.png","../images/blu_wht.png","../images/gry_blk.png","../images/org_blu.png"],"mutagen_generator_assignment":[0,1],"goal":2,"start":1,"action_noise":0.2,"location_history":"[1,0,1,0,1,2]","action_history":"[1,0,1,0,1]","mutagen_history":"[1,0,1,0,1]","location_rts":"[711,403,511,1311,489]","trial_type":"fractal-mutation","trial_index":158,"time_elapsed":2868305,"internal_node_id":"0.0-5.0-54.0"},{"group":"hexagon_bi","fractal_assignment":["../images/ylw_slt.png","../images/pnk_blu.png","../images/cyn_red.png","../images/blu_wht.png","../images/gry_blk.png","../images/org_blu.png"],"mutagen_generator_assignment":[0,1],"goal":5,"start":2,"action_noise":0.2,"location_history":"[2,3,4,3,2,1,0,5]","action_history":"[1,0,0,1,0,1,0]","mutagen_history":"[1,0,0,1,0,1,0]","location_rts":"[304,361,494,271,578,426,480]","trial_type":"fractal-mutation","trial_index":159,"time_elapsed":2882018,"internal_node_id":"0.0-5.0-55.0"},{"group":"hexagon_bi","fractal_assignment":["../images/ylw_slt.png","../images/pnk_blu.png","../images/cyn_red.png","../images/blu_wht.png","../images/gry_blk.png","../images/org_blu.png"],"mutagen_generator_assignment":[0,1],"goal":4,"start":5,"action_noise":0.2,"location_history":"[5,4]","action_history":"[1]","mutagen_history":"[1]","location_rts":"[514]","trial_type":"fractal-mutation","trial_index":160,"time_elapsed":2887065,"internal_node_id":"0.0-5.0-56.0"},{"group":"hexagon_bi","fractal_assignment":["../images/ylw_slt.png","../images/pnk_blu.png","../images/cyn_red.png","../images/blu_wht.png","../images/gry_blk.png","../images/org_blu.png"],"mutagen_generator_assignment":[0,1],"goal":3,"start":4,"action_noise":0.2,"location_history":"[4,5,4,3]","action_history":"[1,0,0]","mutagen_history":"[1,0,0]","location_rts":"[466,370,977]","trial_type":"fractal-mutation","trial_index":161,"time_elapsed":2895457,"internal_node_id":"0.0-5.0-57.0"},{"group":"hexagon_bi","fractal_assignment":["../images/ylw_slt.png","../images/pnk_blu.png","../images/cyn_red.png","../images/blu_wht.png","../images/gry_blk.png","../images/org_blu.png"],"mutagen_generator_assignment":[0,1],"goal":0,"start":3,"action_noise":0.2,"location_history":"[3,4,5,0]","action_history":"[0,1,0]","mutagen_history":"[0,1,0]","location_rts":"[376,332,455]","trial_type":"fractal-mutation","trial_index":162,"time_elapsed":2903218,"internal_node_id":"0.0-5.0-58.0"},{"group":"hexagon_bi","fractal_assignment":["../images/ylw_slt.png","../images/pnk_blu.png","../images/cyn_red.png","../images/blu_wht.png","../images/gry_blk.png","../images/org_blu.png"],"mutagen_generator_assignment":[0,1],"goal":2,"start":0,"action_noise":0.2,"location_history":"[0,1,2]","action_history":"[1,0]","mutagen_history":"[1,0]","location_rts":"[544,368]","trial_type":"fractal-mutation","trial_index":163,"time_elapsed":2909739,"internal_node_id":"0.0-5.0-59.0"},{"group":"hexagon_bi","fractal_assignment":["../images/ylw_slt.png","../images/pnk_blu.png","../images/cyn_red.png","../images/blu_wht.png","../images/gry_blk.png","../images/org_blu.png"],"mutagen_generator_assignment":[0,1],"goal":1,"start":2,"action_noise":0.2,"location_history":"[2,3,4,5,0,5,4,3,2,1]","action_history":"[1,0,1,0,1,1,0,1,0]","mutagen_history":"[1,0,1,0,1,1,0,1,0]","location_rts":"[311,963,666,489,408,781,416,504,458]","trial_type":"fractal-mutation","trial_index":164,"time_elapsed":2927657,"internal_node_id":"0.0-5.0-60.0"},{"group":"hexagon_bi","fractal_assignment":["../images/ylw_slt.png","../images/pnk_blu.png","../images/cyn_red.png","../images/blu_wht.png","../images/gry_blk.png","../images/org_blu.png"],"mutagen_generator_assignment":[0,1],"goal":0,"start":1,"action_noise":0.2,"location_history":"[1,2,1,2,1,0]","action_history":"[0,1,0,0,1]","mutagen_history":"[0,1,0,0,1]","location_rts":"[417,344,564,303,358]","trial_type":"fractal-mutation","trial_index":165,"time_elapsed":2938310,"internal_node_id":"0.0-5.0-61.0"},{"group":"hexagon_bi","fractal_assignment":["../images/ylw_slt.png","../images/pnk_blu.png","../images/cyn_red.png","../images/blu_wht.png","../images/gry_blk.png","../images/org_blu.png"],"mutagen_generator_assignment":[0,1],"goal":3,"start":0,"action_noise":0.2,"location_history":"[0,5,4,3]","action_history":"[0,1,0]","mutagen_history":"[0,1,0]","location_rts":"[387,330,445]","trial_type":"fractal-mutation","trial_index":166,"time_elapsed":2946136,"internal_node_id":"0.0-5.0-62.0"},{"group":"hexagon_bi","fractal_assignment":["../images/ylw_slt.png","../images/pnk_blu.png","../images/cyn_red.png","../images/blu_wht.png","../images/gry_blk.png","../images/org_blu.png"],"mutagen_generator_assignment":[0,1],"goal":5,"start":3,"action_noise":0.2,"location_history":"[3,2,1,0,1,0,5]","action_history":"[1,0,1,0,1,0]","mutagen_history":"[1,0,1,0,1,0]","location_rts":"[377,321,347,436,505,515]","trial_type":"fractal-mutation","trial_index":167,"time_elapsed":2958329,"internal_node_id":"0.0-5.0-63.0"},{"group":"hexagon_bi","fractal_assignment":["../images/ylw_slt.png","../images/pnk_blu.png","../images/cyn_red.png","../images/blu_wht.png","../images/gry_blk.png","../images/org_blu.png"],"mutagen_generator_assignment":[0,1],"goal":4,"start":5,"action_noise":0.2,"location_history":"[5,0,5,4]","action_history":"[1,0,1]","mutagen_history":"[1,0,1]","location_rts":"[385,505,363]","trial_type":"fractal-mutation","trial_index":168,"time_elapsed":2966215,"internal_node_id":"0.0-5.0-64.0"},{"group":"hexagon_bi","fractal_assignment":["../images/ylw_slt.png","../images/pnk_blu.png","../images/cyn_red.png","../images/blu_wht.png","../images/gry_blk.png","../images/org_blu.png"],"mutagen_generator_assignment":[0,1],"goal":1,"start":4,"action_noise":0.2,"location_history":"[4,5,0,1]","action_history":"[1,0,1]","mutagen_history":"[1,0,1]","location_rts":"[348,432,466]","trial_type":"fractal-mutation","trial_index":169,"time_elapsed":2974125,"internal_node_id":"0.0-5.0-65.0"},{"group":"hexagon_bi","fractal_assignment":["../images/ylw_slt.png","../images/pnk_blu.png","../images/cyn_red.png","../images/blu_wht.png","../images/gry_blk.png","../images/org_blu.png"],"mutagen_generator_assignment":[0,1],"goal":5,"start":1,"action_noise":0.2,"location_history":"[1,0,5]","action_history":"[1,0]","mutagen_history":"[1,0]","location_rts":"[590,466]","trial_type":"fractal-mutation","trial_index":170,"time_elapsed":2980783,"internal_node_id":"0.0-5.0-66.0"},{"group":"hexagon_bi","fractal_assignment":["../images/ylw_slt.png","../images/pnk_blu.png","../images/cyn_red.png","../images/blu_wht.png","../images/gry_blk.png","../images/org_blu.png"],"mutagen_generator_assignment":[0,1],"goal":2,"start":5,"action_noise":0.2,"location_history":"[5,4,3,2]","action_history":"[1,0,1]","mutagen_history":"[1,0,1]","location_rts":"[355,336,540]","trial_type":"fractal-mutation","trial_index":171,"time_elapsed":2988608,"internal_node_id":"0.0-5.0-67.0"},{"group":"hexagon_bi","fractal_assignment":["../images/ylw_slt.png","../images/pnk_blu.png","../images/cyn_red.png","../images/blu_wht.png","../images/gry_blk.png","../images/org_blu.png"],"mutagen_generator_assignment":[0,1],"goal":3,"start":2,"action_noise":0.2,"location_history":"[2,3]","action_history":"[1]","mutagen_history":"[1]","location_rts":"[674]","trial_type":"fractal-mutation","trial_index":172,"time_elapsed":2993876,"internal_node_id":"0.0-5.0-68.0"},{"group":"hexagon_bi","fractal_assignment":["../images/ylw_slt.png","../images/pnk_blu.png","../images/cyn_red.png","../images/blu_wht.png","../images/gry_blk.png","../images/org_blu.png"],"mutagen_generator_assignment":[0,1],"goal":4,"start":3,"action_noise":0.2,"location_history":"[3,2,1,2,3,2,3,4]","action_history":"[1,0,0,1,1,0,0]","mutagen_history":"[1,0,0,1,1,0,0]","location_rts":"[471,444,494,266,468,427,482]","trial_type":"fractal-mutation","trial_index":173,"time_elapsed":3007723,"internal_node_id":"0.0-5.0-69.0"},{"group":"hexagon_bi","fractal_assignment":["../images/ylw_slt.png","../images/pnk_blu.png","../images/cyn_red.png","../images/blu_wht.png","../images/gry_blk.png","../images/org_blu.png"],"mutagen_generator_assignment":[0,1],"goal":0,"start":4,"action_noise":0.2,"location_history":"[4,3,4,5,0]","action_history":"[1,0,1,0]","mutagen_history":"[1,0,1,0]","location_rts":"[504,344,431,528]","trial_type":"fractal-mutation","trial_index":174,"time_elapsed":3017211,"internal_node_id":"0.0-5.0-70.0"},{"group":"hexagon_bi","fractal_assignment":["../images/ylw_slt.png","../images/pnk_blu.png","../images/cyn_red.png","../images/blu_wht.png","../images/gry_blk.png","../images/org_blu.png"],"mutagen_generator_assignment":[0,1],"goal":5,"start":0,"action_noise":0.2,"location_history":"[0,1,2,1,0,1,0,5]","action_history":"[1,0,0,1,1,0,0]","mutagen_history":"[1,0,0,1,1,0,0]","location_rts":"[344,346,648,367,583,342,536]","trial_type":"fractal-mutation","trial_index":175,"time_elapsed":3031126,"internal_node_id":"0.0-5.0-71.0"},{"group":"hexagon_bi","fractal_assignment":["../images/ylw_slt.png","../images/pnk_blu.png","../images/cyn_red.png","../images/blu_wht.png","../images/gry_blk.png","../images/org_blu.png"],"mutagen_generator_assignment":[0,1],"goal":0,"start":5,"action_noise":0.2,"location_history":"[5,0]","action_history":"[1]","mutagen_history":"[1]","location_rts":"[341]","trial_type":"fractal-mutation","trial_index":176,"time_elapsed":3036003,"internal_node_id":"0.0-5.0-72.0"},{"group":"hexagon_bi","fractal_assignment":["../images/ylw_slt.png","../images/pnk_blu.png","../images/cyn_red.png","../images/blu_wht.png","../images/gry_blk.png","../images/org_blu.png"],"mutagen_generator_assignment":[0,1],"goal":3,"start":0,"action_noise":0.2,"location_history":"[0,1,2,1,0,5,4,3]","action_history":"[1,0,0,1,0,1,1]","mutagen_history":"[1,0,0,1,0,1,1]","location_rts":"[559,564,729,562,480,372,470]","trial_type":"fractal-mutation","trial_index":177,"time_elapsed":3050518,"internal_node_id":"0.0-5.0-73.0"},{"group":"hexagon_bi","fractal_assignment":["../images/ylw_slt.png","../images/pnk_blu.png","../images/cyn_red.png","../images/blu_wht.png","../images/gry_blk.png","../images/org_blu.png"],"mutagen_generator_assignment":[0,1],"goal":1,"start":3,"action_noise":0.2,"location_history":"[3,2,1]","action_history":"[1,0]","mutagen_history":"[1,0]","location_rts":"[627,468]","trial_type":"fractal-mutation","trial_index":178,"time_elapsed":3057174,"internal_node_id":"0.0-5.0-74.0"},{"group":"hexagon_bi","fractal_assignment":["../images/ylw_slt.png","../images/pnk_blu.png","../images/cyn_red.png","../images/blu_wht.png","../images/gry_blk.png","../images/org_blu.png"],"mutagen_generator_assignment":[0,1],"goal":2,"start":1,"action_noise":0.2,"location_history":"[1,0,1,0,1,0,5,4,3,2]","action_history":"[1,0,0,1,1,0,1,0,1]","mutagen_history":"[1,0,0,1,1,0,1,0,1]","location_rts":"[446,370,494,168,445,356,911,293,875]","trial_type":"fractal-mutation","trial_index":179,"time_elapsed":3074407,"internal_node_id":"0.0-5.0-75.0"},{"group":"hexagon_bi","fractal_assignment":["../images/ylw_slt.png","../images/pnk_blu.png","../images/cyn_red.png","../images/blu_wht.png","../images/gry_blk.png","../images/org_blu.png"],"mutagen_generator_assignment":[0,1],"goal":4,"start":2,"action_noise":0.2,"location_history":"[2,3,4]","action_history":"[1,0]","mutagen_history":"[1,0]","location_rts":"[466,565]","trial_type":"fractal-mutation","trial_index":180,"time_elapsed":3081110,"internal_node_id":"0.0-5.0-76.0"},{"group":"hexagon_bi","fractal_assignment":["../images/ylw_slt.png","../images/pnk_blu.png","../images/cyn_red.png","../images/blu_wht.png","../images/gry_blk.png","../images/org_blu.png"],"mutagen_generator_assignment":[0,1],"goal":3,"start":4,"action_noise":0.2,"location_history":"[4,5,0,1,2,3]","action_history":"[1,0,1,0,1]","mutagen_history":"[1,0,1,0,1]","location_rts":"[339,435,407,614,454]","trial_type":"fractal-mutation","trial_index":181,"time_elapsed":3091998,"internal_node_id":"0.0-5.0-77.0"},{"group":"hexagon_bi","fractal_assignment":["../images/ylw_slt.png","../images/pnk_blu.png","../images/cyn_red.png","../images/blu_wht.png","../images/gry_blk.png","../images/org_blu.png"],"mutagen_generator_assignment":[0,1],"goal":0,"start":3,"action_noise":0.2,"location_history":"[3,2,1,2,1,0]","action_history":"[1,0,1,0,1]","mutagen_history":"[1,0,1,0,1]","location_rts":"[438,326,526,384,444]","trial_type":"fractal-mutation","trial_index":182,"time_elapsed":3102785,"internal_node_id":"0.0-5.0-78.0"},{"group":"hexagon_bi","fractal_assignment":["../images/ylw_slt.png","../images/pnk_blu.png","../images/cyn_red.png","../images/blu_wht.png","../images/gry_blk.png","../images/org_blu.png"],"mutagen_generator_assignment":[0,1],"goal":4,"start":0,"action_noise":0.2,"location_history":"[0,5,0,5,0,1,2,3,2,1,0,5,0,1,0,5,4]","action_history":"[1,0,1,0,1,0,1,1,0,1,0,1,1,0,0,1]","mutagen_history":"[1,0,1,0,1,0,1,1,0,1,0,1,1,0,0,1]","location_rts":"[401,542,476,401,878,515,502,503,440,510,477,564,674,456,1558,356]","trial_type":"fractal-mutation","trial_index":183,"time_elapsed":3132166,"internal_node_id":"0.0-5.0-79.0"},{"group":"hexagon_bi","fractal_assignment":["../images/ylw_slt.png","../images/pnk_blu.png","../images/cyn_red.png","../images/blu_wht.png","../images/gry_blk.png","../images/org_blu.png"],"mutagen_generator_assignment":[0,1],"goal":5,"start":4,"action_noise":0.2,"location_history":"[4,5]","action_history":"[1]","mutagen_history":"[1]","location_rts":"[891]","trial_type":"fractal-mutation","trial_index":184,"time_elapsed":3137593,"internal_node_id":"0.0-5.0-80.0"},{"group":"hexagon_bi","fractal_assignment":["../images/ylw_slt.png","../images/pnk_blu.png","../images/cyn_red.png","../images/blu_wht.png","../images/gry_blk.png","../images/org_blu.png"],"mutagen_generator_assignment":[0,1],"goal":1,"start":5,"action_noise":0.2,"location_history":"[5,0,5,4,5,4,3,2,3,4,5,4,5,0,5,4,5,0,5,4,5,0,1]","action_history":"[1,0,1,0,1,0,1,1,0,1,0,1,0,0,1,1,0,1,1,0,0,1]","mutagen_history":"[1,0,1,0,1,0,1,1,0,1,0,1,0,0,1,1,0,1,1,0,0,1]","location_rts":"[631,354,407,1108,514,1921,653,588,666,417,796,540,553,433,373,482,401,376,919,302,874,381]","trial_type":"fractal-mutation","trial_index":185,"time_elapsed":3177720,"internal_node_id":"0.0-5.0-81.0"},{"group":"hexagon_bi","fractal_assignment":["../images/ylw_slt.png","../images/pnk_blu.png","../images/cyn_red.png","../images/blu_wht.png","../images/gry_blk.png","../images/org_blu.png"],"mutagen_generator_assignment":[0,1],"goal":2,"start":1,"action_noise":0.2,"location_history":"[1,0,1,2]","action_history":"[1,0,1]","mutagen_history":"[1,0,1]","location_rts":"[521,386,400]","trial_type":"fractal-mutation","trial_index":186,"time_elapsed":3185669,"internal_node_id":"0.0-5.0-82.0"},{"group":"hexagon_bi","fractal_assignment":["../images/ylw_slt.png","../images/pnk_blu.png","../images/cyn_red.png","../images/blu_wht.png","../images/gry_blk.png","../images/org_blu.png"],"mutagen_generator_assignment":[0,1],"goal":4,"start":2,"action_noise":0.2,"location_history":"[2,3,4]","action_history":"[1,0]","mutagen_history":"[1,0]","location_rts":"[685,431]","trial_type":"fractal-mutation","trial_index":187,"time_elapsed":3192347,"internal_node_id":"0.0-5.0-83.0"},{"group":"hexagon_bi","fractal_assignment":["../images/ylw_slt.png","../images/pnk_blu.png","../images/cyn_red.png","../images/blu_wht.png","../images/gry_blk.png","../images/org_blu.png"],"mutagen_generator_assignment":[0,1],"goal":0,"start":4,"action_noise":0.2,"location_history":"[4,5,0]","action_history":"[1,0]","mutagen_history":"[1,0]","location_rts":"[440,397]","trial_type":"fractal-mutation","trial_index":188,"time_elapsed":3198749,"internal_node_id":"0.0-5.0-84.0"},{"group":"hexagon_bi","fractal_assignment":["../images/ylw_slt.png","../images/pnk_blu.png","../images/cyn_red.png","../images/blu_wht.png","../images/gry_blk.png","../images/org_blu.png"],"mutagen_generator_assignment":[0,1],"goal":5,"start":0,"action_noise":0.2,"location_history":"[0,1,2,3,4,5]","action_history":"[1,0,1,0,1]","mutagen_history":"[1,0,1,0,1]","location_rts":"[454,494,829,359,445]","trial_type":"fractal-mutation","trial_index":189,"time_elapsed":3210024,"internal_node_id":"0.0-5.0-85.0"},{"group":"hexagon_bi","fractal_assignment":["../images/ylw_slt.png","../images/pnk_blu.png","../images/cyn_red.png","../images/blu_wht.png","../images/gry_blk.png","../images/org_blu.png"],"mutagen_generator_assignment":[0,1],"goal":3,"start":5,"action_noise":0.2,"location_history":"[5,4,3]","action_history":"[1,0]","mutagen_history":"[1,0]","location_rts":"[546,334]","trial_type":"fractal-mutation","trial_index":190,"time_elapsed":3216466,"internal_node_id":"0.0-5.0-86.0"},{"group":"hexagon_bi","fractal_assignment":["../images/ylw_slt.png","../images/pnk_blu.png","../images/cyn_red.png","../images/blu_wht.png","../images/gry_blk.png","../images/org_blu.png"],"mutagen_generator_assignment":[0,1],"goal":1,"start":3,"action_noise":0.2,"location_history":"[3,2,1]","action_history":"[1,0]","mutagen_history":"[1,0]","location_rts":"[480,496]","trial_type":"fractal-mutation","trial_index":191,"time_elapsed":3223003,"internal_node_id":"0.0-5.0-87.0"},{"group":"hexagon_bi","fractal_assignment":["../images/ylw_slt.png","../images/pnk_blu.png","../images/cyn_red.png","../images/blu_wht.png","../images/gry_blk.png","../images/org_blu.png"],"mutagen_generator_assignment":[0,1],"goal":2,"start":1,"action_noise":0.2,"location_history":"[1,0,5,0,5,0,5,4,3,2]","action_history":"[1,0,1,0,0,1,1,0,1]","mutagen_history":"[1,0,1,0,0,1,1,0,1]","location_rts":"[662,641,641,463,73635,1112,521,367,429]","trial_type":"fractal-mutation","trial_index":192,"time_elapsed":3314254,"internal_node_id":"0.0-5.0-88.0"},{"group":"hexagon_bi","fractal_assignment":["../images/ylw_slt.png","../images/pnk_blu.png","../images/cyn_red.png","../images/blu_wht.png","../images/gry_blk.png","../images/org_blu.png"],"mutagen_generator_assignment":[0,1],"goal":0,"start":2,"action_noise":0.2,"location_history":"[2,1,0]","action_history":"[0,1]","mutagen_history":"[0,1]","location_rts":"[507,478]","trial_type":"fractal-mutation","trial_index":193,"time_elapsed":3320904,"internal_node_id":"0.0-5.0-89.0"},{"group":"hexagon_bi","fractal_assignment":["../images/ylw_slt.png","../images/pnk_blu.png","../images/cyn_red.png","../images/blu_wht.png","../images/gry_blk.png","../images/org_blu.png"],"mutagen_generator_assignment":[0,1],"goal":5,"start":0,"action_noise":0.2,"location_history":"[0,5]","action_history":"[0]","mutagen_history":"[0]","location_rts":"[425]","trial_type":"fractal-mutation","trial_index":194,"time_elapsed":3325860,"internal_node_id":"0.0-5.0-90.0"},{"group":"hexagon_bi","fractal_assignment":["../images/ylw_slt.png","../images/pnk_blu.png","../images/cyn_red.png","../images/blu_wht.png","../images/gry_blk.png","../images/org_blu.png"],"mutagen_generator_assignment":[0,1],"goal":1,"start":5,"action_noise":0.2,"location_history":"[5,4,5,0,5,4,3,2,1]","action_history":"[0,1,1,0,1,0,1,0]","mutagen_history":"[0,1,1,0,1,0,1,0]","location_rts":"[304,308,513,341,368,588,578,612]","trial_type":"fractal-mutation","trial_index":195,"time_elapsed":3341279,"internal_node_id":"0.0-5.0-91.0"},{"group":"hexagon_bi","fractal_assignment":["../images/ylw_slt.png","../images/pnk_blu.png","../images/cyn_red.png","../images/blu_wht.png","../images/gry_blk.png","../images/org_blu.png"],"mutagen_generator_assignment":[0,1],"goal":3,"start":1,"action_noise":0.2,"location_history":"[1,0,1,0,5,4,3]","action_history":"[1,0,1,0,1,0]","mutagen_history":"[1,0,1,0,1,0]","location_rts":"[483,424,611,431,613,763]","trial_type":"fractal-mutation","trial_index":196,"time_elapsed":3354439,"internal_node_id":"0.0-5.0-92.0"},{"group":"hexagon_bi","fractal_assignment":["../images/ylw_slt.png","../images/pnk_blu.png","../images/cyn_red.png","../images/blu_wht.png","../images/gry_blk.png","../images/org_blu.png"],"mutagen_generator_assignment":[0,1],"goal":4,"start":3,"action_noise":0.2,"location_history":"[3,4]","action_history":"[0]","mutagen_history":"[0]","location_rts":"[652]","trial_type":"fractal-mutation","trial_index":197,"time_elapsed":3359656,"internal_node_id":"0.0-5.0-93.0"},{"group":"hexagon_bi","fractal_assignment":["../images/ylw_slt.png","../images/pnk_blu.png","../images/cyn_red.png","../images/blu_wht.png","../images/gry_blk.png","../images/org_blu.png"],"mutagen_generator_assignment":[0,1],"goal":2,"start":4,"action_noise":0.2,"location_history":"[4,3,4,5,0,1,2]","action_history":"[1,0,1,0,1,0]","mutagen_history":"[1,0,1,0,1,0]","location_rts":"[698,699,676,512,718,439]","trial_type":"fractal-mutation","trial_index":198,"time_elapsed":3373207,"internal_node_id":"0.0-5.0-94.0"},{"group":"hexagon_bi","fractal_assignment":["../images/ylw_slt.png","../images/pnk_blu.png","../images/cyn_red.png","../images/blu_wht.png","../images/gry_blk.png","../images/org_blu.png"],"mutagen_generator_assignment":[0,1],"goal":4,"start":2,"action_noise":0.2,"location_history":"[2,3,4]","action_history":"[1,0]","mutagen_history":"[1,0]","location_rts":"[506,349]","trial_type":"fractal-mutation","trial_index":199,"time_elapsed":3379696,"internal_node_id":"0.0-5.0-95.0"},{"group":"hexagon_bi","fractal_assignment":["../images/ylw_slt.png","../images/pnk_blu.png","../images/cyn_red.png","../images/blu_wht.png","../images/gry_blk.png","../images/org_blu.png"],"mutagen_generator_assignment":[0,1],"goal":0,"start":4,"action_noise":0.2,"location_history":"[4,3,4,3,4,5,0]","action_history":"[1,0,1,0,1,0]","mutagen_history":"[1,0,1,0,1,0]","location_rts":"[612,381,720,421,414,343]","trial_type":"fractal-mutation","trial_index":200,"time_elapsed":3392302,"internal_node_id":"0.0-5.0-96.0"},{"group":"hexagon_bi","fractal_assignment":["../images/ylw_slt.png","../images/pnk_blu.png","../images/cyn_red.png","../images/blu_wht.png","../images/gry_blk.png","../images/org_blu.png"],"mutagen_generator_assignment":[0,1],"goal":5,"start":0,"action_noise":0.2,"location_history":"[0,5]","action_history":"[1]","mutagen_history":"[1]","location_rts":"[461]","trial_type":"fractal-mutation","trial_index":201,"time_elapsed":3397300,"internal_node_id":"0.0-5.0-97.0"},{"group":"hexagon_bi","fractal_assignment":["../images/ylw_slt.png","../images/pnk_blu.png","../images/cyn_red.png","../images/blu_wht.png","../images/gry_blk.png","../images/org_blu.png"],"mutagen_generator_assignment":[0,1],"goal":1,"start":5,"action_noise":0.2,"location_history":"[5,4,3,2,1]","action_history":"[1,0,1,0]","mutagen_history":"[1,0,1,0]","location_rts":"[390,518,543,514]","trial_type":"fractal-mutation","trial_index":202,"time_elapsed":3406874,"internal_node_id":"0.0-5.0-98.0"},{"group":"hexagon_bi","fractal_assignment":["../images/ylw_slt.png","../images/pnk_blu.png","../images/cyn_red.png","../images/blu_wht.png","../images/gry_blk.png","../images/org_blu.png"],"mutagen_generator_assignment":[0,1],"goal":3,"start":1,"action_noise":0.2,"location_history":"[1,0,5,0,1,0,1,0,5,4,5,0,5,4,5,0,1,0,1,2,3]","action_history":"[1,0,1,0,1,0,1,0,1,1,0,0,1,1,0,1,0,1,0,1]","mutagen_history":"[1,0,1,0,1,0,1,0,1,1,0,0,1,1,0,1,0,1,0,1]","location_rts":"[407,528,619,428,525,384,580,660,597,1555,439,496,265,562,378,957,724,1711,607,688]","trial_type":"fractal-mutation","trial_index":203,"time_elapsed":3444367,"internal_node_id":"0.0-5.0-99.0"},{"view_history":"[{\"page_index\":0,\"viewing_time\":32253}]","rt":32253,"trial_type":"instructions","trial_index":204,"time_elapsed":3477620,"internal_node_id":"0.0-6.0"},{"rt":7292,"responses":"{\"Q0\":\"Thanks\"}","trial_type":"survey-text","trial_index":205,"time_elapsed":3485917,"internal_node_id":"0.0-7.0"}]