[{"view_history":"[{\"page_index\":0,\"viewing_time\":11881},{\"page_index\":1,\"viewing_time\":12970},{\"page_index\":2,\"viewing_time\":19856},{\"page_index\":3,\"viewing_time\":7632}]","rt":52339,"trial_type":"instructions","trial_index":0,"time_elapsed":52340,"internal_node_id":"0.0-0.0"},{"view_history":"[{\"page_index\":0,\"viewing_time\":12678},{\"page_index\":1,\"viewing_time\":25071}]","rt":37749,"trial_type":"instructions","trial_index":1,"time_elapsed":91089,"internal_node_id":"0.0-1.0"},{"group":"hexagon_bi","room_assignment":["grey","red","blue","green","yellow","purple"],"door_color_assignment":["black","white"],"door_generator_assignment":[0,1],"goal":4,"start":0,"action_noise":0.2,"location_history":"[0,1,2,3,4]","action_history":"[1,1,1,1]","door_history":"[1,1,1,1]","location_rts":"[5368,3024,1922,3009]","trial_type":"two-door-navigation","trial_index":2,"time_elapsed":111936,"internal_node_id":"0.0-2.0-0.0"},{"group":"hexagon_bi","room_assignment":["grey","red","blue","green","yellow","purple"],"door_color_assignment":["black","white"],"door_generator_assignment":[0,1],"goal":3,"start":4,"action_noise":0.2,"location_history":"[4,3]","action_history":"[1]","door_history":"[1]","location_rts":"[2672]","trial_type":"two-door-navigation","trial_index":3,"time_elapsed":119109,"internal_node_id":"0.0-2.0-1.0"},{"group":"hexagon_bi","room_assignment":["grey","red","blue","green","yellow","purple"],"door_color_assignment":["black","white"],"door_generator_assignment":[0,1],"goal":5,"start":3,"action_noise":0.2,"location_history":"[3,4,5]","action_history":"[0,1]","door_history":"[0,1]","location_rts":"[2011,4820]","trial_type":"two-door-navigation","trial_index":4,"time_elapsed":131461,"internal_node_id":"0.0-2.0-2.0"},{"group":"hexagon_bi","room_assignment":["grey","red","blue","green","yellow","purple"],"door_color_assignment":["black","white"],"door_generator_assignment":[0,1],"goal":2,"start":5,"action_noise":0.2,"location_history":"[5,0,5,4,3,4,5,4,5,0,1,2]","action_history":"[0,0,1,0,1,1,1,1,0,0,0]","door_history":"[0,0,1,0,1,1,1,1,0,0,0]","location_rts":"[3594,823,1551,1269,1279,1258,1534,1063,738,1637,799]","trial_type":"two-door-navigation","trial_index":5,"time_elapsed":161552,"internal_node_id":"0.0-2.0-3.0"},{"group":"hexagon_bi","room_assignment":["grey","red","blue","green","yellow","purple"],"door_color_assignment":["black","white"],"door_generator_assignment":[0,1],"goal":1,"start":2,"action_noise":0.2,"location_history":"[2,3,2,1]","action_history":"[1,1,0]","door_history":"[1,1,0]","location_rts":"[3598,639,783]","trial_type":"two-door-navigation","trial_index":6,"time_elapsed":173088,"internal_node_id":"0.0-2.0-4.0"},{"group":"hexagon_bi","room_assignment":["grey","red","blue","green","yellow","purple"],"door_color_assignment":["black","white"],"door_generator_assignment":[0,1],"goal":4,"start":1,"action_noise":0.2,"location_history":"[1,2,1,0,1,2,3,4]","action_history":"[1,0,0,1,0,0,0]","door_history":"[1,0,0,1,0,0,0]","location_rts":"[5514,1568,1119,1872,2505,622,669]","trial_type":"two-door-navigation","trial_index":7,"time_elapsed":197494,"internal_node_id":"0.0-2.0-5.0"},{"group":"hexagon_bi","room_assignment":["grey","red","blue","green","yellow","purple"],"door_color_assignment":["black","white"],"door_generator_assignment":[0,1],"goal":1,"start":4,"action_noise":0.2,"location_history":"[4,3,2,3,4,5,4,3,2,1]","action_history":"[0,1,1,1,1,1,0,0,0]","door_history":"[0,1,1,1,1,1,0,0,0]","location_rts":"[4355,988,891,848,636,677,955,1011,677]","trial_type":"two-door-navigation","trial_index":8,"time_elapsed":221063,"internal_node_id":"0.0-2.0-6.0"},{"group":"hexagon_bi","room_assignment":["grey","red","blue","green","yellow","purple"],"door_color_assignment":["black","white"],"door_generator_assignment":[0,1],"goal":5,"start":1,"action_noise":0.2,"location_history":"[1,2,1,2,1,2,3,4,5]","action_history":"[1,0,0,0,0,1,1,1]","door_history":"[1,0,0,0,0,1,1,1]","location_rts":"[4055,1015,1015,617,621,1449,1197,388]","trial_type":"two-door-navigation","trial_index":9,"time_elapsed":242955,"internal_node_id":"0.0-2.0-7.0"},{"group":"hexagon_bi","room_assignment":["grey","red","blue","green","yellow","purple"],"door_color_assignment":["black","white"],"door_generator_assignment":[0,1],"goal":0,"start":5,"action_noise":0.2,"location_history":"[5,0]","action_history":"[0]","door_history":"[0]","location_rts":"[5961]","trial_type":"two-door-navigation","trial_index":10,"time_elapsed":253425,"internal_node_id":"0.0-2.0-8.0"},{"group":"hexagon_bi","room_assignment":["grey","red","blue","green","yellow","purple"],"door_color_assignment":["black","white"],"door_generator_assignment":[0,1],"goal":2,"start":0,"action_noise":0.2,"location_history":"[0,1,0,5,0,1,2]","action_history":"[1,1,1,1,0,1]","door_history":"[1,1,1,1,0,1]","location_rts":"[3635,709,686,1600,543,979]","trial_type":"two-door-navigation","trial_index":11,"time_elapsed":271089,"internal_node_id":"0.0-2.0-9.0"},{"group":"hexagon_bi","room_assignment":["grey","red","blue","green","yellow","purple"],"door_color_assignment":["black","white"],"door_generator_assignment":[0,1],"goal":3,"start":2,"action_noise":0.2,"location_history":"[2,1,0,1,0,1,2,1,0,1,0,5,4,3]","action_history":"[0,1,1,1,1,0,0,0,0,1,0,1,1]","door_history":"[0,1,1,1,1,0,0,0,0,1,0,1,1]","location_rts":"[3245,1413,398,321,666,1221,1500,680,613,1381,820,983,597]","trial_type":"two-door-navigation","trial_index":12,"time_elapsed":301468,"internal_node_id":"0.0-2.0-10.0"},{"group":"hexagon_bi","room_assignment":["grey","red","blue","green","yellow","purple"],"door_color_assignment":["black","white"],"door_generator_assignment":[0,1],"goal":0,"start":3,"action_noise":0.2,"location_history":"[3,4,3,4,3,4,5,4,3,2,1,0]","action_history":"[0,0,0,0,0,1,1,0,1,0,1]","door_history":"[0,0,0,0,0,1,1,0,1,0,1]","location_rts":"[4091,1766,989,606,1378,253,866,647,933,1465,1125]","trial_type":"two-door-navigation","trial_index":13,"time_elapsed":330144,"internal_node_id":"0.0-2.0-11.0"},{"group":"hexagon_bi","room_assignment":["grey","red","blue","green","yellow","purple"],"door_color_assignment":["black","white"],"door_generator_assignment":[0,1],"goal":2,"start":0,"action_noise":0.2,"location_history":"[0,1,0,5,4,5,0,5,0,5,0,1,2]","action_history":"[1,1,0,1,0,0,0,0,0,1,1,1]","door_history":"[1,1,0,1,0,0,0,0,0,1,1,1]","location_rts":"[4162,2115,793,860,998,505,456,544,1264,424,595,648]","trial_type":"two-door-navigation","trial_index":14,"time_elapsed":359055,"internal_node_id":"0.0-2.0-12.0"},{"group":"hexagon_bi","room_assignment":["grey","red","blue","green","yellow","purple"],"door_color_assignment":["black","white"],"door_generator_assignment":[0,1],"goal":5,"start":2,"action_noise":0.2,"location_history":"[2,1,0,1,0,5]","action_history":"[0,1,1,0,0]","door_history":"[0,1,1,0,0]","location_rts":"[3413,1233,419,1184,773]","trial_type":"two-door-navigation","trial_index":15,"time_elapsed":374598,"internal_node_id":"0.0-2.0-13.0"},{"group":"hexagon_bi","room_assignment":["grey","red","blue","green","yellow","purple"],"door_color_assignment":["black","white"],"door_generator_assignment":[0,1],"goal":4,"start":5,"action_noise":0.2,"location_history":"[5,0,1,2,3,4]","action_history":"[0,0,1,1,1]","door_history":"[0,0,1,1,1]","location_rts":"[2691,1262,1212,723,622]","trial_type":"two-door-navigation","trial_index":16,"time_elapsed":389626,"internal_node_id":"0.0-2.0-14.0"},{"group":"hexagon_bi","room_assignment":["grey","red","blue","green","yellow","purple"],"door_color_assignment":["black","white"],"door_generator_assignment":[0,1],"goal":3,"start":4,"action_noise":0.2,"location_history":"[4,5,0,1,0,5,0,5,4,5,4,5,4,3]","action_history":"[1,0,1,1,0,0,0,1,1,1,1,1,0]","door_history":"[1,0,1,1,0,0,0,1,1,1,1,1,0]","location_rts":"[7700,1782,1467,655,1400,418,790,1296,1076,3183,1567,1191,491]","trial_type":"two-door-navigation","trial_index":17,"time_elapsed":429179,"internal_node_id":"0.0-2.0-15.0"},{"group":"hexagon_bi","room_assignment":["grey","red","blue","green","yellow","purple"],"door_color_assignment":["black","white"],"door_generator_assignment":[0,1],"goal":1,"start":3,"action_noise":0.2,"location_history":"[3,2,3,4,3,4,5,0,5,0,1]","action_history":"[1,1,0,0,1,0,0,1,1,1]","door_history":"[1,1,0,0,1,0,0,1,1,1]","location_rts":"[9228,1140,885,2398,1228,652,1022,930,471,687]","trial_type":"two-door-navigation","trial_index":18,"time_elapsed":461370,"internal_node_id":"0.0-2.0-16.0"},{"group":"hexagon_bi","room_assignment":["grey","red","blue","green","yellow","purple"],"door_color_assignment":["black","white"],"door_generator_assignment":[0,1],"goal":5,"start":1,"action_noise":0.2,"location_history":"[1,2,3,4,3,2,1,0,1,0,1,2,1,0,1,2,1,0,1,0,5]","action_history":"[0,1,0,0,1,1,1,1,1,0,0,0,1,0,1,0,1,1,1,1]","door_history":"[0,1,0,0,1,1,1,1,1,0,0,0,1,0,1,0,1,1,1,1]","location_rts":"[7722,1109,1321,1144,766,392,463,622,1075,501,583,516,1252,939,1196,958,3446,2316,1071,1380]","trial_type":"two-door-navigation","trial_index":19,"time_elapsed":513714,"internal_node_id":"0.0-2.0-17.0"},{"group":"hexagon_bi","room_assignment":["grey","red","blue","green","yellow","purple"],"door_color_assignment":["black","white"],"door_generator_assignment":[0,1],"goal":4,"start":5,"action_noise":0.2,"location_history":"[5,0,1,2,1,2,1,2,3,2,3,4]","action_history":"[0,1,1,0,0,0,1,1,1,1,0]","door_history":"[0,1,1,0,0,0,1,1,1,1,0]","location_rts":"[3587,1767,1147,703,1078,606,712,525,1357,1869,1111]","trial_type":"two-door-navigation","trial_index":20,"time_elapsed":542704,"internal_node_id":"0.0-2.0-18.0"},{"group":"hexagon_bi","room_assignment":["grey","red","blue","green","yellow","purple"],"door_color_assignment":["black","white"],"door_generator_assignment":[0,1],"goal":0,"start":4,"action_noise":0.2,"location_history":"[4,3,4,3,4,3,4,5,0]","action_history":"[0,1,0,0,0,0,1,0]","door_history":"[0,1,0,0,0,0,1,0]","location_rts":"[3161,744,1096,255,794,1536,232,1227]","trial_type":"two-door-navigation","trial_index":21,"time_elapsed":563272,"internal_node_id":"0.0-2.0-19.0"},{"group":"hexagon_bi","room_assignment":["grey","red","blue","green","yellow","purple"],"door_color_assignment":["black","white"],"door_generator_assignment":[0,1],"goal":1,"start":0,"action_noise":0.2,"location_history":"[0,1]","action_history":"[1]","door_history":"[1]","location_rts":"[5259]","trial_type":"two-door-navigation","trial_index":22,"time_elapsed":573034,"internal_node_id":"0.0-2.0-20.0"},{"group":"hexagon_bi","room_assignment":["grey","red","blue","green","yellow","purple"],"door_color_assignment":["black","white"],"door_generator_assignment":[0,1],"goal":3,"start":1,"action_noise":0.2,"location_history":"[1,2,3]","action_history":"[0,1]","door_history":"[0,1]","location_rts":"[5208,1838]","trial_type":"two-door-navigation","trial_index":23,"time_elapsed":585586,"internal_node_id":"0.0-2.0-21.0"},{"group":"hexagon_bi","room_assignment":["grey","red","blue","green","yellow","purple"],"door_color_assignment":["black","white"],"door_generator_assignment":[0,1],"goal":2,"start":3,"action_noise":0.2,"location_history":"[3,2]","action_history":"[0]","door_history":"[0]","location_rts":"[4173]","trial_type":"two-door-navigation","trial_index":24,"time_elapsed":594264,"internal_node_id":"0.0-2.0-22.0"},{"group":"hexagon_bi","room_assignment":["grey","red","blue","green","yellow","purple"],"door_color_assignment":["black","white"],"door_generator_assignment":[0,1],"goal":0,"start":2,"action_noise":0.2,"location_history":"[2,1,2,1,2,1,0]","action_history":"[1,0,0,0,1,1]","door_history":"[1,0,0,0,1,1]","location_rts":"[3280,1684,405,1044,910,695]","trial_type":"two-door-navigation","trial_index":25,"time_elapsed":611803,"internal_node_id":"0.0-2.0-23.0"},{"group":"hexagon_bi","room_assignment":["grey","red","blue","green","yellow","purple"],"door_color_assignment":["black","white"],"door_generator_assignment":[0,1],"goal":3,"start":0,"action_noise":0.2,"location_history":"[0,5,4,5,4,5,0,1,2,1,0,5,4,5,0,1,2,1,2,3]","action_history":"[0,1,1,0,0,0,1,1,1,1,0,1,0,1,1,0,0,0,1]","door_history":"[0,1,1,0,0,0,1,1,1,1,0,1,0,1,1,0,0,0,1]","location_rts":"[8182,1217,811,1558,2079,518,865,471,636,1054,3388,809,1110,1599,623,637,1095,781,591]","trial_type":"two-door-navigation","trial_index":26,"time_elapsed":662416,"internal_node_id":"0.0-2.0-24.0"},{"group":"hexagon_bi","room_assignment":["grey","red","blue","green","yellow","purple"],"door_color_assignment":["black","white"],"door_generator_assignment":[0,1],"goal":1,"start":3,"action_noise":0.2,"location_history":"[3,4,5,4,5,0,1]","action_history":"[0,1,1,1,0,1]","door_history":"[0,1,1,1,0,1]","location_rts":"[10247,2501,588,1997,662,1128]","trial_type":"two-door-navigation","trial_index":27,"time_elapsed":689057,"internal_node_id":"0.0-2.0-25.0"},{"group":"hexagon_bi","room_assignment":["grey","red","blue","green","yellow","purple"],"door_color_assignment":["black","white"],"door_generator_assignment":[0,1],"goal":2,"start":1,"action_noise":0.2,"location_history":"[1,0,5,0,1,2]","action_history":"[1,0,0,1,1]","door_history":"[1,0,0,1,1]","location_rts":"[7846,973,1213,1504,733]","trial_type":"two-door-navigation","trial_index":28,"time_elapsed":709845,"internal_node_id":"0.0-2.0-26.0"},{"group":"hexagon_bi","room_assignment":["grey","red","blue","green","yellow","purple"],"door_color_assignment":["black","white"],"door_generator_assignment":[0,1],"goal":5,"start":2,"action_noise":0.2,"location_history":"[2,1,0,1,2,1,2,3,4,3,2,3,2,3,4,3,2,1,2,3,4,3,4,3,2,1,0,1,0,1,0,1,0,5]","action_history":"[0,1,1,0,0,0,1,0,0,1,1,1,1,0,0,1,0,0,0,1,0,1,0,0,0,0,1,0,1,1,1,0,0]","door_history":"[0,1,1,0,0,0,1,0,0,1,1,1,1,0,0,1,0,0,0,1,0,1,0,0,0,0,1,0,1,1,1,0,0]","location_rts":"[4160,2138,1485,1238,332,865,892,1253,2144,1012,798,2231,1443,912,420,560,1286,572,635,1160,1801,964,5697,851,1038,680,938,1664,1071,490,506,736,564]","trial_type":"two-door-navigation","trial_index":29,"time_elapsed":789023,"internal_node_id":"0.0-2.0-27.0"},{"group":"hexagon_bi","room_assignment":["grey","red","blue","green","yellow","purple"],"door_color_assignment":["black","white"],"door_generator_assignment":[0,1],"goal":4,"start":5,"action_noise":0.2,"location_history":"[5,4]","action_history":"[1]","door_history":"[1]","location_rts":"[4197]","trial_type":"two-door-navigation","trial_index":30,"time_elapsed":797722,"internal_node_id":"0.0-2.0-28.0"},{"group":"hexagon_bi","room_assignment":["grey","red","blue","green","yellow","purple"],"door_color_assignment":["black","white"],"door_generator_assignment":[0,1],"goal":5,"start":4,"action_noise":0.2,"location_history":"[4,3,2,1,2,1,2,1,0,5]","action_history":"[0,1,0,1,0,0,0,1,1]","door_history":"[0,1,0,1,0,0,0,1,1]","location_rts":"[2075,2267,989,1235,1543,559,824,561,709]","trial_type":"two-door-navigation","trial_index":31,"time_elapsed":821038,"internal_node_id":"0.0-2.0-29.0"},{"group":"hexagon_bi","room_assignment":["grey","red","blue","green","yellow","purple"],"door_color_assignment":["black","white"],"door_generator_assignment":[0,1],"goal":3,"start":5,"action_noise":0.2,"location_history":"[5,4,3]","action_history":"[1,1]","door_history":"[1,1]","location_rts":"[3123,1018]","trial_type":"two-door-navigation","trial_index":32,"time_elapsed":830689,"internal_node_id":"0.0-2.0-30.0"},{"group":"hexagon_bi","room_assignment":["grey","red","blue","green","yellow","purple"],"door_color_assignment":["black","white"],"door_generator_assignment":[0,1],"goal":0,"start":3,"action_noise":0.2,"location_history":"[3,4,3,4,5,0]","action_history":"[0,0,0,1,0]","door_history":"[0,0,0,1,0]","location_rts":"[3450,2782,1350,735,1999]","trial_type":"two-door-navigation","trial_index":33,"time_elapsed":849521,"internal_node_id":"0.0-2.0-31.0"},{"group":"hexagon_bi","room_assignment":["grey","red","blue","green","yellow","purple"],"door_color_assignment":["black","white"],"door_generator_assignment":[0,1],"goal":4,"start":0,"action_noise":0.2,"location_history":"[0,5,4]","action_history":"[1,0]","door_history":"[1,0]","location_rts":"[3233,975]","trial_type":"two-door-navigation","trial_index":34,"time_elapsed":859235,"internal_node_id":"0.0-2.0-32.0"},{"group":"hexagon_bi","room_assignment":["grey","red","blue","green","yellow","purple"],"door_color_assignment":["black","white"],"door_generator_assignment":[0,1],"goal":1,"start":4,"action_noise":0.2,"location_history":"[4,5,4,5,0,1]","action_history":"[1,1,1,0,1]","door_history":"[1,1,1,0,1]","location_rts":"[3014,823,1862,291,1445]","trial_type":"two-door-navigation","trial_index":35,"time_elapsed":875226,"internal_node_id":"0.0-2.0-33.0"},{"group":"hexagon_bi","room_assignment":["grey","red","blue","green","yellow","purple"],"door_color_assignment":["black","white"],"door_generator_assignment":[0,1],"goal":2,"start":1,"action_noise":0.2,"location_history":"[1,0,1,2]","action_history":"[0,1,0]","door_history":"[0,1,0]","location_rts":"[3143,986,1122]","trial_type":"two-door-navigation","trial_index":36,"time_elapsed":886992,"internal_node_id":"0.0-2.0-34.0"},{"group":"hexagon_bi","room_assignment":["grey","red","blue","green","yellow","purple"],"door_color_assignment":["black","white"],"door_generator_assignment":[0,1],"goal":0,"start":2,"action_noise":0.2,"location_history":"[2,1,0]","action_history":"[0,1]","door_history":"[0,1]","location_rts":"[2697,858]","trial_type":"two-door-navigation","trial_index":37,"time_elapsed":896056,"internal_node_id":"0.0-2.0-35.0"},{"group":"hexagon_bi","room_assignment":["grey","red","blue","green","yellow","purple"],"door_color_assignment":["black","white"],"door_generator_assignment":[0,1],"goal":5,"start":0,"action_noise":0.2,"location_history":"[0,5]","action_history":"[0]","door_history":"[0]","location_rts":"[6808]","trial_type":"two-door-navigation","trial_index":38,"time_elapsed":907366,"internal_node_id":"0.0-2.0-36.0"},{"group":"hexagon_bi","room_assignment":["grey","red","blue","green","yellow","purple"],"door_color_assignment":["black","white"],"door_generator_assignment":[0,1],"goal":2,"start":5,"action_noise":0.2,"location_history":"[5,0,1,2]","action_history":"[0,1,0]","door_history":"[0,1,0]","location_rts":"[5602,666,842]","trial_type":"two-door-navigation","trial_index":39,"time_elapsed":921009,"internal_node_id":"0.0-2.0-37.0"},{"group":"hexagon_bi","room_assignment":["grey","red","blue","green","yellow","purple"],"door_color_assignment":["black","white"],"door_generator_assignment":[0,1],"goal":1,"start":2,"action_noise":0.2,"location_history":"[2,3,2,3,4,5,4,3,2,1]","action_history":"[0,1,1,0,0,0,0,1,0]","door_history":"[0,1,1,0,0,0,0,1,0]","location_rts":"[2558,891,5671,1160,867,1237,2273,553,1252]","trial_type":"two-door-navigation","trial_index":40,"time_elapsed":950000,"internal_node_id":"0.0-2.0-38.0"},{"group":"hexagon_bi","room_assignment":["grey","red","blue","green","yellow","purple"],"door_color_assignment":["black","white"],"door_generator_assignment":[0,1],"goal":4,"start":1,"action_noise":0.2,"location_history":"[1,2,1,2,1,0,5,0,1,2,1,2,3,4]","action_history":"[0,1,0,0,0,1,0,1,0,0,0,1,1]","door_history":"[0,1,0,0,0,1,0,1,0,0,0,1,1]","location_rts":"[7473,1091,731,324,549,1417,1517,2174,902,619,548,693,894]","trial_type":"two-door-navigation","trial_index":41,"time_elapsed":985492,"internal_node_id":"0.0-2.0-39.0"},{"group":"hexagon_bi","room_assignment":["grey","red","blue","green","yellow","purple"],"door_color_assignment":["black","white"],"door_generator_assignment":[0,1],"goal":3,"start":4,"action_noise":0.2,"location_history":"[4,5,0,1,0,1,2,1,2,3]","action_history":"[1,0,1,1,1,0,0,0,1]","door_history":"[1,0,1,1,1,0,0,0,1]","location_rts":"[1840,1902,857,663,1301,686,246,494,584]","trial_type":"two-door-navigation","trial_index":42,"time_elapsed":1006614,"internal_node_id":"0.0-2.0-40.0"},{"group":"hexagon_bi","room_assignment":["grey","red","blue","green","yellow","purple"],"door_color_assignment":["black","white"],"door_generator_assignment":[0,1],"goal":5,"start":3,"action_noise":0.2,"location_history":"[3,4,3,4,5]","action_history":"[0,0,1,1]","door_history":"[0,0,1,1]","location_rts":"[2343,2048,962,1503]","trial_type":"two-door-navigation","trial_index":43,"time_elapsed":1020977,"internal_node_id":"0.0-2.0-41.0"},{"group":"hexagon_bi","room_assignment":["grey","red","blue","green","yellow","purple"],"door_color_assignment":["black","white"],"door_generator_assignment":[0,1],"goal":3,"start":5,"action_noise":0.2,"location_history":"[5,4,3]","action_history":"[1,1]","door_history":"[1,1]","location_rts":"[3052,819]","trial_type":"two-door-navigation","trial_index":44,"time_elapsed":1030359,"internal_node_id":"0.0-2.0-42.0"},{"group":"hexagon_bi","room_assignment":["grey","red","blue","green","yellow","purple"],"door_color_assignment":["black","white"],"door_generator_assignment":[0,1],"goal":0,"start":3,"action_noise":0.2,"location_history":"[3,4,3,4,3,2,1,0]","action_history":"[0,0,1,1,1,0,1]","door_history":"[0,0,1,1,1,0,1]","location_rts":"[6965,1125,1672,966,657,1717,2110]","trial_type":"two-door-navigation","trial_index":45,"time_elapsed":1056100,"internal_node_id":"0.0-2.0-43.0"},{"group":"hexagon_bi","room_assignment":["grey","red","blue","green","yellow","purple"],"door_color_assignment":["black","white"],"door_generator_assignment":[0,1],"goal":2,"start":0,"action_noise":0.2,"location_history":"[0,5,4,5,4,5,0,5,0,1,0,1,2]","action_history":"[0,1,1,1,0,0,0,0,1,1,0,0]","door_history":"[0,1,1,1,0,0,0,0,1,1,0,0]","location_rts":"[6360,1421,773,1374,551,598,1377,916,422,726,1278,382]","trial_type":"two-door-navigation","trial_index":46,"time_elapsed":1087801,"internal_node_id":"0.0-2.0-44.0"},{"group":"hexagon_bi","room_assignment":["grey","red","blue","green","yellow","purple"],"door_color_assignment":["black","white"],"door_generator_assignment":[0,1],"goal":4,"start":2,"action_noise":0.2,"location_history":"[2,1,2,3,2,1,2,3,4]","action_history":"[0,0,1,1,0,0,1,0]","door_history":"[0,0,1,1,0,0,1,0]","location_rts":"[2900,1819,410,398,1069,1258,571,638]","trial_type":"two-door-navigation","trial_index":47,"time_elapsed":1108397,"internal_node_id":"0.0-2.0-45.0"},{"group":"hexagon_bi","room_assignment":["grey","red","blue","green","yellow","purple"],"door_color_assignment":["black","white"],"door_generator_assignment":[0,1],"goal":1,"start":4,"action_noise":0.2,"location_history":"[4,5,4,3,4,3,2,1]","action_history":"[0,1,1,0,0,0,1]","door_history":"[0,1,1,0,0,0,1]","location_rts":"[3681,772,870,890,1024,645,1014]","trial_type":"two-door-navigation","trial_index":48,"time_elapsed":1127840,"internal_node_id":"0.0-2.0-46.0"},{"group":"hexagon_bi","room_assignment":["grey","red","blue","green","yellow","purple"],"door_color_assignment":["black","white"],"door_generator_assignment":[0,1],"goal":4,"start":1,"action_noise":0.2,"location_history":"[1,2,1,2,3,2,1,0,5,0,5,0,1,0,1,2,3,4]","action_history":"[1,0,0,1,1,0,1,1,0,0,0,1,1,1,0,1,0]","door_history":"[1,0,0,1,1,0,1,1,0,0,0,1,1,1,0,1,0]","location_rts":"[5790,937,1074,1845,759,1076,790,615,1325,552,485,798,475,654,561,985,1071]","trial_type":"two-door-navigation","trial_index":49,"time_elapsed":1168229,"internal_node_id":"0.0-2.0-47.0"},{"group":"hexagon_bi","room_assignment":["grey","red","blue","green","yellow","purple"],"door_color_assignment":["black","white"],"door_generator_assignment":[0,1],"goal":1,"start":4,"action_noise":0.2,"location_history":"[4,5,0,5,4,3,4,5,4,5,4,3,2,3,2,3,2,3,2,1]","action_history":"[1,0,1,1,0,0,1,1,1,1,1,1,0,1,1,1,1,1,0]","door_history":"[1,0,1,1,0,0,1,1,1,1,1,1,0,1,1,1,1,1,0]","location_rts":"[2519,969,1460,1049,1057,1363,949,589,560,890,858,2660,1231,1645,328,676,597,597,1897]","trial_type":"two-door-navigation","trial_index":50,"time_elapsed":1212661,"internal_node_id":"0.0-2.0-48.0"},{"group":"hexagon_bi","room_assignment":["grey","red","blue","green","yellow","purple"],"door_color_assignment":["black","white"],"door_generator_assignment":[0,1],"goal":3,"start":1,"action_noise":0.2,"location_history":"[1,2,3]","action_history":"[1,0]","door_history":"[1,0]","location_rts":"[4278,1890]","trial_type":"two-door-navigation","trial_index":51,"time_elapsed":1224348,"internal_node_id":"0.0-2.0-49.0"},{"group":"hexagon_bi","room_assignment":["grey","red","blue","green","yellow","purple"],"door_color_assignment":["black","white"],"door_generator_assignment":[0,1],"goal":5,"start":3,"action_noise":0.2,"location_history":"[3,2,1,2,3,2,3,4,5]","action_history":"[1,0,0,1,1,1,0,1]","door_history":"[1,0,0,1,1,1,0,1]","location_rts":"[3680,651,1298,732,1442,1709,1010,1280]","trial_type":"two-door-navigation","trial_index":52,"time_elapsed":1247696,"internal_node_id":"0.0-2.0-50.0"},{"group":"hexagon_bi","room_assignment":["grey","red","blue","green","yellow","purple"],"door_color_assignment":["black","white"],"door_generator_assignment":[0,1],"goal":0,"start":5,"action_noise":0.2,"location_history":"[5,0]","action_history":"[0]","door_history":"[0]","location_rts":"[16429]","trial_type":"two-door-navigation","trial_index":53,"time_elapsed":1268639,"internal_node_id":"0.0-2.0-51.0"},{"group":"hexagon_bi","room_assignment":["grey","red","blue","green","yellow","purple"],"door_color_assignment":["black","white"],"door_generator_assignment":[0,1],"goal":2,"start":0,"action_noise":0.2,"location_history":"[0,1,2]","action_history":"[1,0]","door_history":"[1,0]","location_rts":"[5155,2607]","trial_type":"two-door-navigation","trial_index":54,"time_elapsed":1281916,"internal_node_id":"0.0-2.0-52.0"},{"group":"hexagon_bi","room_assignment":["grey","red","blue","green","yellow","purple"],"door_color_assignment":["black","white"],"door_generator_assignment":[0,1],"goal":1,"start":2,"action_noise":0.2,"location_history":"[2,1]","action_history":"[0]","door_history":"[0]","location_rts":"[12977]","trial_type":"two-door-navigation","trial_index":55,"time_elapsed":1299399,"internal_node_id":"0.0-2.0-53.0"},{"group":"hexagon_bi","room_assignment":["grey","red","blue","green","yellow","purple"],"door_color_assignment":["black","white"],"door_generator_assignment":[0,1],"goal":2,"start":1,"action_noise":0.2,"location_history":"[1,2]","action_history":"[0]","door_history":"[0]","location_rts":"[3069]","trial_type":"two-door-navigation","trial_index":56,"time_elapsed":1306969,"internal_node_id":"0.0-2.0-54.0"},{"group":"hexagon_bi","room_assignment":["grey","red","blue","green","yellow","purple"],"door_color_assignment":["black","white"],"door_generator_assignment":[0,1],"goal":5,"start":2,"action_noise":0.2,"location_history":"[2,3,2,1,0,5]","action_history":"[1,1,0,1,0]","door_history":"[1,1,0,1,0]","location_rts":"[2059,2824,1196,1379,1345]","trial_type":"two-door-navigation","trial_index":57,"time_elapsed":1324285,"internal_node_id":"0.0-2.0-55.0"},{"group":"hexagon_bi","room_assignment":["grey","red","blue","green","yellow","purple"],"door_color_assignment":["black","white"],"door_generator_assignment":[0,1],"goal":4,"start":5,"action_noise":0.2,"location_history":"[5,0,1,0,1,2,3,4]","action_history":"[0,0,1,1,0,1,0]","door_history":"[0,0,1,1,0,1,0]","location_rts":"[4750,1487,518,829,826,1161,1299]","trial_type":"two-door-navigation","trial_index":58,"time_elapsed":1345672,"internal_node_id":"0.0-2.0-56.0"},{"group":"hexagon_bi","room_assignment":["grey","red","blue","green","yellow","purple"],"door_color_assignment":["black","white"],"door_generator_assignment":[0,1],"goal":3,"start":4,"action_noise":0.2,"location_history":"[4,3]","action_history":"[0]","door_history":"[0]","location_rts":"[3659]","trial_type":"two-door-navigation","trial_index":59,"time_elapsed":1353837,"internal_node_id":"0.0-2.0-57.0"},{"group":"hexagon_bi","room_assignment":["grey","red","blue","green","yellow","purple"],"door_color_assignment":["black","white"],"door_generator_assignment":[0,1],"goal":0,"start":3,"action_noise":0.2,"location_history":"[3,4,3,4,5,0]","action_history":"[0,0,1,1,0]","door_history":"[0,0,1,1,0]","location_rts":"[8958,1966,792,2404,1268]","trial_type":"two-door-navigation","trial_index":60,"time_elapsed":1377745,"internal_node_id":"0.0-2.0-58.0"},{"group":"hexagon_bi","room_assignment":["grey","red","blue","green","yellow","purple"],"door_color_assignment":["black","white"],"door_generator_assignment":[0,1],"goal":2,"start":0,"action_noise":0.2,"location_history":"[0,5,0,1,2]","action_history":"[0,0,1,0]","door_history":"[0,0,1,0]","location_rts":"[43280,10100,13272,6275]","trial_type":"two-door-navigation","trial_index":61,"time_elapsed":1458183,"internal_node_id":"0.0-2.0-59.0"},{"group":"hexagon_bi","room_assignment":["grey","red","blue","green","yellow","purple"],"door_color_assignment":["black","white"],"door_generator_assignment":[0,1],"goal":1,"start":2,"action_noise":0.2,"location_history":"[2,3,2,1]","action_history":"[1,1,1]","door_history":"[1,1,1]","location_rts":"[18675,16083,6096]","trial_type":"two-door-navigation","trial_index":62,"time_elapsed":1505564,"internal_node_id":"0.0-2.0-60.0"},{"group":"hexagon_bi","room_assignment":["grey","red","blue","green","yellow","purple"],"door_color_assignment":["black","white"],"door_generator_assignment":[0,1],"goal":0,"start":1,"action_noise":0.2,"location_history":"[1,0]","action_history":"[1]","door_history":"[1]","location_rts":"[3474]","trial_type":"two-door-navigation","trial_index":63,"time_elapsed":1513539,"internal_node_id":"0.0-2.0-61.0"},{"group":"hexagon_bi","room_assignment":["grey","red","blue","green","yellow","purple"],"door_color_assignment":["black","white"],"door_generator_assignment":[0,1],"goal":3,"start":0,"action_noise":0.2,"location_history":"[0,5,4,3]","action_history":"[0,1,0]","door_history":"[0,1,0]","location_rts":"[5260,2182,1262]","trial_type":"two-door-navigation","trial_index":64,"time_elapsed":1528750,"internal_node_id":"0.0-2.0-62.0"},{"group":"hexagon_bi","room_assignment":["grey","red","blue","green","yellow","purple"],"door_color_assignment":["black","white"],"door_generator_assignment":[0,1],"goal":5,"start":3,"action_noise":0.2,"location_history":"[3,2,3,2,3,4,3,4,5]","action_history":"[1,1,0,1,0,0,0,1]","door_history":"[1,1,0,1,0,0,0,1]","location_rts":"[8184,1563,936,1847,1264,1472,1088,1043]","trial_type":"two-door-navigation","trial_index":65,"time_elapsed":1557669,"internal_node_id":"0.0-2.0-63.0"},{"group":"hexagon_bi","room_assignment":["grey","red","blue","green","yellow","purple"],"door_color_assignment":["black","white"],"door_generator_assignment":[0,1],"goal":4,"start":5,"action_noise":0.2,"location_history":"[5,4]","action_history":"[0]","door_history":"[0]","location_rts":"[19087]","trial_type":"two-door-navigation","trial_index":66,"time_elapsed":1581261,"internal_node_id":"0.0-2.0-64.0"},{"group":"hexagon_bi","room_assignment":["grey","red","blue","green","yellow","purple"],"door_color_assignment":["black","white"],"door_generator_assignment":[0,1],"goal":1,"start":4,"action_noise":0.2,"location_history":"[4,5,4,3,2,3,2,3,2,3,4,3,2,1]","action_history":"[1,1,0,1,0,1,1,1,0,0,0,1,0]","door_history":"[1,1,0,1,0,1,1,1,0,0,0,1,0]","location_rts":"[1805,1134,593,410,827,1245,335,993,728,372,727,667,1304]","trial_type":"two-door-navigation","trial_index":67,"time_elapsed":1608949,"internal_node_id":"0.0-2.0-65.0"},{"group":"hexagon_bi","room_assignment":["grey","red","blue","green","yellow","purple"],"door_color_assignment":["black","white"],"door_generator_assignment":[0,1],"goal":5,"start":1,"action_noise":0.2,"location_history":"[1,0,1,2,3,4,5]","action_history":"[1,0,0,1,0,0]","door_history":"[1,0,0,1,0,0]","location_rts":"[5817,952,869,1030,819,349]","trial_type":"two-door-navigation","trial_index":68,"time_elapsed":1628304,"internal_node_id":"0.0-2.0-66.0"},{"group":"hexagon_bi","room_assignment":["grey","red","blue","green","yellow","purple"],"door_color_assignment":["black","white"],"door_generator_assignment":[0,1],"goal":2,"start":5,"action_noise":0.2,"location_history":"[5,0,1,2]","action_history":"[0,1,0]","door_history":"[0,1,0]","location_rts":"[3802,1027,2413]","trial_type":"two-door-navigation","trial_index":69,"time_elapsed":1642058,"internal_node_id":"0.0-2.0-67.0"},{"group":"hexagon_bi","room_assignment":["grey","red","blue","green","yellow","purple"],"door_color_assignment":["black","white"],"door_generator_assignment":[0,1],"goal":3,"start":2,"action_noise":0.2,"location_history":"[2,3]","action_history":"[1]","door_history":"[1]","location_rts":"[1416]","trial_type":"two-door-navigation","trial_index":70,"time_elapsed":1647976,"internal_node_id":"0.0-2.0-68.0"},{"group":"hexagon_bi","room_assignment":["grey","red","blue","green","yellow","purple"],"door_color_assignment":["black","white"],"door_generator_assignment":[0,1],"goal":4,"start":3,"action_noise":0.2,"location_history":"[3,4]","action_history":"[0]","door_history":"[0]","location_rts":"[1936]","trial_type":"two-door-navigation","trial_index":71,"time_elapsed":1654423,"internal_node_id":"0.0-2.0-69.0"},{"group":"hexagon_bi","room_assignment":["grey","red","blue","green","yellow","purple"],"door_color_assignment":["black","white"],"door_generator_assignment":[0,1],"goal":0,"start":4,"action_noise":0.2,"location_history":"[4,5,0]","action_history":"[1,0]","door_history":"[1,0]","location_rts":"[3898,1818]","trial_type":"two-door-navigation","trial_index":72,"time_elapsed":1665653,"internal_node_id":"0.0-2.0-70.0"},{"group":"hexagon_bi","room_assignment":["grey","red","blue","green","yellow","purple"],"door_color_assignment":["black","white"],"door_generator_assignment":[0,1],"goal":5,"start":0,"action_noise":0.2,"location_history":"[0,1,2,1,0,1,0,1,2,1,2,1,2,3,4,5]","action_history":"[1,0,0,1,1,1,1,0,1,0,0,0,1,0,1]","door_history":"[1,0,0,1,1,1,1,0,1,0,0,0,1,0,1]","location_rts":"[2195,1700,1256,720,426,803,1186,473,739,775,248,621,1263,1691,710]","trial_type":"two-door-navigation","trial_index":73,"time_elapsed":1699015,"internal_node_id":"0.0-2.0-71.0"},{"group":"hexagon_bi","room_assignment":["grey","red","blue","green","yellow","purple"],"door_color_assignment":["black","white"],"door_generator_assignment":[0,1],"goal":0,"start":5,"action_noise":0.2,"location_history":"[5,0]","action_history":"[0]","door_history":"[0]","location_rts":"[3624]","trial_type":"two-door-navigation","trial_index":74,"time_elapsed":1707144,"internal_node_id":"0.0-2.0-72.0"},{"group":"hexagon_bi","room_assignment":["grey","red","blue","green","yellow","purple"],"door_color_assignment":["black","white"],"door_generator_assignment":[0,1],"goal":3,"start":0,"action_noise":0.2,"location_history":"[0,1,2,3]","action_history":"[1,0,1]","door_history":"[1,0,1]","location_rts":"[4784,1542,1108]","trial_type":"two-door-navigation","trial_index":75,"time_elapsed":1721083,"internal_node_id":"0.0-2.0-73.0"},{"group":"hexagon_bi","room_assignment":["grey","red","blue","green","yellow","purple"],"door_color_assignment":["black","white"],"door_generator_assignment":[0,1],"goal":1,"start":3,"action_noise":0.2,"location_history":"[3,2,3,2,3,2,3,2,3,4,3,4,5,4,5,0,1]","action_history":"[1,0,1,0,0,1,1,1,0,1,0,1,1,1,0,1]","door_history":"[1,0,1,0,0,1,1,1,0,1,0,1,1,1,0,1]","location_rts":"[1293,314,415,755,588,921,866,372,1052,2678,1411,413,227,623,866,1181]","trial_type":"two-door-navigation","trial_index":76,"time_elapsed":1754654,"internal_node_id":"0.0-2.0-74.0"},{"group":"hexagon_bi","room_assignment":["grey","red","blue","green","yellow","purple"],"door_color_assignment":["black","white"],"door_generator_assignment":[0,1],"goal":2,"start":1,"action_noise":0.2,"location_history":"[1,0,5,0,1,0,1,2]","action_history":"[1,0,0,1,1,1,0]","door_history":"[1,0,0,1,1,1,0]","location_rts":"[2560,1262,2543,1080,533,982,227]","trial_type":"two-door-navigation","trial_index":77,"time_elapsed":1774368,"internal_node_id":"0.0-2.0-75.0"},{"group":"hexagon_bi","room_assignment":["grey","red","blue","green","yellow","purple"],"door_color_assignment":["black","white"],"door_generator_assignment":[0,1],"goal":4,"start":2,"action_noise":0.2,"location_history":"[2,3,2,1,0,5,4]","action_history":"[1,0,1,0,0,1]","door_history":"[1,0,1,0,0,1]","location_rts":"[7646,924,1249,1049,558,802]","trial_type":"two-door-navigation","trial_index":78,"time_elapsed":1796126,"internal_node_id":"0.0-2.0-76.0"},{"group":"hexagon_bi","room_assignment":["grey","red","blue","green","yellow","purple"],"door_color_assignment":["black","white"],"door_generator_assignment":[0,1],"goal":3,"start":4,"action_noise":0.2,"location_history":"[4,3]","action_history":"[0]","door_history":"[0]","location_rts":"[3048]","trial_type":"two-door-navigation","trial_index":79,"time_elapsed":1803682,"internal_node_id":"0.0-2.0-77.0"},{"group":"hexagon_bi","room_assignment":["grey","red","blue","green","yellow","purple"],"door_color_assignment":["black","white"],"door_generator_assignment":[0,1],"goal":0,"start":3,"action_noise":0.2,"location_history":"[3,4,5,4,3,4,5,4,3,4,3,2,3,2,1,0]","action_history":"[0,1,1,0,0,0,1,0,0,0,1,1,0,1,1]","door_history":"[0,1,1,0,0,0,1,0,0,0,1,1,0,1,1]","location_rts":"[3707,1118,567,1108,206,594,864,1218,269,397,587,1028,726,614,524]","trial_type":"two-door-navigation","trial_index":80,"time_elapsed":1835790,"internal_node_id":"0.0-2.0-78.0"},{"group":"hexagon_bi","room_assignment":["grey","red","blue","green","yellow","purple"],"door_color_assignment":["black","white"],"door_generator_assignment":[0,1],"goal":4,"start":0,"action_noise":0.2,"location_history":"[0,1,2,3,2,3,4]","action_history":"[1,0,0,1,0,0]","door_history":"[1,0,0,1,0,0]","location_rts":"[8238,1581,843,1167,1047,486]","trial_type":"two-door-navigation","trial_index":81,"time_elapsed":1858666,"internal_node_id":"0.0-2.0-79.0"},{"group":"hexagon_bi","room_assignment":["grey","red","blue","green","yellow","purple"],"door_color_assignment":["black","white"],"door_generator_assignment":[0,1],"goal":5,"start":4,"action_noise":0.2,"location_history":"[4,3,4,3,2,1,0,1,2,3,2,3,2,1,0,1,0,5]","action_history":"[1,0,0,1,0,1,1,0,0,0,1,0,0,1,1,1,0]","door_history":"[1,0,0,1,0,1,1,0,0,0,1,0,0,1,1,1,0]","location_rts":"[3769,1413,1431,663,1514,1662,1460,1111,262,862,1877,531,566,783,703,520,812]","trial_type":"two-door-navigation","trial_index":82,"time_elapsed":1899167,"internal_node_id":"0.0-2.0-80.0"},{"group":"hexagon_bi","room_assignment":["grey","red","blue","green","yellow","purple"],"door_color_assignment":["black","white"],"door_generator_assignment":[0,1],"goal":1,"start":5,"action_noise":0.2,"location_history":"[5,0,1]","action_history":"[0,1]","door_history":"[0,1]","location_rts":"[9242,1327]","trial_type":"two-door-navigation","trial_index":83,"time_elapsed":1915244,"internal_node_id":"0.0-2.0-81.0"},{"group":"hexagon_bi","room_assignment":["grey","red","blue","green","yellow","purple"],"door_color_assignment":["black","white"],"door_generator_assignment":[0,1],"goal":2,"start":1,"action_noise":0.2,"location_history":"[1,2]","action_history":"[0]","door_history":"[0]","location_rts":"[4689]","trial_type":"two-door-navigation","trial_index":84,"time_elapsed":1924433,"internal_node_id":"0.0-2.0-82.0"},{"group":"hexagon_bi","room_assignment":["grey","red","blue","green","yellow","purple"],"door_color_assignment":["black","white"],"door_generator_assignment":[0,1],"goal":4,"start":2,"action_noise":0.2,"location_history":"[2,3,4]","action_history":"[1,1]","door_history":"[1,1]","location_rts":"[2071,1194]","trial_type":"two-door-navigation","trial_index":85,"time_elapsed":1933216,"internal_node_id":"0.0-2.0-83.0"},{"group":"hexagon_bi","room_assignment":["grey","red","blue","green","yellow","purple"],"door_color_assignment":["black","white"],"door_generator_assignment":[0,1],"goal":0,"start":4,"action_noise":0.2,"location_history":"[4,5,0]","action_history":"[0,1]","door_history":"[0,1]","location_rts":"[3032,1103]","trial_type":"two-door-navigation","trial_index":86,"time_elapsed":1942854,"internal_node_id":"0.0-2.0-84.0"},{"group":"hexagon_bi","room_assignment":["grey","red","blue","green","yellow","purple"],"door_color_assignment":["black","white"],"door_generator_assignment":[0,1],"goal":5,"start":0,"action_noise":0.2,"location_history":"[0,5]","action_history":"[0]","door_history":"[0]","location_rts":"[2194]","trial_type":"two-door-navigation","trial_index":87,"time_elapsed":1949551,"internal_node_id":"0.0-2.0-85.0"},{"group":"hexagon_bi","room_assignment":["grey","red","blue","green","yellow","purple"],"door_color_assignment":["black","white"],"door_generator_assignment":[0,1],"goal":3,"start":5,"action_noise":0.2,"location_history":"[5,0,5,4,5,0,5,4,5,4,5,4,3]","action_history":"[1,0,0,1,0,0,1,0,1,1,0,0]","door_history":"[1,0,0,1,0,0,1,0,1,1,0,0]","location_rts":"[3396,987,530,1040,1159,569,467,567,1014,1673,969,519]","trial_type":"two-door-navigation","trial_index":88,"time_elapsed":1977989,"internal_node_id":"0.0-2.0-86.0"},{"group":"hexagon_bi","room_assignment":["grey","red","blue","green","yellow","purple"],"door_color_assignment":["black","white"],"door_generator_assignment":[0,1],"goal":1,"start":3,"action_noise":0.2,"location_history":"[3,2,1]","action_history":"[1,0]","door_history":"[1,0]","location_rts":"[7082,1861]","trial_type":"two-door-navigation","trial_index":89,"time_elapsed":1992435,"internal_node_id":"0.0-2.0-87.0"},{"group":"hexagon_bi","room_assignment":["grey","red","blue","green","yellow","purple"],"door_color_assignment":["black","white"],"door_generator_assignment":[0,1],"goal":2,"start":1,"action_noise":0.2,"location_history":"[1,2]","action_history":"[0]","door_history":"[0]","location_rts":"[2973]","trial_type":"two-door-navigation","trial_index":90,"time_elapsed":1999915,"internal_node_id":"0.0-2.0-88.0"},{"group":"hexagon_bi","room_assignment":["grey","red","blue","green","yellow","purple"],"door_color_assignment":["black","white"],"door_generator_assignment":[0,1],"goal":0,"start":2,"action_noise":0.2,"location_history":"[2,3,4,3,2,1,2,3,2,3,2,1,2,3,4,5,0]","action_history":"[1,0,0,1,0,0,1,1,0,1,0,0,1,0,1,1]","door_history":"[1,0,0,1,0,0,1,1,0,1,0,0,1,0,1,1]","location_rts":"[8467,911,1109,998,1613,558,1006,518,406,761,429,477,368,878,582,588]","trial_type":"two-door-navigation","trial_index":91,"time_elapsed":2039149,"internal_node_id":"0.0-2.0-89.0"},{"group":"hexagon_bi","room_assignment":["grey","red","blue","green","yellow","purple"],"door_color_assignment":["black","white"],"door_generator_assignment":[0,1],"goal":5,"start":0,"action_noise":0.2,"location_history":"[0,1,2,3,2,1,0,5]","action_history":"[1,0,1,1,0,0,0]","door_history":"[1,0,1,1,0,0,0]","location_rts":"[10207,1160,1588,1200,1116,629,1322]","trial_type":"two-door-navigation","trial_index":92,"time_elapsed":2066909,"internal_node_id":"0.0-2.0-90.0"},{"group":"hexagon_bi","room_assignment":["grey","red","blue","green","yellow","purple"],"door_color_assignment":["black","white"],"door_generator_assignment":[0,1],"goal":1,"start":5,"action_noise":0.2,"location_history":"[5,0,1]","action_history":"[0,1]","door_history":"[0,1]","location_rts":"[26086,2217]","trial_type":"two-door-navigation","trial_index":93,"time_elapsed":2100718,"internal_node_id":"0.0-2.0-91.0"},{"group":"hexagon_bi","room_assignment":["grey","red","blue","green","yellow","purple"],"door_color_assignment":["black","white"],"door_generator_assignment":[0,1],"goal":3,"start":1,"action_noise":0.2,"location_history":"[1,0,5,0,5,0,5,0,1,2,3]","action_history":"[0,1,0,0,0,0,1,1,0,1]","door_history":"[0,1,0,0,0,0,1,1,0,1]","location_rts":"[22294,1620,961,219,566,473,524,297,1620,970]","trial_type":"two-door-navigation","trial_index":94,"time_elapsed":2143866,"internal_node_id":"0.0-2.0-92.0"},{"group":"hexagon_bi","room_assignment":["grey","red","blue","green","yellow","purple"],"door_color_assignment":["black","white"],"door_generator_assignment":[0,1],"goal":4,"start":3,"action_noise":0.2,"location_history":"[3,2,1,0,1,2,1,0,1,0,1,2,1,0,5,4]","action_history":"[1,0,0,1,1,0,0,1,1,1,0,1,0,0,0]","door_history":"[1,0,0,1,1,0,0,1,1,1,0,1,0,0,0]","location_rts":"[1288,1532,817,704,389,1142,655,749,573,477,788,544,862,229,1437]","trial_type":"two-door-navigation","trial_index":95,"time_elapsed":2174609,"internal_node_id":"0.0-2.0-93.0"},{"group":"hexagon_bi","room_assignment":["grey","red","blue","green","yellow","purple"],"door_color_assignment":["black","white"],"door_generator_assignment":[0,1],"goal":2,"start":4,"action_noise":0.2,"location_history":"[4,5,0,1,0,5,0,5,4,3,2]","action_history":"[1,0,0,1,0,0,1,1,0,1]","door_history":"[1,0,0,1,0,0,1,1,0,1]","location_rts":"[5313,1319,748,701,795,206,464,860,2546,1424]","trial_type":"two-door-navigation","trial_index":96,"time_elapsed":2202589,"internal_node_id":"0.0-2.0-94.0"},{"group":"hexagon_bi","room_assignment":["grey","red","blue","green","yellow","purple"],"door_color_assignment":["black","white"],"door_generator_assignment":[0,1],"goal":4,"start":2,"action_noise":0.2,"location_history":"[2,1,0,1,2,1,2,3,4]","action_history":"[0,1,1,0,0,0,1,0]","door_history":"[0,1,1,0,0,0,1,0]","location_rts":"[6426,1532,1100,799,200,506,196,1325]","trial_type":"two-door-navigation","trial_index":97,"time_elapsed":2226208,"internal_node_id":"0.0-2.0-95.0"},{"group":"hexagon_bi","room_assignment":["grey","red","blue","green","yellow","purple"],"door_color_assignment":["black","white"],"door_generator_assignment":[0,1],"goal":0,"start":4,"action_noise":0.2,"location_history":"[4,5,0]","action_history":"[1,0]","door_history":"[1,0]","location_rts":"[3206,1052]","trial_type":"two-door-navigation","trial_index":98,"time_elapsed":2235976,"internal_node_id":"0.0-2.0-96.0"},{"group":"hexagon_bi","room_assignment":["grey","red","blue","green","yellow","purple"],"door_color_assignment":["black","white"],"door_generator_assignment":[0,1],"goal":5,"start":0,"action_noise":0.2,"location_history":"[0,1,2,1,0,5]","action_history":"[1,0,0,1,0]","door_history":"[1,0,0,1,0]","location_rts":"[3767,1114,566,976,861]","trial_type":"two-door-navigation","trial_index":99,"time_elapsed":2251775,"internal_node_id":"0.0-2.0-97.0"},{"group":"hexagon_bi","room_assignment":["grey","red","blue","green","yellow","purple"],"door_color_assignment":["black","white"],"door_generator_assignment":[0,1],"goal":1,"start":5,"action_noise":0.2,"location_history":"[5,4,3,2,3,4,3,4,3,4,5,4,5,0,1]","action_history":"[1,0,1,1,0,0,1,0,0,1,1,1,0,1]","door_history":"[1,0,1,1,0,0,1,0,0,1,1,1,0,1]","location_rts":"[3145,810,868,500,747,415,1006,859,903,854,2364,761,2209,1228]","trial_type":"two-door-navigation","trial_index":100,"time_elapsed":2286003,"internal_node_id":"0.0-2.0-98.0"},{"group":"hexagon_bi","room_assignment":["grey","red","blue","green","yellow","purple"],"door_color_assignment":["black","white"],"door_generator_assignment":[0,1],"goal":3,"start":1,"action_noise":0.2,"location_history":"[1,2,3]","action_history":"[0,1]","door_history":"[0,1]","location_rts":"[7259,1075]","trial_type":"two-door-navigation","trial_index":101,"time_elapsed":2299844,"internal_node_id":"0.0-2.0-99.0"},{"view_history":"[{\"page_index\":0,\"viewing_time\":3881}]","rt":3882,"trial_type":"instructions","trial_index":102,"time_elapsed":2304726,"internal_node_id":"0.0-3.0"},{"view_history":"[{\"page_index\":0,\"viewing_time\":4361},{\"page_index\":1,\"viewing_time\":93355}]","rt":97717,"trial_type":"instructions","trial_index":103,"time_elapsed":2403443,"internal_node_id":"0.0-4.0"},{"group":"hexagon_tri","fractal_assignment":["../images/ylw_slt.png","../images/gry_blk.png","../images/pnk_blu.png","../images/cyn_red.png","../images/blu_wht.png","../images/org_blu.png"],"mutagen_generator_assignment":[1,0],"goal":4,"start":0,"action_noise":0.2,"location_history":"[0,1,5,4]","action_history":"[1,1,0]","mutagen_history":"[0,0,1]","location_rts":"[5107,2011,1466]","trial_type":"fractal-mutation","trial_index":104,"time_elapsed":2418806,"internal_node_id":"0.0-5.0-0.0"},{"group":"hexagon_tri","fractal_assignment":["../images/ylw_slt.png","../images/gry_blk.png","../images/pnk_blu.png","../images/cyn_red.png","../images/blu_wht.png","../images/org_blu.png"],"mutagen_generator_assignment":[1,0],"goal":3,"start":4,"action_noise":0.2,"location_history":"[4,0,1,3]","action_history":"[0,1,0]","mutagen_history":"[1,0,1]","location_rts":"[8495,1088,1007]","trial_type":"fractal-mutation","trial_index":105,"time_elapsed":2436508,"internal_node_id":"0.0-5.0-1.0"},{"group":"hexagon_tri","fractal_assignment":["../images/ylw_slt.png","../images/gry_blk.png","../images/pnk_blu.png","../images/cyn_red.png","../images/blu_wht.png","../images/org_blu.png"],"mutagen_generator_assignment":[1,0],"goal":5,"start":3,"action_noise":0.2,"location_history":"[3,4,0,5]","action_history":"[1,0,1]","mutagen_history":"[0,1,0]","location_rts":"[2440,1028,536]","trial_type":"fractal-mutation","trial_index":106,"time_elapsed":2447321,"internal_node_id":"0.0-5.0-2.0"},{"group":"hexagon_tri","fractal_assignment":["../images/ylw_slt.png","../images/gry_blk.png","../images/pnk_blu.png","../images/cyn_red.png","../images/blu_wht.png","../images/org_blu.png"],"mutagen_generator_assignment":[1,0],"goal":2,"start":5,"action_noise":0.2,"location_history":"[5,0,1,5,0,1,3,4,2]","action_history":"[1,1,0,1,1,0,0,1]","mutagen_history":"[0,0,1,0,0,1,1,0]","location_rts":"[1754,771,864,828,1597,519,1271,1227]","trial_type":"fractal-mutation","trial_index":107,"time_elapsed":2468784,"internal_node_id":"0.0-5.0-3.0"},{"group":"hexagon_tri","fractal_assignment":["../images/ylw_slt.png","../images/gry_blk.png","../images/pnk_blu.png","../images/cyn_red.png","../images/blu_wht.png","../images/org_blu.png"],"mutagen_generator_assignment":[1,0],"goal":1,"start":2,"action_noise":0.2,"location_history":"[2,1]","action_history":"[0]","mutagen_history":"[1]","location_rts":"[5411]","trial_type":"fractal-mutation","trial_index":108,"time_elapsed":2478950,"internal_node_id":"0.0-5.0-4.0"},{"group":"hexagon_tri","fractal_assignment":["../images/ylw_slt.png","../images/gry_blk.png","../images/pnk_blu.png","../images/cyn_red.png","../images/blu_wht.png","../images/org_blu.png"],"mutagen_generator_assignment":[1,0],"goal":4,"start":1,"action_noise":0.2,"location_history":"[1,3,2,1,5,4]","action_history":"[1,0,0,1,0]","mutagen_history":"[0,1,1,0,1]","location_rts":"[2154,299,1055,1964,1422]","trial_type":"fractal-mutation","trial_index":109,"time_elapsed":2495015,"internal_node_id":"0.0-5.0-5.0"},{"group":"hexagon_tri","fractal_assignment":["../images/ylw_slt.png","../images/gry_blk.png","../images/pnk_blu.png","../images/cyn_red.png","../images/blu_wht.png","../images/org_blu.png"],"mutagen_generator_assignment":[1,0],"goal":1,"start":4,"action_noise":0.2,"location_history":"[4,0,1]","action_history":"[0,1]","mutagen_history":"[1,0]","location_rts":"[2286,613]","trial_type":"fractal-mutation","trial_index":110,"time_elapsed":2503722,"internal_node_id":"0.0-5.0-6.0"},{"group":"hexagon_tri","fractal_assignment":["../images/ylw_slt.png","../images/gry_blk.png","../images/pnk_blu.png","../images/cyn_red.png","../images/blu_wht.png","../images/org_blu.png"],"mutagen_generator_assignment":[1,0],"goal":5,"start":1,"action_noise":0.2,"location_history":"[1,3,4,0,5]","action_history":"[0,0,1,0]","mutagen_history":"[1,1,0,1]","location_rts":"[4406,1525,504,1488]","trial_type":"fractal-mutation","trial_index":111,"time_elapsed":2520053,"internal_node_id":"0.0-5.0-7.0"},{"group":"hexagon_tri","fractal_assignment":["../images/ylw_slt.png","../images/gry_blk.png","../images/pnk_blu.png","../images/cyn_red.png","../images/blu_wht.png","../images/org_blu.png"],"mutagen_generator_assignment":[1,0],"goal":0,"start":5,"action_noise":0.2,"location_history":"[5,4,0]","action_history":"[0,0]","mutagen_history":"[1,1]","location_rts":"[2495,336]","trial_type":"fractal-mutation","trial_index":112,"time_elapsed":2528760,"internal_node_id":"0.0-5.0-8.0"},{"group":"hexagon_tri","fractal_assignment":["../images/ylw_slt.png","../images/gry_blk.png","../images/pnk_blu.png","../images/cyn_red.png","../images/blu_wht.png","../images/org_blu.png"],"mutagen_generator_assignment":[1,0],"goal":2,"start":0,"action_noise":0.2,"location_history":"[0,5,4,2]","action_history":"[0,1,1]","mutagen_history":"[1,0,0]","location_rts":"[2474,425,404]","trial_type":"fractal-mutation","trial_index":113,"time_elapsed":2539017,"internal_node_id":"0.0-5.0-9.0"},{"group":"hexagon_tri","fractal_assignment":["../images/ylw_slt.png","../images/gry_blk.png","../images/pnk_blu.png","../images/cyn_red.png","../images/blu_wht.png","../images/org_blu.png"],"mutagen_generator_assignment":[1,0],"goal":3,"start":2,"action_noise":0.2,"location_history":"[2,1,5,4,2,1,3]","action_history":"[0,1,1,0,0,0]","mutagen_history":"[1,0,0,1,1,1]","location_rts":"[2311,924,1289,533,543,2055]","trial_type":"fractal-mutation","trial_index":114,"time_elapsed":2557206,"internal_node_id":"0.0-5.0-10.0"},{"group":"hexagon_tri","fractal_assignment":["../images/ylw_slt.png","../images/gry_blk.png","../images/pnk_blu.png","../images/cyn_red.png","../images/blu_wht.png","../images/org_blu.png"],"mutagen_generator_assignment":[1,0],"goal":0,"start":3,"action_noise":0.2,"location_history":"[3,4,0]","action_history":"[1,0]","mutagen_history":"[0,1]","location_rts":"[2506,1981]","trial_type":"fractal-mutation","trial_index":115,"time_elapsed":2567440,"internal_node_id":"0.0-5.0-11.0"},{"group":"hexagon_tri","fractal_assignment":["../images/ylw_slt.png","../images/gry_blk.png","../images/pnk_blu.png","../images/cyn_red.png","../images/blu_wht.png","../images/org_blu.png"],"mutagen_generator_assignment":[1,0],"goal":2,"start":0,"action_noise":0.2,"location_history":"[0,5,0,5,0,1,5,0,1,3,2]","action_history":"[0,0,0,1,0,1,1,1,1,0]","mutagen_history":"[1,1,1,0,1,0,0,0,0,1]","location_rts":"[6048,551,710,604,1923,946,1602,1044,1123,696]","trial_type":"fractal-mutation","trial_index":116,"time_elapsed":2597767,"internal_node_id":"0.0-5.0-12.0"},{"group":"hexagon_tri","fractal_assignment":["../images/ylw_slt.png","../images/gry_blk.png","../images/pnk_blu.png","../images/cyn_red.png","../images/blu_wht.png","../images/org_blu.png"],"mutagen_generator_assignment":[1,0],"goal":5,"start":2,"action_noise":0.2,"location_history":"[2,1,5]","action_history":"[0,1]","mutagen_history":"[1,0]","location_rts":"[2569,445]","trial_type":"fractal-mutation","trial_index":117,"time_elapsed":2606596,"internal_node_id":"0.0-5.0-13.0"},{"group":"hexagon_tri","fractal_assignment":["../images/ylw_slt.png","../images/gry_blk.png","../images/pnk_blu.png","../images/cyn_red.png","../images/blu_wht.png","../images/org_blu.png"],"mutagen_generator_assignment":[1,0],"goal":4,"start":5,"action_noise":0.2,"location_history":"[5,0,5,4]","action_history":"[1,0,0]","mutagen_history":"[0,1,1]","location_rts":"[3514,1182,2358]","trial_type":"fractal-mutation","trial_index":118,"time_elapsed":2620605,"internal_node_id":"0.0-5.0-14.0"},{"group":"hexagon_tri","fractal_assignment":["../images/ylw_slt.png","../images/gry_blk.png","../images/pnk_blu.png","../images/cyn_red.png","../images/blu_wht.png","../images/org_blu.png"],"mutagen_generator_assignment":[1,0],"goal":3,"start":4,"action_noise":0.2,"location_history":"[4,0,1,5,0,5,0,5,0,5,0,5,4,0,1,3]","action_history":"[0,1,1,1,0,0,0,1,0,1,1,0,0,1,0]","mutagen_history":"[1,0,0,0,1,1,1,0,1,0,0,1,1,0,1]","location_rts":"[1521,409,372,1841,549,1018,966,1105,1174,1519,997,874,1215,1671,583]","trial_type":"fractal-mutation","trial_index":119,"time_elapsed":2657541,"internal_node_id":"0.0-5.0-15.0"},{"group":"hexagon_tri","fractal_assignment":["../images/ylw_slt.png","../images/gry_blk.png","../images/pnk_blu.png","../images/cyn_red.png","../images/blu_wht.png","../images/org_blu.png"],"mutagen_generator_assignment":[1,0],"goal":1,"start":3,"action_noise":0.2,"location_history":"[3,4,0,5,0,1]","action_history":"[1,0,0,1,1]","mutagen_history":"[0,1,1,0,0]","location_rts":"[3384,1240,942,1329,1138]","trial_type":"fractal-mutation","trial_index":120,"time_elapsed":2674759,"internal_node_id":"0.0-5.0-16.0"},{"group":"hexagon_tri","fractal_assignment":["../images/ylw_slt.png","../images/gry_blk.png","../images/pnk_blu.png","../images/cyn_red.png","../images/blu_wht.png","../images/org_blu.png"],"mutagen_generator_assignment":[1,0],"goal":5,"start":1,"action_noise":0.2,"location_history":"[1,3,2,3,4,2,3,4,0,5]","action_history":"[1,0,1,1,0,1,1,0,0]","mutagen_history":"[0,1,0,0,1,0,0,1,1]","location_rts":"[2456,1065,693,869,410,853,960,515,829]","trial_type":"fractal-mutation","trial_index":121,"time_elapsed":2697106,"internal_node_id":"0.0-5.0-17.0"},{"group":"hexagon_tri","fractal_assignment":["../images/ylw_slt.png","../images/gry_blk.png","../images/pnk_blu.png","../images/cyn_red.png","../images/blu_wht.png","../images/org_blu.png"],"mutagen_generator_assignment":[1,0],"goal":4,"start":5,"action_noise":0.2,"location_history":"[5,0,1,5,4]","action_history":"[0,1,1,0]","mutagen_history":"[1,0,0,1]","location_rts":"[712,1078,1044,625]","trial_type":"fractal-mutation","trial_index":122,"time_elapsed":2708719,"internal_node_id":"0.0-5.0-18.0"},{"group":"hexagon_tri","fractal_assignment":["../images/ylw_slt.png","../images/gry_blk.png","../images/pnk_blu.png","../images/cyn_red.png","../images/blu_wht.png","../images/org_blu.png"],"mutagen_generator_assignment":[1,0],"goal":0,"start":4,"action_noise":0.2,"location_history":"[4,0]","action_history":"[0]","mutagen_history":"[1]","location_rts":"[1004]","trial_type":"fractal-mutation","trial_index":123,"time_elapsed":2714420,"internal_node_id":"0.0-5.0-19.0"},{"group":"hexagon_tri","fractal_assignment":["../images/ylw_slt.png","../images/gry_blk.png","../images/pnk_blu.png","../images/cyn_red.png","../images/blu_wht.png","../images/org_blu.png"],"mutagen_generator_assignment":[1,0],"goal":1,"start":0,"action_noise":0.2,"location_history":"[0,1]","action_history":"[1]","mutagen_history":"[0]","location_rts":"[1192]","trial_type":"fractal-mutation","trial_index":124,"time_elapsed":2720121,"internal_node_id":"0.0-5.0-20.0"},{"group":"hexagon_tri","fractal_assignment":["../images/ylw_slt.png","../images/gry_blk.png","../images/pnk_blu.png","../images/cyn_red.png","../images/blu_wht.png","../images/org_blu.png"],"mutagen_generator_assignment":[1,0],"goal":3,"start":1,"action_noise":0.2,"location_history":"[1,5,0,5,0,1,5,0,5,0,1,5,0,1,5,4,0,1,5,0,5,4,2,1,3]","action_history":"[1,0,0,1,1,0,0,0,1,1,1,0,1,1,0,0,1,1,1,0,0,1,0,1]","mutagen_history":"[0,1,1,0,0,1,1,1,0,0,0,1,0,0,1,1,0,0,0,1,1,0,1,0]","location_rts":"[2592,1213,983,547,612,571,1629,267,1097,626,725,418,1886,730,492,1449,2408,1451,1969,426,1122,637,1070,966]","trial_type":"fractal-mutation","trial_index":125,"time_elapsed":2777163,"internal_node_id":"0.0-5.0-21.0"},{"group":"hexagon_tri","fractal_assignment":["../images/ylw_slt.png","../images/gry_blk.png","../images/pnk_blu.png","../images/cyn_red.png","../images/blu_wht.png","../images/org_blu.png"],"mutagen_generator_assignment":[1,0],"goal":2,"start":3,"action_noise":0.2,"location_history":"[3,2]","action_history":"[1]","mutagen_history":"[0]","location_rts":"[2703]","trial_type":"fractal-mutation","trial_index":126,"time_elapsed":2784381,"internal_node_id":"0.0-5.0-22.0"},{"group":"hexagon_tri","fractal_assignment":["../images/ylw_slt.png","../images/gry_blk.png","../images/pnk_blu.png","../images/cyn_red.png","../images/blu_wht.png","../images/org_blu.png"],"mutagen_generator_assignment":[1,0],"goal":0,"start":2,"action_noise":0.2,"location_history":"[2,1,5,4,0]","action_history":"[0,1,1,0]","mutagen_history":"[1,0,0,1]","location_rts":"[3640,1424,1514,1058]","trial_type":"fractal-mutation","trial_index":127,"time_elapsed":2800264,"internal_node_id":"0.0-5.0-23.0"},{"group":"hexagon_tri","fractal_assignment":["../images/ylw_slt.png","../images/gry_blk.png","../images/pnk_blu.png","../images/cyn_red.png","../images/blu_wht.png","../images/org_blu.png"],"mutagen_generator_assignment":[1,0],"goal":3,"start":0,"action_noise":0.2,"location_history":"[0,5,0,5,0,1,5,4,2,1,3]","action_history":"[0,1,0,1,1,0,0,1,0,0]","mutagen_history":"[1,0,1,0,0,1,1,0,1,1]","location_rts":"[2831,638,855,1087,400,373,863,691,933,872]","trial_type":"fractal-mutation","trial_index":128,"time_elapsed":2825074,"internal_node_id":"0.0-5.0-24.0"},{"group":"hexagon_tri","fractal_assignment":["../images/ylw_slt.png","../images/gry_blk.png","../images/pnk_blu.png","../images/cyn_red.png","../images/blu_wht.png","../images/org_blu.png"],"mutagen_generator_assignment":[1,0],"goal":1,"start":3,"action_noise":0.2,"location_history":"[3,2,3,4,2,3,2,1]","action_history":"[0,1,1,1,1,0,0]","mutagen_history":"[1,0,0,0,0,1,1]","location_rts":"[886,574,751,792,549,1331,995]","trial_type":"fractal-mutation","trial_index":129,"time_elapsed":2842539,"internal_node_id":"0.0-5.0-25.0"},{"group":"hexagon_tri","fractal_assignment":["../images/ylw_slt.png","../images/gry_blk.png","../images/pnk_blu.png","../images/cyn_red.png","../images/blu_wht.png","../images/org_blu.png"],"mutagen_generator_assignment":[1,0],"goal":2,"start":1,"action_noise":0.2,"location_history":"[1,5,0,1,3,4,2]","action_history":"[0,1,1,0,0,1]","mutagen_history":"[1,0,0,1,1,0]","location_rts":"[3998,534,1019,769,661,959]","trial_type":"fractal-mutation","trial_index":130,"time_elapsed":2860973,"internal_node_id":"0.0-5.0-26.0"},{"group":"hexagon_tri","fractal_assignment":["../images/ylw_slt.png","../images/gry_blk.png","../images/pnk_blu.png","../images/cyn_red.png","../images/blu_wht.png","../images/org_blu.png"],"mutagen_generator_assignment":[1,0],"goal":5,"start":2,"action_noise":0.2,"location_history":"[2,3,2,1,5]","action_history":"[1,0,0,0]","mutagen_history":"[0,1,1,1]","location_rts":"[2042,727,717,889]","trial_type":"fractal-mutation","trial_index":131,"time_elapsed":2873503,"internal_node_id":"0.0-5.0-27.0"},{"group":"hexagon_tri","fractal_assignment":["../images/ylw_slt.png","../images/gry_blk.png","../images/pnk_blu.png","../images/cyn_red.png","../images/blu_wht.png","../images/org_blu.png"],"mutagen_generator_assignment":[1,0],"goal":4,"start":5,"action_noise":0.2,"location_history":"[5,4]","action_history":"[0]","mutagen_history":"[1]","location_rts":"[618]","trial_type":"fractal-mutation","trial_index":132,"time_elapsed":2878781,"internal_node_id":"0.0-5.0-28.0"},{"group":"hexagon_tri","fractal_assignment":["../images/ylw_slt.png","../images/gry_blk.png","../images/pnk_blu.png","../images/cyn_red.png","../images/blu_wht.png","../images/org_blu.png"],"mutagen_generator_assignment":[1,0],"goal":5,"start":4,"action_noise":0.2,"location_history":"[4,2,1,5]","action_history":"[1,0,1]","mutagen_history":"[0,1,0]","location_rts":"[955,649,1179]","trial_type":"fractal-mutation","trial_index":133,"time_elapsed":2888396,"internal_node_id":"0.0-5.0-29.0"},{"group":"hexagon_tri","fractal_assignment":["../images/ylw_slt.png","../images/gry_blk.png","../images/pnk_blu.png","../images/cyn_red.png","../images/blu_wht.png","../images/org_blu.png"],"mutagen_generator_assignment":[1,0],"goal":3,"start":5,"action_noise":0.2,"location_history":"[5,4,0,1,3]","action_history":"[0,0,1,0]","mutagen_history":"[1,1,0,1]","location_rts":"[808,989,556,942]","trial_type":"fractal-mutation","trial_index":134,"time_elapsed":2900028,"internal_node_id":"0.0-5.0-30.0"},{"group":"hexagon_tri","fractal_assignment":["../images/ylw_slt.png","../images/gry_blk.png","../images/pnk_blu.png","../images/cyn_red.png","../images/blu_wht.png","../images/org_blu.png"],"mutagen_generator_assignment":[1,0],"goal":0,"start":3,"action_noise":0.2,"location_history":"[3,4,0]","action_history":"[1,0]","mutagen_history":"[0,1]","location_rts":"[3034,512]","trial_type":"fractal-mutation","trial_index":135,"time_elapsed":2909497,"internal_node_id":"0.0-5.0-31.0"},{"group":"hexagon_tri","fractal_assignment":["../images/ylw_slt.png","../images/gry_blk.png","../images/pnk_blu.png","../images/cyn_red.png","../images/blu_wht.png","../images/org_blu.png"],"mutagen_generator_assignment":[1,0],"goal":4,"start":0,"action_noise":0.2,"location_history":"[0,5,0,5,0,5,0,1,5,4]","action_history":"[1,0,0,1,0,1,1,1,0]","mutagen_history":"[0,1,1,0,1,0,0,0,1]","location_rts":"[684,882,807,509,1014,893,950,662,476]","trial_type":"fractal-mutation","trial_index":136,"time_elapsed":2930246,"internal_node_id":"0.0-5.0-32.0"},{"group":"hexagon_tri","fractal_assignment":["../images/ylw_slt.png","../images/gry_blk.png","../images/pnk_blu.png","../images/cyn_red.png","../images/blu_wht.png","../images/org_blu.png"],"mutagen_generator_assignment":[1,0],"goal":1,"start":4,"action_noise":0.2,"location_history":"[4,0,5,0,5,0,1]","action_history":"[0,0,1,0,1,1]","mutagen_history":"[1,1,0,1,0,0]","location_rts":"[1711,922,580,740,684,1385]","trial_type":"fractal-mutation","trial_index":137,"time_elapsed":2946666,"internal_node_id":"0.0-5.0-33.0"},{"group":"hexagon_tri","fractal_assignment":["../images/ylw_slt.png","../images/gry_blk.png","../images/pnk_blu.png","../images/cyn_red.png","../images/blu_wht.png","../images/org_blu.png"],"mutagen_generator_assignment":[1,0],"goal":2,"start":1,"action_noise":0.2,"location_history":"[1,3,4,0,5,4,0,1,3,4,0,5,0,5,4,2]","action_history":"[0,1,0,0,0,0,1,0,1,0,0,1,0,0,1]","mutagen_history":"[1,0,1,1,1,1,0,1,0,1,1,0,1,1,0]","location_rts":"[1578,930,741,688,1742,735,495,439,615,371,879,736,1078,1545,279]","trial_type":"fractal-mutation","trial_index":138,"time_elapsed":2980469,"internal_node_id":"0.0-5.0-34.0"},{"group":"hexagon_tri","fractal_assignment":["../images/ylw_slt.png","../images/gry_blk.png","../images/pnk_blu.png","../images/cyn_red.png","../images/blu_wht.png","../images/org_blu.png"],"mutagen_generator_assignment":[1,0],"goal":0,"start":2,"action_noise":0.2,"location_history":"[2,3,2,3,2,1,5,0]","action_history":"[0,0,1,0,0,1,1]","mutagen_history":"[1,1,0,1,1,0,0]","location_rts":"[1839,1116,563,669,1481,542,789]","trial_type":"fractal-mutation","trial_index":139,"time_elapsed":2999155,"internal_node_id":"0.0-5.0-35.0"},{"group":"hexagon_tri","fractal_assignment":["../images/ylw_slt.png","../images/gry_blk.png","../images/pnk_blu.png","../images/cyn_red.png","../images/blu_wht.png","../images/org_blu.png"],"mutagen_generator_assignment":[1,0],"goal":5,"start":0,"action_noise":0.2,"location_history":"[0,5]","action_history":"[0]","mutagen_history":"[1]","location_rts":"[991]","trial_type":"fractal-mutation","trial_index":140,"time_elapsed":3004860,"internal_node_id":"0.0-5.0-36.0"},{"group":"hexagon_tri","fractal_assignment":["../images/ylw_slt.png","../images/gry_blk.png","../images/pnk_blu.png","../images/cyn_red.png","../images/blu_wht.png","../images/org_blu.png"],"mutagen_generator_assignment":[1,0],"goal":2,"start":5,"action_noise":0.2,"location_history":"[5,4,0,5,0,5,4,2]","action_history":"[1,0,0,1,0,0,1]","mutagen_history":"[0,1,1,0,1,1,0]","location_rts":"[2662,398,1399,623,500,1536,1016]","trial_type":"fractal-mutation","trial_index":141,"time_elapsed":3024556,"internal_node_id":"0.0-5.0-37.0"},{"group":"hexagon_tri","fractal_assignment":["../images/ylw_slt.png","../images/gry_blk.png","../images/pnk_blu.png","../images/cyn_red.png","../images/blu_wht.png","../images/org_blu.png"],"mutagen_generator_assignment":[1,0],"goal":1,"start":2,"action_noise":0.2,"location_history":"[2,1]","action_history":"[0]","mutagen_history":"[1]","location_rts":"[1701]","trial_type":"fractal-mutation","trial_index":142,"time_elapsed":3031021,"internal_node_id":"0.0-5.0-38.0"},{"group":"hexagon_tri","fractal_assignment":["../images/ylw_slt.png","../images/gry_blk.png","../images/pnk_blu.png","../images/cyn_red.png","../images/blu_wht.png","../images/org_blu.png"],"mutagen_generator_assignment":[1,0],"goal":4,"start":1,"action_noise":0.2,"location_history":"[1,5,0,1,3,2,1,3,4]","action_history":"[0,1,1,0,1,1,0,0]","mutagen_history":"[1,0,0,1,0,0,1,1]","location_rts":"[2232,1177,4963,621,977,1147,519,1766]","trial_type":"fractal-mutation","trial_index":143,"time_elapsed":3057402,"internal_node_id":"0.0-5.0-39.0"},{"group":"hexagon_tri","fractal_assignment":["../images/ylw_slt.png","../images/gry_blk.png","../images/pnk_blu.png","../images/cyn_red.png","../images/blu_wht.png","../images/org_blu.png"],"mutagen_generator_assignment":[1,0],"goal":3,"start":4,"action_noise":0.2,"location_history":"[4,0,5,4,2,1,3]","action_history":"[1,0,0,1,0,0]","mutagen_history":"[0,1,1,0,1,1]","location_rts":"[791,553,463,1172,842,925]","trial_type":"fractal-mutation","trial_index":144,"time_elapsed":3072631,"internal_node_id":"0.0-5.0-40.0"},{"group":"hexagon_tri","fractal_assignment":["../images/ylw_slt.png","../images/gry_blk.png","../images/pnk_blu.png","../images/cyn_red.png","../images/blu_wht.png","../images/org_blu.png"],"mutagen_generator_assignment":[1,0],"goal":5,"start":3,"action_noise":0.2,"location_history":"[3,2,3,2,3,4,0,1,3,4,0,5]","action_history":"[1,1,0,1,1,0,0,0,1,0,0]","mutagen_history":"[0,0,1,0,0,1,1,1,0,1,1]","location_rts":"[7754,1316,524,693,701,641,385,735,942,657,707]","trial_type":"fractal-mutation","trial_index":145,"time_elapsed":3103930,"internal_node_id":"0.0-5.0-41.0"},{"group":"hexagon_tri","fractal_assignment":["../images/ylw_slt.png","../images/gry_blk.png","../images/pnk_blu.png","../images/cyn_red.png","../images/blu_wht.png","../images/org_blu.png"],"mutagen_generator_assignment":[1,0],"goal":3,"start":5,"action_noise":0.2,"location_history":"[5,4,2,1,5,0,1,3]","action_history":"[0,1,0,1,1,0,0]","mutagen_history":"[1,0,1,0,0,1,1]","location_rts":"[1622,823,637,849,1322,500,496]","trial_type":"fractal-mutation","trial_index":146,"time_elapsed":3122007,"internal_node_id":"0.0-5.0-42.0"},{"group":"hexagon_tri","fractal_assignment":["../images/ylw_slt.png","../images/gry_blk.png","../images/pnk_blu.png","../images/cyn_red.png","../images/blu_wht.png","../images/org_blu.png"],"mutagen_generator_assignment":[1,0],"goal":0,"start":3,"action_noise":0.2,"location_history":"[3,4,0]","action_history":"[1,0]","mutagen_history":"[0,1]","location_rts":"[980,564]","trial_type":"fractal-mutation","trial_index":147,"time_elapsed":3129260,"internal_node_id":"0.0-5.0-43.0"},{"group":"hexagon_tri","fractal_assignment":["../images/ylw_slt.png","../images/gry_blk.png","../images/pnk_blu.png","../images/cyn_red.png","../images/blu_wht.png","../images/org_blu.png"],"mutagen_generator_assignment":[1,0],"goal":2,"start":0,"action_noise":0.2,"location_history":"[0,5,0,5,4,2]","action_history":"[0,1,0,0,1]","mutagen_history":"[1,0,1,1,0]","location_rts":"[675,919,822,1431,753]","trial_type":"fractal-mutation","trial_index":148,"time_elapsed":3143251,"internal_node_id":"0.0-5.0-44.0"},{"group":"hexagon_tri","fractal_assignment":["../images/ylw_slt.png","../images/gry_blk.png","../images/pnk_blu.png","../images/cyn_red.png","../images/blu_wht.png","../images/org_blu.png"],"mutagen_generator_assignment":[1,0],"goal":4,"start":2,"action_noise":0.2,"location_history":"[2,1,5,0,1,3,2,1,5,4]","action_history":"[0,1,1,0,0,1,0,1,0]","mutagen_history":"[1,0,0,1,1,0,1,0,1]","location_rts":"[715,988,615,352,885,444,954,816,515]","trial_type":"fractal-mutation","trial_index":149,"time_elapsed":3163652,"internal_node_id":"0.0-5.0-45.0"},{"group":"hexagon_tri","fractal_assignment":["../images/ylw_slt.png","../images/gry_blk.png","../images/pnk_blu.png","../images/cyn_red.png","../images/blu_wht.png","../images/org_blu.png"],"mutagen_generator_assignment":[1,0],"goal":1,"start":4,"action_noise":0.2,"location_history":"[4,2,1]","action_history":"[1,0]","mutagen_history":"[0,1]","location_rts":"[1759,650]","trial_type":"fractal-mutation","trial_index":150,"time_elapsed":3171848,"internal_node_id":"0.0-5.0-46.0"},{"group":"hexagon_tri","fractal_assignment":["../images/ylw_slt.png","../images/gry_blk.png","../images/pnk_blu.png","../images/cyn_red.png","../images/blu_wht.png","../images/org_blu.png"],"mutagen_generator_assignment":[1,0],"goal":4,"start":1,"action_noise":0.2,"location_history":"[1,5,0,1,3,4]","action_history":"[0,1,1,0,1]","mutagen_history":"[1,0,0,1,0]","location_rts":"[916,1485,817,565,737]","trial_type":"fractal-mutation","trial_index":151,"time_elapsed":3185796,"internal_node_id":"0.0-5.0-47.0"},{"group":"hexagon_tri","fractal_assignment":["../images/ylw_slt.png","../images/gry_blk.png","../images/pnk_blu.png","../images/cyn_red.png","../images/blu_wht.png","../images/org_blu.png"],"mutagen_generator_assignment":[1,0],"goal":1,"start":4,"action_noise":0.2,"location_history":"[4,0,1]","action_history":"[0,1]","mutagen_history":"[1,0]","location_rts":"[762,674]","trial_type":"fractal-mutation","trial_index":152,"time_elapsed":3193088,"internal_node_id":"0.0-5.0-48.0"},{"group":"hexagon_tri","fractal_assignment":["../images/ylw_slt.png","../images/gry_blk.png","../images/pnk_blu.png","../images/cyn_red.png","../images/blu_wht.png","../images/org_blu.png"],"mutagen_generator_assignment":[1,0],"goal":3,"start":1,"action_noise":0.2,"location_history":"[1,3]","action_history":"[0]","mutagen_history":"[1]","location_rts":"[909]","trial_type":"fractal-mutation","trial_index":153,"time_elapsed":3198757,"internal_node_id":"0.0-5.0-49.0"},{"group":"hexagon_tri","fractal_assignment":["../images/ylw_slt.png","../images/gry_blk.png","../images/pnk_blu.png","../images/cyn_red.png","../images/blu_wht.png","../images/org_blu.png"],"mutagen_generator_assignment":[1,0],"goal":5,"start":3,"action_noise":0.2,"location_history":"[3,4,0,1,3,4,0,5]","action_history":"[1,0,1,1,0,0,1]","mutagen_history":"[0,1,0,0,1,1,0]","location_rts":"[1512,710,769,712,408,736,824]","trial_type":"fractal-mutation","trial_index":154,"time_elapsed":3215947,"internal_node_id":"0.0-5.0-50.0"},{"group":"hexagon_tri","fractal_assignment":["../images/ylw_slt.png","../images/gry_blk.png","../images/pnk_blu.png","../images/cyn_red.png","../images/blu_wht.png","../images/org_blu.png"],"mutagen_generator_assignment":[1,0],"goal":0,"start":5,"action_noise":0.2,"location_history":"[5,0]","action_history":"[1]","mutagen_history":"[0]","location_rts":"[5425]","trial_type":"fractal-mutation","trial_index":155,"time_elapsed":3225888,"internal_node_id":"0.0-5.0-51.0"},{"group":"hexagon_tri","fractal_assignment":["../images/ylw_slt.png","../images/gry_blk.png","../images/pnk_blu.png","../images/cyn_red.png","../images/blu_wht.png","../images/org_blu.png"],"mutagen_generator_assignment":[1,0],"goal":2,"start":0,"action_noise":0.2,"location_history":"[0,5,0,1,3,4,0,5,4,0,5,0,5,0,5,0,5,4,0,5,0,1,5,4,2]","action_history":"[0,1,0,1,1,1,0,0,0,0,1,0,1,1,1,0,0,1,0,1,1,0,1,1]","mutagen_history":"[1,0,1,0,0,0,1,1,1,1,0,1,0,0,0,1,1,0,1,0,0,1,0,0]","location_rts":"[3532,442,721,876,1017,24490,2671,1104,583,1710,1624,695,639,430,515,303,1398,582,878,3176,424,625,1060,797]","trial_type":"fractal-mutation","trial_index":156,"time_elapsed":3307755,"internal_node_id":"0.0-5.0-52.0"},{"group":"hexagon_tri","fractal_assignment":["../images/ylw_slt.png","../images/gry_blk.png","../images/pnk_blu.png","../images/cyn_red.png","../images/blu_wht.png","../images/org_blu.png"],"mutagen_generator_assignment":[1,0],"goal":1,"start":2,"action_noise":0.2,"location_history":"[2,1]","action_history":"[0]","mutagen_history":"[1]","location_rts":"[2529]","trial_type":"fractal-mutation","trial_index":157,"time_elapsed":3314998,"internal_node_id":"0.0-5.0-53.0"},{"group":"hexagon_tri","fractal_assignment":["../images/ylw_slt.png","../images/gry_blk.png","../images/pnk_blu.png","../images/cyn_red.png","../images/blu_wht.png","../images/org_blu.png"],"mutagen_generator_assignment":[1,0],"goal":2,"start":1,"action_noise":0.2,"location_history":"[1,3,2]","action_history":"[0,0]","mutagen_history":"[1,1]","location_rts":"[643,1217]","trial_type":"fractal-mutation","trial_index":158,"time_elapsed":3322813,"internal_node_id":"0.0-5.0-54.0"},{"group":"hexagon_tri","fractal_assignment":["../images/ylw_slt.png","../images/gry_blk.png","../images/pnk_blu.png","../images/cyn_red.png","../images/blu_wht.png","../images/org_blu.png"],"mutagen_generator_assignment":[1,0],"goal":5,"start":2,"action_noise":0.2,"location_history":"[2,1,5]","action_history":"[0,1]","mutagen_history":"[1,0]","location_rts":"[1036,435]","trial_type":"fractal-mutation","trial_index":159,"time_elapsed":3330046,"internal_node_id":"0.0-5.0-55.0"},{"group":"hexagon_tri","fractal_assignment":["../images/ylw_slt.png","../images/gry_blk.png","../images/pnk_blu.png","../images/cyn_red.png","../images/blu_wht.png","../images/org_blu.png"],"mutagen_generator_assignment":[1,0],"goal":4,"start":5,"action_noise":0.2,"location_history":"[5,4]","action_history":"[0]","mutagen_history":"[1]","location_rts":"[604]","trial_type":"fractal-mutation","trial_index":160,"time_elapsed":3335394,"internal_node_id":"0.0-5.0-56.0"},{"group":"hexagon_tri","fractal_assignment":["../images/ylw_slt.png","../images/gry_blk.png","../images/pnk_blu.png","../images/cyn_red.png","../images/blu_wht.png","../images/org_blu.png"],"mutagen_generator_assignment":[1,0],"goal":3,"start":4,"action_noise":0.2,"location_history":"[4,2,3]","action_history":"[1,1]","mutagen_history":"[0,0]","location_rts":"[1162,1209]","trial_type":"fractal-mutation","trial_index":161,"time_elapsed":3343315,"internal_node_id":"0.0-5.0-57.0"},{"group":"hexagon_tri","fractal_assignment":["../images/ylw_slt.png","../images/gry_blk.png","../images/pnk_blu.png","../images/cyn_red.png","../images/blu_wht.png","../images/org_blu.png"],"mutagen_generator_assignment":[1,0],"goal":0,"start":3,"action_noise":0.2,"location_history":"[3,4,0]","action_history":"[1,0]","mutagen_history":"[0,1]","location_rts":"[2069,616]","trial_type":"fractal-mutation","trial_index":162,"time_elapsed":3351801,"internal_node_id":"0.0-5.0-58.0"},{"group":"hexagon_tri","fractal_assignment":["../images/ylw_slt.png","../images/gry_blk.png","../images/pnk_blu.png","../images/cyn_red.png","../images/blu_wht.png","../images/org_blu.png"],"mutagen_generator_assignment":[1,0],"goal":2,"start":0,"action_noise":0.2,"location_history":"[0,5,4,0,1,3,2]","action_history":"[1,0,0,1,1,0]","mutagen_history":"[0,1,1,0,0,1]","location_rts":"[1045,1110,1264,580,504,807]","trial_type":"fractal-mutation","trial_index":163,"time_elapsed":3367593,"internal_node_id":"0.0-5.0-59.0"},{"group":"hexagon_tri","fractal_assignment":["../images/ylw_slt.png","../images/gry_blk.png","../images/pnk_blu.png","../images/cyn_red.png","../images/blu_wht.png","../images/org_blu.png"],"mutagen_generator_assignment":[1,0],"goal":1,"start":2,"action_noise":0.2,"location_history":"[2,3,4,2,1]","action_history":"[1,1,1,0]","mutagen_history":"[0,0,0,1]","location_rts":"[2222,1228,1187,667]","trial_type":"fractal-mutation","trial_index":164,"time_elapsed":3380636,"internal_node_id":"0.0-5.0-60.0"},{"group":"hexagon_tri","fractal_assignment":["../images/ylw_slt.png","../images/gry_blk.png","../images/pnk_blu.png","../images/cyn_red.png","../images/blu_wht.png","../images/org_blu.png"],"mutagen_generator_assignment":[1,0],"goal":0,"start":1,"action_noise":0.2,"location_history":"[1,3,4,0]","action_history":"[0,1,0]","mutagen_history":"[1,0,1]","location_rts":"[3099,640,870]","trial_type":"fractal-mutation","trial_index":165,"time_elapsed":3392362,"internal_node_id":"0.0-5.0-61.0"},{"group":"hexagon_tri","fractal_assignment":["../images/ylw_slt.png","../images/gry_blk.png","../images/pnk_blu.png","../images/cyn_red.png","../images/blu_wht.png","../images/org_blu.png"],"mutagen_generator_assignment":[1,0],"goal":3,"start":0,"action_noise":0.2,"location_history":"[0,5,0,5,0,1,3]","action_history":"[0,1,0,0,1,0]","mutagen_history":"[1,0,1,1,0,1]","location_rts":"[1580,738,653,741,1173,1259]","trial_type":"fractal-mutation","trial_index":166,"time_elapsed":3409092,"internal_node_id":"0.0-5.0-62.0"},{"group":"hexagon_tri","fractal_assignment":["../images/ylw_slt.png","../images/gry_blk.png","../images/pnk_blu.png","../images/cyn_red.png","../images/blu_wht.png","../images/org_blu.png"],"mutagen_generator_assignment":[1,0],"goal":5,"start":3,"action_noise":0.2,"location_history":"[3,4,0,5]","action_history":"[1,0,1]","mutagen_history":"[0,1,0]","location_rts":"[2674,1390,616]","trial_type":"fractal-mutation","trial_index":167,"time_elapsed":3420606,"internal_node_id":"0.0-5.0-63.0"},{"group":"hexagon_tri","fractal_assignment":["../images/ylw_slt.png","../images/gry_blk.png","../images/pnk_blu.png","../images/cyn_red.png","../images/blu_wht.png","../images/org_blu.png"],"mutagen_generator_assignment":[1,0],"goal":4,"start":5,"action_noise":0.2,"location_history":"[5,4]","action_history":"[0]","mutagen_history":"[1]","location_rts":"[1208]","trial_type":"fractal-mutation","trial_index":168,"time_elapsed":3426591,"internal_node_id":"0.0-5.0-64.0"},{"group":"hexagon_tri","fractal_assignment":["../images/ylw_slt.png","../images/gry_blk.png","../images/pnk_blu.png","../images/cyn_red.png","../images/blu_wht.png","../images/org_blu.png"],"mutagen_generator_assignment":[1,0],"goal":1,"start":4,"action_noise":0.2,"location_history":"[4,0,5,0,5,0,1]","action_history":"[1,0,0,0,1,1]","mutagen_history":"[0,1,1,1,0,0]","location_rts":"[761,436,775,992,654,907]","trial_type":"fractal-mutation","trial_index":169,"time_elapsed":3441557,"internal_node_id":"0.0-5.0-65.0"},{"group":"hexagon_tri","fractal_assignment":["../images/ylw_slt.png","../images/gry_blk.png","../images/pnk_blu.png","../images/cyn_red.png","../images/blu_wht.png","../images/org_blu.png"],"mutagen_generator_assignment":[1,0],"goal":5,"start":1,"action_noise":0.2,"location_history":"[1,5]","action_history":"[1]","mutagen_history":"[0]","location_rts":"[994]","trial_type":"fractal-mutation","trial_index":170,"time_elapsed":3447069,"internal_node_id":"0.0-5.0-66.0"},{"group":"hexagon_tri","fractal_assignment":["../images/ylw_slt.png","../images/gry_blk.png","../images/pnk_blu.png","../images/cyn_red.png","../images/blu_wht.png","../images/org_blu.png"],"mutagen_generator_assignment":[1,0],"goal":2,"start":5,"action_noise":0.2,"location_history":"[5,4,2]","action_history":"[0,1]","mutagen_history":"[1,0]","location_rts":"[1381,1044]","trial_type":"fractal-mutation","trial_index":171,"time_elapsed":3455415,"internal_node_id":"0.0-5.0-67.0"},{"group":"hexagon_tri","fractal_assignment":["../images/ylw_slt.png","../images/gry_blk.png","../images/pnk_blu.png","../images/cyn_red.png","../images/blu_wht.png","../images/org_blu.png"],"mutagen_generator_assignment":[1,0],"goal":3,"start":2,"action_noise":0.2,"location_history":"[2,3]","action_history":"[1]","mutagen_history":"[0]","location_rts":"[702]","trial_type":"fractal-mutation","trial_index":172,"time_elapsed":3460633,"internal_node_id":"0.0-5.0-68.0"},{"group":"hexagon_tri","fractal_assignment":["../images/ylw_slt.png","../images/gry_blk.png","../images/pnk_blu.png","../images/cyn_red.png","../images/blu_wht.png","../images/org_blu.png"],"mutagen_generator_assignment":[1,0],"goal":4,"start":3,"action_noise":0.2,"location_history":"[3,4]","action_history":"[1]","mutagen_history":"[0]","location_rts":"[1051]","trial_type":"fractal-mutation","trial_index":173,"time_elapsed":3466194,"internal_node_id":"0.0-5.0-69.0"},{"group":"hexagon_tri","fractal_assignment":["../images/ylw_slt.png","../images/gry_blk.png","../images/pnk_blu.png","../images/cyn_red.png","../images/blu_wht.png","../images/org_blu.png"],"mutagen_generator_assignment":[1,0],"goal":0,"start":4,"action_noise":0.2,"location_history":"[4,2,3,2,1,5,0]","action_history":"[0,1,0,0,1,1]","mutagen_history":"[1,0,1,1,0,0]","location_rts":"[946,656,714,990,611,653]","trial_type":"fractal-mutation","trial_index":174,"time_elapsed":3481370,"internal_node_id":"0.0-5.0-70.0"},{"group":"hexagon_tri","fractal_assignment":["../images/ylw_slt.png","../images/gry_blk.png","../images/pnk_blu.png","../images/cyn_red.png","../images/blu_wht.png","../images/org_blu.png"],"mutagen_generator_assignment":[1,0],"goal":5,"start":0,"action_noise":0.2,"location_history":"[0,5]","action_history":"[0]","mutagen_history":"[1]","location_rts":"[1632]","trial_type":"fractal-mutation","trial_index":175,"time_elapsed":3487711,"internal_node_id":"0.0-5.0-71.0"},{"group":"hexagon_tri","fractal_assignment":["../images/ylw_slt.png","../images/gry_blk.png","../images/pnk_blu.png","../images/cyn_red.png","../images/blu_wht.png","../images/org_blu.png"],"mutagen_generator_assignment":[1,0],"goal":0,"start":5,"action_noise":0.2,"location_history":"[5,0]","action_history":"[1]","mutagen_history":"[0]","location_rts":"[676]","trial_type":"fractal-mutation","trial_index":176,"time_elapsed":3492897,"internal_node_id":"0.0-5.0-72.0"},{"group":"hexagon_tri","fractal_assignment":["../images/ylw_slt.png","../images/gry_blk.png","../images/pnk_blu.png","../images/cyn_red.png","../images/blu_wht.png","../images/org_blu.png"],"mutagen_generator_assignment":[1,0],"goal":3,"start":0,"action_noise":0.2,"location_history":"[0,5,0,5,4,0,1,3]","action_history":"[0,1,0,0,0,1,0]","mutagen_history":"[1,0,1,1,1,0,1]","location_rts":"[418,838,946,610,443,2491,1569]","trial_type":"fractal-mutation","trial_index":177,"time_elapsed":3512323,"internal_node_id":"0.0-5.0-73.0"},{"group":"hexagon_tri","fractal_assignment":["../images/ylw_slt.png","../images/gry_blk.png","../images/pnk_blu.png","../images/cyn_red.png","../images/blu_wht.png","../images/org_blu.png"],"mutagen_generator_assignment":[1,0],"goal":1,"start":3,"action_noise":0.2,"location_history":"[3,4,0,1]","action_history":"[1,0,1]","mutagen_history":"[0,1,0]","location_rts":"[510,1437,821]","trial_type":"fractal-mutation","trial_index":178,"time_elapsed":3521998,"internal_node_id":"0.0-5.0-74.0"},{"group":"hexagon_tri","fractal_assignment":["../images/ylw_slt.png","../images/gry_blk.png","../images/pnk_blu.png","../images/cyn_red.png","../images/blu_wht.png","../images/org_blu.png"],"mutagen_generator_assignment":[1,0],"goal":2,"start":1,"action_noise":0.2,"location_history":"[1,5,4,2]","action_history":"[1,0,0]","mutagen_history":"[0,1,1]","location_rts":"[3348,285,951]","trial_type":"fractal-mutation","trial_index":179,"time_elapsed":3533586,"internal_node_id":"0.0-5.0-75.0"},{"group":"hexagon_tri","fractal_assignment":["../images/ylw_slt.png","../images/gry_blk.png","../images/pnk_blu.png","../images/cyn_red.png","../images/blu_wht.png","../images/org_blu.png"],"mutagen_generator_assignment":[1,0],"goal":4,"start":2,"action_noise":0.2,"location_history":"[2,1,5,4]","action_history":"[0,1,0]","mutagen_history":"[1,0,1]","location_rts":"[882,554,676]","trial_type":"fractal-mutation","trial_index":180,"time_elapsed":3542722,"internal_node_id":"0.0-5.0-76.0"},{"group":"hexagon_tri","fractal_assignment":["../images/ylw_slt.png","../images/gry_blk.png","../images/pnk_blu.png","../images/cyn_red.png","../images/blu_wht.png","../images/org_blu.png"],"mutagen_generator_assignment":[1,0],"goal":3,"start":4,"action_noise":0.2,"location_history":"[4,2,3]","action_history":"[1,1]","mutagen_history":"[0,0]","location_rts":"[560,528]","trial_type":"fractal-mutation","trial_index":181,"time_elapsed":3549335,"internal_node_id":"0.0-5.0-77.0"},{"group":"hexagon_tri","fractal_assignment":["../images/ylw_slt.png","../images/gry_blk.png","../images/pnk_blu.png","../images/cyn_red.png","../images/blu_wht.png","../images/org_blu.png"],"mutagen_generator_assignment":[1,0],"goal":0,"start":3,"action_noise":0.2,"location_history":"[3,4,2,3,2,1,5,0]","action_history":"[1,0,0,0,1,1,0]","mutagen_history":"[0,1,1,1,0,0,1]","location_rts":"[779,442,267,963,628,498,564]","trial_type":"fractal-mutation","trial_index":182,"time_elapsed":3565309,"internal_node_id":"0.0-5.0-78.0"},{"group":"hexagon_tri","fractal_assignment":["../images/ylw_slt.png","../images/gry_blk.png","../images/pnk_blu.png","../images/cyn_red.png","../images/blu_wht.png","../images/org_blu.png"],"mutagen_generator_assignment":[1,0],"goal":4,"start":0,"action_noise":0.2,"location_history":"[0,5,4]","action_history":"[0,1]","mutagen_history":"[1,0]","location_rts":"[1203,650]","trial_type":"fractal-mutation","trial_index":183,"time_elapsed":3573027,"internal_node_id":"0.0-5.0-79.0"},{"group":"hexagon_tri","fractal_assignment":["../images/ylw_slt.png","../images/gry_blk.png","../images/pnk_blu.png","../images/cyn_red.png","../images/blu_wht.png","../images/org_blu.png"],"mutagen_generator_assignment":[1,0],"goal":5,"start":4,"action_noise":0.2,"location_history":"[4,0,5]","action_history":"[1,0]","mutagen_history":"[0,1]","location_rts":"[639,893]","trial_type":"fractal-mutation","trial_index":184,"time_elapsed":3580308,"internal_node_id":"0.0-5.0-80.0"},{"group":"hexagon_tri","fractal_assignment":["../images/ylw_slt.png","../images/gry_blk.png","../images/pnk_blu.png","../images/cyn_red.png","../images/blu_wht.png","../images/org_blu.png"],"mutagen_generator_assignment":[1,0],"goal":1,"start":5,"action_noise":0.2,"location_history":"[5,0,5,4,2,1]","action_history":"[1,0,0,1,1]","mutagen_history":"[0,1,1,0,0]","location_rts":"[540,998,1257,1176,823]","trial_type":"fractal-mutation","trial_index":185,"time_elapsed":3594298,"internal_node_id":"0.0-5.0-81.0"},{"group":"hexagon_tri","fractal_assignment":["../images/ylw_slt.png","../images/gry_blk.png","../images/pnk_blu.png","../images/cyn_red.png","../images/blu_wht.png","../images/org_blu.png"],"mutagen_generator_assignment":[1,0],"goal":2,"start":1,"action_noise":0.2,"location_history":"[1,5,4,0,1,5,0,5,4,2]","action_history":"[1,0,0,1,1,0,0,0,1]","mutagen_history":"[0,1,1,0,0,1,1,1,0]","location_rts":"[791,1034,765,525,570,555,522,552,1032]","trial_type":"fractal-mutation","trial_index":186,"time_elapsed":3614884,"internal_node_id":"0.0-5.0-82.0"},{"group":"hexagon_tri","fractal_assignment":["../images/ylw_slt.png","../images/gry_blk.png","../images/pnk_blu.png","../images/cyn_red.png","../images/blu_wht.png","../images/org_blu.png"],"mutagen_generator_assignment":[1,0],"goal":4,"start":2,"action_noise":0.2,"location_history":"[2,3,2,1,5,4]","action_history":"[1,0,0,1,0]","mutagen_history":"[0,1,1,0,1]","location_rts":"[668,555,803,410,653]","trial_type":"fractal-mutation","trial_index":187,"time_elapsed":3627333,"internal_node_id":"0.0-5.0-83.0"},{"group":"hexagon_tri","fractal_assignment":["../images/ylw_slt.png","../images/gry_blk.png","../images/pnk_blu.png","../images/cyn_red.png","../images/blu_wht.png","../images/org_blu.png"],"mutagen_generator_assignment":[1,0],"goal":0,"start":4,"action_noise":0.2,"location_history":"[4,2,3,4,2,1,3,2,3,4,2,1,3,4,0]","action_history":"[0,1,1,1,0,0,0,1,1,0,0,0,0,1]","mutagen_history":"[1,0,0,0,1,1,1,0,0,1,1,1,1,0]","location_rts":"[519,866,480,1140,420,548,1019,536,807,294,322,269,746,472]","trial_type":"fractal-mutation","trial_index":188,"time_elapsed":3655879,"internal_node_id":"0.0-5.0-84.0"},{"group":"hexagon_tri","fractal_assignment":["../images/ylw_slt.png","../images/gry_blk.png","../images/pnk_blu.png","../images/cyn_red.png","../images/blu_wht.png","../images/org_blu.png"],"mutagen_generator_assignment":[1,0],"goal":5,"start":0,"action_noise":0.2,"location_history":"[0,1,3,2,3,4,2,3,2,1,3,2,3,2,3,2,3,2,1,3,2,1,5]","action_history":"[1,0,0,1,1,1,1,0,0,0,0,1,0,1,0,0,0,0,0,0,0,1]","mutagen_history":"[0,1,1,0,0,0,0,1,1,1,1,0,1,0,1,1,1,1,1,1,1,0]","location_rts":"[567,557,984,365,503,588,755,462,514,1142,909,445,875,762,796,663,584,539,1031,1193,607,309]","trial_type":"fractal-mutation","trial_index":189,"time_elapsed":3700827,"internal_node_id":"0.0-5.0-85.0"},{"group":"hexagon_tri","fractal_assignment":["../images/ylw_slt.png","../images/gry_blk.png","../images/pnk_blu.png","../images/cyn_red.png","../images/blu_wht.png","../images/org_blu.png"],"mutagen_generator_assignment":[1,0],"goal":3,"start":5,"action_noise":0.2,"location_history":"[5,4,0,1,5,0,1,5,4,2,1,5,0,1,5,4,0,1,3]","action_history":"[1,0,1,1,0,1,0,0,1,1,1,1,1,0,0,0,1,1]","mutagen_history":"[0,1,0,0,1,0,1,1,0,0,0,0,0,1,1,1,0,0]","location_rts":"[754,811,990,447,690,697,909,912,618,1089,562,580,755,466,875,3979,577,891]","trial_type":"fractal-mutation","trial_index":190,"time_elapsed":3742076,"internal_node_id":"0.0-5.0-86.0"},{"group":"hexagon_tri","fractal_assignment":["../images/ylw_slt.png","../images/gry_blk.png","../images/pnk_blu.png","../images/cyn_red.png","../images/blu_wht.png","../images/org_blu.png"],"mutagen_generator_assignment":[1,0],"goal":1,"start":3,"action_noise":0.2,"location_history":"[3,4,0,1]","action_history":"[1,0,1]","mutagen_history":"[0,1,0]","location_rts":"[2173,551,476]","trial_type":"fractal-mutation","trial_index":191,"time_elapsed":3752150,"internal_node_id":"0.0-5.0-87.0"},{"group":"hexagon_tri","fractal_assignment":["../images/ylw_slt.png","../images/gry_blk.png","../images/pnk_blu.png","../images/cyn_red.png","../images/blu_wht.png","../images/org_blu.png"],"mutagen_generator_assignment":[1,0],"goal":2,"start":1,"action_noise":0.2,"location_history":"[1,3,4,0,5,4,2]","action_history":"[0,1,0,0,0,1]","mutagen_history":"[1,0,1,1,1,0]","location_rts":"[310,1018,623,688,896,790]","trial_type":"fractal-mutation","trial_index":192,"time_elapsed":3767182,"internal_node_id":"0.0-5.0-88.0"},{"group":"hexagon_tri","fractal_assignment":["../images/ylw_slt.png","../images/gry_blk.png","../images/pnk_blu.png","../images/cyn_red.png","../images/blu_wht.png","../images/org_blu.png"],"mutagen_generator_assignment":[1,0],"goal":0,"start":2,"action_noise":0.2,"location_history":"[2,3,2,3,2,1,3,4,0]","action_history":"[1,0,1,1,0,0,1,0]","mutagen_history":"[0,1,0,0,1,1,0,1]","location_rts":"[667,529,1072,1057,806,1357,1166,835]","trial_type":"fractal-mutation","trial_index":193,"time_elapsed":3787417,"internal_node_id":"0.0-5.0-89.0"},{"group":"hexagon_tri","fractal_assignment":["../images/ylw_slt.png","../images/gry_blk.png","../images/pnk_blu.png","../images/cyn_red.png","../images/blu_wht.png","../images/org_blu.png"],"mutagen_generator_assignment":[1,0],"goal":5,"start":0,"action_noise":0.2,"location_history":"[0,1,3,2,3,2,1,5]","action_history":"[1,0,1,1,0,0,1]","mutagen_history":"[0,1,0,0,1,1,0]","location_rts":"[608,384,592,782,657,450,435]","trial_type":"fractal-mutation","trial_index":194,"time_elapsed":3802900,"internal_node_id":"0.0-5.0-90.0"},{"group":"hexagon_tri","fractal_assignment":["../images/ylw_slt.png","../images/gry_blk.png","../images/pnk_blu.png","../images/cyn_red.png","../images/blu_wht.png","../images/org_blu.png"],"mutagen_generator_assignment":[1,0],"goal":1,"start":5,"action_noise":0.2,"location_history":"[5,4,2,3,2,3,4,0,5,0,5,0,5,0,1]","action_history":"[0,1,1,0,1,1,0,0,1,0,1,1,1,1]","mutagen_history":"[1,0,0,1,0,0,1,1,0,1,0,0,0,0]","location_rts":"[742,719,968,561,667,763,586,673,654,773,445,349,692,803]","trial_type":"fractal-mutation","trial_index":195,"time_elapsed":3832237,"internal_node_id":"0.0-5.0-91.0"},{"group":"hexagon_tri","fractal_assignment":["../images/ylw_slt.png","../images/gry_blk.png","../images/pnk_blu.png","../images/cyn_red.png","../images/blu_wht.png","../images/org_blu.png"],"mutagen_generator_assignment":[1,0],"goal":3,"start":1,"action_noise":0.2,"location_history":"[1,5,4,2,3]","action_history":"[0,0,1,0]","mutagen_history":"[1,1,0,1]","location_rts":"[1004,1304,588,894]","trial_type":"fractal-mutation","trial_index":196,"time_elapsed":3844300,"internal_node_id":"0.0-5.0-92.0"},{"group":"hexagon_tri","fractal_assignment":["../images/ylw_slt.png","../images/gry_blk.png","../images/pnk_blu.png","../images/cyn_red.png","../images/blu_wht.png","../images/org_blu.png"],"mutagen_generator_assignment":[1,0],"goal":4,"start":3,"action_noise":0.2,"location_history":"[3,2,3,2,1,5,0,5,4]","action_history":"[0,1,0,0,1,1,0,0]","mutagen_history":"[1,0,1,1,0,0,1,1]","location_rts":"[1885,1227,754,645,527,1228,471,440]","trial_type":"fractal-mutation","trial_index":197,"time_elapsed":3864633,"internal_node_id":"0.0-5.0-93.0"},{"group":"hexagon_tri","fractal_assignment":["../images/ylw_slt.png","../images/gry_blk.png","../images/pnk_blu.png","../images/cyn_red.png","../images/blu_wht.png","../images/org_blu.png"],"mutagen_generator_assignment":[1,0],"goal":2,"start":4,"action_noise":0.2,"location_history":"[4,2]","action_history":"[1]","mutagen_history":"[0]","location_rts":"[5375]","trial_type":"fractal-mutation","trial_index":198,"time_elapsed":3874516,"internal_node_id":"0.0-5.0-94.0"},{"group":"hexagon_tri","fractal_assignment":["../images/ylw_slt.png","../images/gry_blk.png","../images/pnk_blu.png","../images/cyn_red.png","../images/blu_wht.png","../images/org_blu.png"],"mutagen_generator_assignment":[1,0],"goal":4,"start":2,"action_noise":0.2,"location_history":"[2,1,3,4]","action_history":"[0,1,1]","mutagen_history":"[1,0,0]","location_rts":"[1396,1332,680]","trial_type":"fractal-mutation","trial_index":199,"time_elapsed":3884974,"internal_node_id":"0.0-5.0-95.0"},{"group":"hexagon_tri","fractal_assignment":["../images/ylw_slt.png","../images/gry_blk.png","../images/pnk_blu.png","../images/cyn_red.png","../images/blu_wht.png","../images/org_blu.png"],"mutagen_generator_assignment":[1,0],"goal":0,"start":4,"action_noise":0.2,"location_history":"[4,0]","action_history":"[0]","mutagen_history":"[1]","location_rts":"[2953]","trial_type":"fractal-mutation","trial_index":200,"time_elapsed":3892638,"internal_node_id":"0.0-5.0-96.0"},{"group":"hexagon_tri","fractal_assignment":["../images/ylw_slt.png","../images/gry_blk.png","../images/pnk_blu.png","../images/cyn_red.png","../images/blu_wht.png","../images/org_blu.png"],"mutagen_generator_assignment":[1,0],"goal":5,"start":0,"action_noise":0.2,"location_history":"[0,1,3,2,3,2,3,4,2,1,3,4,2,3,2,1,3,2,1,5]","action_history":"[1,0,1,1,1,0,0,1,0,0,1,1,1,0,0,0,0,1,1]","mutagen_history":"[0,1,0,0,0,1,1,0,1,1,0,0,0,1,1,1,1,0,0]","location_rts":"[890,523,606,651,907,549,282,279,791,1240,576,633,697,439,458,574,626,783,1056]","trial_type":"fractal-mutation","trial_index":201,"time_elapsed":3931195,"internal_node_id":"0.0-5.0-97.0"},{"group":"hexagon_tri","fractal_assignment":["../images/ylw_slt.png","../images/gry_blk.png","../images/pnk_blu.png","../images/cyn_red.png","../images/blu_wht.png","../images/org_blu.png"],"mutagen_generator_assignment":[1,0],"goal":1,"start":5,"action_noise":0.2,"location_history":"[5,0,5,0,1]","action_history":"[1,0,1,1]","mutagen_history":"[0,1,0,0]","location_rts":"[411,414,872,972]","trial_type":"fractal-mutation","trial_index":202,"time_elapsed":3941904,"internal_node_id":"0.0-5.0-98.0"},{"group":"hexagon_tri","fractal_assignment":["../images/ylw_slt.png","../images/gry_blk.png","../images/pnk_blu.png","../images/cyn_red.png","../images/blu_wht.png","../images/org_blu.png"],"mutagen_generator_assignment":[1,0],"goal":3,"start":1,"action_noise":0.2,"location_history":"[1,3]","action_history":"[1]","mutagen_history":"[0]","location_rts":"[581]","trial_type":"fractal-mutation","trial_index":203,"time_elapsed":3946996,"internal_node_id":"0.0-5.0-99.0"},{"view_history":"[{\"page_index\":0,\"viewing_time\":12418}]","rt":12419,"trial_type":"instructions","trial_index":204,"time_elapsed":3960415,"internal_node_id":"0.0-6.0"},{"rt":89446,"responses":"{\"Q0\":\"I found it VERY difficult to learn sequences in both tests and found I could only remember a few associations. Even them, associations often seemed to change, especially in the first test and that made it even more difficult.\"}","trial_type":"survey-text","trial_index":205,"time_elapsed":4050866,"internal_node_id":"0.0-7.0"}]