[{"view_history":"[{\"page_index\":0,\"viewing_time\":15790},{\"page_index\":1,\"viewing_time\":16722},{\"page_index\":2,\"viewing_time\":27109},{\"page_index\":3,\"viewing_time\":8375}]","rt":67996,"trial_type":"instructions","trial_index":0,"time_elapsed":67997,"internal_node_id":"0.0-0.0"},{"view_history":"[{\"page_index\":0,\"viewing_time\":4110},{\"page_index\":1,\"viewing_time\":58576}]","rt":62687,"trial_type":"instructions","trial_index":1,"time_elapsed":131685,"internal_node_id":"0.0-1.0"},{"group":"hexagon_bi","room_assignment":["purple","yellow","green","grey","red","blue"],"door_color_assignment":["white","black"],"door_generator_assignment":[0,1],"goal":4,"start":0,"action_noise":0.2,"location_history":"[0,5,0,5,4]","action_history":"[0,0,0,1]","door_history":"[0,0,0,1]","location_rts":"[5956,1207,997,705]","trial_type":"two-door-navigation","trial_index":2,"time_elapsed":148156,"internal_node_id":"0.0-2.0-0.0"},{"group":"hexagon_bi","room_assignment":["purple","yellow","green","grey","red","blue"],"door_color_assignment":["white","black"],"door_generator_assignment":[0,1],"goal":3,"start":4,"action_noise":0.2,"location_history":"[4,5,0,1,0,1,2,1,2,1,0,5,0,5,0,5,4,3]","action_history":"[1,0,1,1,1,0,0,0,0,0,1,0,0,0,0,0,0]","door_history":"[1,0,1,1,1,0,0,0,0,0,1,0,0,0,0,0,0]","location_rts":"[3041,1076,1001,442,427,865,468,413,403,415,639,497,414,364,293,407,370]","trial_type":"two-door-navigation","trial_index":3,"time_elapsed":180618,"internal_node_id":"0.0-2.0-1.0"},{"group":"hexagon_bi","room_assignment":["purple","yellow","green","grey","red","blue"],"door_color_assignment":["white","black"],"door_generator_assignment":[0,1],"goal":5,"start":3,"action_noise":0.2,"location_history":"[3,2,3,2,1,2,3,4,3,4,3,2,1,0,5]","action_history":"[0,1,1,1,1,1,1,0,0,0,0,0,0,0]","door_history":"[0,1,1,1,1,1,1,0,0,0,0,0,0,0]","location_rts":"[1999,964,518,499,418,439,484,376,348,316,369,378,479,432]","trial_type":"two-door-navigation","trial_index":4,"time_elapsed":206481,"internal_node_id":"0.0-2.0-2.0"},{"group":"hexagon_bi","room_assignment":["purple","yellow","green","grey","red","blue"],"door_color_assignment":["white","black"],"door_generator_assignment":[0,1],"goal":2,"start":5,"action_noise":0.2,"location_history":"[5,4,5,0,5,0,5,4,3,2]","action_history":"[0,0,0,0,0,0,0,0,0]","door_history":"[0,0,0,0,0,0,0,0,0]","location_rts":"[2455,1101,620,578,859,485,1128,830,1146]","trial_type":"two-door-navigation","trial_index":5,"time_elapsed":228380,"internal_node_id":"0.0-2.0-3.0"},{"group":"hexagon_bi","room_assignment":["purple","yellow","green","grey","red","blue"],"door_color_assignment":["white","black"],"door_generator_assignment":[0,1],"goal":1,"start":2,"action_noise":0.2,"location_history":"[2,3,4,5,4,5,0,5,0,5,0,5,4,5,0,1]","action_history":"[1,0,1,0,1,0,0,0,0,0,0,1,1,1,1]","door_history":"[1,0,1,0,1,0,0,0,0,0,0,1,1,1,1]","location_rts":"[21644,1008,419,290,445,1834,358,374,397,571,795,455,379,344,432]","trial_type":"two-door-navigation","trial_index":6,"time_elapsed":276965,"internal_node_id":"0.0-2.0-4.0"},{"group":"hexagon_bi","room_assignment":["purple","yellow","green","grey","red","blue"],"door_color_assignment":["white","black"],"door_generator_assignment":[0,1],"goal":4,"start":1,"action_noise":0.2,"location_history":"[1,2,1,2,1,2,1,0,1,0,1,0,5,4]","action_history":"[0,0,0,0,0,1,1,1,1,1,1,0,1]","door_history":"[0,0,0,0,0,1,1,1,1,1,1,0,1]","location_rts":"[2513,657,478,591,337,317,353,659,679,450,519,241,1844]","trial_type":"two-door-navigation","trial_index":7,"time_elapsed":303396,"internal_node_id":"0.0-2.0-5.0"},{"group":"hexagon_bi","room_assignment":["purple","yellow","green","grey","red","blue"],"door_color_assignment":["white","black"],"door_generator_assignment":[0,1],"goal":1,"start":4,"action_noise":0.2,"location_history":"[4,5,4,5,0,1]","action_history":"[1,0,1,0,1]","door_history":"[1,0,1,0,1]","location_rts":"[2461,915,266,361,659]","trial_type":"two-door-navigation","trial_index":8,"time_elapsed":316675,"internal_node_id":"0.0-2.0-6.0"},{"group":"hexagon_bi","room_assignment":["purple","yellow","green","grey","red","blue"],"door_color_assignment":["white","black"],"door_generator_assignment":[0,1],"goal":5,"start":1,"action_noise":0.2,"location_history":"[1,2,3,4,5]","action_history":"[0,1,0,1]","door_history":"[0,1,0,1]","location_rts":"[2554,317,327,705]","trial_type":"two-door-navigation","trial_index":9,"time_elapsed":328181,"internal_node_id":"0.0-2.0-7.0"},{"group":"hexagon_bi","room_assignment":["purple","yellow","green","grey","red","blue"],"door_color_assignment":["white","black"],"door_generator_assignment":[0,1],"goal":0,"start":5,"action_noise":0.2,"location_history":"[5,0]","action_history":"[0]","door_history":"[0]","location_rts":"[2691]","trial_type":"two-door-navigation","trial_index":10,"time_elapsed":335401,"internal_node_id":"0.0-2.0-8.0"},{"group":"hexagon_bi","room_assignment":["purple","yellow","green","grey","red","blue"],"door_color_assignment":["white","black"],"door_generator_assignment":[0,1],"goal":2,"start":0,"action_noise":0.2,"location_history":"[0,5,4,3,4,3,4,5,4,5,0,1,2]","action_history":"[0,1,0,1,0,1,0,1,0,0,0,0]","door_history":"[0,1,0,1,0,1,0,1,0,0,0,0]","location_rts":"[1645,578,479,767,316,626,340,447,598,1446,384,390]","trial_type":"two-door-navigation","trial_index":11,"time_elapsed":359203,"internal_node_id":"0.0-2.0-9.0"},{"group":"hexagon_bi","room_assignment":["purple","yellow","green","grey","red","blue"],"door_color_assignment":["white","black"],"door_generator_assignment":[0,1],"goal":3,"start":2,"action_noise":0.2,"location_history":"[2,1,0,1,2,1,0,5,4,3]","action_history":"[0,1,1,1,1,1,0,0,0]","door_history":"[0,1,1,1,1,1,0,0,0]","location_rts":"[2408,288,508,363,382,451,242,704,387]","trial_type":"two-door-navigation","trial_index":12,"time_elapsed":377644,"internal_node_id":"0.0-2.0-10.0"},{"group":"hexagon_bi","room_assignment":["purple","yellow","green","grey","red","blue"],"door_color_assignment":["white","black"],"door_generator_assignment":[0,1],"goal":0,"start":3,"action_noise":0.2,"location_history":"[3,4,3,4,3,2,3,2,3,2,1,2,1,0]","action_history":"[0,0,0,0,1,1,1,1,1,0,0,0,1]","door_history":"[0,0,0,0,1,1,1,1,1,0,0,0,1]","location_rts":"[3871,512,1509,449,414,679,522,370,433,513,506,797,895]","trial_type":"two-door-navigation","trial_index":13,"time_elapsed":405918,"internal_node_id":"0.0-2.0-11.0"},{"group":"hexagon_bi","room_assignment":["purple","yellow","green","grey","red","blue"],"door_color_assignment":["white","black"],"door_generator_assignment":[0,1],"goal":2,"start":0,"action_noise":0.2,"location_history":"[0,5,0,5,0,1,2]","action_history":"[1,0,1,0,0,0]","door_history":"[1,0,1,0,0,0]","location_rts":"[17634,368,349,820,4579,504]","trial_type":"two-door-navigation","trial_index":14,"time_elapsed":439811,"internal_node_id":"0.0-2.0-12.0"},{"group":"hexagon_bi","room_assignment":["purple","yellow","green","grey","red","blue"],"door_color_assignment":["white","black"],"door_generator_assignment":[0,1],"goal":5,"start":2,"action_noise":0.2,"location_history":"[2,1,2,1,0,5]","action_history":"[0,0,0,1,0]","door_history":"[0,0,0,1,0]","location_rts":"[1632,927,934,416,2052]","trial_type":"two-door-navigation","trial_index":15,"time_elapsed":454396,"internal_node_id":"0.0-2.0-13.0"},{"group":"hexagon_bi","room_assignment":["purple","yellow","green","grey","red","blue"],"door_color_assignment":["white","black"],"door_generator_assignment":[0,1],"goal":4,"start":5,"action_noise":0.2,"location_history":"[5,4]","action_history":"[1]","door_history":"[1]","location_rts":"[1398]","trial_type":"two-door-navigation","trial_index":16,"time_elapsed":460319,"internal_node_id":"0.0-2.0-14.0"},{"group":"hexagon_bi","room_assignment":["purple","yellow","green","grey","red","blue"],"door_color_assignment":["white","black"],"door_generator_assignment":[0,1],"goal":3,"start":4,"action_noise":0.2,"location_history":"[4,3]","action_history":"[0]","door_history":"[0]","location_rts":"[2362]","trial_type":"two-door-navigation","trial_index":17,"time_elapsed":467209,"internal_node_id":"0.0-2.0-15.0"},{"group":"hexagon_bi","room_assignment":["purple","yellow","green","grey","red","blue"],"door_color_assignment":["white","black"],"door_generator_assignment":[0,1],"goal":1,"start":3,"action_noise":0.2,"location_history":"[3,4,5,4,5,4,3,4,3,2,1]","action_history":"[0,1,0,1,1,0,0,0,0,0]","door_history":"[0,1,0,1,1,0,0,0,0,0]","location_rts":"[2541,862,318,1922,868,480,382,371,430,978]","trial_type":"two-door-navigation","trial_index":18,"time_elapsed":490085,"internal_node_id":"0.0-2.0-16.0"},{"group":"hexagon_bi","room_assignment":["purple","yellow","green","grey","red","blue"],"door_color_assignment":["white","black"],"door_generator_assignment":[0,1],"goal":5,"start":1,"action_noise":0.2,"location_history":"[1,2,1,0,1,0,5]","action_history":"[0,1,1,1,1,0]","door_history":"[0,1,1,1,1,0]","location_rts":"[2517,546,345,467,672,628]","trial_type":"two-door-navigation","trial_index":19,"time_elapsed":504899,"internal_node_id":"0.0-2.0-17.0"},{"group":"hexagon_bi","room_assignment":["purple","yellow","green","grey","red","blue"],"door_color_assignment":["white","black"],"door_generator_assignment":[0,1],"goal":4,"start":5,"action_noise":0.2,"location_history":"[5,4]","action_history":"[1]","door_history":"[1]","location_rts":"[1875]","trial_type":"two-door-navigation","trial_index":20,"time_elapsed":511300,"internal_node_id":"0.0-2.0-18.0"},{"group":"hexagon_bi","room_assignment":["purple","yellow","green","grey","red","blue"],"door_color_assignment":["white","black"],"door_generator_assignment":[0,1],"goal":0,"start":4,"action_noise":0.2,"location_history":"[4,5,0]","action_history":"[1,0]","door_history":"[1,0]","location_rts":"[1903,986]","trial_type":"two-door-navigation","trial_index":21,"time_elapsed":519747,"internal_node_id":"0.0-2.0-19.0"},{"group":"hexagon_bi","room_assignment":["purple","yellow","green","grey","red","blue"],"door_color_assignment":["white","black"],"door_generator_assignment":[0,1],"goal":1,"start":0,"action_noise":0.2,"location_history":"[0,1]","action_history":"[1]","door_history":"[1]","location_rts":"[3457]","trial_type":"two-door-navigation","trial_index":22,"time_elapsed":527729,"internal_node_id":"0.0-2.0-20.0"},{"group":"hexagon_bi","room_assignment":["purple","yellow","green","grey","red","blue"],"door_color_assignment":["white","black"],"door_generator_assignment":[0,1],"goal":3,"start":1,"action_noise":0.2,"location_history":"[1,2,1,0,5,0,5,0,1,0,5,4,3]","action_history":"[0,0,0,0,0,0,1,1,1,0,1,0]","door_history":"[0,0,0,0,0,0,1,1,1,0,1,0]","location_rts":"[2293,443,342,510,475,461,691,966,458,776,945,406]","trial_type":"two-door-navigation","trial_index":23,"time_elapsed":552257,"internal_node_id":"0.0-2.0-21.0"},{"group":"hexagon_bi","room_assignment":["purple","yellow","green","grey","red","blue"],"door_color_assignment":["white","black"],"door_generator_assignment":[0,1],"goal":2,"start":3,"action_noise":0.2,"location_history":"[3,2]","action_history":"[1]","door_history":"[1]","location_rts":"[2759]","trial_type":"two-door-navigation","trial_index":24,"time_elapsed":559545,"internal_node_id":"0.0-2.0-22.0"},{"group":"hexagon_bi","room_assignment":["purple","yellow","green","grey","red","blue"],"door_color_assignment":["white","black"],"door_generator_assignment":[0,1],"goal":0,"start":2,"action_noise":0.2,"location_history":"[2,3,4,3,2,3,4,5,0]","action_history":"[1,0,0,1,1,0,0,1]","door_history":"[1,0,0,1,1,0,0,1]","location_rts":"[2000,952,643,708,379,867,372,562]","trial_type":"two-door-navigation","trial_index":25,"time_elapsed":577704,"internal_node_id":"0.0-2.0-23.0"},{"group":"hexagon_bi","room_assignment":["purple","yellow","green","grey","red","blue"],"door_color_assignment":["white","black"],"door_generator_assignment":[0,1],"goal":3,"start":0,"action_noise":0.2,"location_history":"[0,1,0,5,0,5,4,5,4,5,4,3]","action_history":"[1,1,1,0,0,1,1,1,0,0,0]","door_history":"[1,1,1,0,0,1,1,1,0,0,0]","location_rts":"[2494,1158,806,1446,5330,1190,1549,522,324,487,403]","trial_type":"two-door-navigation","trial_index":26,"time_elapsed":608166,"internal_node_id":"0.0-2.0-24.0"},{"group":"hexagon_bi","room_assignment":["purple","yellow","green","grey","red","blue"],"door_color_assignment":["white","black"],"door_generator_assignment":[0,1],"goal":1,"start":3,"action_noise":0.2,"location_history":"[3,4,5,0,1]","action_history":"[0,1,0,0]","door_history":"[0,1,0,0]","location_rts":"[1545,6889,2927,867]","trial_type":"two-door-navigation","trial_index":27,"time_elapsed":627995,"internal_node_id":"0.0-2.0-25.0"},{"group":"hexagon_bi","room_assignment":["purple","yellow","green","grey","red","blue"],"door_color_assignment":["white","black"],"door_generator_assignment":[0,1],"goal":2,"start":1,"action_noise":0.2,"location_history":"[1,2]","action_history":"[1]","door_history":"[1]","location_rts":"[4037]","trial_type":"two-door-navigation","trial_index":28,"time_elapsed":636558,"internal_node_id":"0.0-2.0-26.0"},{"group":"hexagon_bi","room_assignment":["purple","yellow","green","grey","red","blue"],"door_color_assignment":["white","black"],"door_generator_assignment":[0,1],"goal":5,"start":2,"action_noise":0.2,"location_history":"[2,3,4,5]","action_history":"[1,1,1]","door_history":"[1,1,1]","location_rts":"[3597,988,1026]","trial_type":"two-door-navigation","trial_index":29,"time_elapsed":648739,"internal_node_id":"0.0-2.0-27.0"},{"group":"hexagon_bi","room_assignment":["purple","yellow","green","grey","red","blue"],"door_color_assignment":["white","black"],"door_generator_assignment":[0,1],"goal":4,"start":5,"action_noise":0.2,"location_history":"[5,4]","action_history":"[1]","door_history":"[1]","location_rts":"[1414]","trial_type":"two-door-navigation","trial_index":30,"time_elapsed":654679,"internal_node_id":"0.0-2.0-28.0"},{"group":"hexagon_bi","room_assignment":["purple","yellow","green","grey","red","blue"],"door_color_assignment":["white","black"],"door_generator_assignment":[0,1],"goal":5,"start":4,"action_noise":0.2,"location_history":"[4,3,2,3,2,1,0,1,2,1,2,1,2,3,2,3,2,1,0,1,2,1,2,1,0,5]","action_history":"[1,1,1,1,0,1,1,0,0,0,0,1,1,1,1,0,0,0,1,1,1,0,0,1,1]","door_history":"[1,1,1,1,0,1,1,0,0,0,0,1,1,1,1,0,0,0,1,1,1,0,0,1,1]","location_rts":"[6112,1926,745,565,1768,707,407,824,337,335,637,271,635,490,762,580,741,6166,436,429,459,1019,637,573,402]","trial_type":"two-door-navigation","trial_index":31,"time_elapsed":711711,"internal_node_id":"0.0-2.0-29.0"},{"group":"hexagon_bi","room_assignment":["purple","yellow","green","grey","red","blue"],"door_color_assignment":["white","black"],"door_generator_assignment":[0,1],"goal":3,"start":5,"action_noise":0.2,"location_history":"[5,4,3]","action_history":"[0,0]","door_history":"[0,0]","location_rts":"[10243,474]","trial_type":"two-door-navigation","trial_index":32,"time_elapsed":727988,"internal_node_id":"0.0-2.0-30.0"},{"group":"hexagon_bi","room_assignment":["purple","yellow","green","grey","red","blue"],"door_color_assignment":["white","black"],"door_generator_assignment":[0,1],"goal":0,"start":3,"action_noise":0.2,"location_history":"[3,2,3,2,3,2,3,4,3,4,5,0]","action_history":"[0,1,1,1,1,0,0,0,0,1,1]","door_history":"[0,1,1,1,1,0,0,0,0,1,1]","location_rts":"[5877,392,899,553,857,1026,928,418,625,324,419]","trial_type":"two-door-navigation","trial_index":33,"time_elapsed":755055,"internal_node_id":"0.0-2.0-31.0"},{"group":"hexagon_bi","room_assignment":["purple","yellow","green","grey","red","blue"],"door_color_assignment":["white","black"],"door_generator_assignment":[0,1],"goal":4,"start":0,"action_noise":0.2,"location_history":"[0,1,0,1,0,1,2,3,4]","action_history":"[1,0,1,1,1,1,1,0]","door_history":"[1,0,1,1,1,1,1,0]","location_rts":"[1328,2924,737,755,582,688,697,1470]","trial_type":"two-door-navigation","trial_index":34,"time_elapsed":775922,"internal_node_id":"0.0-2.0-32.0"},{"group":"hexagon_bi","room_assignment":["purple","yellow","green","grey","red","blue"],"door_color_assignment":["white","black"],"door_generator_assignment":[0,1],"goal":1,"start":4,"action_noise":0.2,"location_history":"[4,3,2,3,2,3,4,5,4,5,0,1]","action_history":"[0,1,1,1,1,0,1,1,1,0,0]","door_history":"[0,1,1,1,1,0,1,1,1,0,0]","location_rts":"[1811,824,691,571,1489,925,1474,1118,695,272,4853]","trial_type":"two-door-navigation","trial_index":35,"time_elapsed":805400,"internal_node_id":"0.0-2.0-33.0"},{"group":"hexagon_bi","room_assignment":["purple","yellow","green","grey","red","blue"],"door_color_assignment":["white","black"],"door_generator_assignment":[0,1],"goal":2,"start":1,"action_noise":0.2,"location_history":"[1,0,5,0,1,0,5,4,3,4,3,2]","action_history":"[0,0,1,1,1,0,1,0,0,0,1]","door_history":"[0,0,1,1,1,0,1,0,0,0,1]","location_rts":"[25030,1030,384,569,447,981,856,669,376,466,838]","trial_type":"two-door-navigation","trial_index":36,"time_elapsed":851790,"internal_node_id":"0.0-2.0-34.0"},{"group":"hexagon_bi","room_assignment":["purple","yellow","green","grey","red","blue"],"door_color_assignment":["white","black"],"door_generator_assignment":[0,1],"goal":0,"start":2,"action_noise":0.2,"location_history":"[2,1,2,3,4,5,4,3,2,3,2,3,4,3,4,5,0]","action_history":"[1,0,0,0,1,1,0,0,1,1,1,0,0,0,1,0]","door_history":"[1,0,0,0,1,1,0,0,1,1,1,0,0,0,1,0]","location_rts":"[3572,2187,691,1323,5261,934,1112,600,1400,570,367,297,1064,662,653,1683]","trial_type":"two-door-navigation","trial_index":37,"time_elapsed":894010,"internal_node_id":"0.0-2.0-35.0"},{"group":"hexagon_bi","room_assignment":["purple","yellow","green","grey","red","blue"],"door_color_assignment":["white","black"],"door_generator_assignment":[0,1],"goal":5,"start":0,"action_noise":0.2,"location_history":"[0,1,0,1,0,5]","action_history":"[1,1,0,1,0]","door_history":"[1,1,0,1,0]","location_rts":"[2513,1498,1112,911,1639]","trial_type":"two-door-navigation","trial_index":38,"time_elapsed":910320,"internal_node_id":"0.0-2.0-36.0"},{"group":"hexagon_bi","room_assignment":["purple","yellow","green","grey","red","blue"],"door_color_assignment":["white","black"],"door_generator_assignment":[0,1],"goal":2,"start":5,"action_noise":0.2,"location_history":"[5,4,3,2]","action_history":"[0,0,1]","door_history":"[0,0,1]","location_rts":"[5821,1994,1318]","trial_type":"two-door-navigation","trial_index":39,"time_elapsed":926015,"internal_node_id":"0.0-2.0-37.0"},{"group":"hexagon_bi","room_assignment":["purple","yellow","green","grey","red","blue"],"door_color_assignment":["white","black"],"door_generator_assignment":[0,1],"goal":1,"start":2,"action_noise":0.2,"location_history":"[2,1]","action_history":"[0]","door_history":"[0]","location_rts":"[2660]","trial_type":"two-door-navigation","trial_index":40,"time_elapsed":933203,"internal_node_id":"0.0-2.0-38.0"},{"group":"hexagon_bi","room_assignment":["purple","yellow","green","grey","red","blue"],"door_color_assignment":["white","black"],"door_generator_assignment":[0,1],"goal":4,"start":1,"action_noise":0.2,"location_history":"[1,2,3,2,3,2,3,4]","action_history":"[1,1,1,1,0,1,0]","door_history":"[1,1,1,1,0,1,0]","location_rts":"[2475,1871,799,454,1252,1358,1339]","trial_type":"two-door-navigation","trial_index":41,"time_elapsed":953426,"internal_node_id":"0.0-2.0-39.0"},{"group":"hexagon_bi","room_assignment":["purple","yellow","green","grey","red","blue"],"door_color_assignment":["white","black"],"door_generator_assignment":[0,1],"goal":3,"start":4,"action_noise":0.2,"location_history":"[4,5,0,5,4,3]","action_history":"[0,0,0,0,0]","door_history":"[0,0,0,0,0]","location_rts":"[6883,1261,643,578,1162]","trial_type":"two-door-navigation","trial_index":42,"time_elapsed":972572,"internal_node_id":"0.0-2.0-40.0"},{"group":"hexagon_bi","room_assignment":["purple","yellow","green","grey","red","blue"],"door_color_assignment":["white","black"],"door_generator_assignment":[0,1],"goal":5,"start":3,"action_noise":0.2,"location_history":"[3,2,3,2,1,0,1,2,1,0,1,0,1,2,3,4,3,2,3,4,3,2,1,2,1,2,1,0,5]","action_history":"[1,1,1,0,1,1,0,0,1,1,1,0,1,1,1,1,1,1,1,0,1,0,0,0,0,0,1,1]","door_history":"[1,1,1,0,1,1,0,0,1,1,1,0,1,1,1,1,1,1,1,0,1,0,0,0,0,0,1,1]","location_rts":"[2150,453,516,869,438,429,1293,907,344,817,399,779,1128,2088,860,1869,796,507,1415,1262,848,862,980,356,369,423,683,562]","trial_type":"two-door-navigation","trial_index":43,"time_elapsed":1029130,"internal_node_id":"0.0-2.0-41.0"},{"group":"hexagon_bi","room_assignment":["purple","yellow","green","grey","red","blue"],"door_color_assignment":["white","black"],"door_generator_assignment":[0,1],"goal":3,"start":5,"action_noise":0.2,"location_history":"[5,0,5,0,5,4,5,4,3]","action_history":"[1,0,0,0,1,1,1,0]","door_history":"[1,0,0,0,1,1,1,0]","location_rts":"[5924,1362,1607,621,913,657,363,278]","trial_type":"two-door-navigation","trial_index":44,"time_elapsed":1052547,"internal_node_id":"0.0-2.0-42.0"},{"group":"hexagon_bi","room_assignment":["purple","yellow","green","grey","red","blue"],"door_color_assignment":["white","black"],"door_generator_assignment":[0,1],"goal":0,"start":3,"action_noise":0.2,"location_history":"[3,2,1,2,1,2,3,2,3,4,5,0]","action_history":"[1,0,0,0,0,1,1,1,0,0,0]","door_history":"[1,0,0,0,0,1,1,1,0,0,0]","location_rts":"[3494,826,614,493,649,246,1209,899,889,608,550]","trial_type":"two-door-navigation","trial_index":45,"time_elapsed":1077779,"internal_node_id":"0.0-2.0-43.0"},{"group":"hexagon_bi","room_assignment":["purple","yellow","green","grey","red","blue"],"door_color_assignment":["white","black"],"door_generator_assignment":[0,1],"goal":2,"start":0,"action_noise":0.2,"location_history":"[0,1,0,5,4,3,4,5,0,5,0,1,2]","action_history":"[1,1,0,0,0,1,1,0,0,0,1,0]","door_history":"[1,1,0,0,0,1,1,0,0,0,1,0]","location_rts":"[12237,615,549,517,883,2440,556,1180,490,433,283,1385]","trial_type":"two-door-navigation","trial_index":46,"time_elapsed":1115127,"internal_node_id":"0.0-2.0-44.0"},{"group":"hexagon_bi","room_assignment":["purple","yellow","green","grey","red","blue"],"door_color_assignment":["white","black"],"door_generator_assignment":[0,1],"goal":4,"start":2,"action_noise":0.2,"location_history":"[2,1,0,1,0,1,2,1,2,3,2,3,4]","action_history":"[1,1,1,1,1,0,0,0,1,1,1,1]","door_history":"[1,1,1,1,1,0,0,0,1,1,1,1]","location_rts":"[2282,426,602,959,467,577,2066,1541,1139,568,493,419]","trial_type":"two-door-navigation","trial_index":47,"time_elapsed":1142456,"internal_node_id":"0.0-2.0-45.0"},{"group":"hexagon_bi","room_assignment":["purple","yellow","green","grey","red","blue"],"door_color_assignment":["white","black"],"door_generator_assignment":[0,1],"goal":1,"start":4,"action_noise":0.2,"location_history":"[4,3,2,1]","action_history":"[0,0,1]","door_history":"[0,0,1]","location_rts":"[15128,730,3298]","trial_type":"two-door-navigation","trial_index":48,"time_elapsed":1168183,"internal_node_id":"0.0-2.0-46.0"},{"group":"hexagon_bi","room_assignment":["purple","yellow","green","grey","red","blue"],"door_color_assignment":["white","black"],"door_generator_assignment":[0,1],"goal":4,"start":1,"action_noise":0.2,"location_history":"[1,0,5,4]","action_history":"[1,0,0]","door_history":"[1,0,0]","location_rts":"[14537,18028,1221]","trial_type":"two-door-navigation","trial_index":49,"time_elapsed":1208543,"internal_node_id":"0.0-2.0-47.0"},{"group":"hexagon_bi","room_assignment":["purple","yellow","green","grey","red","blue"],"door_color_assignment":["white","black"],"door_generator_assignment":[0,1],"goal":1,"start":4,"action_noise":0.2,"location_history":"[4,5,0,5,0,5,0,1]","action_history":"[0,1,1,1,0,1,1]","door_history":"[0,1,1,1,0,1,1]","location_rts":"[1725,263,422,1435,389,1790,527]","trial_type":"two-door-navigation","trial_index":50,"time_elapsed":1225760,"internal_node_id":"0.0-2.0-48.0"},{"group":"hexagon_bi","room_assignment":["purple","yellow","green","grey","red","blue"],"door_color_assignment":["white","black"],"door_generator_assignment":[0,1],"goal":3,"start":1,"action_noise":0.2,"location_history":"[1,2,1,0,1,2,1,2,1,0,5,0,1,0,1,0,1,2,3]","action_history":"[0,0,1,1,0,0,0,1,1,0,0,0,1,1,1,1,0,0]","door_history":"[0,0,1,1,0,0,0,1,1,0,0,0,1,1,1,1,0,0]","location_rts":"[3263,2099,337,765,1039,1081,3397,804,496,3711,1072,3637,582,447,692,854,754,930]","trial_type":"two-door-navigation","trial_index":51,"time_elapsed":1273642,"internal_node_id":"0.0-2.0-49.0"},{"group":"hexagon_bi","room_assignment":["purple","yellow","green","grey","red","blue"],"door_color_assignment":["white","black"],"door_generator_assignment":[0,1],"goal":5,"start":3,"action_noise":0.2,"location_history":"[3,2,1,2,1,0,1,0,5]","action_history":"[1,1,0,0,1,1,1,0]","door_history":"[1,1,0,0,1,1,1,0]","location_rts":"[3000,849,1049,9777,466,335,522,252]","trial_type":"two-door-navigation","trial_index":52,"time_elapsed":1301570,"internal_node_id":"0.0-2.0-50.0"},{"group":"hexagon_bi","room_assignment":["purple","yellow","green","grey","red","blue"],"door_color_assignment":["white","black"],"door_generator_assignment":[0,1],"goal":0,"start":5,"action_noise":0.2,"location_history":"[5,4,3,4,3,4,3,4,5,4,5,0]","action_history":"[1,1,0,0,0,0,1,1,0,0,1]","door_history":"[1,1,0,0,0,0,1,1,0,0,1]","location_rts":"[13598,741,1219,409,658,284,291,600,472,411,1130]","trial_type":"two-door-navigation","trial_index":53,"time_elapsed":1336135,"internal_node_id":"0.0-2.0-51.0"},{"group":"hexagon_bi","room_assignment":["purple","yellow","green","grey","red","blue"],"door_color_assignment":["white","black"],"door_generator_assignment":[0,1],"goal":2,"start":0,"action_noise":0.2,"location_history":"[0,5,0,1,0,5,0,5,4,3,4,3,4,5,4,5,4,3,4,3,2]","action_history":"[0,0,1,1,0,0,1,1,1,0,0,0,0,1,1,1,0,0,0,1]","door_history":"[0,0,1,1,0,0,1,1,1,0,0,0,0,1,1,1,0,0,0,1]","location_rts":"[8795,2533,803,763,1034,938,986,1779,833,568,731,860,1008,764,507,734,800,805,451,261]","trial_type":"two-door-navigation","trial_index":54,"time_elapsed":1386040,"internal_node_id":"0.0-2.0-52.0"},{"group":"hexagon_bi","room_assignment":["purple","yellow","green","grey","red","blue"],"door_color_assignment":["white","black"],"door_generator_assignment":[0,1],"goal":1,"start":2,"action_noise":0.2,"location_history":"[2,1]","action_history":"[0]","door_history":"[0]","location_rts":"[2543]","trial_type":"two-door-navigation","trial_index":55,"time_elapsed":1393112,"internal_node_id":"0.0-2.0-53.0"},{"group":"hexagon_bi","room_assignment":["purple","yellow","green","grey","red","blue"],"door_color_assignment":["white","black"],"door_generator_assignment":[0,1],"goal":2,"start":1,"action_noise":0.2,"location_history":"[1,0,5,0,1,0,5,0,5,4,3,2]","action_history":"[1,0,0,1,1,1,1,1,0,0,1]","door_history":"[1,0,0,1,1,1,1,1,0,0,1]","location_rts":"[5595,1773,3611,707,969,777,984,752,758,654,1146]","trial_type":"two-door-navigation","trial_index":56,"time_elapsed":1425569,"internal_node_id":"0.0-2.0-54.0"},{"group":"hexagon_bi","room_assignment":["purple","yellow","green","grey","red","blue"],"door_color_assignment":["white","black"],"door_generator_assignment":[0,1],"goal":5,"start":2,"action_noise":0.2,"location_history":"[2,1,0,1,2,1,2,3,4,5]","action_history":"[0,1,1,0,1,1,1,0,1]","door_history":"[0,1,1,0,1,1,1,0,1]","location_rts":"[3297,1337,1075,1023,354,892,756,1357,821]","trial_type":"two-door-navigation","trial_index":57,"time_elapsed":1449190,"internal_node_id":"0.0-2.0-55.0"},{"group":"hexagon_bi","room_assignment":["purple","yellow","green","grey","red","blue"],"door_color_assignment":["white","black"],"door_generator_assignment":[0,1],"goal":4,"start":5,"action_noise":0.2,"location_history":"[5,0,5,0,5,0,5,4]","action_history":"[1,1,1,1,0,1,1]","door_history":"[1,1,1,1,0,1,1]","location_rts":"[9473,916,596,557,942,683,774]","trial_type":"two-door-navigation","trial_index":58,"time_elapsed":1473794,"internal_node_id":"0.0-2.0-56.0"},{"group":"hexagon_bi","room_assignment":["purple","yellow","green","grey","red","blue"],"door_color_assignment":["white","black"],"door_generator_assignment":[0,1],"goal":3,"start":4,"action_noise":0.2,"location_history":"[4,5,4,3]","action_history":"[1,1,0]","door_history":"[1,1,0]","location_rts":"[8875,1143,2534]","trial_type":"two-door-navigation","trial_index":59,"time_elapsed":1492923,"internal_node_id":"0.0-2.0-57.0"},{"group":"hexagon_bi","room_assignment":["purple","yellow","green","grey","red","blue"],"door_color_assignment":["white","black"],"door_generator_assignment":[0,1],"goal":0,"start":3,"action_noise":0.2,"location_history":"[3,4,3,2,3,4,5,4,5,0]","action_history":"[0,0,1,1,0,0,1,1,0]","door_history":"[0,0,1,1,0,0,1,1,0]","location_rts":"[2055,321,518,610,1412,778,1018,578,825]","trial_type":"two-door-navigation","trial_index":60,"time_elapsed":1513744,"internal_node_id":"0.0-2.0-58.0"},{"group":"hexagon_bi","room_assignment":["purple","yellow","green","grey","red","blue"],"door_color_assignment":["white","black"],"door_generator_assignment":[0,1],"goal":2,"start":0,"action_noise":0.2,"location_history":"[0,1,2]","action_history":"[0,0]","door_history":"[0,0]","location_rts":"[8379,1442]","trial_type":"two-door-navigation","trial_index":61,"time_elapsed":1529114,"internal_node_id":"0.0-2.0-59.0"},{"group":"hexagon_bi","room_assignment":["purple","yellow","green","grey","red","blue"],"door_color_assignment":["white","black"],"door_generator_assignment":[0,1],"goal":1,"start":2,"action_noise":0.2,"location_history":"[2,3,2,1]","action_history":"[1,1,0]","door_history":"[1,1,0]","location_rts":"[2668,634,1197]","trial_type":"two-door-navigation","trial_index":62,"time_elapsed":1540180,"internal_node_id":"0.0-2.0-60.0"},{"group":"hexagon_bi","room_assignment":["purple","yellow","green","grey","red","blue"],"door_color_assignment":["white","black"],"door_generator_assignment":[0,1],"goal":0,"start":1,"action_noise":0.2,"location_history":"[1,0]","action_history":"[1]","door_history":"[1]","location_rts":"[3069]","trial_type":"two-door-navigation","trial_index":63,"time_elapsed":1547774,"internal_node_id":"0.0-2.0-61.0"},{"group":"hexagon_bi","room_assignment":["purple","yellow","green","grey","red","blue"],"door_color_assignment":["white","black"],"door_generator_assignment":[0,1],"goal":3,"start":0,"action_noise":0.2,"location_history":"[0,5,0,5,0,1,0,5,0,1,2,1,0,1,2,3]","action_history":"[0,0,0,0,1,1,0,0,1,0,0,0,1,1,1]","door_history":"[0,0,0,0,1,1,0,0,1,0,0,0,1,1,1]","location_rts":"[2963,1868,1634,387,878,763,1147,504,446,1094,938,458,1255,928,998]","trial_type":"two-door-navigation","trial_index":64,"time_elapsed":1582878,"internal_node_id":"0.0-2.0-62.0"},{"group":"hexagon_bi","room_assignment":["purple","yellow","green","grey","red","blue"],"door_color_assignment":["white","black"],"door_generator_assignment":[0,1],"goal":5,"start":3,"action_noise":0.2,"location_history":"[3,4,5]","action_history":"[0,1]","door_history":"[0,1]","location_rts":"[3434,370]","trial_type":"two-door-navigation","trial_index":65,"time_elapsed":1592235,"internal_node_id":"0.0-2.0-63.0"},{"group":"hexagon_bi","room_assignment":["purple","yellow","green","grey","red","blue"],"door_color_assignment":["white","black"],"door_generator_assignment":[0,1],"goal":4,"start":5,"action_noise":0.2,"location_history":"[5,0,1,0,1,0,1,0,1,2,3,4]","action_history":"[1,0,1,0,0,1,1,1,1,0,0]","door_history":"[1,0,1,0,0,1,1,1,1,0,0]","location_rts":"[10881,1101,1024,792,429,580,500,439,1088,1588,518]","trial_type":"two-door-navigation","trial_index":66,"time_elapsed":1625939,"internal_node_id":"0.0-2.0-64.0"},{"group":"hexagon_bi","room_assignment":["purple","yellow","green","grey","red","blue"],"door_color_assignment":["white","black"],"door_generator_assignment":[0,1],"goal":1,"start":4,"action_noise":0.2,"location_history":"[4,3,4,5,0,5,4,3,4,3,2,1]","action_history":"[0,0,1,0,0,0,1,0,0,1,0]","door_history":"[0,0,1,0,0,0,1,0,0,1,0]","location_rts":"[6136,515,601,1659,899,585,562,962,761,660,1218]","trial_type":"two-door-navigation","trial_index":67,"time_elapsed":1655249,"internal_node_id":"0.0-2.0-65.0"},{"group":"hexagon_bi","room_assignment":["purple","yellow","green","grey","red","blue"],"door_color_assignment":["white","black"],"door_generator_assignment":[0,1],"goal":5,"start":1,"action_noise":0.2,"location_history":"[1,2,3,2,3,4,5]","action_history":"[0,1,1,1,0,1]","door_history":"[0,1,1,1,0,1]","location_rts":"[13262,441,415,488,415,352]","trial_type":"two-door-navigation","trial_index":68,"time_elapsed":1680266,"internal_node_id":"0.0-2.0-66.0"},{"group":"hexagon_bi","room_assignment":["purple","yellow","green","grey","red","blue"],"door_color_assignment":["white","black"],"door_generator_assignment":[0,1],"goal":2,"start":5,"action_noise":0.2,"location_history":"[5,0,5,4,3,2]","action_history":"[1,0,0,0,1]","door_history":"[1,0,0,0,1]","location_rts":"[5111,1345,660,438,988]","trial_type":"two-door-navigation","trial_index":69,"time_elapsed":1697437,"internal_node_id":"0.0-2.0-67.0"},{"group":"hexagon_bi","room_assignment":["purple","yellow","green","grey","red","blue"],"door_color_assignment":["white","black"],"door_generator_assignment":[0,1],"goal":3,"start":2,"action_noise":0.2,"location_history":"[2,3]","action_history":"[0]","door_history":"[0]","location_rts":"[1999]","trial_type":"two-door-navigation","trial_index":70,"time_elapsed":1703959,"internal_node_id":"0.0-2.0-68.0"},{"group":"hexagon_bi","room_assignment":["purple","yellow","green","grey","red","blue"],"door_color_assignment":["white","black"],"door_generator_assignment":[0,1],"goal":4,"start":3,"action_noise":0.2,"location_history":"[3,4]","action_history":"[0]","door_history":"[0]","location_rts":"[2136]","trial_type":"two-door-navigation","trial_index":71,"time_elapsed":1710625,"internal_node_id":"0.0-2.0-69.0"},{"group":"hexagon_bi","room_assignment":["purple","yellow","green","grey","red","blue"],"door_color_assignment":["white","black"],"door_generator_assignment":[0,1],"goal":0,"start":4,"action_noise":0.2,"location_history":"[4,5,4,5,0]","action_history":"[1,1,0,0]","door_history":"[1,1,0,0]","location_rts":"[2905,570,1565,1084]","trial_type":"two-door-navigation","trial_index":72,"time_elapsed":1724354,"internal_node_id":"0.0-2.0-70.0"},{"group":"hexagon_bi","room_assignment":["purple","yellow","green","grey","red","blue"],"door_color_assignment":["white","black"],"door_generator_assignment":[0,1],"goal":5,"start":0,"action_noise":0.2,"location_history":"[0,5]","action_history":"[0]","door_history":"[0]","location_rts":"[1755]","trial_type":"two-door-navigation","trial_index":73,"time_elapsed":1730639,"internal_node_id":"0.0-2.0-71.0"},{"group":"hexagon_bi","room_assignment":["purple","yellow","green","grey","red","blue"],"door_color_assignment":["white","black"],"door_generator_assignment":[0,1],"goal":0,"start":5,"action_noise":0.2,"location_history":"[5,0]","action_history":"[0]","door_history":"[0]","location_rts":"[1893]","trial_type":"two-door-navigation","trial_index":74,"time_elapsed":1737057,"internal_node_id":"0.0-2.0-72.0"},{"group":"hexagon_bi","room_assignment":["purple","yellow","green","grey","red","blue"],"door_color_assignment":["white","black"],"door_generator_assignment":[0,1],"goal":3,"start":0,"action_noise":0.2,"location_history":"[0,5,0,1,0,5,0,5,0,1,0,1,0,1,2,3]","action_history":"[0,0,1,0,0,0,1,1,1,1,1,1,0,0,0]","door_history":"[0,0,1,0,0,0,1,1,1,1,1,1,0,0,0]","location_rts":"[1804,555,277,1591,932,873,1021,513,999,521,949,947,1085,887,2215]","trial_type":"two-door-navigation","trial_index":75,"time_elapsed":1771075,"internal_node_id":"0.0-2.0-73.0"},{"group":"hexagon_bi","room_assignment":["purple","yellow","green","grey","red","blue"],"door_color_assignment":["white","black"],"door_generator_assignment":[0,1],"goal":1,"start":3,"action_noise":0.2,"location_history":"[3,4,3,2,3,2,1]","action_history":"[0,0,0,1,1,1]","door_history":"[0,0,0,1,1,1]","location_rts":"[1536,1268,879,845,718,763]","trial_type":"two-door-navigation","trial_index":76,"time_elapsed":1786715,"internal_node_id":"0.0-2.0-74.0"},{"group":"hexagon_bi","room_assignment":["purple","yellow","green","grey","red","blue"],"door_color_assignment":["white","black"],"door_generator_assignment":[0,1],"goal":2,"start":1,"action_noise":0.2,"location_history":"[1,2]","action_history":"[0]","door_history":"[0]","location_rts":"[10328]","trial_type":"two-door-navigation","trial_index":77,"time_elapsed":1801569,"internal_node_id":"0.0-2.0-75.0"},{"group":"hexagon_bi","room_assignment":["purple","yellow","green","grey","red","blue"],"door_color_assignment":["white","black"],"door_generator_assignment":[0,1],"goal":4,"start":2,"action_noise":0.2,"location_history":"[2,3,2,1,2,1,0,1,2,1,0,5,4]","action_history":"[1,1,0,0,0,1,1,1,0,1,0,1]","door_history":"[1,1,0,0,0,1,1,1,0,1,0,1]","location_rts":"[10465,881,692,857,830,308,545,1687,697,374,950,472]","trial_type":"two-door-navigation","trial_index":78,"time_elapsed":1836097,"internal_node_id":"0.0-2.0-76.0"},{"group":"hexagon_bi","room_assignment":["purple","yellow","green","grey","red","blue"],"door_color_assignment":["white","black"],"door_generator_assignment":[0,1],"goal":3,"start":4,"action_noise":0.2,"location_history":"[4,3]","action_history":"[0]","door_history":"[0]","location_rts":"[2976]","trial_type":"two-door-navigation","trial_index":79,"time_elapsed":1843598,"internal_node_id":"0.0-2.0-77.0"},{"group":"hexagon_bi","room_assignment":["purple","yellow","green","grey","red","blue"],"door_color_assignment":["white","black"],"door_generator_assignment":[0,1],"goal":0,"start":3,"action_noise":0.2,"location_history":"[3,2,1,2,3,2,3,2,1,2,1,0]","action_history":"[1,0,0,1,1,1,0,0,0,0,1]","door_history":"[1,0,0,1,1,1,0,0,0,0,1]","location_rts":"[3317,1385,592,1464,678,663,1583,693,643,1058,423]","trial_type":"two-door-navigation","trial_index":80,"time_elapsed":1870853,"internal_node_id":"0.0-2.0-78.0"},{"group":"hexagon_bi","room_assignment":["purple","yellow","green","grey","red","blue"],"door_color_assignment":["white","black"],"door_generator_assignment":[0,1],"goal":4,"start":0,"action_noise":0.2,"location_history":"[0,5,0,5,4]","action_history":"[0,1,0,1]","door_history":"[0,1,0,1]","location_rts":"[3130,719,1818,520]","trial_type":"two-door-navigation","trial_index":81,"time_elapsed":1884631,"internal_node_id":"0.0-2.0-79.0"},{"group":"hexagon_bi","room_assignment":["purple","yellow","green","grey","red","blue"],"door_color_assignment":["white","black"],"door_generator_assignment":[0,1],"goal":5,"start":4,"action_noise":0.2,"location_history":"[4,3,4,3,2,1,0,1,2,3,4,5]","action_history":"[1,1,0,1,0,1,1,1,1,1,1]","door_history":"[1,1,0,1,0,1,1,1,1,1,1]","location_rts":"[1757,1388,815,851,1023,601,368,401,612,455,1515]","trial_type":"two-door-navigation","trial_index":82,"time_elapsed":1909171,"internal_node_id":"0.0-2.0-80.0"},{"group":"hexagon_bi","room_assignment":["purple","yellow","green","grey","red","blue"],"door_color_assignment":["white","black"],"door_generator_assignment":[0,1],"goal":1,"start":5,"action_noise":0.2,"location_history":"[5,0,1]","action_history":"[0,1]","door_history":"[0,1]","location_rts":"[2322,1412]","trial_type":"two-door-navigation","trial_index":83,"time_elapsed":1918448,"internal_node_id":"0.0-2.0-81.0"},{"group":"hexagon_bi","room_assignment":["purple","yellow","green","grey","red","blue"],"door_color_assignment":["white","black"],"door_generator_assignment":[0,1],"goal":2,"start":1,"action_noise":0.2,"location_history":"[1,2]","action_history":"[0]","door_history":"[0]","location_rts":"[14583]","trial_type":"two-door-navigation","trial_index":84,"time_elapsed":1937558,"internal_node_id":"0.0-2.0-82.0"},{"group":"hexagon_bi","room_assignment":["purple","yellow","green","grey","red","blue"],"door_color_assignment":["white","black"],"door_generator_assignment":[0,1],"goal":4,"start":2,"action_noise":0.2,"location_history":"[2,3,2,3,2,1,0,1,2,1,2,3,4]","action_history":"[0,1,1,1,0,1,1,0,0,1,1,0]","door_history":"[0,1,1,1,0,1,1,0,0,1,1,0]","location_rts":"[5829,456,572,619,433,749,903,808,665,448,491,812]","trial_type":"two-door-navigation","trial_index":85,"time_elapsed":1966123,"internal_node_id":"0.0-2.0-83.0"},{"group":"hexagon_bi","room_assignment":["purple","yellow","green","grey","red","blue"],"door_color_assignment":["white","black"],"door_generator_assignment":[0,1],"goal":0,"start":4,"action_noise":0.2,"location_history":"[4,3,2,3,2,1,0]","action_history":"[0,1,1,1,0,1]","door_history":"[0,1,1,1,0,1]","location_rts":"[44206,679,555,585,499,804]","trial_type":"two-door-navigation","trial_index":86,"time_elapsed":2023085,"internal_node_id":"0.0-2.0-84.0"},{"group":"hexagon_bi","room_assignment":["purple","yellow","green","grey","red","blue"],"door_color_assignment":["white","black"],"door_generator_assignment":[0,1],"goal":5,"start":0,"action_noise":0.2,"location_history":"[0,5]","action_history":"[0]","door_history":"[0]","location_rts":"[1887]","trial_type":"two-door-navigation","trial_index":87,"time_elapsed":2029503,"internal_node_id":"0.0-2.0-85.0"},{"group":"hexagon_bi","room_assignment":["purple","yellow","green","grey","red","blue"],"door_color_assignment":["white","black"],"door_generator_assignment":[0,1],"goal":3,"start":5,"action_noise":0.2,"location_history":"[5,4,5,0,5,0,1,2,3]","action_history":"[1,1,0,0,0,1,0,1]","door_history":"[1,1,0,0,0,1,0,1]","location_rts":"[2348,390,2127,1079,525,831,1166,843]","trial_type":"two-door-navigation","trial_index":88,"time_elapsed":2050506,"internal_node_id":"0.0-2.0-86.0"},{"group":"hexagon_bi","room_assignment":["purple","yellow","green","grey","red","blue"],"door_color_assignment":["white","black"],"door_generator_assignment":[0,1],"goal":1,"start":3,"action_noise":0.2,"location_history":"[3,2,1]","action_history":"[0,0]","door_history":"[0,0]","location_rts":"[11840,536]","trial_type":"two-door-navigation","trial_index":89,"time_elapsed":2068428,"internal_node_id":"0.0-2.0-87.0"},{"group":"hexagon_bi","room_assignment":["purple","yellow","green","grey","red","blue"],"door_color_assignment":["white","black"],"door_generator_assignment":[0,1],"goal":2,"start":1,"action_noise":0.2,"location_history":"[1,2]","action_history":"[0]","door_history":"[0]","location_rts":"[2490]","trial_type":"two-door-navigation","trial_index":90,"time_elapsed":2075449,"internal_node_id":"0.0-2.0-88.0"},{"group":"hexagon_bi","room_assignment":["purple","yellow","green","grey","red","blue"],"door_color_assignment":["white","black"],"door_generator_assignment":[0,1],"goal":0,"start":2,"action_noise":0.2,"location_history":"[2,1,0]","action_history":"[0,1]","door_history":"[0,1]","location_rts":"[3899,686]","trial_type":"two-door-navigation","trial_index":91,"time_elapsed":2085586,"internal_node_id":"0.0-2.0-89.0"},{"group":"hexagon_bi","room_assignment":["purple","yellow","green","grey","red","blue"],"door_color_assignment":["white","black"],"door_generator_assignment":[0,1],"goal":5,"start":0,"action_noise":0.2,"location_history":"[0,5]","action_history":"[0]","door_history":"[0]","location_rts":"[2515]","trial_type":"two-door-navigation","trial_index":92,"time_elapsed":2092622,"internal_node_id":"0.0-2.0-90.0"},{"group":"hexagon_bi","room_assignment":["purple","yellow","green","grey","red","blue"],"door_color_assignment":["white","black"],"door_generator_assignment":[0,1],"goal":1,"start":5,"action_noise":0.2,"location_history":"[5,4,3,4,3,2,3,4,3,4,5,4,5,0,1]","action_history":"[1,0,0,0,1,0,0,0,0,1,1,1,0,1]","door_history":"[1,0,0,0,1,0,0,0,0,1,1,1,0,1]","location_rts":"[3640,809,508,718,1030,1084,461,472,341,720,616,520,601,1178]","trial_type":"two-door-navigation","trial_index":93,"time_elapsed":2123140,"internal_node_id":"0.0-2.0-91.0"},{"group":"hexagon_bi","room_assignment":["purple","yellow","green","grey","red","blue"],"door_color_assignment":["white","black"],"door_generator_assignment":[0,1],"goal":3,"start":1,"action_noise":0.2,"location_history":"[1,2,1,2,1,2,3]","action_history":"[0,1,0,0,0,1]","door_history":"[0,1,0,0,0,1]","location_rts":"[5676,1192,706,687,663,729]","trial_type":"two-door-navigation","trial_index":94,"time_elapsed":2142425,"internal_node_id":"0.0-2.0-92.0"},{"group":"hexagon_bi","room_assignment":["purple","yellow","green","grey","red","blue"],"door_color_assignment":["white","black"],"door_generator_assignment":[0,1],"goal":4,"start":3,"action_noise":0.2,"location_history":"[3,4]","action_history":"[0]","door_history":"[0]","location_rts":"[8104]","trial_type":"two-door-navigation","trial_index":95,"time_elapsed":2155051,"internal_node_id":"0.0-2.0-93.0"},{"group":"hexagon_bi","room_assignment":["purple","yellow","green","grey","red","blue"],"door_color_assignment":["white","black"],"door_generator_assignment":[0,1],"goal":2,"start":4,"action_noise":0.2,"location_history":"[4,3,2]","action_history":"[0,1]","door_history":"[0,1]","location_rts":"[25139,883]","trial_type":"two-door-navigation","trial_index":96,"time_elapsed":2186620,"internal_node_id":"0.0-2.0-94.0"},{"group":"hexagon_bi","room_assignment":["purple","yellow","green","grey","red","blue"],"door_color_assignment":["white","black"],"door_generator_assignment":[0,1],"goal":4,"start":2,"action_noise":0.2,"location_history":"[2,3,2,1,0,1,2,1,2,3,2,1,0,1,2,1,2,1,0,1,2,1,0,5,4]","action_history":"[0,1,0,1,1,0,0,0,1,1,0,1,1,1,0,0,0,1,1,0,0,1,1,1]","door_history":"[0,1,0,1,1,0,0,0,1,1,0,1,1,1,0,0,0,1,1,0,0,1,1,1]","location_rts":"[2172,821,1020,795,731,1078,564,514,304,412,1282,760,448,358,592,473,492,1729,1182,1654,749,463,640,760]","trial_type":"two-door-navigation","trial_index":97,"time_elapsed":2234653,"internal_node_id":"0.0-2.0-95.0"},{"group":"hexagon_bi","room_assignment":["purple","yellow","green","grey","red","blue"],"door_color_assignment":["white","black"],"door_generator_assignment":[0,1],"goal":0,"start":4,"action_noise":0.2,"location_history":"[4,3,2,1,2,1,2,3,2,3,4,5,4,3,4,3,2,3,4,3,2,1,0]","action_history":"[0,1,0,0,0,0,1,1,1,0,0,1,0,0,0,1,1,1,1,1,0,1]","door_history":"[0,1,0,0,0,0,1,1,1,0,0,1,0,0,0,1,1,1,1,1,0,1]","location_rts":"[3585,1406,868,412,400,7137,1266,629,552,1098,1328,1249,382,383,374,373,349,619,431,347,281,1830]","trial_type":"two-door-navigation","trial_index":98,"time_elapsed":2285956,"internal_node_id":"0.0-2.0-96.0"},{"group":"hexagon_bi","room_assignment":["purple","yellow","green","grey","red","blue"],"door_color_assignment":["white","black"],"door_generator_assignment":[0,1],"goal":5,"start":0,"action_noise":0.2,"location_history":"[0,5]","action_history":"[0]","door_history":"[0]","location_rts":"[2058]","trial_type":"two-door-navigation","trial_index":99,"time_elapsed":2292543,"internal_node_id":"0.0-2.0-97.0"},{"group":"hexagon_bi","room_assignment":["purple","yellow","green","grey","red","blue"],"door_color_assignment":["white","black"],"door_generator_assignment":[0,1],"goal":1,"start":5,"action_noise":0.2,"location_history":"[5,4,5,4,5,0,5,0,1]","action_history":"[0,1,1,1,0,0,0,1]","door_history":"[0,1,1,1,0,0,0,1]","location_rts":"[7717,1576,663,1456,1276,3807,721,628]","trial_type":"two-door-navigation","trial_index":100,"time_elapsed":2322074,"internal_node_id":"0.0-2.0-98.0"},{"group":"hexagon_bi","room_assignment":["purple","yellow","green","grey","red","blue"],"door_color_assignment":["white","black"],"door_generator_assignment":[0,1],"goal":3,"start":1,"action_noise":0.2,"location_history":"[1,2,1,2,3]","action_history":"[1,0,0,1]","door_history":"[1,0,0,1]","location_rts":"[2960,870,1080,3193]","trial_type":"two-door-navigation","trial_index":101,"time_elapsed":2337763,"internal_node_id":"0.0-2.0-99.0"},{"view_history":"[{\"page_index\":0,\"viewing_time\":2709}]","rt":2709,"trial_type":"instructions","trial_index":102,"time_elapsed":2341473,"internal_node_id":"0.0-3.0"},{"view_history":"[{\"page_index\":0,\"viewing_time\":145092},{\"page_index\":1,\"viewing_time\":70580}]","rt":215672,"trial_type":"instructions","trial_index":103,"time_elapsed":2558146,"internal_node_id":"0.0-4.0"},{"group":"hexagon_bi","fractal_assignment":["../images/pnk_blu.png","../images/ylw_slt.png","../images/cyn_red.png","../images/blu_wht.png","../images/org_blu.png","../images/gry_blk.png"],"mutagen_generator_assignment":[0,1],"goal":4,"start":0,"action_noise":0.2,"location_history":"[0,1,2,1,0,5,4]","action_history":"[1,0,0,1,0,1]","mutagen_history":"[1,0,0,1,0,1]","location_rts":"[8600,2860,862,1615,881,1411]","trial_type":"fractal-mutation","trial_index":104,"time_elapsed":2584128,"internal_node_id":"0.0-5.0-0.0"},{"group":"hexagon_bi","fractal_assignment":["../images/pnk_blu.png","../images/ylw_slt.png","../images/cyn_red.png","../images/blu_wht.png","../images/org_blu.png","../images/gry_blk.png"],"mutagen_generator_assignment":[0,1],"goal":3,"start":4,"action_noise":0.2,"location_history":"[4,5,4,5,0,5,4,3]","action_history":"[1,1,1,0,1,1,0]","mutagen_history":"[1,1,1,0,1,1,0]","location_rts":"[2826,439,687,448,946,980,439]","trial_type":"fractal-mutation","trial_index":105,"time_elapsed":2601679,"internal_node_id":"0.0-5.0-1.0"},{"group":"hexagon_bi","fractal_assignment":["../images/pnk_blu.png","../images/ylw_slt.png","../images/cyn_red.png","../images/blu_wht.png","../images/org_blu.png","../images/gry_blk.png"],"mutagen_generator_assignment":[0,1],"goal":5,"start":3,"action_noise":0.2,"location_history":"[3,4,5]","action_history":"[1,1]","mutagen_history":"[1,1]","location_rts":"[2195,1560]","trial_type":"fractal-mutation","trial_index":106,"time_elapsed":2611010,"internal_node_id":"0.0-5.0-2.0"},{"group":"hexagon_bi","fractal_assignment":["../images/pnk_blu.png","../images/ylw_slt.png","../images/cyn_red.png","../images/blu_wht.png","../images/org_blu.png","../images/gry_blk.png"],"mutagen_generator_assignment":[0,1],"goal":2,"start":5,"action_noise":0.2,"location_history":"[5,0,5,4,5,4,5,4,5,4,3,4,3,4,3,2]","action_history":"[0,0,0,1,1,0,1,1,1,0,0,0,0,0,1]","mutagen_history":"[0,0,0,1,1,0,1,1,1,0,0,0,0,0,1]","location_rts":"[1624,726,1000,933,1250,817,631,455,1409,732,1116,1088,1282,299,270]","trial_type":"fractal-mutation","trial_index":107,"time_elapsed":2643659,"internal_node_id":"0.0-5.0-3.0"},{"group":"hexagon_bi","fractal_assignment":["../images/pnk_blu.png","../images/ylw_slt.png","../images/cyn_red.png","../images/blu_wht.png","../images/org_blu.png","../images/gry_blk.png"],"mutagen_generator_assignment":[0,1],"goal":1,"start":2,"action_noise":0.2,"location_history":"[2,3,2,3,4,3,2,1]","action_history":"[1,0,0,0,1,1,0]","mutagen_history":"[1,0,0,0,1,1,0]","location_rts":"[4222,1510,951,657,303,979,666]","trial_type":"fractal-mutation","trial_index":108,"time_elapsed":2663683,"internal_node_id":"0.0-5.0-4.0"},{"group":"hexagon_bi","fractal_assignment":["../images/pnk_blu.png","../images/ylw_slt.png","../images/cyn_red.png","../images/blu_wht.png","../images/org_blu.png","../images/gry_blk.png"],"mutagen_generator_assignment":[0,1],"goal":4,"start":1,"action_noise":0.2,"location_history":"[1,0,5,0,5,4]","action_history":"[1,0,0,0,1]","mutagen_history":"[1,0,0,0,1]","location_rts":"[2097,1540,936,493,214]","trial_type":"fractal-mutation","trial_index":109,"time_elapsed":2677642,"internal_node_id":"0.0-5.0-5.0"},{"group":"hexagon_bi","fractal_assignment":["../images/pnk_blu.png","../images/ylw_slt.png","../images/cyn_red.png","../images/blu_wht.png","../images/org_blu.png","../images/gry_blk.png"],"mutagen_generator_assignment":[0,1],"goal":1,"start":4,"action_noise":0.2,"location_history":"[4,3,4,3,4,3,2,1]","action_history":"[0,1,1,0,0,1,0]","mutagen_history":"[0,1,1,0,0,1,0]","location_rts":"[4315,629,1533,1051,1355,1157,1344]","trial_type":"fractal-mutation","trial_index":110,"time_elapsed":2699774,"internal_node_id":"0.0-5.0-6.0"},{"group":"hexagon_bi","fractal_assignment":["../images/pnk_blu.png","../images/ylw_slt.png","../images/cyn_red.png","../images/blu_wht.png","../images/org_blu.png","../images/gry_blk.png"],"mutagen_generator_assignment":[0,1],"goal":5,"start":1,"action_noise":0.2,"location_history":"[1,0,5]","action_history":"[1,0]","mutagen_history":"[1,0]","location_rts":"[2163,494]","trial_type":"fractal-mutation","trial_index":111,"time_elapsed":2708008,"internal_node_id":"0.0-5.0-7.0"},{"group":"hexagon_bi","fractal_assignment":["../images/pnk_blu.png","../images/ylw_slt.png","../images/cyn_red.png","../images/blu_wht.png","../images/org_blu.png","../images/gry_blk.png"],"mutagen_generator_assignment":[0,1],"goal":0,"start":5,"action_noise":0.2,"location_history":"[5,0]","action_history":"[0]","mutagen_history":"[0]","location_rts":"[2583]","trial_type":"fractal-mutation","trial_index":112,"time_elapsed":2715126,"internal_node_id":"0.0-5.0-8.0"},{"group":"hexagon_bi","fractal_assignment":["../images/pnk_blu.png","../images/ylw_slt.png","../images/cyn_red.png","../images/blu_wht.png","../images/org_blu.png","../images/gry_blk.png"],"mutagen_generator_assignment":[0,1],"goal":2,"start":0,"action_noise":0.2,"location_history":"[0,5,4,3,2]","action_history":"[0,0,0,1]","mutagen_history":"[0,0,0,1]","location_rts":"[8842,761,831,946]","trial_type":"fractal-mutation","trial_index":113,"time_elapsed":2734140,"internal_node_id":"0.0-5.0-9.0"},{"group":"hexagon_bi","fractal_assignment":["../images/pnk_blu.png","../images/ylw_slt.png","../images/cyn_red.png","../images/blu_wht.png","../images/org_blu.png","../images/gry_blk.png"],"mutagen_generator_assignment":[0,1],"goal":3,"start":2,"action_noise":0.2,"location_history":"[2,1,0,1,2,3]","action_history":"[0,1,0,0,1]","mutagen_history":"[0,1,0,0,1]","location_rts":"[2148,1222,822,734,632]","trial_type":"fractal-mutation","trial_index":114,"time_elapsed":2748391,"internal_node_id":"0.0-5.0-10.0"},{"group":"hexagon_bi","fractal_assignment":["../images/pnk_blu.png","../images/ylw_slt.png","../images/cyn_red.png","../images/blu_wht.png","../images/org_blu.png","../images/gry_blk.png"],"mutagen_generator_assignment":[0,1],"goal":0,"start":3,"action_noise":0.2,"location_history":"[3,4,5,4,3,4,3,2,3,2,3,2,1,2,3,2,1,2,3,2,1,2,1,0]","action_history":"[0,1,1,0,0,0,1,0,1,1,1,0,0,0,0,0,1,0,1,0,0,0,1]","mutagen_history":"[0,1,1,0,0,0,1,0,1,1,1,0,0,0,0,0,1,0,1,0,0,0,1]","location_rts":"[1814,833,850,617,1584,617,268,675,1086,475,1050,937,994,834,779,484,403,1237,784,402,1102,914,1181]","trial_type":"fractal-mutation","trial_index":115,"time_elapsed":2795642,"internal_node_id":"0.0-5.0-11.0"},{"group":"hexagon_bi","fractal_assignment":["../images/pnk_blu.png","../images/ylw_slt.png","../images/cyn_red.png","../images/blu_wht.png","../images/org_blu.png","../images/gry_blk.png"],"mutagen_generator_assignment":[0,1],"goal":2,"start":0,"action_noise":0.2,"location_history":"[0,5,4,3,2]","action_history":"[0,1,0,1]","mutagen_history":"[0,1,0,1]","location_rts":"[1948,512,417,1525]","trial_type":"fractal-mutation","trial_index":116,"time_elapsed":2807690,"internal_node_id":"0.0-5.0-12.0"},{"group":"hexagon_bi","fractal_assignment":["../images/pnk_blu.png","../images/ylw_slt.png","../images/cyn_red.png","../images/blu_wht.png","../images/org_blu.png","../images/gry_blk.png"],"mutagen_generator_assignment":[0,1],"goal":5,"start":2,"action_noise":0.2,"location_history":"[2,3,2,1,0,1,2,1,2,3,2,3,4,3,4,5]","action_history":"[1,0,0,1,1,0,0,1,1,1,1,0,0,0,1]","mutagen_history":"[1,0,0,1,1,0,0,1,1,1,1,0,0,0,1]","location_rts":"[1798,368,850,1171,1099,556,728,860,1220,718,589,520,585,1094,382]","trial_type":"fractal-mutation","trial_index":117,"time_elapsed":2839254,"internal_node_id":"0.0-5.0-13.0"},{"group":"hexagon_bi","fractal_assignment":["../images/pnk_blu.png","../images/ylw_slt.png","../images/cyn_red.png","../images/blu_wht.png","../images/org_blu.png","../images/gry_blk.png"],"mutagen_generator_assignment":[0,1],"goal":4,"start":5,"action_noise":0.2,"location_history":"[5,0,5,0,5,0,1,2,1,0,1,0,5,4]","action_history":"[0,0,1,0,0,1,0,0,1,1,1,0,1]","mutagen_history":"[0,0,1,0,0,1,0,0,1,1,1,0,1]","location_rts":"[1411,623,347,595,1089,444,1340,1050,330,895,814,507,2192]","trial_type":"fractal-mutation","trial_index":118,"time_elapsed":2867841,"internal_node_id":"0.0-5.0-14.0"},{"group":"hexagon_bi","fractal_assignment":["../images/pnk_blu.png","../images/ylw_slt.png","../images/cyn_red.png","../images/blu_wht.png","../images/org_blu.png","../images/gry_blk.png"],"mutagen_generator_assignment":[0,1],"goal":3,"start":4,"action_noise":0.2,"location_history":"[4,5,4,5,4,3]","action_history":"[0,1,1,1,0]","mutagen_history":"[0,1,1,1,0]","location_rts":"[3006,573,699,747,622]","trial_type":"fractal-mutation","trial_index":119,"time_elapsed":2882162,"internal_node_id":"0.0-5.0-15.0"},{"group":"hexagon_bi","fractal_assignment":["../images/pnk_blu.png","../images/ylw_slt.png","../images/cyn_red.png","../images/blu_wht.png","../images/org_blu.png","../images/gry_blk.png"],"mutagen_generator_assignment":[0,1],"goal":1,"start":3,"action_noise":0.2,"location_history":"[3,2,3,4,3,2,1]","action_history":"[1,1,1,0,1,0]","mutagen_history":"[1,1,1,0,1,0]","location_rts":"[3116,1897,511,319,932,822]","trial_type":"fractal-mutation","trial_index":120,"time_elapsed":2899471,"internal_node_id":"0.0-5.0-16.0"},{"group":"hexagon_bi","fractal_assignment":["../images/pnk_blu.png","../images/ylw_slt.png","../images/cyn_red.png","../images/blu_wht.png","../images/org_blu.png","../images/gry_blk.png"],"mutagen_generator_assignment":[0,1],"goal":5,"start":1,"action_noise":0.2,"location_history":"[1,2,1,2,3,2,1,0,5]","action_history":"[1,1,1,0,1,0,0,0]","mutagen_history":"[1,1,1,0,1,0,0,0]","location_rts":"[1421,904,857,432,1071,815,577,1194]","trial_type":"fractal-mutation","trial_index":121,"time_elapsed":2918529,"internal_node_id":"0.0-5.0-17.0"},{"group":"hexagon_bi","fractal_assignment":["../images/pnk_blu.png","../images/ylw_slt.png","../images/cyn_red.png","../images/blu_wht.png","../images/org_blu.png","../images/gry_blk.png"],"mutagen_generator_assignment":[0,1],"goal":4,"start":5,"action_noise":0.2,"location_history":"[5,4]","action_history":"[1]","mutagen_history":"[1]","location_rts":"[1784]","trial_type":"fractal-mutation","trial_index":122,"time_elapsed":2924850,"internal_node_id":"0.0-5.0-18.0"},{"group":"hexagon_bi","fractal_assignment":["../images/pnk_blu.png","../images/ylw_slt.png","../images/cyn_red.png","../images/blu_wht.png","../images/org_blu.png","../images/gry_blk.png"],"mutagen_generator_assignment":[0,1],"goal":0,"start":4,"action_noise":0.2,"location_history":"[4,5,4,3,4,3,4,5,0]","action_history":"[1,0,0,1,0,0,0,1]","mutagen_history":"[1,0,0,1,0,0,0,1]","location_rts":"[2307,1262,781,744,979,490,1460,1006]","trial_type":"fractal-mutation","trial_index":123,"time_elapsed":2945648,"internal_node_id":"0.0-5.0-19.0"},{"group":"hexagon_bi","fractal_assignment":["../images/pnk_blu.png","../images/ylw_slt.png","../images/cyn_red.png","../images/blu_wht.png","../images/org_blu.png","../images/gry_blk.png"],"mutagen_generator_assignment":[0,1],"goal":1,"start":0,"action_noise":0.2,"location_history":"[0,5,4,5,0,5,4,3,4,3,2,1]","action_history":"[0,1,1,0,0,1,0,0,0,1,0]","mutagen_history":"[0,1,1,0,0,1,0,0,0,1,0]","location_rts":"[3187,1220,1247,701,980,910,745,2083,838,351,1518]","trial_type":"fractal-mutation","trial_index":124,"time_elapsed":2974308,"internal_node_id":"0.0-5.0-20.0"},{"group":"hexagon_bi","fractal_assignment":["../images/pnk_blu.png","../images/ylw_slt.png","../images/cyn_red.png","../images/blu_wht.png","../images/org_blu.png","../images/gry_blk.png"],"mutagen_generator_assignment":[0,1],"goal":3,"start":1,"action_noise":0.2,"location_history":"[1,2,3]","action_history":"[0,1]","mutagen_history":"[0,1]","location_rts":"[17865,211]","trial_type":"fractal-mutation","trial_index":125,"time_elapsed":2997957,"internal_node_id":"0.0-5.0-21.0"},{"group":"hexagon_bi","fractal_assignment":["../images/pnk_blu.png","../images/ylw_slt.png","../images/cyn_red.png","../images/blu_wht.png","../images/org_blu.png","../images/gry_blk.png"],"mutagen_generator_assignment":[0,1],"goal":2,"start":3,"action_noise":0.2,"location_history":"[3,4,3,4,3,4,3,2]","action_history":"[0,1,1,0,0,0,1]","mutagen_history":"[0,1,1,0,0,0,1]","location_rts":"[1112,840,702,2043,2067,756,350]","trial_type":"fractal-mutation","trial_index":126,"time_elapsed":3016579,"internal_node_id":"0.0-5.0-22.0"},{"group":"hexagon_bi","fractal_assignment":["../images/pnk_blu.png","../images/ylw_slt.png","../images/cyn_red.png","../images/blu_wht.png","../images/org_blu.png","../images/gry_blk.png"],"mutagen_generator_assignment":[0,1],"goal":0,"start":2,"action_noise":0.2,"location_history":"[2,3,4,5,0]","action_history":"[1,0,0,0]","mutagen_history":"[1,0,0,0]","location_rts":"[2152,1037,1307,697]","trial_type":"fractal-mutation","trial_index":127,"time_elapsed":3029411,"internal_node_id":"0.0-5.0-23.0"},{"group":"hexagon_bi","fractal_assignment":["../images/pnk_blu.png","../images/ylw_slt.png","../images/cyn_red.png","../images/blu_wht.png","../images/org_blu.png","../images/gry_blk.png"],"mutagen_generator_assignment":[0,1],"goal":3,"start":0,"action_noise":0.2,"location_history":"[0,1,0,5,4,5,0,5,4,5,4,3]","action_history":"[0,1,0,1,1,0,0,0,1,1,0]","mutagen_history":"[0,1,0,1,1,0,0,0,1,1,0]","location_rts":"[1815,882,880,1039,787,646,767,667,738,1179,541]","trial_type":"fractal-mutation","trial_index":128,"time_elapsed":3054221,"internal_node_id":"0.0-5.0-24.0"},{"group":"hexagon_bi","fractal_assignment":["../images/pnk_blu.png","../images/ylw_slt.png","../images/cyn_red.png","../images/blu_wht.png","../images/org_blu.png","../images/gry_blk.png"],"mutagen_generator_assignment":[0,1],"goal":1,"start":3,"action_noise":0.2,"location_history":"[3,2,1]","action_history":"[1,0]","mutagen_history":"[1,0]","location_rts":"[3572,1129]","trial_type":"fractal-mutation","trial_index":129,"time_elapsed":3064505,"internal_node_id":"0.0-5.0-25.0"},{"group":"hexagon_bi","fractal_assignment":["../images/pnk_blu.png","../images/ylw_slt.png","../images/cyn_red.png","../images/blu_wht.png","../images/org_blu.png","../images/gry_blk.png"],"mutagen_generator_assignment":[0,1],"goal":2,"start":1,"action_noise":0.2,"location_history":"[1,0,5,4,5,4,5,0,5,4,5,0,1,2]","action_history":"[1,0,0,1,1,1,0,0,1,1,0,0,0]","mutagen_history":"[1,0,0,1,1,1,0,0,1,1,0,0,0]","location_rts":"[1998,896,849,372,691,760,562,10643,723,697,902,499,1083]","trial_type":"fractal-mutation","trial_index":130,"time_elapsed":3102154,"internal_node_id":"0.0-5.0-26.0"},{"group":"hexagon_bi","fractal_assignment":["../images/pnk_blu.png","../images/ylw_slt.png","../images/cyn_red.png","../images/blu_wht.png","../images/org_blu.png","../images/gry_blk.png"],"mutagen_generator_assignment":[0,1],"goal":5,"start":2,"action_noise":0.2,"location_history":"[2,1,2,1,2,3,2,3,4,3,2,1,2,3,2,1,2,1,0,1,0,1,0,5]","action_history":"[0,1,0,0,0,1,1,0,0,0,0,1,1,1,0,0,0,1,1,1,0,0,0]","mutagen_history":"[0,1,0,0,0,1,1,0,0,0,0,1,1,1,0,0,0,1,1,1,0,0,0]","location_rts":"[4061,18340,1225,470,468,1151,550,1244,778,1262,858,442,375,1223,790,508,638,345,2134,1294,467,599,247]","trial_type":"fractal-mutation","trial_index":131,"time_elapsed":3168859,"internal_node_id":"0.0-5.0-27.0"},{"group":"hexagon_bi","fractal_assignment":["../images/pnk_blu.png","../images/ylw_slt.png","../images/cyn_red.png","../images/blu_wht.png","../images/org_blu.png","../images/gry_blk.png"],"mutagen_generator_assignment":[0,1],"goal":4,"start":5,"action_noise":0.2,"location_history":"[5,0,1,0,1,0,5,0,5,4]","action_history":"[0,1,1,0,0,0,0,0,1]","mutagen_history":"[0,1,1,0,0,0,0,0,1]","location_rts":"[1792,978,757,1723,892,768,1994,468,473]","trial_type":"fractal-mutation","trial_index":132,"time_elapsed":3191503,"internal_node_id":"0.0-5.0-28.0"},{"group":"hexagon_bi","fractal_assignment":["../images/pnk_blu.png","../images/ylw_slt.png","../images/cyn_red.png","../images/blu_wht.png","../images/org_blu.png","../images/gry_blk.png"],"mutagen_generator_assignment":[0,1],"goal":5,"start":4,"action_noise":0.2,"location_history":"[4,5]","action_history":"[1]","mutagen_history":"[1]","location_rts":"[17469]","trial_type":"fractal-mutation","trial_index":133,"time_elapsed":3213514,"internal_node_id":"0.0-5.0-29.0"},{"group":"hexagon_bi","fractal_assignment":["../images/pnk_blu.png","../images/ylw_slt.png","../images/cyn_red.png","../images/blu_wht.png","../images/org_blu.png","../images/gry_blk.png"],"mutagen_generator_assignment":[0,1],"goal":3,"start":5,"action_noise":0.2,"location_history":"[5,4,5,0,1,2,1,2,1,2,1,2,1,0,5,4,3]","action_history":"[1,0,0,1,0,1,0,0,0,0,1,1,1,0,1,0]","mutagen_history":"[1,0,0,1,0,1,0,0,0,0,1,1,1,0,1,0]","location_rts":"[1809,893,931,2571,719,934,588,406,1120,352,449,942,3342,1025,1098,653]","trial_type":"fractal-mutation","trial_index":134,"time_elapsed":3251410,"internal_node_id":"0.0-5.0-30.0"},{"group":"hexagon_bi","fractal_assignment":["../images/pnk_blu.png","../images/ylw_slt.png","../images/cyn_red.png","../images/blu_wht.png","../images/org_blu.png","../images/gry_blk.png"],"mutagen_generator_assignment":[0,1],"goal":0,"start":3,"action_noise":0.2,"location_history":"[3,4,5,4,3,4,3,4,3,2,3,4,3,4,5,4,3,2,1,0]","action_history":"[0,1,1,0,1,0,0,0,1,1,0,0,0,1,1,1,1,0,1]","mutagen_history":"[0,1,1,0,1,0,0,0,1,1,0,0,0,1,1,1,1,0,1]","location_rts":"[1959,1433,1046,786,1344,618,638,976,1089,1284,962,781,683,805,614,512,698,947,844]","trial_type":"fractal-mutation","trial_index":135,"time_elapsed":3292540,"internal_node_id":"0.0-5.0-31.0"},{"group":"hexagon_bi","fractal_assignment":["../images/pnk_blu.png","../images/ylw_slt.png","../images/cyn_red.png","../images/blu_wht.png","../images/org_blu.png","../images/gry_blk.png"],"mutagen_generator_assignment":[0,1],"goal":4,"start":0,"action_noise":0.2,"location_history":"[0,5,0,5,0,1,2,3,4]","action_history":"[0,1,0,0,1,0,1,0]","mutagen_history":"[0,1,0,0,1,0,1,0]","location_rts":"[2468,1074,1017,640,2568,1042,870,567]","trial_type":"fractal-mutation","trial_index":136,"time_elapsed":3314545,"internal_node_id":"0.0-5.0-32.0"},{"group":"hexagon_bi","fractal_assignment":["../images/pnk_blu.png","../images/ylw_slt.png","../images/cyn_red.png","../images/blu_wht.png","../images/org_blu.png","../images/gry_blk.png"],"mutagen_generator_assignment":[0,1],"goal":1,"start":4,"action_noise":0.2,"location_history":"[4,5,4,5,0,5,4,5,0,1]","action_history":"[0,0,1,1,0,1,1,1,1]","mutagen_history":"[0,0,1,1,0,1,1,1,1]","location_rts":"[8999,1385,826,1172,1449,751,645,446,719]","trial_type":"fractal-mutation","trial_index":137,"time_elapsed":3343750,"internal_node_id":"0.0-5.0-33.0"},{"group":"hexagon_bi","fractal_assignment":["../images/pnk_blu.png","../images/ylw_slt.png","../images/cyn_red.png","../images/blu_wht.png","../images/org_blu.png","../images/gry_blk.png"],"mutagen_generator_assignment":[0,1],"goal":2,"start":1,"action_noise":0.2,"location_history":"[1,0,1,0,1,2]","action_history":"[1,0,1,1,0]","mutagen_history":"[1,0,1,1,0]","location_rts":"[32235,1215,1216,398,612]","trial_type":"fractal-mutation","trial_index":138,"time_elapsed":3388106,"internal_node_id":"0.0-5.0-34.0"},{"group":"hexagon_bi","fractal_assignment":["../images/pnk_blu.png","../images/ylw_slt.png","../images/cyn_red.png","../images/blu_wht.png","../images/org_blu.png","../images/gry_blk.png"],"mutagen_generator_assignment":[0,1],"goal":0,"start":2,"action_noise":0.2,"location_history":"[2,3,2,1,2,1,2,1,2,1,2,3,2,1,2,1,0]","action_history":"[1,0,0,1,0,0,0,1,0,0,0,1,0,0,0,1]","mutagen_history":"[1,0,0,1,0,0,0,1,0,0,0,1,0,0,0,1]","location_rts":"[4537,1021,634,968,1627,612,805,804,884,559,774,1349,1002,473,539,1028]","trial_type":"fractal-mutation","trial_index":139,"time_elapsed":3425729,"internal_node_id":"0.0-5.0-35.0"},{"group":"hexagon_bi","fractal_assignment":["../images/pnk_blu.png","../images/ylw_slt.png","../images/cyn_red.png","../images/blu_wht.png","../images/org_blu.png","../images/gry_blk.png"],"mutagen_generator_assignment":[0,1],"goal":5,"start":0,"action_noise":0.2,"location_history":"[0,1,0,5]","action_history":"[1,0,0]","mutagen_history":"[1,0,0]","location_rts":"[1950,721,793]","trial_type":"fractal-mutation","trial_index":140,"time_elapsed":3435794,"internal_node_id":"0.0-5.0-36.0"},{"group":"hexagon_bi","fractal_assignment":["../images/pnk_blu.png","../images/ylw_slt.png","../images/cyn_red.png","../images/blu_wht.png","../images/org_blu.png","../images/gry_blk.png"],"mutagen_generator_assignment":[0,1],"goal":2,"start":5,"action_noise":0.2,"location_history":"[5,0,5,0,5,4,5,0,5,0,1,2]","action_history":"[1,0,0,0,1,1,0,0,0,1,0]","mutagen_history":"[1,0,0,0,1,1,0,0,0,1,0]","location_rts":"[16490,1008,793,891,369,1439,602,465,848,891,1382]","trial_type":"fractal-mutation","trial_index":141,"time_elapsed":3475842,"internal_node_id":"0.0-5.0-37.0"},{"group":"hexagon_bi","fractal_assignment":["../images/pnk_blu.png","../images/ylw_slt.png","../images/cyn_red.png","../images/blu_wht.png","../images/org_blu.png","../images/gry_blk.png"],"mutagen_generator_assignment":[0,1],"goal":1,"start":2,"action_noise":0.2,"location_history":"[2,3,4,5,4,3,2,1]","action_history":"[1,0,1,1,0,1,0]","mutagen_history":"[1,0,1,1,0,1,0]","location_rts":"[12234,1576,811,654,506,1028,757]","trial_type":"fractal-mutation","trial_index":142,"time_elapsed":3504148,"internal_node_id":"0.0-5.0-38.0"},{"group":"hexagon_bi","fractal_assignment":["../images/pnk_blu.png","../images/ylw_slt.png","../images/cyn_red.png","../images/blu_wht.png","../images/org_blu.png","../images/gry_blk.png"],"mutagen_generator_assignment":[0,1],"goal":4,"start":1,"action_noise":0.2,"location_history":"[1,0,5,0,1,0,5,4]","action_history":"[1,0,0,1,1,1,1]","mutagen_history":"[1,0,0,1,1,1,1]","location_rts":"[4153,835,2409,655,967,816,791]","trial_type":"fractal-mutation","trial_index":143,"time_elapsed":3525527,"internal_node_id":"0.0-5.0-39.0"},{"group":"hexagon_bi","fractal_assignment":["../images/pnk_blu.png","../images/ylw_slt.png","../images/cyn_red.png","../images/blu_wht.png","../images/org_blu.png","../images/gry_blk.png"],"mutagen_generator_assignment":[0,1],"goal":3,"start":4,"action_noise":0.2,"location_history":"[4,5,0,1,2,3]","action_history":"[0,0,1,0,1]","mutagen_history":"[0,0,1,0,1]","location_rts":"[3370,2070,974,1043,1445]","trial_type":"fractal-mutation","trial_index":144,"time_elapsed":3543094,"internal_node_id":"0.0-5.0-40.0"},{"group":"hexagon_bi","fractal_assignment":["../images/pnk_blu.png","../images/ylw_slt.png","../images/cyn_red.png","../images/blu_wht.png","../images/org_blu.png","../images/gry_blk.png"],"mutagen_generator_assignment":[0,1],"goal":5,"start":3,"action_noise":0.2,"location_history":"[3,4,3,4,5]","action_history":"[1,0,0,1]","mutagen_history":"[1,0,0,1]","location_rts":"[1556,2224,1484,673]","trial_type":"fractal-mutation","trial_index":145,"time_elapsed":3556669,"internal_node_id":"0.0-5.0-41.0"},{"group":"hexagon_bi","fractal_assignment":["../images/pnk_blu.png","../images/ylw_slt.png","../images/cyn_red.png","../images/blu_wht.png","../images/org_blu.png","../images/gry_blk.png"],"mutagen_generator_assignment":[0,1],"goal":3,"start":5,"action_noise":0.2,"location_history":"[5,4,5,4,3]","action_history":"[1,1,1,0]","mutagen_history":"[1,1,1,0]","location_rts":"[831,499,3711,307]","trial_type":"fractal-mutation","trial_index":146,"time_elapsed":3569657,"internal_node_id":"0.0-5.0-42.0"},{"group":"hexagon_bi","fractal_assignment":["../images/pnk_blu.png","../images/ylw_slt.png","../images/cyn_red.png","../images/blu_wht.png","../images/org_blu.png","../images/gry_blk.png"],"mutagen_generator_assignment":[0,1],"goal":0,"start":3,"action_noise":0.2,"location_history":"[3,4,3,2,1,0]","action_history":"[0,0,1,0,1]","mutagen_history":"[0,0,1,0,1]","location_rts":"[4981,1133,973,1689,810]","trial_type":"fractal-mutation","trial_index":147,"time_elapsed":3587918,"internal_node_id":"0.0-5.0-43.0"},{"group":"hexagon_bi","fractal_assignment":["../images/pnk_blu.png","../images/ylw_slt.png","../images/cyn_red.png","../images/blu_wht.png","../images/org_blu.png","../images/gry_blk.png"],"mutagen_generator_assignment":[0,1],"goal":2,"start":0,"action_noise":0.2,"location_history":"[0,5,0,1,2]","action_history":"[0,0,1,0]","mutagen_history":"[0,0,1,0]","location_rts":"[1505,616,280,937]","trial_type":"fractal-mutation","trial_index":148,"time_elapsed":3598890,"internal_node_id":"0.0-5.0-44.0"},{"group":"hexagon_bi","fractal_assignment":["../images/pnk_blu.png","../images/ylw_slt.png","../images/cyn_red.png","../images/blu_wht.png","../images/org_blu.png","../images/gry_blk.png"],"mutagen_generator_assignment":[0,1],"goal":4,"start":2,"action_noise":0.2,"location_history":"[2,1,0,1,2,3,2,1,0,5,0,5,4]","action_history":"[0,1,0,0,1,0,0,1,0,0,0,1]","mutagen_history":"[0,1,0,0,1,0,0,1,0,0,0,1]","location_rts":"[3777,1200,1503,1626,1125,1602,1200,442,720,1444,429,357]","trial_type":"fractal-mutation","trial_index":149,"time_elapsed":3630210,"internal_node_id":"0.0-5.0-45.0"},{"group":"hexagon_bi","fractal_assignment":["../images/pnk_blu.png","../images/ylw_slt.png","../images/cyn_red.png","../images/blu_wht.png","../images/org_blu.png","../images/gry_blk.png"],"mutagen_generator_assignment":[0,1],"goal":1,"start":4,"action_noise":0.2,"location_history":"[4,3,4,3,4,3,2,3,2,1]","action_history":"[1,0,0,0,1,1,1,1,0]","mutagen_history":"[1,0,0,0,1,1,1,1,0]","location_rts":"[4632,1585,2027,537,407,673,2710,673,339]","trial_type":"fractal-mutation","trial_index":150,"time_elapsed":3656602,"internal_node_id":"0.0-5.0-46.0"},{"group":"hexagon_bi","fractal_assignment":["../images/pnk_blu.png","../images/ylw_slt.png","../images/cyn_red.png","../images/blu_wht.png","../images/org_blu.png","../images/gry_blk.png"],"mutagen_generator_assignment":[0,1],"goal":4,"start":1,"action_noise":0.2,"location_history":"[1,0,1,2,1,0,1,0,5,4]","action_history":"[1,1,0,0,0,1,0,0,1]","mutagen_history":"[1,1,0,0,0,1,0,0,1]","location_rts":"[4549,1241,488,1358,436,255,458,355,2263]","trial_type":"fractal-mutation","trial_index":151,"time_elapsed":3680794,"internal_node_id":"0.0-5.0-47.0"},{"group":"hexagon_bi","fractal_assignment":["../images/pnk_blu.png","../images/ylw_slt.png","../images/cyn_red.png","../images/blu_wht.png","../images/org_blu.png","../images/gry_blk.png"],"mutagen_generator_assignment":[0,1],"goal":1,"start":4,"action_noise":0.2,"location_history":"[4,5,0,5,0,5,0,1]","action_history":"[1,0,1,1,0,0,1]","mutagen_history":"[1,0,1,1,0,0,1]","location_rts":"[2735,436,1342,1408,330,1162,1214]","trial_type":"fractal-mutation","trial_index":152,"time_elapsed":3700146,"internal_node_id":"0.0-5.0-48.0"},{"group":"hexagon_bi","fractal_assignment":["../images/pnk_blu.png","../images/ylw_slt.png","../images/cyn_red.png","../images/blu_wht.png","../images/org_blu.png","../images/gry_blk.png"],"mutagen_generator_assignment":[0,1],"goal":3,"start":1,"action_noise":0.2,"location_history":"[1,0,1,2,1,2,3]","action_history":"[1,0,0,0,0,1]","mutagen_history":"[1,0,0,0,0,1]","location_rts":"[13961,2095,725,1314,382,350]","trial_type":"fractal-mutation","trial_index":153,"time_elapsed":3728658,"internal_node_id":"0.0-5.0-49.0"},{"group":"hexagon_bi","fractal_assignment":["../images/pnk_blu.png","../images/ylw_slt.png","../images/cyn_red.png","../images/blu_wht.png","../images/org_blu.png","../images/gry_blk.png"],"mutagen_generator_assignment":[0,1],"goal":5,"start":3,"action_noise":0.2,"location_history":"[3,2,1,2,1,0,1,2,1,2,3,4,5]","action_history":"[0,0,1,0,1,1,0,0,0,1,0,1]","mutagen_history":"[0,0,1,0,1,1,0,0,0,1,0,1]","location_rts":"[3847,659,319,689,433,2264,750,1097,523,317,2170,1218]","trial_type":"fractal-mutation","trial_index":154,"time_elapsed":3758845,"internal_node_id":"0.0-5.0-50.0"},{"group":"hexagon_bi","fractal_assignment":["../images/pnk_blu.png","../images/ylw_slt.png","../images/cyn_red.png","../images/blu_wht.png","../images/org_blu.png","../images/gry_blk.png"],"mutagen_generator_assignment":[0,1],"goal":0,"start":5,"action_noise":0.2,"location_history":"[5,0]","action_history":"[0]","mutagen_history":"[0]","location_rts":"[8540]","trial_type":"fractal-mutation","trial_index":155,"time_elapsed":3771926,"internal_node_id":"0.0-5.0-51.0"},{"group":"hexagon_bi","fractal_assignment":["../images/pnk_blu.png","../images/ylw_slt.png","../images/cyn_red.png","../images/blu_wht.png","../images/org_blu.png","../images/gry_blk.png"],"mutagen_generator_assignment":[0,1],"goal":2,"start":0,"action_noise":0.2,"location_history":"[0,1,0,1,2]","action_history":"[1,0,1,0]","mutagen_history":"[1,0,1,0]","location_rts":"[3965,1165,1081,636]","trial_type":"fractal-mutation","trial_index":156,"time_elapsed":3786402,"internal_node_id":"0.0-5.0-52.0"},{"group":"hexagon_bi","fractal_assignment":["../images/pnk_blu.png","../images/ylw_slt.png","../images/cyn_red.png","../images/blu_wht.png","../images/org_blu.png","../images/gry_blk.png"],"mutagen_generator_assignment":[0,1],"goal":1,"start":2,"action_noise":0.2,"location_history":"[2,1]","action_history":"[0]","mutagen_history":"[0]","location_rts":"[1522]","trial_type":"fractal-mutation","trial_index":157,"time_elapsed":3792457,"internal_node_id":"0.0-5.0-53.0"},{"group":"hexagon_bi","fractal_assignment":["../images/pnk_blu.png","../images/ylw_slt.png","../images/cyn_red.png","../images/blu_wht.png","../images/org_blu.png","../images/gry_blk.png"],"mutagen_generator_assignment":[0,1],"goal":2,"start":1,"action_noise":0.2,"location_history":"[1,2]","action_history":"[0]","mutagen_history":"[0]","location_rts":"[1174]","trial_type":"fractal-mutation","trial_index":158,"time_elapsed":3798165,"internal_node_id":"0.0-5.0-54.0"},{"group":"hexagon_bi","fractal_assignment":["../images/pnk_blu.png","../images/ylw_slt.png","../images/cyn_red.png","../images/blu_wht.png","../images/org_blu.png","../images/gry_blk.png"],"mutagen_generator_assignment":[0,1],"goal":5,"start":2,"action_noise":0.2,"location_history":"[2,3,4,5]","action_history":"[1,0,1]","mutagen_history":"[1,0,1]","location_rts":"[3766,2674,1097]","trial_type":"fractal-mutation","trial_index":159,"time_elapsed":3812315,"internal_node_id":"0.0-5.0-55.0"},{"group":"hexagon_bi","fractal_assignment":["../images/pnk_blu.png","../images/ylw_slt.png","../images/cyn_red.png","../images/blu_wht.png","../images/org_blu.png","../images/gry_blk.png"],"mutagen_generator_assignment":[0,1],"goal":4,"start":5,"action_noise":0.2,"location_history":"[5,4]","action_history":"[1]","mutagen_history":"[1]","location_rts":"[1418]","trial_type":"fractal-mutation","trial_index":160,"time_elapsed":3818275,"internal_node_id":"0.0-5.0-56.0"},{"group":"hexagon_bi","fractal_assignment":["../images/pnk_blu.png","../images/ylw_slt.png","../images/cyn_red.png","../images/blu_wht.png","../images/org_blu.png","../images/gry_blk.png"],"mutagen_generator_assignment":[0,1],"goal":3,"start":4,"action_noise":0.2,"location_history":"[4,3]","action_history":"[0]","mutagen_history":"[0]","location_rts":"[2139]","trial_type":"fractal-mutation","trial_index":161,"time_elapsed":3824946,"internal_node_id":"0.0-5.0-57.0"},{"group":"hexagon_bi","fractal_assignment":["../images/pnk_blu.png","../images/ylw_slt.png","../images/cyn_red.png","../images/blu_wht.png","../images/org_blu.png","../images/gry_blk.png"],"mutagen_generator_assignment":[0,1],"goal":0,"start":3,"action_noise":0.2,"location_history":"[3,2,1,0]","action_history":"[1,0,1]","mutagen_history":"[1,0,1]","location_rts":"[2284,2047,1193]","trial_type":"fractal-mutation","trial_index":162,"time_elapsed":3837072,"internal_node_id":"0.0-5.0-58.0"},{"group":"hexagon_bi","fractal_assignment":["../images/pnk_blu.png","../images/ylw_slt.png","../images/cyn_red.png","../images/blu_wht.png","../images/org_blu.png","../images/gry_blk.png"],"mutagen_generator_assignment":[0,1],"goal":2,"start":0,"action_noise":0.2,"location_history":"[0,1,2]","action_history":"[1,0]","mutagen_history":"[1,0]","location_rts":"[2557,492]","trial_type":"fractal-mutation","trial_index":163,"time_elapsed":3845685,"internal_node_id":"0.0-5.0-59.0"},{"group":"hexagon_bi","fractal_assignment":["../images/pnk_blu.png","../images/ylw_slt.png","../images/cyn_red.png","../images/blu_wht.png","../images/org_blu.png","../images/gry_blk.png"],"mutagen_generator_assignment":[0,1],"goal":1,"start":2,"action_noise":0.2,"location_history":"[2,1]","action_history":"[0]","mutagen_history":"[0]","location_rts":"[1267]","trial_type":"fractal-mutation","trial_index":164,"time_elapsed":3851484,"internal_node_id":"0.0-5.0-60.0"},{"group":"hexagon_bi","fractal_assignment":["../images/pnk_blu.png","../images/ylw_slt.png","../images/cyn_red.png","../images/blu_wht.png","../images/org_blu.png","../images/gry_blk.png"],"mutagen_generator_assignment":[0,1],"goal":0,"start":1,"action_noise":0.2,"location_history":"[1,0]","action_history":"[1]","mutagen_history":"[1]","location_rts":"[3271]","trial_type":"fractal-mutation","trial_index":165,"time_elapsed":3859294,"internal_node_id":"0.0-5.0-61.0"},{"group":"hexagon_bi","fractal_assignment":["../images/pnk_blu.png","../images/ylw_slt.png","../images/cyn_red.png","../images/blu_wht.png","../images/org_blu.png","../images/gry_blk.png"],"mutagen_generator_assignment":[0,1],"goal":3,"start":0,"action_noise":0.2,"location_history":"[0,5,4,5,0,5,0,5,0,1,0,1,0,1,2,3]","action_history":"[1,1,0,1,0,0,0,0,1,0,1,1,1,0,1]","mutagen_history":"[1,1,0,1,0,0,0,0,1,0,1,1,1,0,1]","location_rts":"[3292,1352,450,1613,768,1374,1744,551,332,2580,1745,738,964,353,1363]","trial_type":"fractal-mutation","trial_index":166,"time_elapsed":3897524,"internal_node_id":"0.0-5.0-62.0"},{"group":"hexagon_bi","fractal_assignment":["../images/pnk_blu.png","../images/ylw_slt.png","../images/cyn_red.png","../images/blu_wht.png","../images/org_blu.png","../images/gry_blk.png"],"mutagen_generator_assignment":[0,1],"goal":5,"start":3,"action_noise":0.2,"location_history":"[3,4,5]","action_history":"[0,1]","mutagen_history":"[0,1]","location_rts":"[2946,1014]","trial_type":"fractal-mutation","trial_index":167,"time_elapsed":3907059,"internal_node_id":"0.0-5.0-63.0"},{"group":"hexagon_bi","fractal_assignment":["../images/pnk_blu.png","../images/ylw_slt.png","../images/cyn_red.png","../images/blu_wht.png","../images/org_blu.png","../images/gry_blk.png"],"mutagen_generator_assignment":[0,1],"goal":4,"start":5,"action_noise":0.2,"location_history":"[5,0,5,4]","action_history":"[0,0,1]","mutagen_history":"[0,0,1]","location_rts":"[897,590,326]","trial_type":"fractal-mutation","trial_index":168,"time_elapsed":3915479,"internal_node_id":"0.0-5.0-64.0"},{"group":"hexagon_bi","fractal_assignment":["../images/pnk_blu.png","../images/ylw_slt.png","../images/cyn_red.png","../images/blu_wht.png","../images/org_blu.png","../images/gry_blk.png"],"mutagen_generator_assignment":[0,1],"goal":1,"start":4,"action_noise":0.2,"location_history":"[4,3,2,1]","action_history":"[0,1,0]","mutagen_history":"[0,1,0]","location_rts":"[1906,1797,1141]","trial_type":"fractal-mutation","trial_index":169,"time_elapsed":3926914,"internal_node_id":"0.0-5.0-65.0"},{"group":"hexagon_bi","fractal_assignment":["../images/pnk_blu.png","../images/ylw_slt.png","../images/cyn_red.png","../images/blu_wht.png","../images/org_blu.png","../images/gry_blk.png"],"mutagen_generator_assignment":[0,1],"goal":5,"start":1,"action_noise":0.2,"location_history":"[1,2,3,4,5]","action_history":"[0,1,0,1]","mutagen_history":"[0,1,0,1]","location_rts":"[1383,495,1483,703]","trial_type":"fractal-mutation","trial_index":170,"time_elapsed":3938613,"internal_node_id":"0.0-5.0-66.0"},{"group":"hexagon_bi","fractal_assignment":["../images/pnk_blu.png","../images/ylw_slt.png","../images/cyn_red.png","../images/blu_wht.png","../images/org_blu.png","../images/gry_blk.png"],"mutagen_generator_assignment":[0,1],"goal":2,"start":5,"action_noise":0.2,"location_history":"[5,4,3,2]","action_history":"[0,0,1]","mutagen_history":"[0,0,1]","location_rts":"[3514,4233,674]","trial_type":"fractal-mutation","trial_index":171,"time_elapsed":3953632,"internal_node_id":"0.0-5.0-67.0"},{"group":"hexagon_bi","fractal_assignment":["../images/pnk_blu.png","../images/ylw_slt.png","../images/cyn_red.png","../images/blu_wht.png","../images/org_blu.png","../images/gry_blk.png"],"mutagen_generator_assignment":[0,1],"goal":3,"start":2,"action_noise":0.2,"location_history":"[2,3]","action_history":"[1]","mutagen_history":"[1]","location_rts":"[11243]","trial_type":"fractal-mutation","trial_index":172,"time_elapsed":3969419,"internal_node_id":"0.0-5.0-68.0"},{"group":"hexagon_bi","fractal_assignment":["../images/pnk_blu.png","../images/ylw_slt.png","../images/cyn_red.png","../images/blu_wht.png","../images/org_blu.png","../images/gry_blk.png"],"mutagen_generator_assignment":[0,1],"goal":4,"start":3,"action_noise":0.2,"location_history":"[3,2,1,0,1,2,3,2,1,0,1,0,1,2,1,2,3,2,3,4]","action_history":"[0,0,1,0,0,1,1,0,1,1,1,1,0,0,0,1,0,1,0]","mutagen_history":"[0,0,1,0,0,1,1,0,1,1,1,1,0,0,0,1,0,1,0]","location_rts":"[1832,827,2057,1305,892,889,868,1183,490,493,681,1262,750,757,514,316,1417,1163,1758]","trial_type":"fractal-mutation","trial_index":173,"time_elapsed":4012024,"internal_node_id":"0.0-5.0-69.0"},{"group":"hexagon_bi","fractal_assignment":["../images/pnk_blu.png","../images/ylw_slt.png","../images/cyn_red.png","../images/blu_wht.png","../images/org_blu.png","../images/gry_blk.png"],"mutagen_generator_assignment":[0,1],"goal":0,"start":4,"action_noise":0.2,"location_history":"[4,3,4,5,0]","action_history":"[0,1,1,0]","mutagen_history":"[0,1,1,0]","location_rts":"[1670,1131,1474,1247]","trial_type":"fractal-mutation","trial_index":174,"time_elapsed":4025180,"internal_node_id":"0.0-5.0-70.0"},{"group":"hexagon_bi","fractal_assignment":["../images/pnk_blu.png","../images/ylw_slt.png","../images/cyn_red.png","../images/blu_wht.png","../images/org_blu.png","../images/gry_blk.png"],"mutagen_generator_assignment":[0,1],"goal":5,"start":0,"action_noise":0.2,"location_history":"[0,5]","action_history":"[0]","mutagen_history":"[0]","location_rts":"[3737]","trial_type":"fractal-mutation","trial_index":175,"time_elapsed":4033448,"internal_node_id":"0.0-5.0-71.0"},{"group":"hexagon_bi","fractal_assignment":["../images/pnk_blu.png","../images/ylw_slt.png","../images/cyn_red.png","../images/blu_wht.png","../images/org_blu.png","../images/gry_blk.png"],"mutagen_generator_assignment":[0,1],"goal":0,"start":5,"action_noise":0.2,"location_history":"[5,0]","action_history":"[1]","mutagen_history":"[1]","location_rts":"[2519]","trial_type":"fractal-mutation","trial_index":176,"time_elapsed":4040510,"internal_node_id":"0.0-5.0-72.0"},{"group":"hexagon_bi","fractal_assignment":["../images/pnk_blu.png","../images/ylw_slt.png","../images/cyn_red.png","../images/blu_wht.png","../images/org_blu.png","../images/gry_blk.png"],"mutagen_generator_assignment":[0,1],"goal":3,"start":0,"action_noise":0.2,"location_history":"[0,5,4,3]","action_history":"[0,1,0]","mutagen_history":"[0,1,0]","location_rts":"[2257,1187,578]","trial_type":"fractal-mutation","trial_index":177,"time_elapsed":4051139,"internal_node_id":"0.0-5.0-73.0"},{"group":"hexagon_bi","fractal_assignment":["../images/pnk_blu.png","../images/ylw_slt.png","../images/cyn_red.png","../images/blu_wht.png","../images/org_blu.png","../images/gry_blk.png"],"mutagen_generator_assignment":[0,1],"goal":1,"start":3,"action_noise":0.2,"location_history":"[3,2,3,4,3,2,3,2,1]","action_history":"[0,1,0,0,1,1,1,0]","mutagen_history":"[0,1,0,0,1,1,1,0]","location_rts":"[26478,899,747,644,1704,1353,447,360]","trial_type":"fractal-mutation","trial_index":178,"time_elapsed":4095528,"internal_node_id":"0.0-5.0-74.0"},{"group":"hexagon_bi","fractal_assignment":["../images/pnk_blu.png","../images/ylw_slt.png","../images/cyn_red.png","../images/blu_wht.png","../images/org_blu.png","../images/gry_blk.png"],"mutagen_generator_assignment":[0,1],"goal":2,"start":1,"action_noise":0.2,"location_history":"[1,2]","action_history":"[1]","mutagen_history":"[1]","location_rts":"[7841]","trial_type":"fractal-mutation","trial_index":179,"time_elapsed":4107907,"internal_node_id":"0.0-5.0-75.0"},{"group":"hexagon_bi","fractal_assignment":["../images/pnk_blu.png","../images/ylw_slt.png","../images/cyn_red.png","../images/blu_wht.png","../images/org_blu.png","../images/gry_blk.png"],"mutagen_generator_assignment":[0,1],"goal":4,"start":2,"action_noise":0.2,"location_history":"[2,1,2,1,2,3,4]","action_history":"[0,0,0,1,1,0]","mutagen_history":"[0,0,0,1,1,0]","location_rts":"[1721,1000,662,340,735,856]","trial_type":"fractal-mutation","trial_index":180,"time_elapsed":4122930,"internal_node_id":"0.0-5.0-76.0"},{"group":"hexagon_bi","fractal_assignment":["../images/pnk_blu.png","../images/ylw_slt.png","../images/cyn_red.png","../images/blu_wht.png","../images/org_blu.png","../images/gry_blk.png"],"mutagen_generator_assignment":[0,1],"goal":3,"start":4,"action_noise":0.2,"location_history":"[4,3]","action_history":"[0]","mutagen_history":"[0]","location_rts":"[5033]","trial_type":"fractal-mutation","trial_index":181,"time_elapsed":4132499,"internal_node_id":"0.0-5.0-77.0"},{"group":"hexagon_bi","fractal_assignment":["../images/pnk_blu.png","../images/ylw_slt.png","../images/cyn_red.png","../images/blu_wht.png","../images/org_blu.png","../images/gry_blk.png"],"mutagen_generator_assignment":[0,1],"goal":0,"start":3,"action_noise":0.2,"location_history":"[3,4,3,2,3,2,3,4,3,4,3,2,1,2,3,2,1,0]","action_history":"[0,0,1,0,1,1,0,0,1,0,1,1,0,1,1,1,1]","mutagen_history":"[0,0,1,0,1,1,0,0,1,0,1,1,0,1,1,1,1]","location_rts":"[3192,882,293,1041,1434,341,1780,1468,1222,783,559,753,1232,835,695,1017,1310]","trial_type":"fractal-mutation","trial_index":182,"time_elapsed":4172396,"internal_node_id":"0.0-5.0-78.0"},{"group":"hexagon_bi","fractal_assignment":["../images/pnk_blu.png","../images/ylw_slt.png","../images/cyn_red.png","../images/blu_wht.png","../images/org_blu.png","../images/gry_blk.png"],"mutagen_generator_assignment":[0,1],"goal":4,"start":0,"action_noise":0.2,"location_history":"[0,5,4]","action_history":"[0,1]","mutagen_history":"[0,1]","location_rts":"[21977,1196]","trial_type":"fractal-mutation","trial_index":183,"time_elapsed":4201152,"internal_node_id":"0.0-5.0-79.0"},{"group":"hexagon_bi","fractal_assignment":["../images/pnk_blu.png","../images/ylw_slt.png","../images/cyn_red.png","../images/blu_wht.png","../images/org_blu.png","../images/gry_blk.png"],"mutagen_generator_assignment":[0,1],"goal":5,"start":4,"action_noise":0.2,"location_history":"[4,5]","action_history":"[1]","mutagen_history":"[1]","location_rts":"[15617]","trial_type":"fractal-mutation","trial_index":184,"time_elapsed":4221314,"internal_node_id":"0.0-5.0-80.0"},{"group":"hexagon_bi","fractal_assignment":["../images/pnk_blu.png","../images/ylw_slt.png","../images/cyn_red.png","../images/blu_wht.png","../images/org_blu.png","../images/gry_blk.png"],"mutagen_generator_assignment":[0,1],"goal":1,"start":5,"action_noise":0.2,"location_history":"[5,0,1]","action_history":"[0,1]","mutagen_history":"[0,1]","location_rts":"[1815,2404]","trial_type":"fractal-mutation","trial_index":185,"time_elapsed":4231103,"internal_node_id":"0.0-5.0-81.0"},{"group":"hexagon_bi","fractal_assignment":["../images/pnk_blu.png","../images/ylw_slt.png","../images/cyn_red.png","../images/blu_wht.png","../images/org_blu.png","../images/gry_blk.png"],"mutagen_generator_assignment":[0,1],"goal":2,"start":1,"action_noise":0.2,"location_history":"[1,0,5,0,1,2]","action_history":"[0,0,0,1,1]","mutagen_history":"[0,0,0,1,1]","location_rts":"[3061,873,839,544,943]","trial_type":"fractal-mutation","trial_index":186,"time_elapsed":4246029,"internal_node_id":"0.0-5.0-82.0"},{"group":"hexagon_bi","fractal_assignment":["../images/pnk_blu.png","../images/ylw_slt.png","../images/cyn_red.png","../images/blu_wht.png","../images/org_blu.png","../images/gry_blk.png"],"mutagen_generator_assignment":[0,1],"goal":4,"start":2,"action_noise":0.2,"location_history":"[2,3,2,1,0,1,0,1,2,1,2,1,0,1,0,1,0,1,2,1,2,3,2,1,2,1,0,1,0,1,2,1,2,3,2,3,2,3,4]","action_history":"[0,1,0,1,1,1,0,0,1,0,0,1,0,1,1,1,1,0,0,0,1,1,1,0,0,1,0,1,0,1,0,1,1,1,1,1,0,0]","mutagen_history":"[0,1,0,1,1,1,0,0,1,0,0,1,0,1,1,1,1,0,0,0,1,1,1,0,0,1,0,1,0,1,0,1,1,1,1,1,0,0]","location_rts":"[3625,863,797,2482,764,878,782,781,1173,1066,1005,1398,2282,1191,971,482,549,338,1939,727,279,1715,2171,1987,975,1483,1054,2558,711,1295,1346,962,933,1161,773,483,302,781]","trial_type":"fractal-mutation","trial_index":187,"time_elapsed":4333861,"internal_node_id":"0.0-5.0-83.0"},{"group":"hexagon_bi","fractal_assignment":["../images/pnk_blu.png","../images/ylw_slt.png","../images/cyn_red.png","../images/blu_wht.png","../images/org_blu.png","../images/gry_blk.png"],"mutagen_generator_assignment":[0,1],"goal":0,"start":4,"action_noise":0.2,"location_history":"[4,3,4,3,2,3,2,1,2,3,4,3,2,1,0]","action_history":"[0,1,0,0,1,1,1,0,1,0,0,1,1,0]","mutagen_history":"[0,1,0,0,1,1,1,0,1,0,0,1,1,0]","location_rts":"[2066,585,632,1298,842,932,527,273,574,450,1617,508,597,685]","trial_type":"fractal-mutation","trial_index":188,"time_elapsed":4363404,"internal_node_id":"0.0-5.0-84.0"},{"group":"hexagon_bi","fractal_assignment":["../images/pnk_blu.png","../images/ylw_slt.png","../images/cyn_red.png","../images/blu_wht.png","../images/org_blu.png","../images/gry_blk.png"],"mutagen_generator_assignment":[0,1],"goal":5,"start":0,"action_noise":0.2,"location_history":"[0,5]","action_history":"[1]","mutagen_history":"[1]","location_rts":"[9817]","trial_type":"fractal-mutation","trial_index":189,"time_elapsed":4377760,"internal_node_id":"0.0-5.0-85.0"},{"group":"hexagon_bi","fractal_assignment":["../images/pnk_blu.png","../images/ylw_slt.png","../images/cyn_red.png","../images/blu_wht.png","../images/org_blu.png","../images/gry_blk.png"],"mutagen_generator_assignment":[0,1],"goal":3,"start":5,"action_noise":0.2,"location_history":"[5,4,5,4,5,0,1,2,3]","action_history":"[0,0,1,1,0,1,0,1]","mutagen_history":"[0,0,1,1,0,1,0,1]","location_rts":"[5074,2510,2075,846,1116,3745,2681,1351]","trial_type":"fractal-mutation","trial_index":190,"time_elapsed":4408920,"internal_node_id":"0.0-5.0-86.0"},{"group":"hexagon_bi","fractal_assignment":["../images/pnk_blu.png","../images/ylw_slt.png","../images/cyn_red.png","../images/blu_wht.png","../images/org_blu.png","../images/gry_blk.png"],"mutagen_generator_assignment":[0,1],"goal":1,"start":3,"action_noise":0.2,"location_history":"[3,2,3,2,1]","action_history":"[0,1,1,0]","mutagen_history":"[0,1,1,0]","location_rts":"[2726,979,940,421]","trial_type":"fractal-mutation","trial_index":191,"time_elapsed":4421633,"internal_node_id":"0.0-5.0-87.0"},{"group":"hexagon_bi","fractal_assignment":["../images/pnk_blu.png","../images/ylw_slt.png","../images/cyn_red.png","../images/blu_wht.png","../images/org_blu.png","../images/gry_blk.png"],"mutagen_generator_assignment":[0,1],"goal":2,"start":1,"action_noise":0.2,"location_history":"[1,2]","action_history":"[0]","mutagen_history":"[0]","location_rts":"[1946]","trial_type":"fractal-mutation","trial_index":192,"time_elapsed":4428113,"internal_node_id":"0.0-5.0-88.0"},{"group":"hexagon_bi","fractal_assignment":["../images/pnk_blu.png","../images/ylw_slt.png","../images/cyn_red.png","../images/blu_wht.png","../images/org_blu.png","../images/gry_blk.png"],"mutagen_generator_assignment":[0,1],"goal":0,"start":2,"action_noise":0.2,"location_history":"[2,3,2,3,4,5,4,3,2,1,2,1,2,3,2,3,4,3,4,5,4,5,0]","action_history":"[0,0,1,0,1,0,0,1,1,0,0,1,1,1,1,0,0,0,0,1,1,0]","mutagen_history":"[0,0,1,0,1,0,0,1,1,0,0,1,1,1,1,0,0,0,0,1,1,0]","location_rts":"[4133,831,415,618,2145,715,1051,841,1177,2210,971,390,1007,781,894,382,1294,1691,425,504,908,301]","trial_type":"fractal-mutation","trial_index":193,"time_elapsed":4478035,"internal_node_id":"0.0-5.0-89.0"},{"group":"hexagon_bi","fractal_assignment":["../images/pnk_blu.png","../images/ylw_slt.png","../images/cyn_red.png","../images/blu_wht.png","../images/org_blu.png","../images/gry_blk.png"],"mutagen_generator_assignment":[0,1],"goal":5,"start":0,"action_noise":0.2,"location_history":"[0,5]","action_history":"[0]","mutagen_history":"[0]","location_rts":"[1075]","trial_type":"fractal-mutation","trial_index":194,"time_elapsed":4483649,"internal_node_id":"0.0-5.0-90.0"},{"group":"hexagon_bi","fractal_assignment":["../images/pnk_blu.png","../images/ylw_slt.png","../images/cyn_red.png","../images/blu_wht.png","../images/org_blu.png","../images/gry_blk.png"],"mutagen_generator_assignment":[0,1],"goal":1,"start":5,"action_noise":0.2,"location_history":"[5,0,1]","action_history":"[0,1]","mutagen_history":"[0,1]","location_rts":"[6021,1096]","trial_type":"fractal-mutation","trial_index":195,"time_elapsed":4496337,"internal_node_id":"0.0-5.0-91.0"},{"group":"hexagon_bi","fractal_assignment":["../images/pnk_blu.png","../images/ylw_slt.png","../images/cyn_red.png","../images/blu_wht.png","../images/org_blu.png","../images/gry_blk.png"],"mutagen_generator_assignment":[0,1],"goal":3,"start":1,"action_noise":0.2,"location_history":"[1,2,1,2,1,2,3]","action_history":"[0,0,1,1,0,1]","mutagen_history":"[0,0,1,1,0,1]","location_rts":"[18520,2772,1122,838,1412,4218]","trial_type":"fractal-mutation","trial_index":196,"time_elapsed":4534913,"internal_node_id":"0.0-5.0-92.0"},{"group":"hexagon_bi","fractal_assignment":["../images/pnk_blu.png","../images/ylw_slt.png","../images/cyn_red.png","../images/blu_wht.png","../images/org_blu.png","../images/gry_blk.png"],"mutagen_generator_assignment":[0,1],"goal":4,"start":3,"action_noise":0.2,"location_history":"[3,4]","action_history":"[0]","mutagen_history":"[0]","location_rts":"[1440]","trial_type":"fractal-mutation","trial_index":197,"time_elapsed":4540889,"internal_node_id":"0.0-5.0-93.0"},{"group":"hexagon_bi","fractal_assignment":["../images/pnk_blu.png","../images/ylw_slt.png","../images/cyn_red.png","../images/blu_wht.png","../images/org_blu.png","../images/gry_blk.png"],"mutagen_generator_assignment":[0,1],"goal":2,"start":4,"action_noise":0.2,"location_history":"[4,3,2]","action_history":"[0,1]","mutagen_history":"[0,1]","location_rts":"[10069,1428]","trial_type":"fractal-mutation","trial_index":198,"time_elapsed":4557965,"internal_node_id":"0.0-5.0-94.0"},{"group":"hexagon_bi","fractal_assignment":["../images/pnk_blu.png","../images/ylw_slt.png","../images/cyn_red.png","../images/blu_wht.png","../images/org_blu.png","../images/gry_blk.png"],"mutagen_generator_assignment":[0,1],"goal":4,"start":2,"action_noise":0.2,"location_history":"[2,3,4]","action_history":"[1,0]","mutagen_history":"[1,0]","location_rts":"[2989,779]","trial_type":"fractal-mutation","trial_index":199,"time_elapsed":4567303,"internal_node_id":"0.0-5.0-95.0"},{"group":"hexagon_bi","fractal_assignment":["../images/pnk_blu.png","../images/ylw_slt.png","../images/cyn_red.png","../images/blu_wht.png","../images/org_blu.png","../images/gry_blk.png"],"mutagen_generator_assignment":[0,1],"goal":0,"start":4,"action_noise":0.2,"location_history":"[4,3,4,3,2,1,2,1,0]","action_history":"[0,0,0,1,0,0,0,1]","mutagen_history":"[0,0,0,1,0,0,0,1]","location_rts":"[4725,1026,369,600,896,2011,1013,354]","trial_type":"fractal-mutation","trial_index":200,"time_elapsed":4590082,"internal_node_id":"0.0-5.0-96.0"},{"group":"hexagon_bi","fractal_assignment":["../images/pnk_blu.png","../images/ylw_slt.png","../images/cyn_red.png","../images/blu_wht.png","../images/org_blu.png","../images/gry_blk.png"],"mutagen_generator_assignment":[0,1],"goal":5,"start":0,"action_noise":0.2,"location_history":"[0,5]","action_history":"[0]","mutagen_history":"[0]","location_rts":"[9090]","trial_type":"fractal-mutation","trial_index":201,"time_elapsed":4603703,"internal_node_id":"0.0-5.0-97.0"},{"group":"hexagon_bi","fractal_assignment":["../images/pnk_blu.png","../images/ylw_slt.png","../images/cyn_red.png","../images/blu_wht.png","../images/org_blu.png","../images/gry_blk.png"],"mutagen_generator_assignment":[0,1],"goal":1,"start":5,"action_noise":0.2,"location_history":"[5,0,5,0,1]","action_history":"[1,0,0,1]","mutagen_history":"[1,0,0,1]","location_rts":"[7688,901,1036,809]","trial_type":"fractal-mutation","trial_index":202,"tim