[{"view_history":"[{\"page_index\":0,\"viewing_time\":12281},{\"page_index\":1,\"viewing_time\":118293},{\"page_index\":2,\"viewing_time\":38595},{\"page_index\":3,\"viewing_time\":10194}]","rt":179364,"trial_type":"instructions","trial_index":0,"time_elapsed":179366,"internal_node_id":"0.0-0.0"},{"view_history":"[{\"page_index\":0,\"viewing_time\":171306},{\"page_index\":1,\"viewing_time\":277342}]","rt":448649,"trial_type":"instructions","trial_index":1,"time_elapsed":629018,"internal_node_id":"0.0-1.0"},{"group":"hexagon_bi","room_assignment":["red","yellow","grey","green","purple","blue"],"door_color_assignment":["white","black"],"door_generator_assignment":[0,1],"goal":4,"start":0,"action_noise":0.2,"location_history":"[0,1,2,3,2,3,2,1,2,3,2,1,2,3,4]","action_history":"[1,0,0,1,1,0,0,0,1,1,0,0,1,1]","door_history":"[1,0,0,1,1,0,0,0,1,1,0,0,1,1]","location_rts":"[3475,1974,2308,1179,1085,1108,932,788,2098,26086,3137,1284,1560,820]","trial_type":"two-door-navigation","trial_index":2,"time_elapsed":694745,"internal_node_id":"0.0-2.0-0.0"},{"group":"hexagon_bi","room_assignment":["red","yellow","grey","green","purple","blue"],"door_color_assignment":["white","black"],"door_generator_assignment":[0,1],"goal":3,"start":4,"action_noise":0.2,"location_history":"[4,5,4,5,0,1,0,5,0,1,0,5,4,5,4,5,0,5,4,3]","action_history":"[0,1,0,0,1,1,0,0,0,1,1,1,0,1,1,0,0,0,0]","door_history":"[0,1,0,0,1,1,0,0,0,1,1,1,0,1,1,0,0,0,0]","location_rts":"[1742,1033,566,570,736,659,792,620,2166,1078,653,417,820,419,908,1167,702,1001,511]","trial_type":"two-door-navigation","trial_index":3,"time_elapsed":734339,"internal_node_id":"0.0-2.0-1.0"},{"group":"hexagon_bi","room_assignment":["red","yellow","grey","green","purple","blue"],"door_color_assignment":["white","black"],"door_generator_assignment":[0,1],"goal":5,"start":3,"action_noise":0.2,"location_history":"[3,2,3,2,3,2,1,2,1,0,5]","action_history":"[1,1,1,1,1,0,0,0,0,0]","door_history":"[1,1,1,1,1,0,0,0,0,0]","location_rts":"[2236,578,431,439,701,796,457,351,339,374]","trial_type":"two-door-navigation","trial_index":4,"time_elapsed":754797,"internal_node_id":"0.0-2.0-2.0"},{"group":"hexagon_bi","room_assignment":["red","yellow","grey","green","purple","blue"],"door_color_assignment":["white","black"],"door_generator_assignment":[0,1],"goal":2,"start":5,"action_noise":0.2,"location_history":"[5,4,5,0,1,0,5,0,5,0,1,0,5,0,1,2]","action_history":"[1,1,1,1,1,0,0,0,0,0,1,0,1,0,1]","door_history":"[1,1,1,1,1,0,0,0,0,0,1,0,1,0,1]","location_rts":"[1483,429,435,655,414,351,355,445,429,295,397,399,556,441,708]","trial_type":"two-door-navigation","trial_index":5,"time_elapsed":781461,"internal_node_id":"0.0-2.0-3.0"},{"group":"hexagon_bi","room_assignment":["red","yellow","grey","green","purple","blue"],"door_color_assignment":["white","black"],"door_generator_assignment":[0,1],"goal":1,"start":2,"action_noise":0.2,"location_history":"[2,1]","action_history":"[0]","door_history":"[0]","location_rts":"[1437]","trial_type":"two-door-navigation","trial_index":6,"time_elapsed":787422,"internal_node_id":"0.0-2.0-4.0"},{"group":"hexagon_bi","room_assignment":["red","yellow","grey","green","purple","blue"],"door_color_assignment":["white","black"],"door_generator_assignment":[0,1],"goal":4,"start":1,"action_noise":0.2,"location_history":"[1,2,1,0,5,4]","action_history":"[0,0,0,0,0]","door_history":"[0,0,0,0,0]","location_rts":"[2149,419,381,416,406]","trial_type":"two-door-navigation","trial_index":7,"time_elapsed":799883,"internal_node_id":"0.0-2.0-5.0"},{"group":"hexagon_bi","room_assignment":["red","yellow","grey","green","purple","blue"],"door_color_assignment":["white","black"],"door_generator_assignment":[0,1],"goal":1,"start":4,"action_noise":0.2,"location_history":"[4,5,4,5,4,5,4,5,0,5,0,1]","action_history":"[1,1,1,1,1,1,0,0,0,0,0]","door_history":"[1,1,1,1,1,1,0,0,0,0,0]","location_rts":"[1263,531,375,433,404,378,371,387,502,343,563]","trial_type":"two-door-navigation","trial_index":8,"time_elapsed":820227,"internal_node_id":"0.0-2.0-6.0"},{"group":"hexagon_bi","room_assignment":["red","yellow","grey","green","purple","blue"],"door_color_assignment":["white","black"],"door_generator_assignment":[0,1],"goal":5,"start":1,"action_noise":0.2,"location_history":"[1,2,1,2,3,2,3,2,3,4,3,4,3,4,3,4,3,4,3,2,3,2,3,2,1,2,1,2,1,2,3,4,5]","action_history":"[0,0,1,1,0,0,1,1,1,1,0,0,0,0,0,0,0,0,1,1,1,1,1,0,0,0,0,0,0,1,0,1]","door_history":"[0,0,1,1,0,0,1,1,1,1,0,0,0,0,0,0,0,0,1,1,1,1,1,0,0,0,0,0,0,1,0,1]","location_rts":"[1548,576,565,510,1018,526,458,429,510,585,395,437,292,401,347,335,559,433,302,358,462,312,416,561,348,320,454,504,475,684,439,383]","trial_type":"two-door-navigation","trial_index":9,"time_elapsed":872499,"internal_node_id":"0.0-2.0-7.0"},{"group":"hexagon_bi","room_assignment":["red","yellow","grey","green","purple","blue"],"door_color_assignment":["white","black"],"door_generator_assignment":[0,1],"goal":0,"start":5,"action_noise":0.2,"location_history":"[5,4,3,4,5,4,3,2,3,2,3,4,3,4,3,4,5,4,3,2,3,4,5,0]","action_history":"[1,1,0,0,1,0,0,1,1,1,0,0,0,0,0,1,1,1,1,1,1,0,0]","door_history":"[1,1,0,0,1,0,0,1,1,1,0,0,0,0,0,1,1,1,1,1,1,0,0]","location_rts":"[3206,475,720,405,457,444,395,411,344,448,435,379,452,417,377,627,320,348,379,375,892,467,2094]","trial_type":"two-door-navigation","trial_index":10,"time_elapsed":914425,"internal_node_id":"0.0-2.0-8.0"},{"group":"hexagon_bi","room_assignment":["red","yellow","grey","green","purple","blue"],"door_color_assignment":["white","black"],"door_generator_assignment":[0,1],"goal":2,"start":0,"action_noise":0.2,"location_history":"[0,1,2]","action_history":"[1,0]","door_history":"[1,0]","location_rts":"[1538,896]","trial_type":"two-door-navigation","trial_index":11,"time_elapsed":922440,"internal_node_id":"0.0-2.0-9.0"},{"group":"hexagon_bi","room_assignment":["red","yellow","grey","green","purple","blue"],"door_color_assignment":["white","black"],"door_generator_assignment":[0,1],"goal":3,"start":2,"action_noise":0.2,"location_history":"[2,3]","action_history":"[0]","door_history":"[0]","location_rts":"[1150]","trial_type":"two-door-navigation","trial_index":12,"time_elapsed":928116,"internal_node_id":"0.0-2.0-10.0"},{"group":"hexagon_bi","room_assignment":["red","yellow","grey","green","purple","blue"],"door_color_assignment":["white","black"],"door_generator_assignment":[0,1],"goal":0,"start":3,"action_noise":0.2,"location_history":"[3,2,3,4,3,4,5,0]","action_history":"[0,1,0,1,0,1,0]","door_history":"[0,1,0,1,0,1,0]","location_rts":"[1592,1045,692,906,551,690,1139]","trial_type":"two-door-navigation","trial_index":13,"time_elapsed":945434,"internal_node_id":"0.0-2.0-11.0"},{"group":"hexagon_bi","room_assignment":["red","yellow","grey","green","purple","blue"],"door_color_assignment":["white","black"],"door_generator_assignment":[0,1],"goal":2,"start":0,"action_noise":0.2,"location_history":"[0,5,4,3,2]","action_history":"[0,1,0,1]","door_history":"[0,1,0,1]","location_rts":"[1091,608,444,381]","trial_type":"two-door-navigation","trial_index":14,"time_elapsed":955554,"internal_node_id":"0.0-2.0-12.0"},{"group":"hexagon_bi","room_assignment":["red","yellow","grey","green","purple","blue"],"door_color_assignment":["white","black"],"door_generator_assignment":[0,1],"goal":5,"start":2,"action_noise":0.2,"location_history":"[2,3,2,1,2,3,2,3,2,1,2,1,2,1,2,3,2,3,2,1,0,5]","action_history":"[0,1,0,1,0,1,1,0,0,0,0,0,0,1,1,1,1,1,0,1,0]","door_history":"[0,1,0,1,0,1,1,0,0,0,0,0,0,1,1,1,1,1,0,1,0]","location_rts":"[1006,771,674,413,664,713,1936,726,490,457,418,868,436,522,372,370,397,462,560,459,907]","trial_type":"two-door-navigation","trial_index":15,"time_elapsed":994262,"internal_node_id":"0.0-2.0-13.0"},{"group":"hexagon_bi","room_assignment":["red","yellow","grey","green","purple","blue"],"door_color_assignment":["white","black"],"door_generator_assignment":[0,1],"goal":4,"start":5,"action_noise":0.2,"location_history":"[5,0,5,4]","action_history":"[0,0,1]","door_history":"[0,0,1]","location_rts":"[10376,588,708]","trial_type":"two-door-navigation","trial_index":16,"time_elapsed":1012528,"internal_node_id":"0.0-2.0-14.0"},{"group":"hexagon_bi","room_assignment":["red","yellow","grey","green","purple","blue"],"door_color_assignment":["white","black"],"door_generator_assignment":[0,1],"goal":3,"start":4,"action_noise":0.2,"location_history":"[4,5,0,5,0,5,0,5,4,5,0,5,0,1,0,1,0,1,2,3]","action_history":"[1,0,1,0,0,1,1,0,0,0,0,0,1,1,1,1,1,0,1]","door_history":"[1,0,1,0,0,1,1,0,0,0,0,0,1,1,1,1,1,0,1]","location_rts":"[1813,653,1056,470,438,479,436,400,371,412,410,413,411,558,382,483,355,874,460]","trial_type":"two-door-navigation","trial_index":17,"time_elapsed":1046366,"internal_node_id":"0.0-2.0-15.0"},{"group":"hexagon_bi","room_assignment":["red","yellow","grey","green","purple","blue"],"door_color_assignment":["white","black"],"door_generator_assignment":[0,1],"goal":1,"start":3,"action_noise":0.2,"location_history":"[3,4,5,0,1]","action_history":"[0,1,0,1]","door_history":"[0,1,0,1]","location_rts":"[1766,465,424,481]","trial_type":"two-door-navigation","trial_index":18,"time_elapsed":1057100,"internal_node_id":"0.0-2.0-16.0"},{"group":"hexagon_bi","room_assignment":["red","yellow","grey","green","purple","blue"],"door_color_assignment":["white","black"],"door_generator_assignment":[0,1],"goal":5,"start":1,"action_noise":0.2,"location_history":"[1,0,1,0,5]","action_history":"[0,1,1,0]","door_history":"[0,1,1,0]","location_rts":"[1767,433,449,456]","trial_type":"two-door-navigation","trial_index":19,"time_elapsed":1067813,"internal_node_id":"0.0-2.0-17.0"},{"group":"hexagon_bi","room_assignment":["red","yellow","grey","green","purple","blue"],"door_color_assignment":["white","black"],"door_generator_assignment":[0,1],"goal":4,"start":5,"action_noise":0.2,"location_history":"[5,4]","action_history":"[0]","door_history":"[0]","location_rts":"[1907]","trial_type":"two-door-navigation","trial_index":20,"time_elapsed":1074256,"internal_node_id":"0.0-2.0-18.0"},{"group":"hexagon_bi","room_assignment":["red","yellow","grey","green","purple","blue"],"door_color_assignment":["white","black"],"door_generator_assignment":[0,1],"goal":0,"start":4,"action_noise":0.2,"location_history":"[4,5,4,5,0]","action_history":"[1,0,1,0]","door_history":"[1,0,1,0]","location_rts":"[2380,812,745,627]","trial_type":"two-door-navigation","trial_index":21,"time_elapsed":1086420,"internal_node_id":"0.0-2.0-19.0"},{"group":"hexagon_bi","room_assignment":["red","yellow","grey","green","purple","blue"],"door_color_assignment":["white","black"],"door_generator_assignment":[0,1],"goal":1,"start":0,"action_noise":0.2,"location_history":"[0,1]","action_history":"[0]","door_history":"[0]","location_rts":"[1290]","trial_type":"two-door-navigation","trial_index":22,"time_elapsed":1092240,"internal_node_id":"0.0-2.0-20.0"},{"group":"hexagon_bi","room_assignment":["red","yellow","grey","green","purple","blue"],"door_color_assignment":["white","black"],"door_generator_assignment":[0,1],"goal":3,"start":1,"action_noise":0.2,"location_history":"[1,2,3]","action_history":"[1,0]","door_history":"[1,0]","location_rts":"[1018,688]","trial_type":"two-door-navigation","trial_index":23,"time_elapsed":1099492,"internal_node_id":"0.0-2.0-21.0"},{"group":"hexagon_bi","room_assignment":["red","yellow","grey","green","purple","blue"],"door_color_assignment":["white","black"],"door_generator_assignment":[0,1],"goal":2,"start":3,"action_noise":0.2,"location_history":"[3,4,3,2]","action_history":"[0,1,1]","door_history":"[0,1,1]","location_rts":"[1991,1062,681]","trial_type":"two-door-navigation","trial_index":24,"time_elapsed":1109797,"internal_node_id":"0.0-2.0-22.0"},{"group":"hexagon_bi","room_assignment":["red","yellow","grey","green","purple","blue"],"door_color_assignment":["white","black"],"door_generator_assignment":[0,1],"goal":0,"start":2,"action_noise":0.2,"location_history":"[2,1,0]","action_history":"[0,0]","door_history":"[0,0]","location_rts":"[1255,642]","trial_type":"two-door-navigation","trial_index":25,"time_elapsed":1117249,"internal_node_id":"0.0-2.0-23.0"},{"group":"hexagon_bi","room_assignment":["red","yellow","grey","green","purple","blue"],"door_color_assignment":["white","black"],"door_generator_assignment":[0,1],"goal":3,"start":0,"action_noise":0.2,"location_history":"[0,5,0,1,2,3]","action_history":"[0,0,1,0,1]","door_history":"[0,0,1,0,1]","location_rts":"[1716,440,507,591,1052]","trial_type":"two-door-navigation","trial_index":26,"time_elapsed":1130184,"internal_node_id":"0.0-2.0-24.0"},{"group":"hexagon_bi","room_assignment":["red","yellow","grey","green","purple","blue"],"door_color_assignment":["white","black"],"door_generator_assignment":[0,1],"goal":1,"start":3,"action_noise":0.2,"location_history":"[3,4,3,2,3,4,3,4,3,2,3,2,3,2,1]","action_history":"[0,1,1,0,0,0,0,0,1,1,1,1,1,0]","door_history":"[0,1,1,0,0,0,0,0,1,1,1,1,1,0]","location_rts":"[1806,710,425,465,479,430,481,405,935,467,374,404,386,566]","trial_type":"two-door-navigation","trial_index":27,"time_elapsed":1156372,"internal_node_id":"0.0-2.0-25.0"},{"group":"hexagon_bi","room_assignment":["red","yellow","grey","green","purple","blue"],"door_color_assignment":["white","black"],"door_generator_assignment":[0,1],"goal":2,"start":1,"action_noise":0.2,"location_history":"[1,2]","action_history":"[0]","door_history":"[0]","location_rts":"[1352]","trial_type":"two-door-navigation","trial_index":28,"time_elapsed":1162250,"internal_node_id":"0.0-2.0-26.0"},{"group":"hexagon_bi","room_assignment":["red","yellow","grey","green","purple","blue"],"door_color_assignment":["white","black"],"door_generator_assignment":[0,1],"goal":5,"start":2,"action_noise":0.2,"location_history":"[2,3,4,5]","action_history":"[1,0,1]","door_history":"[1,0,1]","location_rts":"[985,837,834]","trial_type":"two-door-navigation","trial_index":29,"time_elapsed":1171483,"internal_node_id":"0.0-2.0-27.0"},{"group":"hexagon_bi","room_assignment":["red","yellow","grey","green","purple","blue"],"door_color_assignment":["white","black"],"door_generator_assignment":[0,1],"goal":4,"start":5,"action_noise":0.2,"location_history":"[5,0,1,2,3,2,3,2,3,2,3,4]","action_history":"[0,1,0,1,0,1,1,1,1,1,0]","door_history":"[0,1,0,1,0,1,1,1,1,1,0]","location_rts":"[1719,1681,711,487,460,586,618,468,385,552,455]","trial_type":"two-door-navigation","trial_index":30,"time_elapsed":1194390,"internal_node_id":"0.0-2.0-28.0"},{"group":"hexagon_bi","room_assignment":["red","yellow","grey","green","purple","blue"],"door_color_assignment":["white","black"],"door_generator_assignment":[0,1],"goal":5,"start":4,"action_noise":0.2,"location_history":"[4,3,4,3,2,3,4,5]","action_history":"[0,1,0,1,1,0,0]","door_history":"[0,1,0,1,1,0,0]","location_rts":"[1674,1063,1408,730,432,698,741]","trial_type":"two-door-navigation","trial_index":31,"time_elapsed":1211821,"internal_node_id":"0.0-2.0-29.0"},{"group":"hexagon_bi","room_assignment":["red","yellow","grey","green","purple","blue"],"door_color_assignment":["white","black"],"door_generator_assignment":[0,1],"goal":3,"start":5,"action_noise":0.2,"location_history":"[5,4,3]","action_history":"[1,1]","door_history":"[1,1]","location_rts":"[1959,496]","trial_type":"two-door-navigation","trial_index":32,"time_elapsed":1219828,"internal_node_id":"0.0-2.0-30.0"},{"group":"hexagon_bi","room_assignment":["red","yellow","grey","green","purple","blue"],"door_color_assignment":["white","black"],"door_generator_assignment":[0,1],"goal":0,"start":3,"action_noise":0.2,"location_history":"[3,4,5,0]","action_history":"[0,0,1]","door_history":"[0,0,1]","location_rts":"[1518,598,643]","trial_type":"two-door-navigation","trial_index":33,"time_elapsed":1229157,"internal_node_id":"0.0-2.0-31.0"},{"group":"hexagon_bi","room_assignment":["red","yellow","grey","green","purple","blue"],"door_color_assignment":["white","black"],"door_generator_assignment":[0,1],"goal":4,"start":0,"action_noise":0.2,"location_history":"[0,5,4]","action_history":"[0,0]","door_history":"[0,0]","location_rts":"[1404,560]","trial_type":"two-door-navigation","trial_index":34,"time_elapsed":1236668,"internal_node_id":"0.0-2.0-32.0"},{"group":"hexagon_bi","room_assignment":["red","yellow","grey","green","purple","blue"],"door_color_assignment":["white","black"],"door_generator_assignment":[0,1],"goal":1,"start":4,"action_noise":0.2,"location_history":"[4,3,4,5,0,5,4,5,0,5,0,5,4,5,0,1]","action_history":"[0,0,0,1,1,1,0,0,0,0,0,1,1,1,1]","door_history":"[0,0,0,1,1,1,0,0,0,0,0,1,1,1,1]","location_rts":"[1434,506,453,508,471,514,548,454,697,558,488,430,370,411,482]","trial_type":"two-door-navigation","trial_index":35,"time_elapsed":1263851,"internal_node_id":"0.0-2.0-33.0"},{"group":"hexagon_bi","room_assignment":["red","yellow","grey","green","purple","blue"],"door_color_assignment":["white","black"],"door_generator_assignment":[0,1],"goal":2,"start":1,"action_noise":0.2,"location_history":"[1,0,1,2]","action_history":"[1,1,0]","door_history":"[1,1,0]","location_rts":"[1704,672,1173]","trial_type":"two-door-navigation","trial_index":36,"time_elapsed":1273995,"internal_node_id":"0.0-2.0-34.0"},{"group":"hexagon_bi","room_assignment":["red","yellow","grey","green","purple","blue"],"door_color_assignment":["white","black"],"door_generator_assignment":[0,1],"goal":0,"start":2,"action_noise":0.2,"location_history":"[2,3,4,5,4,3,2,3,4,3,2,1,0]","action_history":"[1,0,1,0,0,1,1,0,0,1,1,1]","door_history":"[1,0,1,0,0,1,1,0,0,1,1,1]","location_rts":"[1321,676,594,1051,625,434,457,410,571,462,507,489]","trial_type":"two-door-navigation","trial_index":37,"time_elapsed":1297433,"internal_node_id":"0.0-2.0-35.0"},{"group":"hexagon_bi","room_assignment":["red","yellow","grey","green","purple","blue"],"door_color_assignment":["white","black"],"door_generator_assignment":[0,1],"goal":5,"start":0,"action_noise":0.2,"location_history":"[0,5]","action_history":"[1]","door_history":"[1]","location_rts":"[1483]","trial_type":"two-door-navigation","trial_index":38,"time_elapsed":1303444,"internal_node_id":"0.0-2.0-36.0"},{"group":"hexagon_bi","room_assignment":["red","yellow","grey","green","purple","blue"],"door_color_assignment":["white","black"],"door_generator_assignment":[0,1],"goal":2,"start":5,"action_noise":0.2,"location_history":"[5,0,5,4,3,4,3,4,5,4,5,0,1,2]","action_history":"[0,1,1,0,0,0,1,1,1,1,0,1,0]","door_history":"[0,1,1,0,0,0,1,1,1,1,0,1,0]","location_rts":"[2197,473,482,602,482,484,535,673,633,443,465,666,821]","trial_type":"two-door-navigation","trial_index":39,"time_elapsed":1329212,"internal_node_id":"0.0-2.0-37.0"},{"group":"hexagon_bi","room_assignment":["red","yellow","grey","green","purple","blue"],"door_color_assignment":["white","black"],"door_generator_assignment":[0,1],"goal":1,"start":2,"action_noise":0.2,"location_history":"[2,1]","action_history":"[0]","door_history":"[0]","location_rts":"[1191]","trial_type":"two-door-navigation","trial_index":40,"time_elapsed":1334929,"internal_node_id":"0.0-2.0-38.0"},{"group":"hexagon_bi","room_assignment":["red","yellow","grey","green","purple","blue"],"door_color_assignment":["white","black"],"door_generator_assignment":[0,1],"goal":4,"start":1,"action_noise":0.2,"location_history":"[1,0,5,4]","action_history":"[1,0,1]","door_history":"[1,0,1]","location_rts":"[1763,576,442]","trial_type":"two-door-navigation","trial_index":41,"time_elapsed":1344273,"internal_node_id":"0.0-2.0-39.0"},{"group":"hexagon_bi","room_assignment":["red","yellow","grey","green","purple","blue"],"door_color_assignment":["white","black"],"door_generator_assignment":[0,1],"goal":3,"start":4,"action_noise":0.2,"location_history":"[4,3]","action_history":"[0]","door_history":"[0]","location_rts":"[1229]","trial_type":"two-door-navigation","trial_index":42,"time_elapsed":1350030,"internal_node_id":"0.0-2.0-40.0"},{"group":"hexagon_bi","room_assignment":["red","yellow","grey","green","purple","blue"],"door_color_assignment":["white","black"],"door_generator_assignment":[0,1],"goal":5,"start":3,"action_noise":0.2,"location_history":"[3,4,3,2,1,0,5]","action_history":"[1,0,1,0,1,0]","door_history":"[1,0,1,0,1,0]","location_rts":"[1489,877,613,550,793,193]","trial_type":"two-door-navigation","trial_index":43,"time_elapsed":1364203,"internal_node_id":"0.0-2.0-41.0"},{"group":"hexagon_bi","room_assignment":["red","yellow","grey","green","purple","blue"],"door_color_assignment":["white","black"],"door_generator_assignment":[0,1],"goal":3,"start":5,"action_noise":0.2,"location_history":"[5,0,1,0,5,4,3]","action_history":"[0,1,1,0,0,0]","door_history":"[0,1,1,0,0,0]","location_rts":"[1556,476,743,372,530,460]","trial_type":"two-door-navigation","trial_index":44,"time_elapsed":1378025,"internal_node_id":"0.0-2.0-42.0"},{"group":"hexagon_bi","room_assignment":["red","yellow","grey","green","purple","blue"],"door_color_assignment":["white","black"],"door_generator_assignment":[0,1],"goal":0,"start":3,"action_noise":0.2,"location_history":"[3,4,3,4,5,4,3,4,5,0]","action_history":"[0,0,1,1,1,0,1,1,1]","door_history":"[0,0,1,1,1,0,1,1,1]","location_rts":"[11460,396,744,403,392,645,418,426,1101]","trial_type":"two-door-navigation","trial_index":45,"time_elapsed":1406765,"internal_node_id":"0.0-2.0-43.0"},{"group":"hexagon_bi","room_assignment":["red","yellow","grey","green","purple","blue"],"door_color_assignment":["white","black"],"door_generator_assignment":[0,1],"goal":2,"start":0,"action_noise":0.2,"location_history":"[0,5,4,3,4,5,0,1,0,5,4,3,4,5,4,5,0,5,4,3,4,3,4,3,2]","action_history":"[1,1,0,1,1,0,0,0,0,0,1,0,1,1,0,0,0,1,1,0,0,0,1,1]","door_history":"[1,1,0,1,1,0,0,0,0,0,1,0,1,1,0,0,0,1,1,0,0,0,1,1]","location_rts":"[2372,584,468,860,411,28,472,1077,760,562,693,458,1234,731,458,382,804,2918,499,825,459,333,1230,158]","trial_type":"two-door-navigation","trial_index":46,"time_elapsed":1453665,"internal_node_id":"0.0-2.0-44.0"},{"group":"hexagon_bi","room_assignment":["red","yellow","grey","green","purple","blue"],"door_color_assignment":["white","black"],"door_generator_assignment":[0,1],"goal":4,"start":2,"action_noise":0.2,"location_history":"[2,3,4]","action_history":"[1,0]","door_history":"[1,0]","location_rts":"[3847,1132]","trial_type":"two-door-navigation","trial_index":47,"time_elapsed":1464202,"internal_node_id":"0.0-2.0-45.0"},{"group":"hexagon_bi","room_assignment":["red","yellow","grey","green","purple","blue"],"door_color_assignment":["white","black"],"door_generator_assignment":[0,1],"goal":1,"start":4,"action_noise":0.2,"location_history":"[4,5,0,5,4,5,0,5,0,1]","action_history":"[1,0,0,1,1,0,0,0,1]","door_history":"[1,0,0,1,1,0,0,0,1]","location_rts":"[26511,592,537,680,622,556,555,493,751]","trial_type":"two-door-navigation","trial_index":48,"time_elapsed":1508240,"internal_node_id":"0.0-2.0-46.0"},{"group":"hexagon_bi","room_assignment":["red","yellow","grey","green","purple","blue"],"door_color_assignment":["white","black"],"door_generator_assignment":[0,1],"goal":4,"start":1,"action_noise":0.2,"location_history":"[1,0,1,0,5,0,5,4]","action_history":"[1,1,1,0,0,0,1]","door_history":"[1,1,1,0,0,0,1]","location_rts":"[2183,557,490,402,543,637,923]","trial_type":"two-door-navigation","trial_index":49,"time_elapsed":1524645,"internal_node_id":"0.0-2.0-47.0"},{"group":"hexagon_bi","room_assignment":["red","yellow","grey","green","purple","blue"],"door_color_assignment":["white","black"],"door_generator_assignment":[0,1],"goal":1,"start":4,"action_noise":0.2,"location_history":"[4,3,2,1]","action_history":"[0,1,0]","door_history":"[0,1,0]","location_rts":"[1635,525,389]","trial_type":"two-door-navigation","trial_index":50,"time_elapsed":1533785,"internal_node_id":"0.0-2.0-48.0"},{"group":"hexagon_bi","room_assignment":["red","yellow","grey","green","purple","blue"],"door_color_assignment":["white","black"],"door_generator_assignment":[0,1],"goal":3,"start":1,"action_noise":0.2,"location_history":"[1,2,1,0,1,2,3]","action_history":"[0,1,0,1,0,0]","door_history":"[0,1,0,1,0,0]","location_rts":"[3167,52263,12899,644,565,498]","trial_type":"two-door-navigation","trial_index":51,"time_elapsed":1613463,"internal_node_id":"0.0-2.0-49.0"},{"group":"hexagon_bi","room_assignment":["red","yellow","grey","green","purple","blue"],"door_color_assignment":["white","black"],"door_generator_assignment":[0,1],"goal":5,"start":3,"action_noise":0.2,"location_history":"[3,2,1,2,3,2,1,0,1,0,5]","action_history":"[1,1,0,0,0,1,1,1,1,0]","door_history":"[1,1,0,0,0,1,1,1,1,0]","location_rts":"[3780,542,451,465,522,371,479,1084,542,466]","trial_type":"two-door-navigation","trial_index":52,"time_elapsed":1635945,"internal_node_id":"0.0-2.0-50.0"},{"group":"hexagon_bi","room_assignment":["red","yellow","grey","green","purple","blue"],"door_color_assignment":["white","black"],"door_generator_assignment":[0,1],"goal":0,"start":5,"action_noise":0.2,"location_history":"[5,4,5,4,3,4,3,2,1,0]","action_history":"[1,0,1,0,1,0,1,0,1]","door_history":"[1,0,1,0,1,0,1,0,1]","location_rts":"[1294,393,376,455,465,879,6471,660,521]","trial_type":"two-door-navigation","trial_index":53,"time_elapsed":1660194,"internal_node_id":"0.0-2.0-51.0"},{"group":"hexagon_bi","room_assignment":["red","yellow","grey","green","purple","blue"],"door_color_assignment":["white","black"],"door_generator_assignment":[0,1],"goal":2,"start":0,"action_noise":0.2,"location_history":"[0,5,0,1,0,5,4,3,2]","action_history":"[0,0,1,1,0,1,0,1]","door_history":"[0,0,1,1,0,1,0,1]","location_rts":"[1524,434,349,421,1072,435,427,404]","trial_type":"two-door-navigation","trial_index":54,"time_elapsed":1676936,"internal_node_id":"0.0-2.0-52.0"},{"group":"hexagon_bi","room_assignment":["red","yellow","grey","green","purple","blue"],"door_color_assignment":["white","black"],"door_generator_assignment":[0,1],"goal":1,"start":2,"action_noise":0.2,"location_history":"[2,1]","action_history":"[0]","door_history":"[0]","location_rts":"[1205]","trial_type":"two-door-navigation","trial_index":55,"time_elapsed":1682669,"internal_node_id":"0.0-2.0-53.0"},{"group":"hexagon_bi","room_assignment":["red","yellow","grey","green","purple","blue"],"door_color_assignment":["white","black"],"door_generator_assignment":[0,1],"goal":2,"start":1,"action_noise":0.2,"location_history":"[1,0,5,0,1,2]","action_history":"[0,1,0,1,0]","door_history":"[0,1,0,1,0]","location_rts":"[1593,721,540,636,768]","trial_type":"two-door-navigation","trial_index":56,"time_elapsed":1695553,"internal_node_id":"0.0-2.0-54.0"},{"group":"hexagon_bi","room_assignment":["red","yellow","grey","green","purple","blue"],"door_color_assignment":["white","black"],"door_generator_assignment":[0,1],"goal":5,"start":2,"action_noise":0.2,"location_history":"[2,1,2,1,2,3,2,1,0,1,2,1,2,3,4,3,4,3,4,5]","action_history":"[1,0,1,0,1,0,0,1,1,0,0,0,1,1,1,0,0,1,1]","door_history":"[1,0,1,0,1,0,0,1,1,0,0,0,1,1,1,0,0,1,1]","location_rts":"[1313,694,559,576,703,648,413,1334,549,616,484,421,396,528,401,391,600,436,737]","trial_type":"two-door-navigation","trial_index":57,"time_elapsed":1730409,"internal_node_id":"0.0-2.0-55.0"},{"group":"hexagon_bi","room_assignment":["red","yellow","grey","green","purple","blue"],"door_color_assignment":["white","black"],"door_generator_assignment":[0,1],"goal":4,"start":5,"action_noise":0.2,"location_history":"[5,0,5,0,1,0,5,0,5,4]","action_history":"[0,0,0,1,1,1,1,0,1]","door_history":"[0,0,0,1,1,1,1,0,1]","location_rts":"[10183,443,370,490,371,476,450,568,4722]","trial_type":"two-door-navigation","trial_index":58,"time_elapsed":1761263,"internal_node_id":"0.0-2.0-56.0"},{"group":"hexagon_bi","room_assignment":["red","yellow","grey","green","purple","blue"],"door_color_assignment":["white","black"],"door_generator_assignment":[0,1],"goal":3,"start":4,"action_noise":0.2,"location_history":"[4,3]","action_history":"[0]","door_history":"[0]","location_rts":"[22928]","trial_type":"two-door-navigation","trial_index":59,"time_elapsed":1788717,"internal_node_id":"0.0-2.0-57.0"},{"group":"hexagon_bi","room_assignment":["red","yellow","grey","green","purple","blue"],"door_color_assignment":["white","black"],"door_generator_assignment":[0,1],"goal":0,"start":3,"action_noise":0.2,"location_history":"[3,2,3,4,3,4,5,4,3,2,3,2,1,2,1,2,1,0]","action_history":"[1,1,0,0,1,1,0,0,1,1,1,0,0,0,1,0,1]","door_history":"[1,1,0,0,1,1,0,0,1,1,1,0,0,0,1,0,1]","location_rts":"[963,909,383,379,490,480,719,362,466,370,468,394,420,423,1053,377,406]","trial_type":"two-door-navigation","trial_index":60,"time_elapsed":1818715,"internal_node_id":"0.0-2.0-58.0"},{"group":"hexagon_bi","room_assignment":["red","yellow","grey","green","purple","blue"],"door_color_assignment":["white","black"],"door_generator_assignment":[0,1],"goal":2,"start":0,"action_noise":0.2,"location_history":"[0,5,0,1,2]","action_history":"[0,0,1,0]","door_history":"[0,0,1,0]","location_rts":"[2895,851,527,425]","trial_type":"two-door-navigation","trial_index":61,"time_elapsed":1831030,"internal_node_id":"0.0-2.0-59.0"},{"group":"hexagon_bi","room_assignment":["red","yellow","grey","green","purple","blue"],"door_color_assignment":["white","black"],"door_generator_assignment":[0,1],"goal":1,"start":2,"action_noise":0.2,"location_history":"[2,1]","action_history":"[0]","door_history":"[0]","location_rts":"[2779]","trial_type":"two-door-navigation","trial_index":62,"time_elapsed":1838336,"internal_node_id":"0.0-2.0-60.0"},{"group":"hexagon_bi","room_assignment":["red","yellow","grey","green","purple","blue"],"door_color_assignment":["white","black"],"door_generator_assignment":[0,1],"goal":0,"start":1,"action_noise":0.2,"location_history":"[1,0]","action_history":"[1]","door_history":"[1]","location_rts":"[2258]","trial_type":"two-door-navigation","trial_index":63,"time_elapsed":1845119,"internal_node_id":"0.0-2.0-61.0"},{"group":"hexagon_bi","room_assignment":["red","yellow","grey","green","purple","blue"],"door_color_assignment":["white","black"],"door_generator_assignment":[0,1],"goal":3,"start":0,"action_noise":0.2,"location_history":"[0,5,4,3]","action_history":"[0,1,0]","door_history":"[0,1,0]","location_rts":"[2201,520,550]","trial_type":"two-door-navigation","trial_index":64,"time_elapsed":1854975,"internal_node_id":"0.0-2.0-62.0"},{"group":"hexagon_bi","room_assignment":["red","yellow","grey","green","purple","blue"],"door_color_assignment":["white","black"],"door_generator_assignment":[0,1],"goal":5,"start":3,"action_noise":0.2,"location_history":"[3,4,3,2,1,0,5]","action_history":"[0,0,1,1,1,0]","door_history":"[0,0,1,1,1,0]","location_rts":"[1458,857,429,653,503,392]","trial_type":"two-door-navigation","trial_index":65,"time_elapsed":1868916,"internal_node_id":"0.0-2.0-63.0"},{"group":"hexagon_bi","room_assignment":["red","yellow","grey","green","purple","blue"],"door_color_assignment":["white","black"],"door_generator_assignment":[0,1],"goal":4,"start":5,"action_noise":0.2,"location_history":"[5,4]","action_history":"[1]","door_history":"[1]","location_rts":"[2264]","trial_type":"two-door-navigation","trial_index":66,"time_elapsed":1875710,"internal_node_id":"0.0-2.0-64.0"},{"group":"hexagon_bi","room_assignment":["red","yellow","grey","green","purple","blue"],"door_color_assignment":["white","black"],"door_generator_assignment":[0,1],"goal":1,"start":4,"action_noise":0.2,"location_history":"[4,3,4,3,2,3,2,3,2,1]","action_history":"[0,0,0,1,1,0,1,0,0]","door_history":"[0,0,0,1,1,0,1,0,0]","location_rts":"[18311,425,485,421,389,497,582,669,348]","trial_type":"two-door-navigation","trial_index":67,"time_elapsed":1910556,"internal_node_id":"0.0-2.0-65.0"},{"group":"hexagon_bi","room_assignment":["red","yellow","grey","green","purple","blue"],"door_color_assignment":["white","black"],"door_generator_assignment":[0,1],"goal":5,"start":1,"action_noise":0.2,"location_history":"[1,0,1,2,1,2,1,0,5]","action_history":"[0,1,1,0,0,0,1,1]","door_history":"[0,1,1,0,0,0,1,1]","location_rts":"[1829,1143,464,404,572,341,410,614]","trial_type":"two-door-navigation","trial_index":68,"time_elapsed":1928063,"internal_node_id":"0.0-2.0-66.0"},{"group":"hexagon_bi","room_assignment":["red","yellow","grey","green","purple","blue"],"door_color_assignment":["white","black"],"door_generator_assignment":[0,1],"goal":2,"start":5,"action_noise":0.2,"location_history":"[5,0,5,0,1,2]","action_history":"[0,1,0,1,0]","door_history":"[0,1,0,1,0]","location_rts":"[5625,651,538,402,608]","trial_type":"two-door-navigation","trial_index":69,"time_elapsed":1944520,"internal_node_id":"0.0-2.0-67.0"},{"group":"hexagon_bi","room_assignment":["red","yellow","grey","green","purple","blue"],"door_color_assignment":["white","black"],"door_generator_assignment":[0,1],"goal":3,"start":2,"action_noise":0.2,"location_history":"[2,3]","action_history":"[1]","door_history":"[1]","location_rts":"[1445]","trial_type":"two-door-navigation","trial_index":70,"time_elapsed":1950495,"internal_node_id":"0.0-2.0-68.0"},{"group":"hexagon_bi","room_assignment":["red","yellow","grey","green","purple","blue"],"door_color_assignment":["white","black"],"door_generator_assignment":[0,1],"goal":4,"start":3,"action_noise":0.2,"location_history":"[3,4]","action_history":"[0]","door_history":"[0]","location_rts":"[1733]","trial_type":"two-door-navigation","trial_index":71,"time_elapsed":1956756,"internal_node_id":"0.0-2.0-69.0"},{"group":"hexagon_bi","room_assignment":["red","yellow","grey","green","purple","blue"],"door_color_assignment":["white","black"],"door_generator_assignment":[0,1],"goal":0,"start":4,"action_noise":0.2,"location_history":"[4,5,4,5,0]","action_history":"[1,0,1,0]","door_history":"[1,0,1,0]","location_rts":"[1120,860,428,441]","trial_type":"two-door-navigation","trial_index":72,"time_elapsed":1967218,"internal_node_id":"0.0-2.0-70.0"},{"group":"hexagon_bi","room_assignment":["red","yellow","grey","green","purple","blue"],"door_color_assignment":["white","black"],"door_generator_assignment":[0,1],"goal":5,"start":0,"action_noise":0.2,"location_history":"[0,5]","action_history":"[0]","door_history":"[0]","location_rts":"[3084]","trial_type":"two-door-navigation","trial_index":73,"time_elapsed":1974831,"internal_node_id":"0.0-2.0-71.0"},{"group":"hexagon_bi","room_assignment":["red","yellow","grey","green","purple","blue"],"door_color_assignment":["white","black"],"door_generator_assignment":[0,1],"goal":0,"start":5,"action_noise":0.2,"location_history":"[5,4,3,2,1,0]","action_history":"[1,0,1,0,0]","door_history":"[1,0,1,0,0]","location_rts":"[1670,1183,427,640,518]","trial_type":"two-door-navigation","trial_index":74,"time_elapsed":1987923,"internal_node_id":"0.0-2.0-72.0"},{"group":"hexagon_bi","room_assignment":["red","yellow","grey","green","purple","blue"],"door_color_assignment":["white","black"],"door_generator_assignment":[0,1],"goal":3,"start":0,"action_noise":0.2,"location_history":"[0,5,4,5,0,5,4,5,4,3]","action_history":"[0,1,1,0,0,1,1,1,0]","door_history":"[0,1,1,0,0,1,1,1,0]","location_rts":"[206498,453,843,407,346,448,560,528,450]","trial_type":"two-door-navigation","trial_index":75,"time_elapsed":2211204,"internal_node_id":"0.0-2.0-73.0"},{"group":"hexagon_bi","room_assignment":["red","yellow","grey","green","purple","blue"],"door_color_assignment":["white","black"],"door_generator_assignment":[0,1],"goal":1,"start":3,"action_noise":0.2,"location_history":"[3,2,1]","action_history":"[0,1]","door_history":"[0,1]","location_rts":"[1095,501]","trial_type":"two-door-navigation","trial_index":76,"time_elapsed":2218355,"internal_node_id":"0.0-2.0-74.0"},{"group":"hexagon_bi","room_assignment":["red","yellow","grey","green","purple","blue"],"door_color_assignment":["white","black"],"door_generator_assignment":[0,1],"goal":2,"start":1,"action_noise":0.2,"location_history":"[1,0,5,4,5,4,3,2]","action_history":"[1,0,0,1,1,0,1]","door_history":"[1,0,0,1,1,0,1]","location_rts":"[583,488,333,459,507,510,520]","trial_type":"two-door-navigation","trial_index":77,"time_elapsed":2232426,"internal_node_id":"0.0-2.0-75.0"},{"group":"hexagon_bi","room_assignment":["red","yellow","grey","green","purple","blue"],"door_color_assignment":["white","black"],"door_generator_assignment":[0,1],"goal":4,"start":2,"action_noise":0.2,"location_history":"[2,1,2,3,2,3,4]","action_history":"[0,0,1,1,1,0]","door_history":"[0,0,1,1,1,0]","location_rts":"[482983,397,355,410,401,373]","trial_type":"two-door-navigation","trial_index":78,"time_elapsed":2727051,"internal_node_id":"0.0-2.0-76.0"},{"group":"hexagon_bi","room_assignment":["red","yellow","grey","green","purple","blue"],"door_color_assignment":["white","black"],"door_generator_assignment":[0,1],"goal":3,"start":4,"action_noise":0.2,"location_history":"[4,5,0,1,2,1,0,5,0,5,0,5,4,3]","action_history":"[0,0,1,0,0,1,1,1,0,0,0,0,0]","door_history":"[0,0,1,0,0,1,1,1,0,0,0,0,0]","location_rts":"[465710,421,341,593,567,473,389,734,407,374,460,391,395]","trial_type":"two-door-navigation","trial_index":79,"time_elapsed":3215344,"internal_node_id":"0.0-2.0-77.0"},{"group":"hexagon_bi","room_assignment":["red","yellow","grey","green","purple","blue"],"door_color_assignment":["white","black"],"door_generator_assignment":[0,1],"goal":0,"start":3,"action_noise":0.2,"location_history":"[3,4,5,0]","action_history":"[1,0,0]","door_history":"[1,0,0]","location_rts":"[1723,352,580]","trial_type":"two-door-navigation","trial_index":80,"time_elapsed":3224591,"internal_node_id":"0.0-2.0-78.0"},{"group":"hexagon_bi","room_assignment":["red","yellow","grey","green","purple","blue"],"door_color_assignment":["white","black"],"door_generator_assignment":[0,1],"goal":4,"start":0,"action_noise":0.2,"location_history":"[0,1,0,1,0,1,2,3,2,3,4]","action_history":"[1,1,1,1,1,0,1,1,0,0]","door_history":"[1,1,1,1,1,0,1,1,0,0]","location_rts":"[34593,617,419,399,435,386,484,366,465,454]","trial_type":"two-door-navigation","trial_index":81,"time_elapsed":3277062,"internal_node_id":"0.0-2.0-79.0"},{"group":"hexagon_bi","room_assignment":["red","yellow","grey","green","purple","blue"],"door_color_assignment":["white","black"],"door_generator_assignment":[0,1],"goal":5,"start":4,"action_noise":0.2,"location_history":"[4,5]","action_history":"[1]","door_history":"[1]","location_rts":"[1225]","trial_type":"two-door-navigation","trial_index":82,"time_elapsed":3282818,"internal_node_id":"0.0-2.0-80.0"},{"group":"hexagon_bi","room_assignment":["red","yellow","grey","green","purple","blue"],"door_color_assignment":["white","black"],"door_generator_assignment":[0,1],"goal":1,"start":5,"action_noise":0.2,"location_history":"[5,4,5,0,5,0,1]","action_history":"[0,1,0,0,1,1]","door_history":"[0,1,0,0,1,1]","location_rts":"[1491,462,1494,491,421,444]","trial_type":"two-door-navigation","trial_index":83,"time_elapsed":3297321,"internal_node_id":"0.0-2.0-81.0"},{"group":"hexagon_bi","room_assignment":["red","yellow","grey","green","purple","blue"],"door_color_assignment":["white","black"],"door_generator_assignment":[0,1],"goal":2,"start":1,"action_noise":0.2,"location_history":"[1,0,1,0,1,2]","action_history":"[1,1,1,1,1]","door_history":"[1,1,1,1,1]","location_rts":"[6264,410,71,392,874]","trial_type":"two-door-navigation","trial_index":84,"time_elapsed":3313976,"internal_node_id":"0.0-2.0-82.0"},{"group":"hexagon_bi","room_assignment":["red","yellow","grey","green","purple","blue"],"door_color_assignment":["white","black"],"door_generator_assignment":[0,1],"goal":4,"start":2,"action_noise":0.2,"location_history":"[2,3,4]","action_history":"[1,1]","door_history":"[1,1]","location_rts":"[934,353]","trial_type":"two-door-navigation","trial_index":85,"time_elapsed":3320841,"internal_node_id":"0.0-2.0-83.0"},{"group":"hexagon_bi","room_assignment":["red","yellow","grey","green","purple","blue"],"door_color_assignment":["white","black"],"door_generator_assignment":[0,1],"goal":0,"start":4,"action_noise":0.2,"location_history":"[4,3,2,1,2,1,0]","action_history":"[0,0,0,0,0,1]","door_history":"[0,0,0,0,0,1]","location_rts":"[933,440,366,681,430,604]","trial_type":"two-door-navigation","trial_index":86,"time_elapsed":3333931,"internal_node_id":"0.0-2.0-84.0"},{"group":"hexagon_bi","room_assignment":["red","yellow","grey","green","purple","blue"],"door_color_assignment":["white","black"],"door_generator_assignment":[0,1],"goal":5,"start":0,"action_noise":0.2,"location_history":"[0,1,0,5]","action_history":"[1,1,0]","door_history":"[1,1,0]","location_rts":"[1655,491,2002]","trial_type":"two-door-navigation","trial_index":87,"time_elapsed":3344687,"internal_node_id":"0.0-2.0-85.0"},{"group":"hexagon_bi","room_assignment":["red","yellow","grey","green","purple","blue"],"door_color_assignment":["white","black"],"door_generator_assignment":[0,1],"goal":3,"start":5,"action_noise":0.2,"location_history":"[5,0,1,0,5,0,5,4,3]","action_history":"[1,1,1,0,0,0,1,0]","door_history":"[1,1,1,0,0,0,1,0]","location_rts":"[11639,398,490,353,400,339,378,346]","trial_type":"two-door-navigation","trial_index":88,"time_elapsed":3370779,"internal_node_id":"0.0-2.0-86.0"},{"group":"hexagon_bi","room_assignment":["red","yellow","grey","green","purple","blue"],"door_color_assignment":["white","black"],"door_generator_assignment":[0,1],"goal":1,"start":3,"action_noise":0.2,"location_history":"[3,2,1]","action_history":"[0,0]","door_history":"[0,0]","location_rts":"[1077,320]","trial_type":"two-door-navigation","trial_index":89,"time_elapsed":3377767,"internal_node_id":"0.0-2.0-87.0"},{"group":"hexagon_bi","room_assignment":["red","yellow","grey","green","purple","blue"],"door_color_assignment":["white","black"],"door_generator_assignment":[0,1],"goal":2,"start":1,"action_noise":0.2,"location_history":"[1,0,1,2]","action_history":"[1,1,0]","door_history":"[1,1,0]","location_rts":"[1613,453,328]","trial_type":"two-door-navigation","trial_index":90,"time_elapsed":3386733,"internal_node_id":"0.0-2.0-88.0"},{"group":"hexagon_bi","room_assignment":["red","yellow","grey","green","purple","blue"],"door_color_assignment":["white","black"],"door_generator_assignment":[0,1],"goal":0,"start":2,"action_noise":0.2,"location_history":"[2,1,0]","action_history":"[0,1]","door_history":"[0,1]","location_rts":"[7081,452]","trial_type":"two-door-navigation","trial_index":91,"time_elapsed":3399827,"internal_node_id":"0.0-2.0-89.0"},{"group":"hexagon_bi","room_assignment":["red","yellow","grey","green","purple","blue"],"door_color_assignment":["white","black"],"door_generator_assignment":[0,1],"goal":5,"start":0,"action_noise":0.2,"location_history":"[0,1,0,5]","action_history":"[1,1,0]","door_history":"[1,1,0]","location_rts":"[1725,566,585]","trial_type":"two-door-navigation","trial_index":92,"time_elapsed":3409286,"internal_node_id":"0.0-2.0-90.0"},{"group":"hexagon_bi","room_assignment":["red","yellow","grey","green","purple","blue"],"door_color_assignment":["white","black"],"door_generator_assignment":[0,1],"goal":1,"start":5,"action_noise":0.2,"location_history":"[5,0,5,0,1]","action_history":"[1,0,0,1]","door_history":"[1,0,0,1]","location_rts":"[1259,432,511,543]","trial_type":"two-door-navigation","trial_index":93,"time_elapsed":3419622,"internal_node_id":"0.0-2.0-91.0"},{"group":"hexagon_bi","room_assignment":["red","yellow","grey","green","purple","blue"],"door_color_assignment":["white","black"],"door_generator_assignment":[0,1],"goal":3,"start":1,"action_noise":0.2,"location_history":"[1,2,1,2,3]","action_history":"[0,0,0,1]","door_history":"[0,0,0,1]","location_rts":"[12211,461,382,395]","trial_type":"two-door-navigation","trial_index":94,"time_elapsed":3440667,"internal_node_id":"0.0-2.0-92.0"},{"group":"hexagon_bi","room_assignment":["red","yellow","grey","green","purple","blue"],"door_color_assignment":["white","black"],"door_generator_assignment":[0,1],"goal":4,"start":3,"action_noise":0.2,"location_history":"[3,2,3,4]","action_history":"[1,1,1]","door_history":"[1,1,1]","location_rts":"[1211,529,362]","trial_type":"two-door-navigation","trial_index":95,"time_elapsed":3449354,"internal_node_id":"0.0-2.0-93.0"},{"group":"hexagon_bi","room_assignment":["red","yellow","grey","green","purple","blue"],"door_color_assignment":["white","black"],"door_generator_assignment":[0,1],"goal":2,"start":4,"action_noise":0.2,"location_history":"[4,5,0,1,2]","action_history":"[0,0,0,0]","door_history":"[0,0,0,0]","location_rts":"[1059,621,338,561]","trial_type":"two-door-navigation","trial_index":96,"time_elapsed":3459540,"internal_node_id":"0.0-2.0-94.0"},{"group":"hexagon_bi","room_assignment":["red","yellow","grey","green","purple","blue"],"door_color_assignment":["white","black"],"door_generator_assignment":[0,1],"goal":4,"start":2,"action_noise":0.2,"location_history":"[2,1,0,1,0,5,0,5,0,5,0,1,0,5,0,1,0,1,0,1,2,3,2,1,0,5,0,1,0,5,0,1,0,1,0,5,4]","action_history":"[1,1,1,1,1,0,0,0,0,0,1,1,0,0,0,1,1,1,1,0,1,1,0,0,0,1,1,1,0,0,0,1,1,1,0,0]","door_history":"[1,1,1,1,1,0,0,0,0,0,1,1,0,0,0,1,1,1,1,0,1,1,0,0,0,1,1,1,0,0,0,1,1,1,0,0]","location_rts":"[811,706,291,480,503,967,324,555,336,411,911,2307,1397,260,300,518,9183,418,507,359,784,380,379,352,425,443,758,560,353,2006,448,85,295,269,734,362]","trial_type":"two-door-navigation","trial_index":97,"time_elapsed":3530109,"internal_node_id":"0.0-2.0-95.0"},{"group":"hexagon_bi","room_assignment":["red","yellow","grey","green","purple","blue"],"door_color_assignment":["white","black"],"door_generator_assignment":[0,1],"goal":0,"start":4,"action_noise":0.2,"location_history":"[4,5,0]","action_history":"[0,1]","door_history":"[0,1]","location_rts":"[2903,3339]","trial_type":"two-door-navigation","trial_index":98,"time_elapsed":3541904,"internal_node_id":"0.0-2.0-96.0"},{"group":"hexagon_bi","room_assignment":["red","yellow","grey","green","purple","blue"],"door_color_assignment":["white","black"],"door_generator_assignment":[0,1],"goal":5,"start":0,"action_noise":0.2,"location_history":"[0,5]","action_history":"[0]","door_history":"[0]","location_rts":"[3803]","trial_type":"two-door-navigation","trial_index":99,"time_elapsed":3550241,"internal_node_id":"0.0-2.0-97.0"},{"group":"hexagon_bi","room_assignment":["red","yellow","grey","green","purple","blue"],"door_color_assignment":["white","black"],"door_generator_assignment":[0,1],"goal":1,"start":5,"action_noise":0.2,"location_history":"[5,0,1]","action_history":"[0,1]","door_history":"[0,1]","location_rts":"[6416,501]","trial_type":"two-door-navigation","trial_index":100,"time_elapsed":3562707,"internal_node_id":"0.0-2.0-98.0"},{"group":"hexagon_bi","room_assignment":["red","yellow","grey","green","purple","blue"],"door_color_assignment":["white","black"],"door_generator_assignment":[0,1],"goal":3,"start":1,"action_noise":0.2,"location_history":"[1,2,3]","action_history":"[0,1]","door_history":"[0,1]","location_rts":"[2197,711]","trial_type":"two-door-navigation","trial_index":101,"time_elapsed":3571171,"internal_node_id":"0.0-2.0-99.0"},{"view_history":"[{\"page_index\":0,\"viewing_time\":5035}]","rt":5036,"trial_type":"instructions","trial_index":102,"time_elapsed":3577208,"internal_node_id":"0.0-3.0"},{"view_history":"[{\"page_index\":0,\"viewing_time\":4447},{\"page_index\":1,\"viewing_time\":681921}]","rt":686368,"trial_type":"instructions","trial_index":103,"time_elapsed":4264577,"internal_node_id":"0.0-4.0"},{"group":"hexagon_tri","fractal_assignment":["../images/gry_blk.png","../images/cyn_red.png","../images/ylw_slt.png","../images/blu_wht.png","../images/pnk_blu.png","../images/org_blu.png"],"mutagen_generator_assignment":[0,1],"goal":4,"start":0,"action_noise":0.2,"location_history":"[0,5,4]","action_history":"[0,1]","mutagen_history":"[0,1]","location_rts":"[8906,1099]","trial_type":"fractal-mutation","trial_index":104,"time_elapsed":4280222,"internal_node_id":"0.0-5.0-0.0"},{"group":"hexagon_tri","fractal_assignment":["../images/gry_blk.png","../images/cyn_red.png","../images/ylw_slt.png","../images/blu_wht.png","../images/pnk_blu.png","../images/org_blu.png"],"mutagen_generator_assignment":[0,1],"goal":3,"start":4,"action_noise":0.2,"location_history":"[4,0,5,0,5,4,0,1,5,4,2,1,5,4,0,5,0,1,5,0,1,5,0,1,3]","action_history":"[0,1,1,0,0,0,0,0,1,1,1,1,0,0,0,0,1,0,1,1,1,1,0,0]","mutagen_history":"[0,1,1,0,0,0,0,0,1,1,1,1,0,0,0,0,1,0,1,1,1,1,0,0]","location_rts":"[1229,965,807,51,871,850,713,808,1100,1126,1064,537,230,99,106,141,782,548,131,537,178,195,2260,1998]","trial_type":"fractal-mutation","trial_index":105,"time_elapsed":4326120,"internal_node_id":"0.0-5.0-1.0"},{"group":"hexagon_tri","fractal_assignment":["../images/gry_blk.png","../images/cyn_red.png","../images/ylw_slt.png","../images/blu_wht.png","../images/pnk_blu.png","../images/org_blu.png"],"mutagen_generator_assignment":[0,1],"goal":5,"start":3,"action_noise":0.2,"location_history":"[3,4,0,5]","action_history":"[1,0,0]","mutagen_history":"[1,0,0]","location_rts":"[3584,1047,164]","trial_type":"fractal-mutation","trial_index":106,"time_elapsed":4337530,"internal_node_id":"0.0-5.0-2.0"},{"group":"hexagon_tri","fractal_assignment":["../images/gry_blk.png","../images/cyn_red.png","../images/ylw_slt.png","../images/blu_wht.png","../images/pnk_blu.png","../images/org_blu.png"],"mutagen_generator_assignment":[0,1],"goal":2,"start":5,"action_noise":0.2,"location_history":"[5,0,1,5,4,0,5,0,1,5,4,0,5,4,2]","action_history":"[1,1,1,0,0,0,0,1,1,0,0,0,0,1]","mutagen_history":"[1,1,1,0,0,0,0,1,1,0,0,0,0,1]","location_rts":"[1457,519,588,908,537,621,595,672,750,540,557,563,620,720]","trial_type":"fractal-mutation","trial_index":107,"time_elapsed":4365208,"internal_node_id":"0.0-5.0-3.0"},{"group":"hexagon_tri","fractal_assignment":["../images/gry_blk.png","../images/cyn_red.png","../images/ylw_slt.png","../images/blu_wht.png","../images/pnk_blu.png","../images/org_blu.png"],"mutagen_generator_assignment":[0,1],"goal":1,"start":2,"action_noise":0.2,"location_history":"[2,3,4,0,1]","action_history":"[1,1,0,0]","mutagen_history":"[1,1,0,0]","location_rts":"[1559,625,517,898]","trial_type":"fractal-mutation","trial_index":108,"time_elapsed":4376460,"internal_node_id":"0.0-5.0-4.0"},{"group":"hexagon_tri","fractal_assignment":["../images/gry_blk.png","../images/cyn_red.png","../images/ylw_slt.png","../images/blu_wht.png","../images/pnk_blu.png","../images/org_blu.png"],"mutagen_generator_assignment":[0,1],"goal":4,"start":1,"action_noise":0.2,"location_history":"[1,5,4]","action_history":"[1,0]","mutagen_history":"[1,0]","location_rts":"[2529,784]","trial_type":"fractal-mutation","trial_index":109,"time_elapsed":4385355,"internal_node_id":"0.0-5.0-5.0"},{"group":"hexagon_tri","fractal_assignment":["../images/gry_blk.png","../images/cyn_red.png","../images/ylw_slt.png","../images/blu_wht.png","../images/pnk_blu.png","../images/org_blu.png"],"mutagen_generator_assignment":[0,1],"goal":1,"start":4,"action_noise":0.2,"location_history":"[4,2,3,2,1]","action_history":"[1,1,1,0]","mutagen_history":"[1,1,1,0]","location_rts":"[1786,953,880,1199]","trial_type":"fractal-mutation","trial_index":110,"time_elapsed":4397883,"internal_node_id":"0.0-5.0-6.0"},{"group":"hexagon_tri","fractal_assignment":["../images/gry_blk.png","../images/cyn_red.png","../images/ylw_slt.png","../images/blu_wht.png","../images/pnk_blu.png","../images/org_blu.png"],"mutagen_generator_assignment":[0,1],"goal":5,"start":1,"action_noise":0.2,"location_history":"[1,5]","action_history":"[0]","mutagen_history":"[0]","location_rts":"[1852]","trial_type":"fractal-mutation","trial_index":111,"time_elapsed":4404275,"internal_node_id":"0.0-5.0-7.0"},{"group":"hexagon_tri","fractal_assignment":["../images/gry_blk.png","../images/cyn_red.png","../images/ylw_slt.png","../images/blu_wht.png","../images/pnk_blu.png","../images/org_blu.png"],"mutagen_generator_assignment":[0,1],"goal":0,"start":5,"action_noise":0.2,"location_history":"[5,0]","action_history":"[0]","mutagen_history":"[0]","location_rts":"[1678]","trial_type":"fractal-mutation","trial_index":112,"time_elapsed":4410496,"internal_node_id":"0.0-5.0-8.0"},{"group":"hexagon_tri","fractal_assignment":["../images/gry_blk.png","../images/cyn_red.png","../images/ylw_slt.png","../images/blu_wht.png","../images/pnk_blu.png","../images/org_blu.png"],"mutagen_generator_assignment":[0,1],"goal":2,"start":0,"action_noise":0.2,"location_history":"[0,1,5,4,2]","action_history":"[1,1,0,0]","mutagen_history":"[1,1,0,0]","location_rts":"[1625,1040,1131,648]","trial_type":"fractal-mutation","trial_index":113,"time_elapsed":4422629,"internal_node_id":"0.0-5.0-9.0"},{"group":"hexagon_tri","fractal_assignment":["../images/gry_blk.png","../images/cyn_red.png","../images/ylw_slt.png","../images/blu_wht.png","../images/pnk_blu.png","../images/org_blu.png"],"mutagen_generator_assignment":[0,1],"goal":3,"start":2,"action_noise":0.2,"location_history":"[2,3]","action_history":"[1]","mutagen_history":"[1]","location_rts":"[2168]","trial_type":"fractal-mutation","trial_index":114,"time_elapsed":4429347,"internal_node_id":"0.0-5.0-10.0"},{"group":"hexagon_tri","fractal_assignment":["../images/gry_blk.png","../images/cyn_red.png","../images/ylw_slt.png","../images/blu_wht.png","../images/pnk_blu.png","../images/org_blu.png"],"mutagen_generator_assignment":[0,1],"goal":0,"start":3,"action_noise":0.2,"location_history":"[3,2,3,4,0]","action_history":"[0,1,0,0]","mutagen_history":"[0,1,0,0]","location_rts":"[1538,767,740,814]","trial_type":"fractal-mutation","trial_index":115,"time_elapsed":4440863,"internal_node_id":"0.0-5.0-11.0"},{"group":"hexagon_tri","fractal_assignment":["../images/gry_blk.png","../images/cyn_red.png","../images/ylw_slt.png","../images/blu_wht.png","../images/pnk_blu.png","../images/org_blu.png"],"mutagen_generator_assignment":[0,1],"goal":2,"start":0,"action_noise":0.2,"location_history":"[0,1,5,4,0,1,3,2]","action_history":"[1,1,0,0,0,0,1]","mutagen_history":"[1,1,0,0,0,0,1]","location_rts":"[1845,1595,591,778,926,652,648]","trial_type":"fractal-mutation","trial_index":116,"time_elapsed":4458710,"internal_node_id":"0.0-5.0-12.0"},{"group":"hexagon_tri","fractal_assignment":["../images/gry_blk.png","../images/cyn_red.png","../images/ylw_slt.png","../images/blu_wht.png","../images/pnk_blu.png","../images/org_blu.png"],"mutagen_generator_assignment":[0,1],"goal":5,"start":2,"action_noise":0.2,"location_history":"[2,1,5]","action_history":"[1,1]","mutagen_history":"[1,1]","location_rts":"[2479,1045]","trial_type":"fractal-mutation","trial_index":117,"time_elapsed":4467828,"internal_node_id":"0.0-5.0-13.0"},{"group":"hexagon_tri","fractal_assignment":["../images/gry_blk.png","../images/cyn_red.png","../images/ylw_slt.png","../images/blu_wht.png","../images/pnk_blu.png","../images/org_blu.png"],"mutagen_generator_assignment":[0,1],"goal":4,"start":5,"action_noise":0.2,"location_history":"[5,4]","action_history":"[0]","mutagen_history":"[0]","location_rts":"[1640]","trial_type":"fractal-mutation","trial_index":118,"time_elapsed":4474073,"internal_node_id":"0.0-5.0-14.0"},{"group":"hexagon_tri","fractal_assignment":["../images/gry_blk.png","../images/cyn_red.png","../images/ylw_slt.png","../images/blu_wht.png","../images/pnk_blu.png","../images/org_blu.png"],"mutagen_generator_assignment":[0,1],"goal":3,"start":4,"action_noise":0.2,"location_history":"[4,2,1,3]","action_history":"[0,0,0]","mutagen_history":"[0,0,0]","location_rts":"[2372,1145,864]","trial_type":"fractal-mutation","trial_index":119,"time_elapsed":4485074,"internal_node_id":"0.0-5.0-15.0"},{"group":"hexagon_tri","fractal_assignment":["../images/gry_blk.png","../images/cyn_red.png","../images/ylw_slt.png","../images/blu_wht.png","../images/pnk_blu.png","../images/org_blu.png"],"mutagen_generator_assignment":[0,1],"goal":1,"start":3,"action_noise":0.2,"location_history":"[3,2,3,2,1]","action_history":"[0,0,0,0]","mutagen_history":"[0,0,0,0]","location_rts":"[1580,770,677,518]","trial_type":"fractal-mutation","trial_index":120,"time_elapsed":4496263,"internal_node_id":"0.0-5.0-16.0"},{"group":"hexagon_tri","fractal_assignment":["../images/gry_blk.png","../images/cyn_red.png","../images/ylw_slt.png","../images/blu_wht.png","../images/pnk_blu.png","../images/org_blu.png"],"mutagen_generator_assignment":[0,1],"goal":5,"start":1,"action_noise":0.2,"location_history":"[1,3,2,1,5]","action_history":"[0,1,0,1]","mutagen_history":"[0,1,0,1]","location_rts":"[1402,580,787,1348]","trial_type":"fractal-mutation","trial_index":121,"time_elapsed":4508031,"internal_node_id":"0.0-5.0-17.0"},{"group":"hexagon_tri","fractal_assignment":["../images/gry_blk.png","../images/cyn_red.png","../images/ylw_slt.png","../images/blu_wht.png","../images/pnk_blu.png","../images/org_blu.png"],"mutagen_generator_assignment":[0,1],"goal":4,"start":5,"action_noise":0.2,"location_history":"[5,4]","action_history":"[0]","mutagen_history":"[0]","location_rts":"[1992]","trial_type":"fractal-mutation","trial_index":122,"time_elapsed":4514558,"internal_node_id":"0.0-5.0-18.0"},{"group":"hexagon_tri","fractal_assignment":["../images/gry_blk.png","../images/cyn_red.png","../images/ylw_slt.png","../images/blu_wht.png","../images/pnk_blu.png","../images/org_blu.png"],"mutagen_generator_assignment":[0,1],"goal":0,"start":4,"action_noise":0.2,"location_history":"[4,2,1,3,4,0]","action_history":"[0,0,0,0,0]","mutagen_history":"[0,0,0,0,0]","location_rts":"[911,542,569,836,520]","trial_type":"fractal-mutation","trial_index":123,"time_elapsed":4526625,"internal_node_id":"0.0-5.0-19.0"},{"group":"hexagon_tri","fractal_assignment":["../images/gry_blk.png","../images/cyn_red.png","../images/ylw_slt.png","../images/blu_wht.png","../images/pnk_blu.png","../images/org_blu.png"],"mutagen_generator_assignment":[0,1],"goal":1,"start":0,"action_noise":0.2,"location_history":"[0,5,0,1]","action_history":"[1,1,1]","mutagen_history":"[1,1,1]","location_rts":"[1838,617,573]","trial_type":"fractal-mutation","trial_index":124,"time_elapsed":4536294,"internal_node_id":"0.0-5.0-20.0"},{"group":"hexagon_tri","fractal_assignment":["../images/gry_blk.png","../images/cyn_red.png","../images/ylw_slt.png","../images/blu_wht.png","../images/pnk_blu.png","../images/org_blu.png"],"mutagen_generator_assignment":[0,1],"goal":3,"start":1,"action_noise":0.2,"location_history":"[1,5,4,2,3]","action_history":"[1,1,1,1]","mutagen_history":"[1,1,1,1]","location_rts":"[1842,600,516,805]","trial_type":"fractal-mutation","trial_index":125,"time_elapsed":4547754,"internal_node_id":"0.0-5.0-21.0"},{"group":"hexagon_tri","fractal_assignment":["../images/gry_blk.png","../images/cyn_red.png","../images/ylw_slt.png","../images/blu_wht.png","../images/pnk_blu.png","../images/org_blu.png"],"mutagen_generator_assignment":[0,1],"goal":2,"start":3,"action_noise":0.2,"location_history":"[3,4,2]","action_history":"[1,1]","mutagen_history":"[1,1]","location_rts":"[2622,100670]","trial_type":"fractal-mutation","trial_index":126,"time_elapsed":4656652,"internal_node_id":"0.0-5.0-22.0"},{"group":"hexagon_tri","fractal_assignment":["../images/gry_blk.png","../images/cyn_red.png","../images/ylw_slt.png","../images/blu_wht.png","../images/pnk_blu.png","../images/org_blu.png"],"mutagen_generator_assignment":[0,1],"goal":0,"start":2,"action_noise":0.2,"location_history":"[2,3,2,1,3,2,3,4,2,3,2,1,5,4,2,3,4,0]","action_history":"[0,0,0,0,0,1,1,1,0,0,0,0,0,1,1,0,0]","mutagen_history":"[0,0,0,0,0,1,1,1,0,0,0,0,0,1,1,0,0]","location_rts":"[11823,561,485,436,832,474,509,457,472,1661,131,600,980,5809,2175,732,633]","trial_type":"fractal-mutation","trial_index":127,"time_elapsed":4706598,"internal_node_id":"0.0-5.0-23.0"},{"group":"hexagon_tri","fractal_assignment":["../images/gry_blk.png","../images/cyn_red.png","../images/ylw_slt.png","../images/blu_wht.png","../images/pnk_blu.png","../images/org_blu.png"],"mutagen_generator_assignment":[0,1],"goal":3,"start":0,"action_noise":0.2,"location_history":"[0,1,3]","action_history":"[1,0]","mutagen_history":"[1,0]","location_rts":"[2107,756]","trial_type":"fractal-mutation","trial_index":128,"time_elapsed":4715052,"internal_node_id":"0.0-5.0-24.0"},{"group":"hexagon_tri","fractal_assignment":["../images/gry_blk.png","../images/cyn_red.png","../images/ylw_slt.png","../images/blu_wht.png","../images/pnk_blu.png","../images/org_blu.png"],"mutagen_generator_assignment":[0,1],"goal":1,"start":3,"action_noise":0.2,"location_history":"[3,2,3,4,0,1]","action_history":"[1,1,1,0,1]","mutagen_history":"[1,1,1,0,1]","location_rts":"[1572,455,507,699,551]","trial_type":"fractal-mutation","trial_index":129,"time_elapsed":4727549,"internal_node_id":"0.0-5.0-25.0"},{"group":"hexagon_tri","fractal_assignment":["../images/gry_blk.png","../images/cyn_red.png","../images/ylw_slt.png","../images/blu_wht.png","../images/pnk_blu.png","../images/org_blu.png"],"mutagen_generator_assignment":[0,1],"goal":2,"start":1,"action_noise":0.2,"location_history":"[1,5,0,1,5,4,0,1,5,4,0,5,0,5,0,1,3,4,2]","action_history":"[1,1,1,0,1,0,1,1,0,0,0,1,0,1,1,1,1,1]","mutagen_history":"[1,1,1,0,1,0,1,1,0,0,0,1,0,1,1,1,1,1]","location_rts":"[1589,495,407,459,972,540,212,702,1485,1053,2231,939,1093,615,745,552,927,1264]","trial_type":"fractal-mutation","trial_index":130,"time_elapsed":4766165,"internal_node_id":"0.0-5.0-26.0"},{"group":"hexagon_tri","fractal_assignment":["../images/gry_blk.png","../images/cyn_red.png","../images/ylw_slt.png","../images/blu_wht.png","../images/pnk_blu.png","../images/org_blu.png"],"mutagen_generator_assignment":[0,1],"goal":5,"start":2,"action_noise":0.2,"location_history":"[2,1,3,2,3,2,1,3,2,1,5]","action_history":"[1,0,0,1,0,1,0,0,0,1]","mutagen_history":"[1,0,0,1,0,1,0,0,0,1]","location_rts":"[2180,591,868,531,599,418,598,811,1133,5310]","trial_type":"fractal-mutation","trial_index":131,"time_elapsed":4793167,"internal_node_id":"0.0-5.0-27.0"},{"group":"hexagon_tri","fractal_assignment":["../images/gry_blk.png","../images/cyn_red.png","../images/ylw_slt.png","../images/blu_wht.png","../images/pnk_blu.png","../images/org_blu.png"],"mutagen_generator_assignment":[0,1],"goal":4,"start":5,"action_noise":0.2,"location_history":"[5,0,5,4]","action_history":"[1,0,0]","mutagen_history":"[1,0,0]","location_rts":"[1745,799,1911]","trial_type":"fractal-mutation","trial_index":132,"time_elapsed":4804261,"internal_node_id":"0.0-5.0-28.0"},{"group":"hexagon_tri","fractal_assignment":["../images/gry_blk.png","../images/cyn_red.png","../images/ylw_slt.png","../images/blu_wht.png","../images/pnk_blu.png","../images/org_blu.png"],"mutagen_generator_assignment":[0,1],"goal":5,"start":4,"action_noise":0.2,"location_history":"[4,0,1,3,2,1,5]","action_history":"[0,1,0,0,1,1]","mutagen_history":"[0,1,0,0,1,1]","location_rts":"[1506,505,565,714,616,543]","trial_type":"fractal-mutation","trial_index":133,"time_elapsed":4818438,"internal_node_id":"0.0-5.0-29.0"},{"group":"hexagon_tri","fractal_assignment":["../images/gry_blk.png","../images/cyn_red.png","../images/ylw_slt.png","../images/blu_wht.png","../images/pnk_blu.png","../images/org_blu.png"],"mutagen_generator_assignment":[0,1],"goal":3,"start":5,"action_noise":0.2,"location_history":"[5,4,0,5,4,2,1,3]","action_history":"[1,0,1,0,0,0,0]","mutagen_history":"[1,0,1,0,0,0,0]","location_rts":"[2089,818,774,444,582,799,565]","trial_type":"fractal-mutation","trial_index":134,"time_elapsed":4835278,"internal_node_id":"0.0-5.0-30.0"},{"group":"hexagon_tri","fractal_assignment":["../images/gry_blk.png","../images/cyn_red.png","../images/ylw_slt.png","../images/blu_wht.png","../images/pnk_blu.png","../images/org_blu.png"],"mutagen_generator_assignment":[0,1],"goal":0,"start":3,"action_noise":0.2,"location_history":"[3,2,1,5,0]","action_history":"[0,0,1,1]","mutagen_history":"[0,0,1,1]","location_rts":"[1337,648,544,542]","trial_type":"fractal-mutation","trial_index":135,"time_elapsed":4846021,"internal_node_id":"0.0-5.0-31.0"},{"group":"hexagon_tri","fractal_assignment":["../images/gry_blk.png","../images/cyn_red.png","../images/ylw_slt.png","../images/blu_wht.png","../images/pnk_blu.png","../images/org_blu.png"],"mutagen_generator_assignment":[0,1],"goal":4,"start":0,"action_noise":0.2,"location_history":"[0,5,4]","action_history":"[0,1]","mutagen_history":"[0,1]","location_rts":"[1517,553]","trial_type":"fractal-mutation","trial_index":136,"time_elapsed":4853679,"internal_node_id":"0.0-5.0-32.0"},{"group":"hexagon_tri","fractal_assignment":["../images/gry_blk.png","../images/cyn_red.png","../images/ylw_slt.png","../images/blu_wht.png","../images/pnk_blu.png","../images/org_blu.png"],"mutagen_generator_assignment":[0,1],"goal":1,"start":4,"action_noise":0.2,"location_history":"[4,2,3,2,1]","action_history":"[0,1,0,0]","mutagen_history":"[0,1,0,0]","location_rts":"[1718,606,540,800]","trial_type":"fractal-mutation","trial_index":137,"time_elapsed":4864981,"internal_node_id":"0.0-5.0-33.0"},{"group":"hexagon_tri","fractal_assignment":["../images/gry_blk.png","../images/cyn_red.png","../images/ylw_slt.png","../images/blu_wht.png","../images/pnk_blu.png","../images/org_blu.png"],"mutagen_generator_assignment":[0,1],"goal":2,"start":1,"action_noise":0.2,"location_history":"[1,3,4,0,1,5,0,5,4,0,5,0,5,0,1,5,4,0,5,4,2]","action_history":"[0,1,0,1,0,0,0,0,0,0,1,1,1,0,1,1,0,0,0,1]","mutagen_history":"[0,1,0,1,0,0,0,0,0,0,1,1,1,0,1,1,0,0,0,1]","location_rts":"[1334,1799,609,669,530,705,574,567,613,698,423,543,483,599,539,482,612,639,622,459]","trial_type":"fractal-mutation","trial_index":138,"time_elapsed":4902775,"internal_node_id":"0.0-5.0-34.0"},{"group":"hexagon_tri","fractal_assignment":["../images/gry_blk.png","../images/cyn_red.png","../images/ylw_slt.png","../images/blu_wht.png","../images/pnk_blu.png","../images/org_blu.png"],"mutagen_generator_assignment":[0,1],"goal":0,"start":2,"action_noise":0.2,"location_history":"[2,1,3,2,1,3,4,0]","action_history":"[0,0,0,0,1,1,0]","mutagen_history":"[0,0,0,0,1,1,0]","location_rts":"[2186,935,719,633,523,842,611]","trial_type":"fractal-mutation","trial_index":139,"time_elapsed":4919993,"internal_node_id":"0.0-5.0-35.0"},{"group":"hexagon_tri","fractal_assignment":["../images/gry_blk.png","../images/cyn_red.png","../images/ylw_slt.png","../images/blu_wht.png","../images/pnk_blu.png","../images/org_blu.png"],"mutagen_generator_assignment":[0,1],"goal":5,"start":0,"action_noise":0.2,"location_history":"[0,5]","action_history":"[0]","mutagen_history":"[0]","location_rts":"[1314]","trial_type":"fractal-mutation","trial_index":140,"time_elapsed":4925858,"internal_node_id":"0.0-5.0-36.0"},{"group":"hexagon_tri","fractal_assignment":["../images/gry_blk.png","../images/cyn_red.png","../images/ylw_slt.png","../images/blu_wht.png","../images/pnk_blu.png","../images/org_blu.png"],"mutagen_generator_assignment":[0,1],"goal":2,"start":5,"action_noise":0.2,"location_history":"[5,4,0,1,3,4,0,5,0,1,3,4,2]","action_history":"[0,1,1,0,0,0,1,1,1,0,1,0]","mutagen_history":"[0,1,1,0,0,0,1,1,1,0,1,0]","location_rts":"[2313,774,978,596,1776,701,556,623,762,720,663,450]","trial_type":"fractal-mutation","trial_index":141,"time_elapsed":4952792,"internal_node_id":"0.0-5.0-37.0"},{"group":"hexagon_tri","fractal_assignment":["../images/gry_blk.png","../images/cyn_red.png","../images/ylw_slt.png","../images/blu_wht.png","../images/pnk_blu.png","../images/org_blu.png"],"mutagen_generator_assignment":[0,1],"goal":1,"start":2,"action_noise":0.2,"location_history":"[2,3,2,3,2,1]","action_history":"[1,0,1,1,0]","mutagen_history":"[1,0,1,1,0]","location_rts":"[1720,458,623,543,439]","trial_type":"fractal-mutation","trial_index":142,"time_elapsed":4965346,"internal_node_id":"0.0-5.0-38.0"},{"group":"hexagon_tri","fractal_assignment":["../images/gry_blk.png","../images/cyn_red.png","../images/ylw_slt.png","../images/blu_wht.png","../images/pnk_blu.png","../images/org_blu.png"],"mutagen_generator_assignment":[0,1],"goal":4,"start":1,"action_noise":0.2,"location_history":"[1,5,0,5,4]","action_history":"[0,1,0,0]","mutagen_history":"[0,1,0,0]","location_rts":"[1519,5001,1152,971]","trial_type":"fractal-mutation","trial_index":143,"time_elapsed":4981647,"internal_node_id":"0.0-5.0-39.0"},{"group":"hexagon_tri","fractal_assignment":["../images/gry_blk.png","../images/cyn_red.png","../images/ylw_slt.png","../images/blu_wht.png","../images/pnk_blu.png","../images/org_blu.png"],"mutagen_generator_assignment":[0,1],"goal":3,"start":4,"action_noise":0.2,"location_history":"[4,0,5,4,2,3]","action_history":"[1,0,0,1,0]","mutagen_history":"[1,0,0,1,0]","location_rts":"[893,2670,443,776,6574]","trial_type":"fractal-mutation","trial_index":144,"time_elapsed":5001700,"internal_node_id":"0.0-5.0-40.0"},{"group":"hexagon_tri","fractal_assignment":["../images/gry_blk.png","../images/cyn_red.png","../images/ylw_slt.png","../images/blu_wht.png","../images/pnk_blu.png","../images/org_blu.png"],"mutagen_generator_assignment":[0,1],"goal":5,"start":3,"action_noise":0.2,"location_history":"[3,4,2,3,4,0,5]","action_history":"[1,0,1,1,0,0]","mutagen_history":"[1,0,1,1,0,0]","location_rts":"[10664,531,472,384,442,488]","trial_type":"fractal-mutation","trial_index":145,"time_elapsed":5024431,"internal_node_id":"0.0-5.0-41.0"},{"group":"hexagon_tri","fractal_assignment":["../images/gry_blk.png","../images/cyn_red.png","../images/ylw_slt.png","../images/blu_wht.png","../images/pnk_blu.png","../images/org_blu.png"],"mutagen_generator_assignment":[0,1],"goal":3,"start":5,"action_noise":0.2,"location_history":"[5,0,1,3]","action_history":"[0,1,0]","mutagen_history":"[0,1,0]","location_rts":"[1130,767,442]","trial_type":"fractal-mutation","trial_index":146,"time_elapsed":5033379,"internal_node_id":"0.0-5.0-42.0"},{"group":"hexagon_tri","fractal_assignment":["../images/gry_blk.png","../images/cyn_red.png","../images/ylw_slt.png","../images/blu_wht.png","../images/pnk_blu.png","../images/org_blu.png"],"mutagen_generator_assignment":[0,1],"goal":0,"start":3,"action_noise":0.2,"location_history":"[3,2,1,3,2,3,4,2,1,3,2,3,2,3,4,0]","action_history":"[0,0,1,0,1,0,0,0,1,1,1,1,0,0,0]","mutagen_history":"[0,0,1,0,1,0,0,0,1,1,1,1,0,0,0]","location_rts":"[1298,671,483,662,473,599,606,555,654,686,467,503,468,504,460]","trial_type":"fractal-mutation","trial_index":147,"time_elapsed":5061549,"internal_node_id":"0.0-5.0-43.0"},{"group":"hexagon_tri","fractal_assignment":["../images/gry_blk.png","../images/cyn_red.png","../images/ylw_slt.png","../images/blu_wht.png","../images/pnk_blu.png","../images/org_blu.png"],"mutagen_generator_assignment":[0,1],"goal":2,"start":0,"action_noise":0.2,"location_history":"[0,5,4,0,1,3,2]","action_history":"[0,1,0,1,0,0]","mutagen_history":"[0,1,0,1,0,0]","location_rts":"[1109,906,579,441,463,828]","trial_type":"fractal-mutation","trial_index":148,"time_elapsed":5075674,"internal_node_id":"0.0-5.0-44.0"},{"group":"hexagon_tri","fractal_assignment":["../images/gry_blk.png","../images/cyn_red.png","../images/ylw_slt.png","../images/blu_wht.png","../images/pnk_blu.png","../images/org_blu.png"],"mutagen_generator_assignment":[0,1],"goal":4,"start":2,"action_noise":0.2,"location_history":"[2,1,5,4]","action_history":"[0,1,0]","mutagen_history":"[0,1,0]","location_rts":"[1062,441,445]","trial_type":"fractal-mutation","trial_index":149,"time_elapsed":5084236,"internal_node_id":"0.0-5.0-45.0"},{"group":"hexagon_tri","fractal_assignment":["../images/gry_blk.png","../images/cyn_red.png","../images/ylw_slt.png","../images/blu_wht.png","../images/pnk_blu.png","../images/org_blu.png"],"mutagen_generator_assignment":[0,1],"goal":1,"start":4,"action_noise":0.2,"location_history":"[4,0,5,4,0,5,0,1]","action_history":"[0,1,0,0,0,1,1]","mutagen_history":"[0,1,0,0,0,1,1]","location_rts":"[1296,610,680,653,733,565,925]","trial_type":"fractal-mutation","trial_index":150,"time_elapsed":5100528,"internal_node_id":"0.0-5.0-46.0"},{"group":"hexagon_tri","fractal_assignment":["../images/gry_blk.png","../images/cyn_red.png","../images/ylw_slt.png","../images/blu_wht.png","../images/pnk_blu.png","../images/org_blu.png"],"mutagen_generator_assignment":[0,1],"goal":4,"start":1,"action_noise":0.2,"location_history":"[1,5,0,5,0,1,5,4]","action_history":"[0,0,0,1,1,0,1]","mutagen_history":"[0,0,0,1,1,0,1]","location_rts":"[2766,721,1099,923,878,463,462]","trial_type":"fractal-mutation","trial_index":151,"time_elapsed":5118637,"internal_node_id":"0.0-5.0-47.0"},{"group":"hexagon_tri","fractal_assignment":["../images/gry_blk.png","../images/cyn_red.png","../images/ylw_slt.png","../images/blu_wht.png","../images/pnk_blu.png","../images/org_blu.png"],"mutagen_generator_assignment":[0,1],"goal":1,"start":4,"action_noise":0.2,"location_history":"[4,0,5,0,5,0,1]","action_history":"[0,0,1,0,1,1]","mutagen_history":"[0,0,1,0,1,1]","location_rts":"[847,720,682,424,497,414]","trial_type":"fractal-mutation","trial_index":152,"time_elapsed":5131964,"internal_node_id":"0.0-5.0-48.0"},{"group":"hexagon_tri","fractal_assignment":["../images/gry_blk.png","../images/cyn_red.png","../images/ylw_slt.png","../images/blu_wht.png","../images/pnk_blu.png","../images/org_blu.png"],"mutagen_generator_assignment":[0,1],"goal":3,"start":1,"action_noise":0.2,"location_history":"[1,3]","action_history":"[0]","mutagen_history":"[0]","location_rts":"[1301]","trial_type":"fractal-mutation","trial_index":153,"time_elapsed":5137794,"internal_node_id":"0.0-5.0-49.0"},{"group":"hexagon_tri","fractal_assignment":["../images/gry_blk.png","../images/cyn_red.png","../images/ylw_slt.png","../images/blu_wht.png","../images/pnk_blu.png","../images/org_blu.png"],"mutagen_generator_assignment":[0,1],"goal":5,"start":3,"action_noise":0.2,"location_history":"[3,4,0,5]","action_history":"[1,0,0]","mutagen_history":"[1,0,0]","location_rts":"[1187,439,656]","trial_type":"fractal-mutation","trial_index":154,"time_elapsed":5146697,"internal_node_id":"0.0-5.0-50.0"},{"group":"hexagon_tri","fractal_assignment":["../images/gry_blk.png","../images/cyn_red.png","../images/ylw_slt.png","../images/blu_wht.png","../images/pnk_blu.png","../images/org_blu.png"],"mutagen_generator_assignment":[0,1],"goal":0,"start":5,"action_noise":0.2,"location_history":"[5,4,0]","action_history":"[1,0]","mutagen_history":"[1,0]","location_rts":"[2894,476]","trial_type":"fractal-mutation","trial_index":155,"time_elapsed":5155648,"internal_node_id":"0.0-5.0-51.0"},{"group":"hexagon_tri","fractal_assignment":["../images/gry_blk.png","../images/cyn_red.png","../images/ylw_slt.png","../images/blu_wht.png","../images/pnk_blu.png","../images/org_blu.png"],"mutagen_generator_assignment":[0,1],"goal":2,"start":0,"action_noise":0.2,"location_history":"[0,5,0,5,0,1,3,2]","action_history":"[0,1,0,1,1,0,0]","mutagen_history":"[0,1,0,1,1,0,0]","location_rts":"[3404,394,1151,424,532,511,1490]","trial_type":"fractal-mutation","trial_index":156,"time_elapsed":5174318,"internal_node_id":"0.0-5.0-52.0"},{"group":"hexagon_tri","fractal_assignment":["../images/gry_blk.png","../images/cyn_red.png","../images/ylw_slt.png","../images/blu_wht.png","../images/pnk_blu.png","../images/org_blu.png"],"mutagen_generator_assignment":[0,1],"goal":1,"start":2,"action_noise":0.2,"location_history":"[2,1]","action_history":"[0]","mutagen_history":"[0]","location_rts":"[863]","trial_type":"fractal-mutation","trial_index":157,"time_elapsed":5179719,"internal_node_id":"0.0-5.0-53.0"},{"group":"hexagon_tri","fractal_assignment":["../images/gry_blk.png","../images/cyn_red.png","../images/ylw_slt.png","../images/blu_wht.png","../images/pnk_blu.png","../images/org_blu.png"],"mutagen_generator_assignment":[0,1],"goal":2,"start":1,"action_noise":0.2,"location_history":"[1,3,2]","action_history":"[0,0]","mutagen_history":"[0,0]","location_rts":"[1711,958]","trial_type":"fractal-mutation","trial_index":158,"time_elapsed":5187949,"internal_node_id":"0.0-5.0-54.0"},{"group":"hexagon_tri","fractal_assignment":["../images/gry_blk.png","../images/cyn_red.png","../images/ylw_slt.png","../images/blu_wht.png","../images/pnk_blu.png","../images/org_blu.png"],"mutagen_generator_assignment":[0,1],"goal":5,"start":2,"action_noise":0.2,"location_history":"[2,3,4,2,1,3,4,0,1,3,2,1,5]","action_history":"[1,1,1,0,0,1,0,0,0,0,0,1]","mutagen_history":"[1,1,1,0,0,1,0,0,0,0,0,1]","location_rts":"[1336,742,589,548,674,415,572,480,601,473,690,414]","trial_type":"fractal-mutation","trial_index":159,"time_elapsed":5211474,"internal_node_id":"0.0-5.0-55.0"},{"group":"hexagon_tri","fractal_assignment":["../images/gry_blk.png","../images/cyn_red.png","../images/ylw_slt.png","../images/blu_wht.png","../images/pnk_blu.png","../images/org_blu.png"],"mutagen_generator_assignment":[0,1],"goal":4,"start":5,"action_noise":0.2,"location_history":"[5,4]","action_history":"[0]","mutagen_history":"[0]","location_rts":"[3368]","trial_type":"fractal-mutation","trial_index":160,"time_elapsed":5219379,"internal_node_id":"0.0-5.0-56.0"},{"group":"hexagon_tri","fractal_assignment":["../images/gry_blk.png","../images/cyn_red.png","../images/ylw_slt.png","../images/blu_wht.png","../images/pnk_blu.png","../images/org_blu.png"],"mutagen_generator_assignment":[0,1],"goal":3,"start":4,"action_noise":0.2,"location_history":"[4,0,1,3]","action_history":"[0,1,0]","mutagen_history":"[0,1,0]","location_rts":"[1718,1059,634]","trial_type":"fractal-mutation","trial_index":161,"time_elapsed":5229421,"internal_node_id":"0.0-5.0-57.0"},{"group":"hexagon_tri","fractal_assignment":["../images/gry_blk.png","../images/cyn_red.png","../images/ylw_slt.png","../images/blu_wht.png","../images/pnk_blu.png","../images/org_blu.png"],"mutagen_generator_assignment":[0,1],"goal":0,"start":3,"action_noise":0.2,"location_history":"[3,2,3,2,1,5,0]","action_history":"[0,1,0,0,1,1]","mutagen_history":"[0,1,0,0,1,1]","location_rts":"[1325,475,746,1439,439,537]","trial_type":"fractal-mutation","trial_index":162,"time_elapsed":5244112,"internal_node_id":"0.0-5.0-58.0"},{"group":"hexagon_tri","fractal_assignment":["../images/gry_blk.png","../images/cyn_red.png","../images/ylw_slt.png","../images/blu_wht.png","../images/pnk_blu.png","../images/org_blu.png"],"mutagen_generator_assignment":[0,1],"goal":2,"start":0,"action_noise":0.2,"location_history":"[0,5,0,1,3,4,2]","action_history":"[0,1,0,0,0,1]","mutagen_history":"[0,1,0,0,0,1]","location_rts":"[1279,502,415,434,1019,692]","trial_type":"fractal-mutation","trial_index":163,"time_elapsed":5258160,"internal_node_id":"0.0-5.0-59.0"},{"group":"hexagon_tri","fractal_assignment":["../images/gry_blk.png","../images/cyn_red.png","../images/ylw_slt.png","../images/blu_wht.png","../images/pnk_blu.png","../images/org_blu.png"],"mutagen_generator_assignment":[0,1],"goal":1,"start":2,"action_noise":0.2,"location_history":"[2,3,2,3,2,1]","action_history":"[0,0,1,0,0]","mutagen_history":"[0,0,1,0,0]","location_rts":"[3578,513,408,420,480]","trial_type":"fractal-mutation","trial_index":164,"time_elapsed":5272261,"internal_node_id":"0.0-5.0-60.0"},{"group":"hexagon_tri","fractal_assignment":["../images/gry_blk.png","../images/cyn_red.png","../images/ylw_slt.png","../images/blu_wht.png","../images/pnk_blu.png","../images/org_blu.png"],"mutagen_generator_assignment":[0,1],"goal":0,"start":1,"action_noise":0.2,"location_history":"[1,3,4,0]","action_history":"[0,1,0]","mutagen_history":"[0,1,0]","location_rts":"[1815,592,392]","trial_type":"fractal-mutation","trial_index":165,"time_elapsed":5281713,"internal_node_id":"0.0-5.0-61.0"},{"group":"hexagon_tri","fractal_assignment":["../images/gry_blk.png","../images/cyn_red.png","../images/ylw_slt.png","../images/blu_wht.png","../images/pnk_blu.png","../images/org_blu.png"],"mutagen_generator_assignment":[0,1],"goal":3,"start":0,"action_noise":0.2,"location_history":"[0,5,0,1,3]","action_history":"[0,1,1,0]","mutagen_history":"[0,1,1,0]","location_rts":"[1483,547,640,404]","trial_type":"fractal-mutation","trial_index":166,"time_elapsed":5292539,"internal_node_id":"0.0-5.0-62.0"},{"group":"hexagon_tri","fractal_assignment":["../images/gry_blk.png","../images/cyn_red.png","../images/ylw_slt.png","../images/blu_wht.png","../images/pnk_blu.png","../images/org_blu.png"],"mutagen_generator_assignment":[0,1],"goal":5,"start":3,"action_noise":0.2,"location_history":"[3,2,3,2,3,2,1,5]","action_history":"[0,1,0,1,0,0,1]","mutagen_history":"[0,1,0,1,0,0,1]","location_rts":"[1171,809,653,684,438,450,1038]","trial_type":"fractal-mutation","trial_index":167,"time_elapsed":5308621,"internal_node_id":"0.0-5.0-63.0"},{"group":"hexagon_tri","fractal_assignment":["../images/gry_blk.png","../images/cyn_red.png","../images/ylw_slt.png","../images/blu_wht.png","../images/pnk_blu.png","../images/org_blu.png"],"mutagen_generator_assignment":[0,1],"goal":4,"start":5,"action_noise":0.2,"location_history":"[5,4]","action_history":"[0]","mutagen_history":"[0]","location_rts":"[1297]","trial_type":"fractal-mutation","trial_index":168,"time_elapsed":5314470,"internal_node_id":"0.0-5.0-64.0"},{"group":"hexagon_tri","fractal_assignment":["../images/gry_blk.png","../images/cyn_red.png","../images/ylw_slt.png","../images/blu_wht.png","../images/pnk_blu.png","../images/org_blu.png"],"mutagen_generator_assignment":[0,1],"goal":1,"start":4,"action_noise":0.2,"location_history":"[4,0,1]","action_history":"[0,1]","mutagen_history":"[0,1]","location_rts":"[4559,445]","trial_type":"fractal-mutation","trial_index":169,"time_elapsed":5325059,"internal_node_id":"0.0-5.0-65.0"},{"group":"hexagon_tri","fractal_assignment":["../images/gry_blk.png","../images/cyn_red.png","../images/ylw_slt.png","../images/blu_wht.png","../images/pnk_blu.png","../images/org_blu.png"],"mutagen_generator_assignment":[0,1],"goal":5,"start":1,"action_noise":0.2,"location_history":"[1,3,4,0,1,3,2,3,2,3,2,1,3,2,3,4,0,1,5]","action_history":"[0,1,0,1,1,0,0,1,1,1,1,0,0,0,0,0,0,0]","mutagen_history":"[0,1,0,1,1,0,0,1,1,1,1,0,0,0,0,0,0,0]","location_rts":"[1196,751,863,560,716,474,611,417,519,533,659,931,1921,561,1077,581,581,6]","trial_type":"fractal-mutation","trial_index":170,"time_elapsed":5360221,"internal_node_id":"0.0-5.0-66.0"},{"group":"hexagon_tri","fractal_assignment":["../images/gry_blk.png","../images/cyn_red.png","../images/ylw_slt.png","../images/blu_wht.png","../images/pnk_blu.png","../images/org_blu.png"],"mutagen_generator_assignment":[0,1],"goal":2,"start":5,"action_noise":0.2,"location_history":"[5,4,2]","action_history":"[0,1]","mutagen_history":"[0,1]","location_rts":"[1295,608]","trial_type":"fractal-mutation","trial_index":171,"time_elapsed":5367747,"internal_node_id":"0.0-5.0-67.0"},{"group":"hexagon_tri","fractal_assignment":["../images/gry_blk.png","../images/cyn_red.png","../images/ylw_slt.png","../images/blu_wht.png","../images/pnk_blu.png","../images/org_blu.png"],"mutagen_generator_assignment":[0,1],"goal":3,"start":2,"action_noise":0.2,"location_history":"[2,3]","action_history":"[1]","mutagen_history":"[1]","location_rts":"[1985]","trial_type":"fractal-mutation","trial_index":172,"time_elapsed":5374298,"internal_node_id":"0.0-5.0-68.0"},{"group":"hexagon_tri","fractal_assignment":["../images/gry_blk.png","../images/cyn_red.png","../images/ylw_slt.png","../images/blu_wht.png","../images/pnk_blu.png","../images/org_blu.png"],"mutagen_generator_assignment":[0,1],"goal":4,"start":3,"action_noise":0.2,"location_history":"[3,2,1,3,4]","action_history":"[0,1,0,1]","mutagen_history":"[0,1,0,1]","location_rts":"[1500,855,453,641]","trial_type":"fractal-mutation","trial_index":173,"time_elapsed":5385415,"internal_node_id":"0.0-5.0-69.0"},{"group":"hexagon_tri","fractal_assignment":["../images/gry_blk.png","../images/cyn_red.png","../images/ylw_slt.png","../images/blu_wht.png","../images/pnk_blu.png","../images/org_blu.png"],"mutagen_generator_assignment":[0,1],"goal":0,"start":4,"action_noise":0.2,"location_history":"[4,0]","action_history":"[0]","mutagen_history":"[0]","location_rts":"[1205]","trial_type":"fractal-mutation","trial_index":174,"time_elapsed":5391155,"internal_node_id":"0.0-5.0-70.0"},{"group":"hexagon_tri","fractal_assignment":["../images/gry_blk.png","../images/cyn_red.png","../images/ylw_slt.png","../images/blu_wht.png","../images/pnk_blu.png","../images/org_blu.png"],"mutagen_generator_assignment":[0,1],"goal":5,"start":0,"action_noise":0.2,"location_history":"[0,5]","action_history":"[0]","mutagen_history":"[0]","location_rts":"[1257]","trial_type":"fractal-mutation","trial_index":175,"time_elapsed":5396970,"internal_node_id":"0.0-5.0-71.0"},{"group":"hexagon_tri","fractal_assignment":["../images/gry_blk.png","../images/cyn_red.png","../images/ylw_slt.png","../images/blu_wht.png","../images/pnk_blu.png","../images/org_blu.png"],"mutagen_generator_assignment":[0,1],"goal":0,"start":5,"action_noise":0.2,"location_history":"[5,4,0]","action_history":"[0,1]","mutagen_history":"[0,1]","location_rts":"[1061,1005]","trial_type":"fractal-mutation","trial_index":176,"time_elapsed":5404625,"internal_node_id":"0.0-5.0-72.0"},{"group":"hexagon_tri","fractal_assignment":["../images/gry_blk.png","../images/cyn_red.png","../images/ylw_slt.png","../images/blu_wht.png","../images/pnk_blu.png","../images/org_blu.png"],"mutagen_generator_assignment":[0,1],"goal":3,"start":0,"action_noise":0.2,"location_history":"[0,5,4,2,3]","action_history":"[1,1,0,1]","mutagen_history":"[1,1,0,1]","location_rts":"[2055,764,828,21]","trial_type":"fractal-mutation","trial_index":177,"time_elapsed":5415976,"internal_node_id":"0.0-5.0-73.0"},{"group":"hexagon_tri","fractal_assignment":["../images/gry_blk.png","../images/cyn_red.png","../images/ylw_slt.png","../images/blu_wht.png","../images/pnk_blu.png","../images/org_blu.png"],"mutagen_generator_assignment":[0,1],"goal":1,"start":3,"action_noise":0.2,"location_history":"[3,4,0,5,0,1]","action_history":"[1,0,0,1,0]","mutagen_history":"[1,0,0,1,0]","location_rts":"[2643,537,833,1380,433]","trial_type":"fractal-mutation","trial_index":178,"time_elapsed":5430516,"internal_node_id":"0.0-5.0-74.0"},{"group":"hexagon_tri","fractal_assignment":["../images/gry_blk.png","../images/cyn_red.png","../images/ylw_slt.png","../images/blu_wht.png","../images/pnk_blu.png","../images/org_blu.png"],"mutagen_generator_assignment":[0,1],"goal":2,"start":1,"action_noise":0.2,"location_history":"[1,5,0,1,3,4,0,1,5,0,5,4,0,5,0,1,5,0,1,5,4,0,5,4,2]","action_history":"[1,1,1,0,1,0,0,1,1,0,0,0,0,1,1,1,1,0,1,0,0,0,0,1]","mutagen_history":"[1,1,1,0,1,0,0,1,1,0,0,0,0,1,1,1,1,0,1,0,0,0,0,1]","location_rts":"[1334,597,666,736,1079,614,688,576,695,546,1055,740,635,700,721,542,541,691,437,509,569,621,1884,557]","trial_type":"fractal-mutation","trial_index":179,"time_elapsed":5476729,"internal_node_id":"0.0-5.0-75.0"},{"group":"hexagon_tri","fractal_assignment":["../images/gry_blk.png","../images/cyn_red.png","../images/ylw_slt.png","../images/blu_wht.png","../images/pnk_blu.png","../images/org_blu.png"],"mutagen_generator_assignment":[0,1],"goal":4,"start":2,"action_noise":0.2,"location_history":"[2,1,5,4]","action_history":"[0,0,1]","mutagen_history":"[0,0,1]","location_rts":"[1483,1190,456]","trial_type":"fractal-mutation","trial_index":180,"time_elapsed":5486470,"internal_node_id":"0.0-5.0-76.0"},{"group":"hexagon_tri","fractal_assignment":["../images/gry_blk.png","../images/cyn_red.png","../images/ylw_slt.png","../images/blu_wht.png","../images/pnk_blu.png","../images/org_blu.png"],"mutagen_generator_assignment":[0,1],"goal":3,"start":4,"action_noise":0.2,"location_history":"[4,0,1,3]","action_history":"[0,1,0]","mutagen_history":"[0,1,0]","location_rts":"[1208,656,454]","trial_type":"fractal-mutation","trial_index":181,"time_elapsed":5495398,"internal_node_id":"0.0-5.0-77.0"},{"group":"hexagon_tri","fractal_assignment":["../images/gry_blk.png","../images/cyn_red.png","../images/ylw_slt.png","../images/blu_wht.png","../images/pnk_blu.png","../images/org_blu.png"],"mutagen_generator_assignment":[0,1],"goal":0,"start":3,"action_noise":0.2,"location_history":"[3,2,3,4,0]","action_history":"[0,1,1,0]","mutagen_history":"[0,1,1,0]","location_rts":"[1567,536,1095,528]","trial_type":"fractal-mutation","trial_index":182,"time_elapsed":5506782,"internal_node_id":"0.0-5.0-78.0"},{"group":"hexagon_tri","fractal_assignment":["../images/gry_blk.png","../images/cyn_red.png","../images/ylw_slt.png","../images/blu_wht.png","../images/pnk_blu.png","../images/org_blu.png"],"mutagen_generator_assignment":[0,1],"goal":4,"start":0,"action_noise":0.2,"location_history":"[0,5,0,5,4]","action_history":"[0,1,0,0]","mutagen_history":"[0,1,0,0]","location_rts":"[1422,432,487,516]","trial_type":"fractal-mutation","trial_index":183,"time_elapsed":5517279,"internal_node_id":"0.0-5.0-79.0"},{"group":"hexagon_tri","fractal_assignment":["../images/gry_blk.png","../images/cyn_red.png","../images/ylw_slt.png","../images/blu_wht.png","../images/pnk_blu.png","../images/org_blu.png"],"mutagen_generator_assignment":[0,1],"goal":5,"start":4,"action_noise":0.2,"location_history":"[4,0,5]","action_history":"[0,0]","mutagen_history":"[0,0]","location_rts":"[1140,967]","trial_type":"fractal-mutation","trial_index":184,"time_elapsed":5524965,"internal_node_id":"0.0-5.0-80.0"},{"group":"hexagon_tri","fractal_assignment":["../images/gry_blk.png","../images/cyn_red.png","../images/ylw_slt.png","../images/blu_wht.png","../images/pnk_blu.png","../images/org_blu.png"],"mutagen_generator_assignment":[0,1],"goal":1,"start":5,"action_noise":0.2,"location_history":"[5,4,2,1]","action_history":"[0,1,0]","mutagen_history":"[0,1,0]","location_rts":"[1204,815,614]","trial_type":"fractal-mutation","trial_index":185,"time_elapsed":5534220,"internal_node_id":"0.0-5.0-81.0"},{"group":"hexagon_tri","fractal_assignment":["../images/gry_blk.png","../images/cyn_red.png","../images/ylw_slt.png","../images/blu_wht.png","../images/pnk_blu.png","../images/org_blu.png"],"mutagen_generator_assignment":[0,1],"goal":2,"start":1,"action_noise":0.2,"location_history":"[1,3,4,2]","action_history":"[0,0,1]","mutagen_history":"[0,0,1]","location_rts":"[1049,610,802]","trial_type":"fractal-mutation","trial_index":186,"time_elapsed":5543348,"internal_node_id":"0.0-5.0-82.0"},{"group":"hexagon_tri","fractal_assignment":["../images/gry_blk.png","../images/cyn_red.png","../images/ylw_slt.png","../images/blu_wht.png","../images/pnk_blu.png","../images/org_blu.png"],"mutagen_generator_assignment":[0,1],"goal":4,"start":2,"action_noise":0.2,"location_history":"[2,3,2,3,4]","action_history":"[0,0,1,1]","mutagen_history":"[0,0,1,1]","location_rts":"[3039,2220,708,939]","trial_type":"fractal-mutation","trial_index":187,"time_elapsed":5557921,"internal_node_id":"0.0-5.0-83.0"},{"group":"hexagon_tri","fractal_assignment":["../images/gry_blk.png","../images/cyn_red.png","../images/ylw_slt.png","../images/blu_wht.png","../images/pnk_blu.png","../images/org_blu.png"],"mutagen_generator_assignment":[0,1],"goal":0,"start":4,"action_noise":0.2,"location_history":"[4,2,3,4,2,3,4,0]","action_history":"[0,1,1,1,0,1,0]","mutagen_history":"[0,1,1,1,0,1,0]","location_rts":"[1053,440,763,645,610,674,439]","trial_type":"fractal-mutation","trial_index":188,"time_elapsed":5573351,"internal_node_id":"0.0-5.0-84.0"},{"group":"hexagon_tri","fractal_assignment":["../images/gry_blk.png","../images/cyn_red.png","../images/ylw_slt.png","../images/blu_wht.png","../images/pnk_blu.png","../images/org_blu.png"],"mutagen_generator_assignment":[0,1],"goal":5,"start":0,"action_noise":0.2,"location_history":"[0,5]","action_history":"[0]","mutagen_history":"[0]","location_rts":"[1471]","trial_type":"fractal-mutation","trial_index":189,"time_elapsed":5579362,"internal_node_id":"0.0-5.0-85.0"},{"group":"hexagon_tri","fractal_assignment":["../images/gry_blk.png","../images/cyn_red.png","../images/ylw_slt.png","../images/blu_wht.png","../images/pnk_blu.png","../images/org_blu.png"],"mutagen_generator_assignment":[0,1],"goal":3,"start":5,"action_noise":0.2,"location_history":"[5,4,2,1,3]","action_history":"[0,1,1,0]","mutagen_history":"[0,1,1,0]","location_rts":"[1801,548,484,465]","trial_type":"fractal-mutation","trial_index":190,"time_elapsed":5590369,"internal_node_id":"0.0-5.0-86.0"},{"group":"hexagon_tri","fractal_assignment":["../images/gry_blk.png","../images/cyn_red.png","../images/ylw_slt.png","../images/blu_wht.png","../images/pnk_blu.png","../images/org_blu.png"],"mutagen_generator_assignment":[0,1],"goal":1,"start":3,"action_noise":0.2,"location_history":"[3,2,3,2,1]","action_history":"[0,1,0,0]","mutagen_history":"[0,1,0,0]","location_rts":"[1147,403,461,560]","trial_type":"fractal-mutation","trial_index":191,"time_elapsed":5600586,"internal_node_id":"0.0-5.0-87.0"},{"group":"hexagon_tri","fractal_assignment":["../images/gry_blk.png","../images/cyn_red.png","../images/ylw_slt.png","../images/blu_wht.png","../images/pnk_blu.png","../images/org_blu.png"],"mutagen_generator_assignment":[0,1],"goal":2,"start":1,"action_noise":0.2,"location_history":"[1,3,2]","action_history":"[0,0]","mutagen_history":"[0,0]","location_rts":"[1176,848]","trial_type":"fractal-mutation","trial_index":192,"time_elapsed":5608179,"internal_node_id":"0.0-5.0-88.0"},{"group":"hexagon_tri","fractal_assignment":["../images/gry_blk.png","../images/cyn_red.png","../images/ylw_slt.png","../images/blu_wht.png","../images/pnk_blu.png","../images/org_blu.png"],"mutagen_generator_assignment":[0,1],"goal":0,"start":2,"action_noise":0.2,"location_history":"[2,1,3,2,3,2,3,2,3,4,2,1,5,4,2,3,2,1,3,2,1,3,4,2,3,4,0]","action_history":"[0,0,0,1,0,0,0,1,1,1,0,1,0,1,1,1,0,0,0,0,0,1,1,1,1,1]","mutagen_history":"[0,0,0,1,0,0,0,1,1,1,0,1,0,1,1,1,0,0,0,0,0,1,1,1,1,1]","location_rts":"[1435,613,602,550,652,533,546,442,471,502,480,519,597,606,408,464,554,599,421,430,565,903,174,524,373,433]","trial_type":"fractal-mutation","trial_index":193,"time_elapsed":5653209,"internal_node_id":"0.0-5.0-89.0"},{"group":"hexagon_tri","fractal_assignment":["../images/gry_blk.png","../images/cyn_red.png","../images/ylw_slt.png","../images/blu_wht.png","../images/pnk_blu.png","../images/org_blu.png"],"mutagen_generator_assignment":[0,1],"goal":5,"start":0,"action_noise":0.2,"location_history":"[0,1,3,2,1,5]","action_history":"[0,0,0,0,1]","mutagen_history":"[0,0,0,0,1]","location_rts":"[1101,931,778,425,545]","trial_type":"fractal-mutation","trial_index":194,"time_elapsed":5665744,"internal_node_id":"0.0-5.0-90.0"},{"group":"hexagon_tri","fractal_assignment":["../images/gry_blk.png","../images/cyn_red.png","../images/ylw_slt.png","../images/blu_wht.png","../images/pnk_blu.png","../images/org_blu.png"],"mutagen_generator_assignment":[0,1],"goal":1,"start":5,"action_noise":0.2,"location_history":"[5,4,0,1]","action_history":"[1,0,1]","mutagen_history":"[1,0,1]","location_rts":"[1882,893,990]","trial_type":"fractal-mutation","trial_index":195,"time_elapsed":5676168,"internal_node_id":"0.0-5.0-91.0"},{"group":"hexagon_tri","fractal_assignment":["../images/gry_blk.png","../images/cyn_red.png","../images/ylw_slt.png","../images/blu_wht.png","../images/pnk_blu.png","../images/org_blu.png"],"mutagen_generator_assignment":[0,1],"goal":3,"start":1,"action_noise":0.2,"location_history":"[1,3]","action_history":"[0]","mutagen_history":"[0]","location_rts":"[1239]","trial_type":"fractal-mutation","trial_index":196,"time_elapsed":5681941,"internal_node_id":"0.0-5.0-92.0"},{"group":"hexagon_tri","fractal_assignment":["../images/gry_blk.png","../images/cyn_red.png","../images/ylw_slt.png","../images/blu_wht.png","../images/pnk_blu.png","../images/org_blu.png"],"mutagen_generator_assignment":[0,1],"goal":4,"start":3,"action_noise":0.2,"location_history":"[3,2,1,5,4]","action_history":"[0,0,1,0]","mutagen_history":"[0,0,1,0]","location_rts":"[1542,880,618,510]","trial_type":"fractal-mutation","trial_index":197,"time_elapsed":5693142,"internal_node_id":"0.0-5.0-93.0"},{"group":"hexagon_tri","fractal_assignment":["../images/gry_blk.png","../images/cyn_red.png","../images/ylw_slt.png","../images/blu_wht.png","../images/pnk_blu.png","../images/org_blu.png"],"mutagen_generator_assignment":[0,1],"goal":2,"start":4,"action_noise":0.2,"location_history":"[4,2]","action_history":"[0]","mutagen_history":"[0]","location_rts":"[1109]","trial_type":"fractal-mutation","trial_index":198,"time_elapsed":5698784,"internal_node_id":"0.0-5.0-94.0"},{"group":"hexagon_tri","fractal_assignment":["../images/gry_blk.png","../images/cyn_red.png","../images/ylw_slt.png","../images/blu_wht.png","../images/pnk_blu.png","../images/org_blu.png"],"mutagen_generator_assignment":[0,1],"goal":4,"start":2,"action_noise":0.2,"location_history":"[2,3,2,3,4]","action_history":"[1,0,1,0]","mutagen_history":"[1,0,1,0]","location_rts":"[1756,603,829,491]","trial_type":"fractal-mutation","trial_index":199,"time_elapsed":5710148,"internal_node_id":"0.0-5.0-95.0"},{"group":"hexagon_tri","fractal_assignment":["../images/gry_blk.png","../images/cyn_red.png","../images/ylw_slt.png","../images/blu_wht.png","../images/pnk_blu.png","../images/org_blu.png"],"mutagen_generator_assignment":[0,1],"goal":0,"start":4,"action_noise":0.2,"location_history":"[4,0]","action_history":"[0]","mutagen_history":"[0]","location_rts":"[1747]","trial_type":"fractal-mutation","trial_index":200,"time_elapsed":5716432,"internal_node_id":"0.0-5.0-96.0"},{"group":"hexagon_tri","fractal_assignment":["../images/gry_blk.png","../images/cyn_red.png","../images/ylw_slt.png","../images/blu_wht.png","../images/pnk_blu.png","../images/org_blu.png"],"mutagen_generator_assignment":[0,1],"goal":5,"start":0,"action_noise":0.2,"location_history":"[0,5]","action_history":"[0]","mutagen_history":"[0]","location_rts":"[956]","trial_type":"fractal-mutation","trial_index":201,"time_elapsed":5721987,"internal_node_id":"0.0-5.0-97.0"},{"group":"hexagon_tri","fractal_assignment":["../images/gry_blk.png","../images/cyn_red.png","../images/ylw_slt.png","../images/blu_wht.png","../images/pnk_blu.png","../images/org_blu.png"],"mutagen_generator_assignment":[0,1],"goal":1,"start":5,"action_noise":0.2,"location_history":"[5,0,1]","action_history":"[1,0]","mutagen_history":"[1,0]","location_rts":"[1675,687]","trial_type":"fractal-mutation","trial_index":202,"time_elapsed":5729950,"internal_node_id":"0.0-5.0-98.0"},{"group":"hexagon_tri","fractal_assignment":["../images/gry_blk.png","../images/cyn_red.png","../images/ylw_slt.png","../images/blu_wht.png","../images/pnk_blu.png","../images/org_blu.png"],"mutagen_generator_assignment":[0,1],"goal":3,"start":1,"action_noise":0.2,"location_history":"[1,5,0,5,4,0,5,4,0,1,5,0,1,3]","action_history":"[0,1,0,0,0,0,1,0,1,1,1,1,0]","mutagen_history":"[0,1,0,0,0,0,1,0,1,1,1,1,0]","location_rts":"[1284,887,590,838,1016,767,551,591,675,647,614,1022,529]","trial_type":"fractal-mutation","trial_index":203,"time_elapsed":5757024,"internal_node_id":"0.0-5.0-99.0"},{"view_history":"[{\"page_index\":0,\"viewing_time\":49435}]","rt":49435,"trial_type":"instructions","trial_index":204,"time_elapsed":5807459,"internal_node_id":"0.0-6.0"},{"rt":21504,"responses":"{\"Q0\":\"Interesting, fun survey.\"}","trial_type":"survey-text","trial_index":205,"time_elapsed":5829972,"internal_node_id":"0.0-7.0"}]