[{"view_history":"[{\"page_index\":0,\"viewing_time\":1840},{\"page_index\":1,\"viewing_time\":7576},{\"page_index\":2,\"viewing_time\":2033},{\"page_index\":3,\"viewing_time\":2483}]","rt":13933,"trial_type":"instructions","trial_index":0,"time_elapsed":13934,"internal_node_id":"0.0-0.0"},{"view_history":"[{\"page_index\":0,\"viewing_time\":897},{\"page_index\":1,\"viewing_time\":3540}]","rt":4438,"trial_type":"instructions","trial_index":1,"time_elapsed":19378,"internal_node_id":"0.0-1.0"},{"group":"hexagon_bi","room_assignment":["red","blue","yellow","grey","purple","green"],"door_color_assignment":["black","white"],"door_generator_assignment":[1,0],"goal":4,"start":0,"action_noise":0.2,"location_history":"[0,5,0,1,2,3,4]","action_history":"[1,1,1,1,1,1]","door_history":"[0,0,0,0,0,0]","location_rts":"[2269,823,653,637,469,681]","trial_type":"two-door-navigation","trial_index":2,"time_elapsed":34738,"internal_node_id":"0.0-2.0-0.0"},{"group":"hexagon_bi","room_assignment":["red","blue","yellow","grey","purple","green"],"door_color_assignment":["black","white"],"door_generator_assignment":[1,0],"goal":3,"start":4,"action_noise":0.2,"location_history":"[4,3]","action_history":"[0]","door_history":"[1]","location_rts":"[2057]","trial_type":"two-door-navigation","trial_index":3,"time_elapsed":41378,"internal_node_id":"0.0-2.0-1.0"},{"group":"hexagon_bi","room_assignment":["red","blue","yellow","grey","purple","green"],"door_color_assignment":["black","white"],"door_generator_assignment":[1,0],"goal":5,"start":3,"action_noise":0.2,"location_history":"[3,2,3,4,5]","action_history":"[1,1,1,1]","door_history":"[0,0,0,0]","location_rts":"[3109,462,236,327]","trial_type":"two-door-navigation","trial_index":4,"time_elapsed":53240,"internal_node_id":"0.0-2.0-2.0"},{"group":"hexagon_bi","room_assignment":["red","blue","yellow","grey","purple","green"],"door_color_assignment":["black","white"],"door_generator_assignment":[1,0],"goal":2,"start":5,"action_noise":0.2,"location_history":"[5,0,1,2]","action_history":"[1,1,1]","door_history":"[0,0,0]","location_rts":"[1248,280,243]","trial_type":"two-door-navigation","trial_index":5,"time_elapsed":61680,"internal_node_id":"0.0-2.0-3.0"},{"group":"hexagon_bi","room_assignment":["red","blue","yellow","grey","purple","green"],"door_color_assignment":["black","white"],"door_generator_assignment":[1,0],"goal":1,"start":2,"action_noise":0.2,"location_history":"[2,3,4,5,4,5,0,1]","action_history":"[1,1,1,1,1,1,1]","door_history":"[0,0,0,0,0,0,0]","location_rts":"[1207,198,77,197,137,149,218]","trial_type":"two-door-navigation","trial_index":6,"time_elapsed":74729,"internal_node_id":"0.0-2.0-4.0"},{"group":"hexagon_bi","room_assignment":["red","blue","yellow","grey","purple","green"],"door_color_assignment":["black","white"],"door_generator_assignment":[1,0],"goal":4,"start":1,"action_noise":0.2,"location_history":"[1,0,1,0,1,0,1,0,1,2,3,2,3,2,1,0,5,4]","action_history":"[1,1,1,1,1,1,1,1,1,1,1,1,1,1,1,1,1]","door_history":"[0,0,0,0,0,0,0,0,0,0,0,0,0,0,0,0,0]","location_rts":"[824,78,234,16,150,98,85,180,73,89,59,418,18,1727,1032,360,311]","trial_type":"two-door-navigation","trial_index":7,"time_elapsed":101830,"internal_node_id":"0.0-2.0-5.0"},{"group":"hexagon_bi","room_assignment":["red","blue","yellow","grey","purple","green"],"door_color_assignment":["black","white"],"door_generator_assignment":[1,0],"goal":1,"start":4,"action_noise":0.2,"location_history":"[4,3,2,3,2,3,4,5,4,5,4,5,4,3,4,5,4,3,2,3,2,1]","action_history":"[1,1,1,1,1,0,1,1,1,1,1,1,0,1,1,1,1,1,1,1,1]","door_history":"[0,0,0,0,0,1,0,0,0,0,0,0,1,0,0,0,0,0,0,0,0]","location_rts":"[1565,243,247,38,152,767,25,280,247,132,95,170,775,68,99,231,166,84,110,319,119]","trial_type":"two-door-navigation","trial_index":8,"time_elapsed":133273,"internal_node_id":"0.0-2.0-6.0"},{"group":"hexagon_bi","room_assignment":["red","blue","yellow","grey","purple","green"],"door_color_assignment":["black","white"],"door_generator_assignment":[1,0],"goal":5,"start":1,"action_noise":0.2,"location_history":"[1,2,1,2,3,4,5]","action_history":"[1,1,1,1,1,1]","door_history":"[0,0,0,0,0,0]","location_rts":"[1327,71,196,235,178,179]","trial_type":"two-door-navigation","trial_index":9,"time_elapsed":145215,"internal_node_id":"0.0-2.0-7.0"},{"group":"hexagon_bi","room_assignment":["red","blue","yellow","grey","purple","green"],"door_color_assignment":["black","white"],"door_generator_assignment":[1,0],"goal":0,"start":5,"action_noise":0.2,"location_history":"[5,4,3,2,3,2,3,4,3,4,5,0]","action_history":"[1,1,1,1,1,1,0,1,1,1,1]","door_history":"[0,0,0,0,0,0,1,0,0,0,0]","location_rts":"[263,115,180,101,197,458,454,178,231,164,376]","trial_type":"two-door-navigation","trial_index":10,"time_elapsed":162948,"internal_node_id":"0.0-2.0-8.0"},{"group":"hexagon_bi","room_assignment":["red","blue","yellow","grey","purple","green"],"door_color_assignment":["black","white"],"door_generator_assignment":[1,0],"goal":2,"start":0,"action_noise":0.2,"location_history":"[0,1,2]","action_history":"[1,1]","door_history":"[0,0]","location_rts":"[1117,145]","trial_type":"two-door-navigation","trial_index":11,"time_elapsed":169819,"internal_node_id":"0.0-2.0-9.0"},{"group":"hexagon_bi","room_assignment":["red","blue","yellow","grey","purple","green"],"door_color_assignment":["black","white"],"door_generator_assignment":[1,0],"goal":3,"start":2,"action_noise":0.2,"location_history":"[2,1,0,1,0,1,2,3]","action_history":"[1,1,1,1,1,1,1]","door_history":"[0,0,0,0,0,0,0]","location_rts":"[467,304,95,64,113,70,94]","trial_type":"two-door-navigation","trial_index":12,"time_elapsed":181860,"internal_node_id":"0.0-2.0-10.0"},{"group":"hexagon_bi","room_assignment":["red","blue","yellow","grey","purple","green"],"door_color_assignment":["black","white"],"door_generator_assignment":[1,0],"goal":0,"start":3,"action_noise":0.2,"location_history":"[3,2,3,2,1,0]","action_history":"[1,1,1,0,1]","door_history":"[0,0,0,1,0]","location_rts":"[460,198,198,1006,167]","trial_type":"two-door-navigation","trial_index":13,"time_elapsed":192677,"internal_node_id":"0.0-2.0-11.0"},{"group":"hexagon_bi","room_assignment":["red","blue","yellow","grey","purple","green"],"door_color_assignment":["black","white"],"door_generator_assignment":[1,0],"goal":2,"start":0,"action_noise":0.2,"location_history":"[0,1,0,1,0,1,0,1,0,5,4,3,2]","action_history":"[1,1,1,0,1,1,0,1,1,1,1,1]","door_history":"[0,0,0,1,0,0,1,0,0,0,0,0]","location_rts":"[483,336,190,527,111,303,1711,277,141,98,210,122]","trial_type":"two-door-navigation","trial_index":14,"time_elapsed":213296,"internal_node_id":"0.0-2.0-12.0"},{"group":"hexagon_bi","room_assignment":["red","blue","yellow","grey","purple","green"],"door_color_assignment":["black","white"],"door_generator_assignment":[1,0],"goal":5,"start":2,"action_noise":0.2,"location_history":"[2,3,2,3,2,3,4,5]","action_history":"[1,1,1,1,1,0,1]","door_history":"[0,0,0,0,0,1,0]","location_rts":"[832,263,232,222,279,249,173]","trial_type":"two-door-navigation","trial_index":15,"time_elapsed":226408,"internal_node_id":"0.0-2.0-13.0"},{"group":"hexagon_bi","room_assignment":["red","blue","yellow","grey","purple","green"],"door_color_assignment":["black","white"],"door_generator_assignment":[1,0],"goal":4,"start":5,"action_noise":0.2,"location_history":"[5,4]","action_history":"[1]","door_history":"[0]","location_rts":"[263]","trial_type":"two-door-navigation","trial_index":16,"time_elapsed":231235,"internal_node_id":"0.0-2.0-14.0"},{"group":"hexagon_bi","room_assignment":["red","blue","yellow","grey","purple","green"],"door_color_assignment":["black","white"],"door_generator_assignment":[1,0],"goal":3,"start":4,"action_noise":0.2,"location_history":"[4,5,4,5,4,3]","action_history":"[1,1,1,1,0]","door_history":"[0,0,0,0,1]","location_rts":"[1041,359,273,362,281]","trial_type":"two-door-navigation","trial_index":17,"time_elapsed":242320,"internal_node_id":"0.0-2.0-15.0"},{"group":"hexagon_bi","room_assignment":["red","blue","yellow","grey","purple","green"],"door_color_assignment":["black","white"],"door_generator_assignment":[1,0],"goal":1,"start":3,"action_noise":0.2,"location_history":"[3,2,3,4,5,4,3,2,3,2,3,4,3,2,1]","action_history":"[1,1,0,1,1,1,1,1,1,1,1,0,1,1]","door_history":"[0,0,1,0,0,0,0,0,0,0,0,1,0,0]","location_rts":"[920,181,796,170,264,305,174,62,297,198,19,256,240,108]","trial_type":"two-door-navigation","trial_index":18,"time_elapsed":264484,"internal_node_id":"0.0-2.0-16.0"},{"group":"hexagon_bi","room_assignment":["red","blue","yellow","grey","purple","green"],"door_color_assignment":["black","white"],"door_generator_assignment":[1,0],"goal":5,"start":1,"action_noise":0.2,"location_history":"[1,2,3,2,3,4,3,2,3,2,1,0,1,0,5]","action_history":"[1,1,1,1,0,1,1,1,1,0,1,1,1,1]","door_history":"[0,0,0,0,1,0,0,0,0,1,0,0,0,0]","location_rts":"[1053,354,181,147,550,140,476,92,10,775,51,140,109,103]","trial_type":"two-door-navigation","trial_index":19,"time_elapsed":286845,"internal_node_id":"0.0-2.0-17.0"},{"group":"hexagon_bi","room_assignment":["red","blue","yellow","grey","purple","green"],"door_color_assignment":["black","white"],"door_generator_assignment":[1,0],"goal":4,"start":5,"action_noise":0.2,"location_history":"[5,4]","action_history":"[1]","door_history":"[0]","location_rts":"[857]","trial_type":"two-door-navigation","trial_index":20,"time_elapsed":292259,"internal_node_id":"0.0-2.0-18.0"},{"group":"hexagon_bi","room_assignment":["red","blue","yellow","grey","purple","green"],"door_color_assignment":["black","white"],"door_generator_assignment":[1,0],"goal":0,"start":4,"action_noise":0.2,"location_history":"[4,5,4,5,0]","action_history":"[1,1,1,0]","door_history":"[0,0,0,1]","location_rts":"[845,247,248,363]","trial_type":"two-door-navigation","trial_index":21,"time_elapsed":301661,"internal_node_id":"0.0-2.0-19.0"},{"group":"hexagon_bi","room_assignment":["red","blue","yellow","grey","purple","green"],"door_color_assignment":["black","white"],"door_generator_assignment":[1,0],"goal":1,"start":0,"action_noise":0.2,"location_history":"[0,1]","action_history":"[1]","door_history":"[0]","location_rts":"[1231]","trial_type":"two-door-navigation","trial_index":22,"time_elapsed":307457,"internal_node_id":"0.0-2.0-20.0"},{"group":"hexagon_bi","room_assignment":["red","blue","yellow","grey","purple","green"],"door_color_assignment":["black","white"],"door_generator_assignment":[1,0],"goal":3,"start":1,"action_noise":0.2,"location_history":"[1,2,3]","action_history":"[1,1]","door_history":"[0,0]","location_rts":"[849,726]","trial_type":"two-door-navigation","trial_index":23,"time_elapsed":314639,"internal_node_id":"0.0-2.0-21.0"},{"group":"hexagon_bi","room_assignment":["red","blue","yellow","grey","purple","green"],"door_color_assignment":["black","white"],"door_generator_assignment":[1,0],"goal":2,"start":3,"action_noise":0.2,"location_history":"[3,2]","action_history":"[1]","door_history":"[0]","location_rts":"[779]","trial_type":"two-door-navigation","trial_index":24,"time_elapsed":319973,"internal_node_id":"0.0-2.0-22.0"},{"group":"hexagon_bi","room_assignment":["red","blue","yellow","grey","purple","green"],"door_color_assignment":["black","white"],"door_generator_assignment":[1,0],"goal":0,"start":2,"action_noise":0.2,"location_history":"[2,1,2,3,4,5,4,5,4,3,2,3,2,1,2,3,4,5,4,5,0]","action_history":"[1,1,1,1,1,1,1,1,1,1,1,1,1,0,1,1,1,1,1,1]","door_history":"[0,0,0,0,0,0,0,0,0,0,0,0,0,1,0,0,0,0,0,0]","location_rts":"[1296,315,290,330,348,210,221,282,225,548,330,161,808,233,425,260,722,275,125,214]","trial_type":"two-door-navigation","trial_index":25,"time_elapsed":352122,"internal_node_id":"0.0-2.0-23.0"},{"group":"hexagon_bi","room_assignment":["red","blue","yellow","grey","purple","green"],"door_color_assignment":["black","white"],"door_generator_assignment":[1,0],"goal":3,"start":0,"action_noise":0.2,"location_history":"[0,1,0,1,2,3]","action_history":"[1,1,1,0,1]","door_history":"[0,0,0,1,0]","location_rts":"[301,434,562,613,382]","trial_type":"two-door-navigation","trial_index":26,"time_elapsed":363171,"internal_node_id":"0.0-2.0-24.0"},{"group":"hexagon_bi","room_assignment":["red","blue","yellow","grey","purple","green"],"door_color_assignment":["black","white"],"door_generator_assignment":[1,0],"goal":1,"start":3,"action_noise":0.2,"location_history":"[3,4,5,0,1]","action_history":"[1,1,1,1]","door_history":"[0,0,0,0]","location_rts":"[427,79,107,76]","trial_type":"two-door-navigation","trial_index":27,"time_elapsed":371580,"internal_node_id":"0.0-2.0-25.0"},{"group":"hexagon_bi","room_assignment":["red","blue","yellow","grey","purple","green"],"door_color_assignment":["black","white"],"door_generator_assignment":[1,0],"goal":2,"start":1,"action_noise":0.2,"location_history":"[1,0,1,2]","action_history":"[1,1,1]","door_history":"[0,0,0]","location_rts":"[474,296,336]","trial_type":"two-door-navigation","trial_index":28,"time_elapsed":379347,"internal_node_id":"0.0-2.0-26.0"},{"group":"hexagon_bi","room_assignment":["red","blue","yellow","grey","purple","green"],"door_color_assignment":["black","white"],"door_generator_assignment":[1,0],"goal":5,"start":2,"action_noise":0.2,"location_history":"[2,3,2,3,4,5]","action_history":"[1,1,1,0,1]","door_history":"[0,0,0,1,0]","location_rts":"[294,194,123,641,22]","trial_type":"two-door-navigation","trial_index":29,"time_elapsed":389325,"internal_node_id":"0.0-2.0-27.0"},{"group":"hexagon_bi","room_assignment":["red","blue","yellow","grey","purple","green"],"door_color_assignment":["black","white"],"door_generator_assignment":[1,0],"goal":4,"start":5,"action_noise":0.2,"location_history":"[5,4]","action_history":"[1]","door_history":"[0]","location_rts":"[751]","trial_type":"two-door-navigation","trial_index":30,"time_elapsed":394632,"internal_node_id":"0.0-2.0-28.0"},{"group":"hexagon_bi","room_assignment":["red","blue","yellow","grey","purple","green"],"door_color_assignment":["black","white"],"door_generator_assignment":[1,0],"goal":5,"start":4,"action_noise":0.2,"location_history":"[4,5]","action_history":"[1]","door_history":"[0]","location_rts":"[649]","trial_type":"two-door-navigation","trial_index":31,"time_elapsed":399846,"internal_node_id":"0.0-2.0-29.0"},{"group":"hexagon_bi","room_assignment":["red","blue","yellow","grey","purple","green"],"door_color_assignment":["black","white"],"door_generator_assignment":[1,0],"goal":3,"start":5,"action_noise":0.2,"location_history":"[5,4,5,0,5,4,5,4,3]","action_history":"[1,1,0,1,1,1,1,0]","door_history":"[0,0,1,0,0,0,0,1]","location_rts":"[1686,637,1351,378,334,1001,524,385]","trial_type":"two-door-navigation","trial_index":32,"time_elapsed":418038,"internal_node_id":"0.0-2.0-30.0"},{"group":"hexagon_bi","room_assignment":["red","blue","yellow","grey","purple","green"],"door_color_assignment":["black","white"],"door_generator_assignment":[1,0],"goal":0,"start":3,"action_noise":0.2,"location_history":"[3,2,3,2,3,2,1,0]","action_history":"[1,1,1,1,0,1,1]","door_history":"[0,0,0,0,1,0,0]","location_rts":"[1340,493,181,355,223,54,235]","trial_type":"two-door-navigation","trial_index":33,"time_elapsed":431760,"internal_node_id":"0.0-2.0-31.0"},{"group":"hexagon_bi","room_assignment":["red","blue","yellow","grey","purple","green"],"door_color_assignment":["black","white"],"door_generator_assignment":[1,0],"goal":4,"start":0,"action_noise":0.2,"location_history":"[0,1,0,1,0,5,4]","action_history":"[1,1,1,0,1,1]","door_history":"[0,0,0,1,0,0]","location_rts":"[645,390,67,458,99,237]","trial_type":"two-door-navigation","trial_index":34,"time_elapsed":443454,"internal_node_id":"0.0-2.0-32.0"},{"group":"hexagon_bi","room_assignment":["red","blue","yellow","grey","purple","green"],"door_color_assignment":["black","white"],"door_generator_assignment":[1,0],"goal":1,"start":4,"action_noise":0.2,"location_history":"[4,5,4,5,0,1]","action_history":"[1,1,1,0,1]","door_history":"[0,0,0,1,0]","location_rts":"[370,158,75,284,147]","trial_type":"two-door-navigation","trial_index":35,"time_elapsed":453213,"internal_node_id":"0.0-2.0-33.0"},{"group":"hexagon_bi","room_assignment":["red","blue","yellow","grey","purple","green"],"door_color_assignment":["black","white"],"door_generator_assignment":[1,0],"goal":2,"start":1,"action_noise":0.2,"location_history":"[1,0,5,4,5,4,5,4,5,0,1,0,1,0,1,2]","action_history":"[1,1,1,1,1,0,1,1,0,1,1,1,1,1,0]","door_history":"[0,0,0,0,0,1,0,0,1,0,0,0,0,0,1]","location_rts":"[671,143,748,327,259,427,109,105,364,102,328,215,82,232,576]","trial_type":"two-door-navigation","trial_index":36,"time_elapsed":477109,"internal_node_id":"0.0-2.0-34.0"},{"group":"hexagon_bi","room_assignment":["red","blue","yellow","grey","purple","green"],"door_color_assignment":["black","white"],"door_generator_assignment":[1,0],"goal":0,"start":2,"action_noise":0.2,"location_history":"[2,3,4,3,4,5,4,5,0]","action_history":"[1,1,0,1,1,1,1,0]","door_history":"[0,0,1,0,0,0,0,1]","location_rts":"[590,989,1074,157,171,860,28,390]","trial_type":"two-door-navigation","trial_index":37,"time_elapsed":493235,"internal_node_id":"0.0-2.0-35.0"},{"group":"hexagon_bi","room_assignment":["red","blue","yellow","grey","purple","green"],"door_color_assignment":["black","white"],"door_generator_assignment":[1,0],"goal":5,"start":0,"action_noise":0.2,"location_history":"[0,1,0,5]","action_history":"[1,1,0]","door_history":"[0,0,1]","location_rts":"[249,370,803]","trial_type":"two-door-navigation","trial_index":38,"time_elapsed":501295,"internal_node_id":"0.0-2.0-36.0"},{"group":"hexagon_bi","room_assignment":["red","blue","yellow","grey","purple","green"],"door_color_assignment":["black","white"],"door_generator_assignment":[1,0],"goal":2,"start":5,"action_noise":0.2,"location_history":"[5,4,5,0,1,0,5,4,5,4,3,2]","action_history":"[1,1,0,1,1,1,1,1,1,0,1]","door_history":"[0,0,1,0,0,0,0,0,0,1,0]","location_rts":"[1514,677,328,238,413,318,2052,424,310,813,15582]","trial_type":"two-door-navigation","trial_index":39,"time_elapsed":538935,"internal_node_id":"0.0-2.0-37.0"},{"group":"hexagon_bi","room_assignment":["red","blue","yellow","grey","purple","green"],"door_color_assignment":["black","white"],"door_generator_assignment":[1,0],"goal":1,"start":2,"action_noise":0.2,"location_history":"[2,3,2,3,2,1]","action_history":"[1,1,1,1,0]","door_history":"[0,0,0,0,1]","location_rts":"[1444,156,149,633,735]","trial_type":"two-door-navigation","trial_index":40,"time_elapsed":550802,"internal_node_id":"0.0-2.0-38.0"},{"group":"hexagon_bi","room_assignment":["red","blue","yellow","grey","purple","green"],"door_color_assignment":["black","white"],"door_generator_assignment":[1,0],"goal":4,"start":1,"action_noise":0.2,"location_history":"[1,0,1,0,5,0,1,2,3,2,3,2,1,2,3,4]","action_history":"[1,1,1,0,1,0,1,1,1,1,1,0,1,1,0]","door_history":"[0,0,0,1,0,1,0,0,0,0,0,1,0,0,1]","location_rts":"[701,78,220,906,100,1393,612,87,95,15,120,1072,156,158,631]","trial_type":"two-door-navigation","trial_index":41,"time_elapsed":576354,"internal_node_id":"0.0-2.0-39.0"},{"group":"hexagon_bi","room_assignment":["red","blue","yellow","grey","purple","green"],"door_color_assignment":["black","white"],"door_generator_assignment":[1,0],"goal":3,"start":4,"action_noise":0.2,"location_history":"[4,3]","action_history":"[0]","door_history":"[1]","location_rts":"[12792]","trial_type":"two-door-navigation","trial_index":42,"time_elapsed":593693,"internal_node_id":"0.0-2.0-40.0"},{"group":"hexagon_bi","room_assignment":["red","blue","yellow","grey","purple","green"],"door_color_assignment":["black","white"],"door_generator_assignment":[1,0],"goal":5,"start":3,"action_noise":0.2,"location_history":"[3,2,1,0,5]","action_history":"[1,0,1,1]","door_history":"[0,1,0,0]","location_rts":"[2115,979,221,37]","trial_type":"two-door-navigation","trial_index":43,"time_elapsed":604750,"internal_node_id":"0.0-2.0-41.0"},{"group":"hexagon_bi","room_assignment":["red","blue","yellow","grey","purple","green"],"door_color_assignment":["black","white"],"door_generator_assignment":[1,0],"goal":3,"start":5,"action_noise":0.2,"location_history":"[5,0,1,2,1,2,3]","action_history":"[1,1,1,0,0,1]","door_history":"[0,0,0,1,1,0]","location_rts":"[1794,151,643,725,1050,1189]","trial_type":"two-door-navigation","trial_index":44,"time_elapsed":620121,"internal_node_id":"0.0-2.0-42.0"},{"group":"hexagon_bi","room_assignment":["red","blue","yellow","grey","purple","green"],"door_color_assignment":["black","white"],"door_generator_assignment":[1,0],"goal":0,"start":3,"action_noise":0.2,"location_history":"[3,2,3,2,3,4,5,0]","action_history":"[1,1,1,1,1,1,0]","door_history":"[0,0,0,0,0,0,1]","location_rts":"[512,679,174,379,71,980,397]","trial_type":"two-door-navigation","trial_index":45,"time_elapsed":634140,"internal_node_id":"0.0-2.0-43.0"},{"group":"hexagon_bi","room_assignment":["red","blue","yellow","grey","purple","green"],"door_color_assignment":["black","white"],"door_generator_assignment":[1,0],"goal":2,"start":0,"action_noise":0.2,"location_history":"[0,1,2]","action_history":"[1,1]","door_history":"[0,0]","location_rts":"[347,515]","trial_type":"two-door-navigation","trial_index":46,"time_elapsed":640615,"internal_node_id":"0.0-2.0-44.0"},{"group":"hexagon_bi","room_assignment":["red","blue","yellow","grey","purple","green"],"door_color_assignment":["black","white"],"door_generator_assignment":[1,0],"goal":4,"start":2,"action_noise":0.2,"location_history":"[2,3,4]","action_history":"[1,0]","door_history":"[0,1]","location_rts":"[1362,203]","trial_type":"two-door-navigation","trial_index":47,"time_elapsed":647783,"internal_node_id":"0.0-2.0-45.0"},{"group":"hexagon_bi","room_assignment":["red","blue","yellow","grey","purple","green"],"door_color_assignment":["black","white"],"door_generator_assignment":[1,0],"goal":1,"start":4,"action_noise":0.2,"location_history":"[4,5,4,5,0,1]","action_history":"[1,1,1,0,1]","door_history":"[0,0,0,1,0]","location_rts":"[1288,143,396,115,326]","trial_type":"two-door-navigation","trial_index":48,"time_elapsed":658774,"internal_node_id":"0.0-2.0-46.0"},{"group":"hexagon_bi","room_assignment":["red","blue","yellow","grey","purple","green"],"door_color_assignment":["black","white"],"door_generator_assignment":[1,0],"goal":4,"start":1,"action_noise":0.2,"location_history":"[1,0,5,0,5,0,1,0,1,0,5,0,5,0,5,4]","action_history":"[1,1,1,1,1,1,1,1,1,0,1,0,0,0,1]","door_history":"[0,0,0,0,0,0,0,0,0,1,0,1,1,1,0]","location_rts":"[845,93,355,905,201,407,881,810,723,419,261,1036,305,1282,322]","trial_type":"two-door-navigation","trial_index":49,"time_elapsed":686853,"internal_node_id":"0.0-2.0-47.0"},{"group":"hexagon_bi","room_assignment":["red","blue","yellow","grey","purple","green"],"door_color_assignment":["black","white"],"door_generator_assignment":[1,0],"goal":1,"start":4,"action_noise":0.2,"location_history":"[4,5,4,5,4,5,0,1]","action_history":"[1,1,0,1,1,0,1]","door_history":"[0,0,1,0,0,1,0]","location_rts":"[2634,853,1010,206,92,424,52]","trial_type":"two-door-navigation","trial_index":50,"time_elapsed":702958,"internal_node_id":"0.0-2.0-48.0"},{"group":"hexagon_bi","room_assignment":["red","blue","yellow","grey","purple","green"],"door_color_assignment":["black","white"],"door_generator_assignment":[1,0],"goal":3,"start":1,"action_noise":0.2,"location_history":"[1,0,1,2,3]","action_history":"[1,1,0,1]","door_history":"[0,0,1,0]","location_rts":"[1935,439,1093,243]","trial_type":"two-door-navigation","trial_index":51,"time_elapsed":714364,"internal_node_id":"0.0-2.0-49.0"},{"group":"hexagon_bi","room_assignment":["red","blue","yellow","grey","purple","green"],"door_color_assignment":["black","white"],"door_generator_assignment":[1,0],"goal":5,"start":3,"action_noise":0.2,"location_history":"[3,2,3,4,5]","action_history":"[1,0,1,1]","door_history":"[0,1,0,0]","location_rts":"[1543,862,198,960]","trial_type":"two-door-navigation","trial_index":52,"time_elapsed":725624,"internal_node_id":"0.0-2.0-50.0"},{"group":"hexagon_bi","room_assignment":["red","blue","yellow","grey","purple","green"],"door_color_assignment":["black","white"],"door_generator_assignment":[1,0],"goal":0,"start":5,"action_noise":0.2,"location_history":"[5,4,5,0]","action_history":"[0,1,0]","door_history":"[1,0,1]","location_rts":"[2500,1945,614]","trial_type":"two-door-navigation","trial_index":53,"time_elapsed":737334,"internal_node_id":"0.0-2.0-51.0"},{"group":"hexagon_bi","room_assignment":["red","blue","yellow","grey","purple","green"],"door_color_assignment":["black","white"],"door_generator_assignment":[1,0],"goal":2,"start":0,"action_noise":0.2,"location_history":"[0,5,4,5,4,5,0,1,2]","action_history":"[1,1,1,1,1,0,1,1]","door_history":"[0,0,0,0,0,1,0,0]","location_rts":"[1574,18,142,54,153,315,145,133]","trial_type":"two-door-navigation","trial_index":54,"time_elapsed":751797,"internal_node_id":"0.0-2.0-52.0"},{"group":"hexagon_bi","room_assignment":["red","blue","yellow","grey","purple","green"],"door_color_assignment":["black","white"],"door_generator_assignment":[1,0],"goal":1,"start":2,"action_noise":0.2,"location_history":"[2,1]","action_history":"[1]","door_history":"[0]","location_rts":"[1166]","trial_type":"two-door-navigation","trial_index":55,"time_elapsed":757516,"internal_node_id":"0.0-2.0-53.0"},{"group":"hexagon_bi","room_assignment":["red","blue","yellow","grey","purple","green"],"door_color_assignment":["black","white"],"door_generator_assignment":[1,0],"goal":2,"start":1,"action_noise":0.2,"location_history":"[1,0,5,0,5,4,3,2]","action_history":"[1,1,1,0,1,0,1]","door_history":"[0,0,0,1,0,1,0]","location_rts":"[525,6,402,883,35,654,4]","trial_type":"two-door-navigation","trial_index":56,"time_elapsed":770873,"internal_node_id":"0.0-2.0-54.0"},{"group":"hexagon_bi","room_assignment":["red","blue","yellow","grey","purple","green"],"door_color_assignment":["black","white"],"door_generator_assignment":[1,0],"goal":5,"start":2,"action_noise":0.2,"location_history":"[2,1,0,5]","action_history":"[1,1,0]","door_history":"[0,0,1]","location_rts":"[2355,374,1125]","trial_type":"two-door-navigation","trial_index":57,"time_elapsed":781352,"internal_node_id":"0.0-2.0-55.0"},{"group":"hexagon_bi","room_assignment":["red","blue","yellow","grey","purple","green"],"door_color_assignment":["black","white"],"door_generator_assignment":[1,0],"goal":4,"start":5,"action_noise":0.2,"location_history":"[5,4]","action_history":"[1]","door_history":"[0]","location_rts":"[950]","trial_type":"two-door-navigation","trial_index":58,"time_elapsed":786855,"internal_node_id":"0.0-2.0-56.0"},{"group":"hexagon_bi","room_assignment":["red","blue","yellow","grey","purple","green"],"door_color_assignment":["black","white"],"door_generator_assignment":[1,0],"goal":3,"start":4,"action_noise":0.2,"location_history":"[4,5,4,5,4,3]","action_history":"[1,1,0,1,0]","door_history":"[0,0,1,0,1]","location_rts":"[1565,417,563,432,937]","trial_type":"two-door-navigation","trial_index":59,"time_elapsed":799557,"internal_node_id":"0.0-2.0-57.0"},{"group":"hexagon_bi","room_assignment":["red","blue","yellow","grey","purple","green"],"door_color_assignment":["black","white"],"door_generator_assignment":[1,0],"goal":0,"start":3,"action_noise":0.2,"location_history":"[3,2,1,0]","action_history":"[1,1,1]","door_history":"[0,0,0]","location_rts":"[6243,57,317]","trial_type":"two-door-navigation","trial_index":60,"time_elapsed":812834,"internal_node_id":"0.0-2.0-58.0"},{"group":"hexagon_bi","room_assignment":["red","blue","yellow","grey","purple","green"],"door_color_assignment":["black","white"],"door_generator_assignment":[1,0],"goal":2,"start":0,"action_noise":0.2,"location_history":"[0,1,2]","action_history":"[1,1]","door_history":"[0,0]","location_rts":"[392,328]","trial_type":"two-door-navigation","trial_index":61,"time_elapsed":819148,"internal_node_id":"0.0-2.0-59.0"},{"group":"hexagon_bi","room_assignment":["red","blue","yellow","grey","purple","green"],"door_color_assignment":["black","white"],"door_generator_assignment":[1,0],"goal":1,"start":2,"action_noise":0.2,"location_history":"[2,3,4,5,4,3,2,3,4,3,4,5,4,5,0,5,4,5,0,1]","action_history":"[1,1,1,1,0,1,1,1,1,0,1,1,1,0,1,1,1,0,1]","door_history":"[0,0,0,0,1,0,0,0,0,1,0,0,0,1,0,0,0,1,0]","location_rts":"[752,207,995,466,418,295,604,108,160,292,104,239,994,113,279,345,326,183,92]","trial_type":"two-door-navigation","trial_index":62,"time_elapsed":849485,"internal_node_id":"0.0-2.0-60.0"},{"group":"hexagon_bi","room_assignment":["red","blue","yellow","grey","purple","green"],"door_color_assignment":["black","white"],"door_generator_assignment":[1,0],"goal":0,"start":1,"action_noise":0.2,"location_history":"[1,0]","action_history":"[1]","door_history":"[0]","location_rts":"[904]","trial_type":"two-door-navigation","trial_index":63,"time_elapsed":854969,"internal_node_id":"0.0-2.0-61.0"},{"group":"hexagon_bi","room_assignment":["red","blue","yellow","grey","purple","green"],"door_color_assignment":["black","white"],"door_generator_assignment":[1,0],"goal":3,"start":0,"action_noise":0.2,"location_history":"[0,1,0,1,2,3]","action_history":"[1,1,1,0,1]","door_history":"[0,0,0,1,0]","location_rts":"[516,109,124,283,466]","trial_type":"two-door-navigation","trial_index":64,"time_elapsed":865240,"internal_node_id":"0.0-2.0-62.0"},{"group":"hexagon_bi","room_assignment":["red","blue","yellow","grey","purple","green"],"door_color_assignment":["black","white"],"door_generator_assignment":[1,0],"goal":5,"start":3,"action_noise":0.2,"location_history":"[3,2,3,4,5]","action_history":"[1,1,0,1]","door_history":"[0,0,1,0]","location_rts":"[1200,232,565,103]","trial_type":"two-door-navigation","trial_index":65,"time_elapsed":875040,"internal_node_id":"0.0-2.0-63.0"},{"group":"hexagon_bi","room_assignment":["red","blue","yellow","grey","purple","green"],"door_color_assignment":["black","white"],"door_generator_assignment":[1,0],"goal":4,"start":5,"action_noise":0.2,"location_history":"[5,4]","action_history":"[1]","door_history":"[0]","location_rts":"[1005]","trial_type":"two-door-navigation","trial_index":66,"time_elapsed":880599,"internal_node_id":"0.0-2.0-64.0"},{"group":"hexagon_bi","room_assignment":["red","blue","yellow","grey","purple","green"],"door_color_assignment":["black","white"],"door_generator_assignment":[1,0],"goal":1,"start":4,"action_noise":0.2,"location_history":"[4,5,0,5,4,5,4,5,0,1]","action_history":"[1,0,1,1,1,0,1,0,1]","door_history":"[0,1,0,0,0,1,0,1,0]","location_rts":"[837,475,205,360,1153,125,204,1016,813]","trial_type":"two-door-navigation","trial_index":67,"time_elapsed":898741,"internal_node_id":"0.0-2.0-65.0"},{"group":"hexagon_bi","room_assignment":["red","blue","yellow","grey","purple","green"],"door_color_assignment":["black","white"],"door_generator_assignment":[1,0],"goal":5,"start":1,"action_noise":0.2,"location_history":"[1,0,1,0,5]","action_history":"[1,1,1,0]","door_history":"[0,0,0,1]","location_rts":"[848,1230,219,215]","trial_type":"two-door-navigation","trial_index":68,"time_elapsed":908948,"internal_node_id":"0.0-2.0-66.0"},{"group":"hexagon_bi","room_assignment":["red","blue","yellow","grey","purple","green"],"door_color_assignment":["black","white"],"door_generator_assignment":[1,0],"goal":2,"start":5,"action_noise":0.2,"location_history":"[5,0,1,0,1,0,1,2]","action_history":"[1,1,1,1,1,1,0]","door_history":"[0,0,0,0,0,0,1]","location_rts":"[943,1349,119,419,77,1848,48]","trial_type":"two-door-navigation","trial_index":69,"time_elapsed":924595,"internal_node_id":"0.0-2.0-67.0"},{"group":"hexagon_bi","room_assignment":["red","blue","yellow","grey","purple","green"],"door_color_assignment":["black","white"],"door_generator_assignment":[1,0],"goal":3,"start":2,"action_noise":0.2,"location_history":"[2,3]","action_history":"[1]","door_history":"[0]","location_rts":"[1647]","trial_type":"two-door-navigation","trial_index":70,"time_elapsed":930804,"internal_node_id":"0.0-2.0-68.0"},{"group":"hexagon_bi","room_assignment":["red","blue","yellow","grey","purple","green"],"door_color_assignment":["black","white"],"door_generator_assignment":[1,0],"goal":4,"start":3,"action_noise":0.2,"location_history":"[3,4]","action_history":"[1]","door_history":"[0]","location_rts":"[1271]","trial_type":"two-door-navigation","trial_index":71,"time_elapsed":936652,"internal_node_id":"0.0-2.0-69.0"},{"group":"hexagon_bi","room_assignment":["red","blue","yellow","grey","purple","green"],"door_color_assignment":["black","white"],"door_generator_assignment":[1,0],"goal":0,"start":4,"action_noise":0.2,"location_history":"[4,5,0]","action_history":"[1,0]","door_history":"[0,1]","location_rts":"[3360,87]","trial_type":"two-door-navigation","trial_index":72,"time_elapsed":945705,"internal_node_id":"0.0-2.0-70.0"},{"group":"hexagon_bi","room_assignment":["red","blue","yellow","grey","purple","green"],"door_color_assignment":["black","white"],"door_generator_assignment":[1,0],"goal":5,"start":0,"action_noise":0.2,"location_history":"[0,1,0,5]","action_history":"[1,1,0]","door_history":"[0,0,1]","location_rts":"[1883,622,529]","trial_type":"two-door-navigation","trial_index":73,"time_elapsed":955392,"internal_node_id":"0.0-2.0-71.0"},{"group":"hexagon_bi","room_assignment":["red","blue","yellow","grey","purple","green"],"door_color_assignment":["black","white"],"door_generator_assignment":[1,0],"goal":0,"start":5,"action_noise":0.2,"location_history":"[5,0]","action_history":"[0]","door_history":"[1]","location_rts":"[1609]","trial_type":"two-door-navigation","trial_index":74,"time_elapsed":961578,"internal_node_id":"0.0-2.0-72.0"},{"group":"hexagon_bi","room_assignment":["red","blue","yellow","grey","purple","green"],"door_color_assignment":["black","white"],"door_generator_assignment":[1,0],"goal":3,"start":0,"action_noise":0.2,"location_history":"[0,1,0,1,2,3]","action_history":"[1,1,1,0,1]","door_history":"[0,0,0,1,0]","location_rts":"[1092,339,13,181,930]","trial_type":"two-door-navigation","trial_index":75,"time_elapsed":972930,"internal_node_id":"0.0-2.0-73.0"},{"group":"hexagon_bi","room_assignment":["red","blue","yellow","grey","purple","green"],"door_color_assignment":["black","white"],"door_generator_assignment":[1,0],"goal":1,"start":3,"action_noise":0.2,"location_history":"[3,2,3,2,3,4,3,4,3,4,3,2,3,2,3,2,1]","action_history":"[0,1,1,1,0,1,0,1,1,0,1,1,1,0,1,1]","door_history":"[1,0,0,0,1,0,1,0,0,1,0,0,0,1,0,0]","location_rts":"[3370,1096,298,810,353,75,707,68,355,312,399,246,263,546,211,184]","trial_type":"two-door-navigation","trial_index":76,"time_elapsed":1002497,"internal_node_id":"0.0-2.0-74.0"},{"group":"hexagon_bi","room_assignment":["red","blue","yellow","grey","purple","green"],"door_color_assignment":["black","white"],"door_generator_assignment":[1,0],"goal":2,"start":1,"action_noise":0.2,"location_history":"[1,0,5,4,3,4,5,0,5,4,3,4,3,2]","action_history":"[1,1,1,1,1,1,0,1,1,1,0,1,1]","door_history":"[0,0,0,0,0,0,1,0,0,0,1,0,0]","location_rts":"[1890,727,287,15,1186,1026,353,97,30,359,1082,555,988]","trial_type":"two-door-navigation","trial_index":77,"time_elapsed":1028240,"internal_node_id":"0.0-2.0-75.0"},{"group":"hexagon_bi","room_assignment":["red","blue","yellow","grey","purple","green"],"door_color_assignment":["black","white"],"door_generator_assignment":[1,0],"goal":4,"start":2,"action_noise":0.2,"location_history":"[2,3,2,3,2,3,2,1,2,1,0,5,4]","action_history":"[1,1,1,0,1,0,0,1,1,1,1,1]","door_history":"[0,0,0,1,0,1,1,0,0,0,0,0]","location_rts":"[1508,446,626,80,302,1028,478,587,214,165,745,398]","trial_type":"two-door-navigation","trial_index":78,"time_elapsed":1050881,"internal_node_id":"0.0-2.0-76.0"},{"group":"hexagon_bi","room_assignment":["red","blue","yellow","grey","purple","green"],"door_color_assignment":["black","white"],"door_generator_assignment":[1,0],"goal":3,"start":4,"action_noise":0.2,"location_history":"[4,5,0,1,0,5,0,5,4,3]","action_history":"[1,1,1,1,1,1,1,1,0]","door_history":"[0,0,0,0,0,0,0,0,1]","location_rts":"[506,225,328,306,157,793,1385,779,544]","trial_type":"two-door-navigation","trial_index":79,"time_elapsed":1068863,"internal_node_id":"0.0-2.0-77.0"},{"group":"hexagon_bi","room_assignment":["red","blue","yellow","grey","purple","green"],"door_color_assignment":["black","white"],"door_generator_assignment":[1,0],"goal":0,"start":3,"action_noise":0.2,"location_history":"[3,2,3,4,5,0]","action_history":"[1,1,0,1,0]","door_history":"[0,0,1,0,1]","location_rts":"[824,1736,761,198,224]","trial_type":"two-door-navigation","trial_index":80,"time_elapsed":1081358,"internal_node_id":"0.0-2.0-78.0"},{"group":"hexagon_bi","room_assignment":["red","blue","yellow","grey","purple","green"],"door_color_assignment":["black","white"],"door_generator_assignment":[1,0],"goal":4,"start":0,"action_noise":0.2,"location_history":"[0,5,4]","action_history":"[0,1]","door_history":"[1,0]","location_rts":"[1742,287]","trial_type":"two-door-navigation","trial_index":81,"time_elapsed":1088988,"internal_node_id":"0.0-2.0-79.0"},{"group":"hexagon_bi","room_assignment":["red","blue","yellow","grey","purple","green"],"door_color_assignment":["black","white"],"door_generator_assignment":[1,0],"goal":5,"start":4,"action_noise":0.2,"location_history":"[4,5]","action_history":"[1]","door_history":"[0]","location_rts":"[1717]","trial_type":"two-door-navigation","trial_index":82,"time_elapsed":1095263,"internal_node_id":"0.0-2.0-80.0"},{"group":"hexagon_bi","room_assignment":["red","blue","yellow","grey","purple","green"],"door_color_assignment":["black","white"],"door_generator_assignment":[1,0],"goal":1,"start":5,"action_noise":0.2,"location_history":"[5,4,5,0,5,4,3,2,3,2,3,2,1]","action_history":"[1,1,0,1,1,1,1,1,1,1,1,1]","door_history":"[0,0,1,0,0,0,0,0,0,0,0,0]","location_rts":"[1467,676,339,251,128,515,1331,500,950,222,49,97]","trial_type":"two-door-navigation","trial_index":83,"time_elapsed":1117887,"internal_node_id":"0.0-2.0-81.0"},{"group":"hexagon_bi","room_assignment":["red","blue","yellow","grey","purple","green"],"door_color_assignment":["black","white"],"door_generator_assignment":[1,0],"goal":2,"start":1,"action_noise":0.2,"location_history":"[1,0,1,0,1,0,1,0,1,2]","action_history":"[1,1,1,1,1,1,1,1,0]","door_history":"[0,0,0,0,0,0,0,0,1]","location_rts":"[1133,271,506,317,336,120,270,185,300]","trial_type":"two-door-navigation","trial_index":84,"time_elapsed":1134276,"internal_node_id":"0.0-2.0-82.0"},{"group":"hexagon_bi","room_assignment":["red","blue","yellow","grey","purple","green"],"door_color_assignment":["black","white"],"door_generator_assignment":[1,0],"goal":4,"start":2,"action_noise":0.2,"location_history":"[2,3,4]","action_history":"[1,1]","door_history":"[0,0]","location_rts":"[1122,1402]","trial_type":"two-door-navigation","trial_index":85,"time_elapsed":1142416,"internal_node_id":"0.0-2.0-83.0"},{"group":"hexagon_bi","room_assignment":["red","blue","yellow","grey","purple","green"],"door_color_assignment":["black","white"],"door_generator_assignment":[1,0],"goal":0,"start":4,"action_noise":0.2,"location_history":"[4,5,0]","action_history":"[1,0]","door_history":"[0,1]","location_rts":"[2049,273]","trial_type":"two-door-navigation","trial_index":86,"time_elapsed":1150341,"internal_node_id":"0.0-2.0-84.0"},{"group":"hexagon_bi","room_assignment":["red","blue","yellow","grey","purple","green"],"door_color_assignment":["black","white"],"door_generator_assignment":[1,0],"goal":5,"start":0,"action_noise":0.2,"location_history":"[0,5]","action_history":"[0]","door_history":"[1]","location_rts":"[1969]","trial_type":"two-door-navigation","trial_index":87,"time_elapsed":1156867,"internal_node_id":"0.0-2.0-85.0"},{"group":"hexagon_bi","room_assignment":["red","blue","yellow","grey","purple","green"],"door_color_assignment":["black","white"],"door_generator_assignment":[1,0],"goal":3,"start":5,"action_noise":0.2,"location_history":"[5,4,5,0,5,4,3]","action_history":"[1,1,1,1,1,0]","door_history":"[0,0,0,0,0,1]","location_rts":"[1020,136,688,875,549,701]","trial_type":"two-door-navigation","trial_index":88,"time_elapsed":1170628,"internal_node_id":"0.0-2.0-86.0"},{"group":"hexagon_bi","room_assignment":["red","blue","yellow","grey","purple","green"],"door_color_assignment":["black","white"],"door_generator_assignment":[1,0],"goal":1,"start":3,"action_noise":0.2,"location_history":"[3,2,1]","action_history":"[1,1]","door_history":"[0,0]","location_rts":"[1377,956]","trial_type":"two-door-navigation","trial_index":89,"time_elapsed":1178576,"internal_node_id":"0.0-2.0-87.0"},{"group":"hexagon_bi","room_assignment":["red","blue","yellow","grey","purple","green"],"door_color_assignment":["black","white"],"door_generator_assignment":[1,0],"goal":2,"start":1,"action_noise":0.2,"location_history":"[1,0,1,2]","action_history":"[1,1,1]","door_history":"[0,0,0]","location_rts":"[2027,258,439]","trial_type":"two-door-navigation","trial_index":90,"time_elapsed":1187947,"internal_node_id":"0.0-2.0-88.0"},{"group":"hexagon_bi","room_assignment":["red","blue","yellow","grey","purple","green"],"door_color_assignment":["black","white"],"door_generator_assignment":[1,0],"goal":0,"start":2,"action_noise":0.2,"location_history":"[2,3,2,1,0]","action_history":"[1,1,0,1]","door_history":"[0,0,1,0]","location_rts":"[1689,929,1038,987]","trial_type":"two-door-navigation","trial_index":91,"time_elapsed":1200283,"internal_node_id":"0.0-2.0-89.0"},{"group":"hexagon_bi","room_assignment":["red","blue","yellow","grey","purple","green"],"door_color_assignment":["black","white"],"door_generator_assignment":[1,0],"goal":5,"start":0,"action_noise":0.2,"location_history":"[0,5]","action_history":"[0]","door_history":"[1]","location_rts":"[1885]","trial_type":"two-door-navigation","trial_index":92,"time_elapsed":1206724,"internal_node_id":"0.0-2.0-90.0"},{"group":"hexagon_bi","room_assignment":["red","blue","yellow","grey","purple","green"],"door_color_assignment":["black","white"],"door_generator_assignment":[1,0],"goal":1,"start":5,"action_noise":0.2,"location_history":"[5,0,5,4,5,4,3,4,5,0,1]","action_history":"[1,1,1,1,1,1,0,1,0,1]","door_history":"[0,0,0,0,0,0,1,0,1,0]","location_rts":"[880,1118,416,610,1450,197,242,72,433,134]","trial_type":"two-door-navigation","trial_index":93,"time_elapsed":1226298,"internal_node_id":"0.0-2.0-91.0"},{"group":"hexagon_bi","room_assignment":["red","blue","yellow","grey","purple","green"],"door_color_assignment":["black","white"],"door_generator_assignment":[1,0],"goal":3,"start":1,"action_noise":0.2,"location_history":"[1,0,1,2,3]","action_history":"[1,1,1,1]","door_history":"[0,0,0,0]","location_rts":"[1033,276,182,1325]","trial_type":"two-door-navigation","trial_index":94,"time_elapsed":1236846,"internal_node_id":"0.0-2.0-92.0"},{"group":"hexagon_bi","room_assignment":["red","blue","yellow","grey","purple","green"],"door_color_assignment":["black","white"],"door_generator_assignment":[1,0],"goal":4,"start":3,"action_noise":0.2,"location_history":"[3,2,3,2,3,2,1,2,1,0,5,4]","action_history":"[1,1,0,1,1,0,1,1,1,1,1]","door_history":"[0,0,1,0,0,1,0,0,0,0,0]","location_rts":"[1094,598,361,278,420,26,243,573,269,662,122]","trial_type":"two-door-navigation","trial_index":95,"time_elapsed":1256567,"internal_node_id":"0.0-2.0-93.0"},{"group":"hexagon_bi","room_assignment":["red","blue","yellow","grey","purple","green"],"door_color_assignment":["black","white"],"door_generator_assignment":[1,0],"goal":2,"start":4,"action_noise":0.2,"location_history":"[4,5,4,5,0,1,0,1,2]","action_history":"[1,1,1,0,1,1,1,1]","door_history":"[0,0,0,1,0,0,0,0]","location_rts":"[1159,609,349,206,47,210,425,224]","trial_type":"two-door-navigation","trial_index":96,"time_elapsed":1271752,"internal_node_id":"0.0-2.0-94.0"},{"group":"hexagon_bi","room_assignment":["red","blue","yellow","grey","purple","green"],"door_color_assignment":["black","white"],"door_generator_assignment":[1,0],"goal":4,"start":2,"action_noise":0.2,"location_history":"[2,3,4]","action_history":"[1,0]","door_history":"[0,1]","location_rts":"[1241,359]","trial_type":"two-door-navigation","trial_index":97,"time_elapsed":1278951,"internal_node_id":"0.0-2.0-95.0"},{"group":"hexagon_bi","room_assignment":["red","blue","yellow","grey","purple","green"],"door_color_assignment":["black","white"],"door_generator_assignment":[1,0],"goal":0,"start":4,"action_noise":0.2,"location_history":"[4,3,4,5,4,5,0]","action_history":"[1,0,1,0,1,0]","door_history":"[0,1,0,1,0,1]","location_rts":"[1519,94,328,357,1006,396]","trial_type":"two-door-navigation","trial_index":98,"time_elapsed":1292419,"internal_node_id":"0.0-2.0-96.0"},{"group":"hexagon_bi","room_assignment":["red","blue","yellow","grey","purple","green"],"door_color_assignment":["black","white"],"door_generator_assignment":[1,0],"goal":5,"start":0,"action_noise":0.2,"location_history":"[0,1,2,1,0,5]","action_history":"[0,0,0,1,0]","door_history":"[1,1,1,0,1]","location_rts":"[1821,2258,785,1355,778]","trial_type":"two-door-navigation","trial_index":99,"time_elapsed":1308110,"internal_node_id":"0.0-2.0-97.0"},{"group":"hexagon_bi","room_assignment":["red","blue","yellow","grey","purple","green"],"door_color_assignment":["black","white"],"door_generator_assignment":[1,0],"goal":1,"start":5,"action_noise":0.2,"location_history":"[5,0,1]","action_history":"[0,1]","door_history":"[1,0]","location_rts":"[3662,158]","trial_type":"two-door-navigation","trial_index":100,"time_elapsed":1317544,"internal_node_id":"0.0-2.0-98.0"},{"group":"hexagon_bi","room_assignment":["red","blue","yellow","grey","purple","green"],"door_color_assignment":["black","white"],"door_generator_assignment":[1,0],"goal":3,"start":1,"action_noise":0.2,"location_history":"[1,0,1,2,3]","action_history":"[1,1,1,1]","door_history":"[0,0,0,0]","location_rts":"[650,21,68,827]","trial_type":"two-door-navigation","trial_index":101,"time_elapsed":1326834,"internal_node_id":"0.0-2.0-99.0"},{"view_history":"[{\"page_index\":0,\"viewing_time\":1404}]","rt":1405,"trial_type":"instructions","trial_index":102,"time_elapsed":1329244,"internal_node_id":"0.0-3.0"},{"view_history":"[{\"page_index\":0,\"viewing_time\":1504},{\"page_index\":1,\"viewing_time\":12479}]","rt":13984,"trial_type":"instructions","trial_index":103,"time_elapsed":1344233,"internal_node_id":"0.0-4.0"},{"group":"hexagon_tri","fractal_assignment":["../images/org_blu.png","../images/ylw_slt.png","../images/pnk_blu.png","../images/gry_blk.png","../images/cyn_red.png","../images/blu_wht.png"],"mutagen_generator_assignment":[0,1],"goal":4,"start":0,"action_noise":0.2,"location_history":"[0,1,5,0,5,4]","action_history":"[1,1,1,0,0]","mutagen_history":"[1,1,1,0,0]","location_rts":"[2446,1284,519,1052,907]","trial_type":"fractal-mutation","trial_index":104,"time_elapsed":1359312,"internal_node_id":"0.0-5.0-0.0"},{"group":"hexagon_tri","fractal_assignment":["../images/org_blu.png","../images/ylw_slt.png","../images/pnk_blu.png","../images/gry_blk.png","../images/cyn_red.png","../images/blu_wht.png"],"mutagen_generator_assignment":[0,1],"goal":3,"start":4,"action_noise":0.2,"location_history":"[4,0,5,0,1,5,4,2,3]","action_history":"[1,1,1,1,1,0,0,0]","mutagen_history":"[1,1,1,1,1,0,0,0]","location_rts":"[1888,266,396,477,277,612,884,559]","trial_type":"fractal-mutation","trial_index":105,"time_elapsed":1376681,"internal_node_id":"0.0-5.0-1.0"},{"group":"hexagon_tri","fractal_assignment":["../images/org_blu.png","../images/ylw_slt.png","../images/pnk_blu.png","../images/gry_blk.png","../images/cyn_red.png","../images/blu_wht.png"],"mutagen_generator_assignment":[0,1],"goal":5,"start":3,"action_noise":0.2,"location_history":"[3,4,0,5]","action_history":"[0,0,0]","mutagen_history":"[0,0,0]","location_rts":"[3168,225,358]","trial_type":"fractal-mutation","trial_index":106,"time_elapsed":1387102,"internal_node_id":"0.0-5.0-2.0"},{"group":"hexagon_tri","fractal_assignment":["../images/org_blu.png","../images/ylw_slt.png","../images/pnk_blu.png","../images/gry_blk.png","../images/cyn_red.png","../images/blu_wht.png"],"mutagen_generator_assignment":[0,1],"goal":2,"start":5,"action_noise":0.2,"location_history":"[5,4,2]","action_history":"[0,0]","mutagen_history":"[0,0]","location_rts":"[690,257]","trial_type":"fractal-mutation","trial_index":107,"time_elapsed":1393674,"internal_node_id":"0.0-5.0-3.0"},{"group":"hexagon_tri","fractal_assignment":["../images/org_blu.png","../images/ylw_slt.png","../images/pnk_blu.png","../images/gry_blk.png","../images/cyn_red.png","../images/blu_wht.png"],"mutagen_generator_assignment":[0,1],"goal":1,"start":2,"action_noise":0.2,"location_history":"[2,1]","action_history":"[0]","mutagen_history":"[0]","location_rts":"[271]","trial_type":"fractal-mutation","trial_index":108,"time_elapsed":1398519,"internal_node_id":"0.0-5.0-4.0"},{"group":"hexagon_tri","fractal_assignment":["../images/org_blu.png","../images/ylw_slt.png","../images/pnk_blu.png","../images/gry_blk.png","../images/cyn_red.png","../images/blu_wht.png"],"mutagen_generator_assignment":[0,1],"goal":4,"start":1,"action_noise":0.2,"location_history":"[1,3,2,1,3,2,1,5,0,5,0,1,5,0,1,3,2,1,3,2,3,2,3,4]","action_history":"[0,0,0,0,0,0,1,0,0,0,1,1,1,1,0,0,0,0,0,1,0,0,1]","mutagen_history":"[0,0,0,0,0,0,1,0,0,0,1,1,1,1,0,0,0,0,0,1,0,0,1]","location_rts":"[1474,671,264,1119,139,36,836,174,678,400,961,447,333,562,400,67,108,70,280,90,101,302,394]","trial_type":"fractal-mutation","trial_index":109,"time_elapsed":1436330,"internal_node_id":"0.0-5.0-5.0"},{"group":"hexagon_tri","fractal_assignment":["../images/org_blu.png","../images/ylw_slt.png","../images/pnk_blu.png","../images/gry_blk.png","../images/cyn_red.png","../images/blu_wht.png"],"mutagen_generator_assignment":[0,1],"goal":1,"start":4,"action_noise":0.2,"location_history":"[4,2,1]","action_history":"[0,0]","mutagen_history":"[0,0]","location_rts":"[1197,110]","trial_type":"fractal-mutation","trial_index":110,"time_elapsed":1443266,"internal_node_id":"0.0-5.0-6.0"},{"group":"hexagon_tri","fractal_assignment":["../images/org_blu.png","../images/ylw_slt.png","../images/pnk_blu.png","../images/gry_blk.png","../images/cyn_red.png","../images/blu_wht.png"],"mutagen_generator_assignment":[0,1],"goal":5,"start":1,"action_noise":0.2,"location_history":"[1,3,2,1,3,4,0,5]","action_history":"[0,0,0,0,0,0,0]","mutagen_history":"[0,0,0,0,0,0,0]","location_rts":"[166,249,984,57,287,502,380]","trial_type":"fractal-mutation","trial_index":111,"time_elapsed":1456809,"internal_node_id":"0.0-5.0-7.0"},{"group":"hexagon_tri","fractal_assignment":["../images/org_blu.png","../images/ylw_slt.png","../images/pnk_blu.png","../images/gry_blk.png","../images/cyn_red.png","../images/blu_wht.png"],"mutagen_generator_assignment":[0,1],"goal":0,"start":5,"action_noise":0.2,"location_history":"[5,4,0]","action_history":"[0,0]","mutagen_history":"[0,0]","location_rts":"[291,202]","trial_type":"fractal-mutation","trial_index":112,"time_elapsed":1462925,"internal_node_id":"0.0-5.0-8.0"},{"group":"hexagon_tri","fractal_assignment":["../images/org_blu.png","../images/ylw_slt.png","../images/pnk_blu.png","../images/gry_blk.png","../images/cyn_red.png","../images/blu_wht.png"],"mutagen_generator_assignment":[0,1],"goal":2,"start":0,"action_noise":0.2,"location_history":"[0,5,4,0,1,5,4,0,5,0,5,0,5,4,2]","action_history":"[0,0,0,1,0,0,0,0,1,0,1,0,0,1]","mutagen_history":"[0,0,0,1,0,0,0,0,1,0,1,0,0,1]","location_rts":"[274,210,238,568,472,376,241,880,984,597,692,347,642,655]","trial_type":"fractal-mutation","trial_index":113,"time_elapsed":1488550,"internal_node_id":"0.0-5.0-9.0"},{"group":"hexagon_tri","fractal_assignment":["../images/org_blu.png","../images/ylw_slt.png","../images/pnk_blu.png","../images/gry_blk.png","../images/cyn_red.png","../images/blu_wht.png"],"mutagen_generator_assignment":[0,1],"goal":3,"start":2,"action_noise":0.2,"location_history":"[2,3]","action_history":"[1]","mutagen_history":"[1]","location_rts":"[2777]","trial_type":"fractal-mutation","trial_index":114,"time_elapsed":1495912,"internal_node_id":"0.0-5.0-10.0"},{"group":"hexagon_tri","fractal_assignment":["../images/org_blu.png","../images/ylw_slt.png","../images/pnk_blu.png","../images/gry_blk.png","../images/cyn_red.png","../images/blu_wht.png"],"mutagen_generator_assignment":[0,1],"goal":0,"start":3,"action_noise":0.2,"location_history":"[3,2,1,3,2,1,3,2,3,2,1,5,0]","action_history":"[1,0,0,0,0,0,0,1,0,0,1,1]","mutagen_history":"[1,0,0,0,0,0,0,1,0,0,1,1]","location_rts":"[1973,215,221,87,36,290,292,253,79,874,121,87]","trial_type":"fractal-mutation","trial_index":115,"time_elapsed":1516673,"internal_node_id":"0.0-5.0-11.0"},{"group":"hexagon_tri","fractal_assignment":["../images/org_blu.png","../images/ylw_slt.png","../images/pnk_blu.png","../images/gry_blk.png","../images/cyn_red.png","../images/blu_wht.png"],"mutagen_generator_assignment":[0,1],"goal":2,"start":0,"action_noise":0.2,"location_history":"[0,1,3,2]","action_history":"[1,0,0]","mutagen_history":"[1,0,0]","location_rts":"[265,604,36]","trial_type":"fractal-mutation","trial_index":116,"time_elapsed":1524278,"internal_node_id":"0.0-5.0-12.0"},{"group":"hexagon_tri","fractal_assignment":["../images/org_blu.png","../images/ylw_slt.png","../images/pnk_blu.png","../images/gry_blk.png","../images/cyn_red.png","../images/blu_wht.png"],"mutagen_generator_assignment":[0,1],"goal":5,"start":2,"action_noise":0.2,"location_history":"[2,1,3,2,1,3,2,3,2,3,2,3,4,2,1,3,4,2,3,2,1,3,4,0,5]","action_history":"[0,0,0,0,0,0,1,0,0,1,1,1,0,0,1,1,1,1,0,0,0,0,0,0]","mutagen_history":"[0,0,0,0,0,0,1,0,0,1,1,1,0,0,1,1,1,1,0,0,0,0,0,0]","location_rts":"[722,230,595,85,652,323,457,301,392,165,93,84,1444,230,251,141,377,531,65,163,43,456,265,296]","trial_type":"fractal-mutation","trial_index":117,"time_elapsed":1561742,"internal_node_id":"0.0-5.0-13.0"},{"group":"hexagon_tri","fractal_assignment":["../images/org_blu.png","../images/ylw_slt.png","../images/pnk_blu.png","../images/gry_blk.png","../images/cyn_red.png","../images/blu_wht.png"],"mutagen_generator_assignment":[0,1],"goal":4,"start":5,"action_noise":0.2,"location_history":"[5,4]","action_history":"[0]","mutagen_history":"[0]","location_rts":"[255]","trial_type":"fractal-mutation","trial_index":118,"time_elapsed":1566558,"internal_node_id":"0.0-5.0-14.0"},{"group":"hexagon_tri","fractal_assignment":["../images/org_blu.png","../images/ylw_slt.png","../images/pnk_blu.png","../images/gry_blk.png","../images/cyn_red.png","../images/blu_wht.png"],"mutagen_generator_assignment":[0,1],"goal":3,"start":4,"action_noise":0.2,"location_history":"[4,0,5,4,0,5,4,2,3]","action_history":"[0,0,0,0,0,0,0,0]","mutagen_history":"[0,0,0,0,0,0,0,0]","location_rts":"[1652,82,26,117,687,94,82,50]","trial_type":"fractal-mutation","trial_index":119,"time_elapsed":1581360,"internal_node_id":"0.0-5.0-15.0"},{"group":"hexagon_tri","fractal_assignment":["../images/org_blu.png","../images/ylw_slt.png","../images/pnk_blu.png","../images/gry_blk.png","../images/cyn_red.png","../images/blu_wht.png"],"mutagen_generator_assignment":[0,1],"goal":1,"start":3,"action_noise":0.2,"location_history":"[3,2,1]","action_history":"[0,0]","mutagen_history":"[0,0]","location_rts":"[1355,26]","trial_type":"fractal-mutation","trial_index":120,"time_elapsed":1588389,"internal_node_id":"0.0-5.0-16.0"},{"group":"hexagon_tri","fractal_assignment":["../images/org_blu.png","../images/ylw_slt.png","../images/pnk_blu.png","../images/gry_blk.png","../images/cyn_red.png","../images/blu_wht.png"],"mutagen_generator_assignment":[0,1],"goal":5,"start":1,"action_noise":0.2,"location_history":"[1,3,2,3,2,1,5]","action_history":"[0,0,0,0,0,1]","mutagen_history":"[0,0,0,0,0,1]","location_rts":"[287,51,180,143,196,122]","trial_type":"fractal-mutation","trial_index":121,"time_elapsed":1599265,"internal_node_id":"0.0-5.0-17.0"},{"group":"hexagon_tri","fractal_assignment":["../images/org_blu.png","../images/ylw_slt.png","../images/pnk_blu.png","../images/gry_blk.png","../images/cyn_red.png","../images/blu_wht.png"],"mutagen_generator_assignment":[0,1],"goal":4,"start":5,"action_noise":0.2,"location_history":"[5,4]","action_history":"[0]","mutagen_history":"[0]","location_rts":"[221]","trial_type":"fractal-mutation","trial_index":122,"time_elapsed":1604054,"internal_node_id":"0.0-5.0-18.0"},{"group":"hexagon_tri","fractal_assignment":["../images/org_blu.png","../images/ylw_slt.png","../images/pnk_blu.png","../images/gry_blk.png","../images/cyn_red.png","../images/blu_wht.png"],"mutagen_generator_assignment":[0,1],"goal":0,"start":4,"action_noise":0.2,"location_history":"[4,0]","action_history":"[0]","mutagen_history":"[0]","location_rts":"[1354]","trial_type":"fractal-mutation","trial_index":123,"time_elapsed":1609982,"internal_node_id":"0.0-5.0-19.0"},{"group":"hexagon_tri","fractal_assignment":["../images/org_blu.png","../images/ylw_slt.png","../images/pnk_blu.png","../images/gry_blk.png","../images/cyn_red.png","../images/blu_wht.png"],"mutagen_generator_assignment":[0,1],"goal":1,"start":0,"action_noise":0.2,"location_history":"[0,5,4,2,1]","action_history":"[0,0,0,0]","mutagen_history":"[0,0,0,0]","location_rts":"[232,22,922,736]","trial_type":"fractal-mutation","trial_index":124,"time_elapsed":1619685,"internal_node_id":"0.0-5.0-20.0"},{"group":"hexagon_tri","fractal_assignment":["../images/org_blu.png","../images/ylw_slt.png","../images/pnk_blu.png","../images/gry_blk.png","../images/cyn_red.png","../images/blu_wht.png"],"mutagen_generator_assignment":[0,1],"goal":3,"start":1,"action_noise":0.2,"location_history":"[1,3]","action_history":"[0]","mutagen_history":"[0]","location_rts":"[1313]","trial_type":"fractal-mutation","trial_index":125,"time_elapsed":1625549,"internal_node_id":"0.0-5.0-21.0"},{"group":"hexagon_tri","fractal_assignment":["../images/org_blu.png","../images/ylw_slt.png","../images/pnk_blu.png","../images/gry_blk.png","../images/cyn_red.png","../images/blu_wht.png"],"mutagen_generator_assignment":[0,1],"goal":2,"start":3,"action_noise":0.2,"location_history":"[3,2]","action_history":"[0]","mutagen_history":"[0]","location_rts":"[1734]","trial_type":"fractal-mutation","trial_index":126,"time_elapsed":1631854,"internal_node_id":"0.0-5.0-22.0"},{"group":"hexagon_tri","fractal_assignment":["../images/org_blu.png","../images/ylw_slt.png","../images/pnk_blu.png","../images/gry_blk.png","../images/cyn_red.png","../images/blu_wht.png"],"mutagen_generator_assignment":[0,1],"goal":0,"start":2,"action_noise":0.2,"location_history":"[2,1,3,2,3,2,1,5,0]","action_history":"[0,0,0,1,0,0,1,0]","mutagen_history":"[0,0,0,1,0,0,1,0]","location_rts":"[1228,363,318,743,224,134,945,786]","trial_type":"fractal-mutation","trial_index":127,"time_elapsed":1648642,"internal_node_id":"0.0-5.0-23.0"},{"group":"hexagon_tri","fractal_assignment":["../images/org_blu.png","../images/ylw_slt.png","../images/pnk_blu.png","../images/gry_blk.png","../images/cyn_red.png","../images/blu_wht.png"],"mutagen_generator_assignment":[0,1],"goal":3,"start":0,"action_noise":0.2,"location_history":"[0,5,4,0,5,4,0,1,3]","action_history":"[0,0,0,0,0,0,0,0]","mutagen_history":"[0,0,0,0,0,0,0,0]","location_rts":"[946,106,64,284,27,55,182,59]","trial_type":"fractal-mutation","trial_index":128,"time_elapsed":1662396,"internal_node_id":"0.0-5.0-24.0"},{"group":"hexagon_tri","fractal_assignment":["../images/org_blu.png","../images/ylw_slt.png","../images/pnk_blu.png","../images/gry_blk.png","../images/cyn_red.png","../images/blu_wht.png"],"mutagen_generator_assignment":[0,1],"goal":1,"start":3,"action_noise":0.2,"location_history":"[3,2,1]","action_history":"[0,0]","mutagen_history":"[0,0]","location_rts":"[252,213]","trial_type":"fractal-mutation","trial_index":129,"time_elapsed":1668491,"internal_node_id":"0.0-5.0-25.0"},{"group":"hexagon_tri","fractal_assignment":["../images/org_blu.png","../images/ylw_slt.png","../images/pnk_blu.png","../images/gry_blk.png","../images/cyn_red.png","../images/blu_wht.png"],"mutagen_generator_assignment":[0,1],"goal":2,"start":1,"action_noise":0.2,"location_history":"[1,3,4,0,1,5,0,5,0,1,5,0,5,4,2]","action_history":"[0,0,0,0,1,0,0,1,1,1,1,0,0,0]","mutagen_history":"[0,0,0,0,1,0,0,1,1,1,1,0,0,0]","location_rts":"[1105,91,22,28,720,528,1431,236,428,752,477,424,108,75]","trial_type":"fractal-mutation","trial_index":130,"time_elapsed":1693346,"internal_node_id":"0.0-5.0-26.0"},{"group":"hexagon_tri","fractal_assignment":["../images/org_blu.png","../images/ylw_slt.png","../images/pnk_blu.png","../images/gry_blk.png","../images/cyn_red.png","../images/blu_wht.png"],"mutagen_generator_assignment":[0,1],"goal":5,"start":2,"action_noise":0.2,"location_history":"[2,1,3,2,3,2,3,2,1,3,2,3,2,1,3,2,1,3,2,1,5]","action_history":"[0,0,0,0,0,0,0,0,1,1,1,0,0,0,0,0,0,0,0,1]","mutagen_history":"[0,0,0,0,0,0,0,0,1,1,1,0,0,0,0,0,0,0,0,1]","location_rts":"[230,165,292,170,216,21,105,89,161,557,466,380,118,311,123,62,114,51,117,204]","trial_type":"fractal-mutation","trial_index":131,"time_elapsed":1722057,"internal_node_id":"0.0-5.0-27.0"},{"group":"hexagon_tri","fractal_assignment":["../images/org_blu.png","../images/ylw_slt.png","../images/pnk_blu.png","../images/gry_blk.png","../images/cyn_red.png","../images/blu_wht.png"],"mutagen_generator_assignment":[0,1],"goal":4,"start":5,"action_noise":0.2,"location_history":"[5,4]","action_history":"[0]","mutagen_history":"[0]","location_rts":"[478]","trial_type":"fractal-mutation","trial_index":132,"time_elapsed":1727121,"internal_node_id":"0.0-5.0-28.0"},{"group":"hexagon_tri","fractal_assignment":["../images/org_blu.png","../images/ylw_slt.png","../images/pnk_blu.png","../images/gry_blk.png","../images/cyn_red.png","../images/blu_wht.png"],"mutagen_generator_assignment":[0,1],"goal":5,"start":4,"action_noise":0.2,"location_history":"[4,2,1,3,2,1,3,2,1,3,2,3,2,1,3,2,1,5]","action_history":"[0,0,0,0,0,0,0,0,0,0,0,0,0,0,0,0,0]","mutagen_history":"[0,0,0,0,0,0,0,0,0,0,0,0,0,0,0,0,0]","location_rts":"[1741,149,133,9,60,434,280,46,24,3,48,369,71,419,250,382,119]","trial_type":"fractal-mutation","trial_index":133,"time_elapsed":1753218,"internal_node_id":"0.0-5.0-29.0"},{"group":"hexagon_tri","fractal_assignment":["../images/org_blu.png","../images/ylw_slt.png","../images/pnk_blu.png","../images/gry_blk.png","../images/cyn_red.png","../images/blu_wht.png"],"mutagen_generator_assignment":[0,1],"goal":3,"start":5,"action_noise":0.2,"location_history":"[5,4,0,5,4,2,1,3]","action_history":"[0,0,0,0,1,0,0]","mutagen_history":"[0,0,0,0,1,0,0]","location_rts":"[1595,281,187,178,372,196,635]","trial_type":"fractal-mutation","trial_index":134,"time_elapsed":1767630,"internal_node_id":"0.0-5.0-30.0"},{"group":"hexagon_tri","fractal_assignment":["../images/org_blu.png","../images/ylw_slt.png","../images/pnk_blu.png","../images/gry_blk.png","../images/cyn_red.png","../images/blu_wht.png"],"mutagen_generator_assignment":[0,1],"goal":0,"start":3,"action_noise":0.2,"location_history":"[3,2,1,3,4,0]","action_history":"[0,0,0,1,0]","mutagen_history":"[0,0,0,1,0]","location_rts":"[3517,400,355,211,400]","trial_type":"fractal-mutation","trial_index":135,"time_elapsed":1781351,"internal_node_id":"0.0-5.0-31.0"},{"group":"hexagon_tri","fractal_assignment":["../images/org_blu.png","../images/ylw_slt.png","../images/pnk_blu.png","../images/gry_blk.png","../images/cyn_red.png","../images/blu_wht.png"],"mutagen_generator_assignment":[0,1],"goal":4,"start":0,"action_noise":0.2,"location_history":"[0,5,4]","action_history":"[0,0]","mutagen_history":"[0,0]","location_rts":"[1363,185]","trial_type":"fractal-mutation","trial_index":136,"time_elapsed":1788537,"internal_node_id":"0.0-5.0-32.0"},{"group":"hexagon_tri","fractal_assignment":["../images/org_blu.png","../images/ylw_slt.png","../images/pnk_blu.png","../images/gry_blk.png","../images/cyn_red.png","../images/blu_wht.png"],"mutagen_generator_assignment":[0,1],"goal":1,"start":4,"action_noise":0.2,"location_history":"[4,0,5,0,5,4,0,5,0,5,0,1]","action_history":"[0,0,0,0,0,0,0,1,0,1,1]","mutagen_history":"[0,0,0,0,0,0,0,1,0,1,1]","location_rts":"[1689,288,200,186,148,229,63,206,394,557,284]","trial_type":"fractal-mutation","trial_index":137,"time_elapsed":1808021,"internal_node_id":"0.0-5.0-33.0"},{"group":"hexagon_tri","fractal_assignment":["../images/org_blu.png","../images/ylw_slt.png","../images/pnk_blu.png","../images/gry_blk.png","../images/cyn_red.png","../images/blu_wht.png"],"mutagen_generator_assignment":[0,1],"goal":2,"start":1,"action_noise":0.2,"location_history":"[1,3,2]","action_history":"[0,0]","mutagen_history":"[0,0]","location_rts":"[1607,216]","trial_type":"fractal-mutation","trial_index":138,"time_elapsed":1815454,"internal_node_id":"0.0-5.0-34.0"},{"group":"hexagon_tri","fractal_assignment":["../images/org_blu.png","../images/ylw_slt.png","../images/pnk_blu.png","../images/gry_blk.png","../images/cyn_red.png","../images/blu_wht.png"],"mutagen_generator_assignment":[0,1],"goal":0,"start":2,"action_noise":0.2,"location_history":"[2,1,5,4,0]","action_history":"[0,0,0,0]","mutagen_history":"[0,0,0,0]","location_rts":"[822,219,243,454]","trial_type":"fractal-mutation","trial_index":139,"time_elapsed":1824970,"internal_node_id":"0.0-5.0-35.0"},{"group":"hexagon_tri","fractal_assignment":["../images/org_blu.png","../images/ylw_slt.png","../images/pnk_blu.png","../images/gry_blk.png","../images/cyn_red.png","../images/blu_wht.png"],"mutagen_generator_assignment":[0,1],"goal":5,"start":0,"action_noise":0.2,"location_history":"[0,5]","action_history":"[0]","mutagen_history":"[0]","location_rts":"[1118]","trial_type":"fractal-mutation","trial_index":140,"time_elapsed":1830661,"internal_node_id":"0.0-5.0-36.0"},{"group":"hexagon_tri","fractal_assignment":["../images/org_blu.png","../images/ylw_slt.png","../images/pnk_blu.png","../images/gry_blk.png","../images/cyn_red.png","../images/blu_wht.png"],"mutagen_generator_assignment":[0,1],"goal":2,"start":5,"action_noise":0.2,"location_history":"[5,0,1,3,2]","action_history":"[1,0,0,0]","mutagen_history":"[1,0,0,0]","location_rts":"[6801,643,167,2298]","trial_type":"fractal-mutation","trial_index":141,"time_elapsed":1848364,"internal_node_id":"0.0-5.0-37.0"},{"group":"hexagon_tri","fractal_assignment":["../images/org_blu.png","../images/ylw_slt.png","../images/pnk_blu.png","../images/gry_blk.png","../images/cyn_red.png","../images/blu_wht.png"],"mutagen_generator_assignment":[0,1],"goal":1,"start":2,"action_noise":0.2,"location_history":"[2,1]","action_history":"[0]","mutagen_history":"[0]","location_rts":"[286]","trial_type":"fractal-mutation","trial_index":142,"time_elapsed":1853222,"internal_node_id":"0.0-5.0-38.0"},{"group":"hexagon_tri","fractal_assignment":["../images/org_blu.png","../images/ylw_slt.png","../images/pnk_blu.png","../images/gry_blk.png","../images/cyn_red.png","../images/blu_wht.png"],"mutagen_generator_assignment":[0,1],"goal":4,"start":1,"action_noise":0.2,"location_history":"[1,5,4]","action_history":"[0,0]","mutagen_history":"[0,0]","location_rts":"[1068,139]","trial_type":"fractal-mutation","trial_index":143,"time_elapsed":1860052,"internal_node_id":"0.0-5.0-39.0"},{"group":"hexagon_tri","fractal_assignment":["../images/org_blu.png","../images/ylw_slt.png","../images/pnk_blu.png","../images/gry_blk.png","../images/cyn_red.png","../images/blu_wht.png"],"mutagen_generator_assignment":[0,1],"goal":3,"start":4,"action_noise":0.2,"location_history":"[4,0,5,4,0,1,5,4,0,5,0,5,4,2,1,3]","action_history":"[0,0,0,0,0,0,0,0,0,1,0,0,1,0,0]","mutagen_history":"[0,0,0,0,0,0,0,0,0,1,0,0,1,0,0]","location_rts":"[278,602,781,224,229,468,270,454,378,384,245,585,258,234,287]","trial_type":"fractal-mutation","trial_index":144,"time_elapsed":1885208,"internal_node_id":"0.0-5.0-40.0"},{"group":"hexagon_tri","fractal_assignment":["../images/org_blu.png","../images/ylw_slt.png","../images/pnk_blu.png","../images/gry_blk.png","../images/cyn_red.png","../images/blu_wht.png"],"mutagen_generator_assignment":[0,1],"goal":5,"start":3,"action_noise":0.2,"location_history":"[3,2,1,3,2,1,3,4,0,5]","action_history":"[0,0,0,0,0,0,0,0,0]","mutagen_history":"[0,0,0,0,0,0,0,0,0]","location_rts":"[1204,241,184,201,185,117,210,101,634]","trial_type":"fractal-mutation","trial_index":145,"time_elapsed":1901335,"internal_node_id":"0.0-5.0-41.0"},{"group":"hexagon_tri","fractal_assignment":["../images/org_blu.png","../images/ylw_slt.png","../images/pnk_blu.png","../images/gry_blk.png","../images/cyn_red.png","../images/blu_wht.png"],"mutagen_generator_assignment":[0,1],"goal":3,"start":5,"action_noise":0.2,"location_history":"[5,4,0,5,4,0,1,5,4,0,5,4,0,1,5,4,2,3]","action_history":"[0,0,1,0,0,1,0,0,0,0,0,0,1,1,0,0,1]","mutagen_history":"[0,0,1,0,0,1,0,0,0,0,0,0,1,1,0,0,1]","location_rts":"[132,132,173,86,62,267,194,110,398,65,36,240,91,313,253,121,302]","trial_type":"fractal-mutation","trial_index":146,"time_elapsed":1925924,"internal_node_id":"0.0-5.0-42.0"},{"group":"hexagon_tri","fractal_assignment":["../images/org_blu.png","../images/ylw_slt.png","../images/pnk_blu.png","../images/gry_blk.png","../images/cyn_red.png","../images/blu_wht.png"],"mutagen_generator_assignment":[0,1],"goal":0,"start":3,"action_noise":0.2,"location_history":"[3,2,1,3,2,3,2,1,5,4,0]","action_history":"[0,0,0,0,1,0,0,1,0,0]","mutagen_history":"[0,0,0,0,1,0,0,1,0,0]","location_rts":"[256,49,749,36,294,319,232,309,180,132]","trial_type":"fractal-mutation","trial_index":147,"time_elapsed":1943092,"internal_node_id":"0.0-5.0-43.0"},{"group":"hexagon_tri","fractal_assignment":["../images/org_blu.png","../images/ylw_slt.png","../images/pnk_blu.png","../images/gry_blk.png","../images/cyn_red.png","../images/blu_wht.png"],"mutagen_generator_assignment":[0,1],"goal":2,"start":0,"action_noise":0.2,"location_history":"[0,5,4,2]","action_history":"[0,0,1]","mutagen_history":"[0,0,1]","location_rts":"[209,223,224]","trial_type":"fractal-mutation","trial_index":148,"time_elapsed":1950458,"internal_node_id":"0.0-5.0-44.0"},{"group":"hexagon_tri","fractal_assignment":["../images/org_blu.png","../images/ylw_slt.png","../images/pnk_blu.png","../images/gry_blk.png","../images/cyn_red.png","../images/blu_wht.png"],"mutagen_generator_assignment":[0,1],"goal":4,"start":2,"action_noise":0.2,"location_history":"[2,1,3,4]","action_history":"[0,0,0]","mutagen_history":"[0,0,0]","location_rts":"[206,513,479]","trial_type":"fractal-mutation","trial_index":149,"time_elapsed":1958335,"internal_node_id":"0.0-5.0-45.0"},{"group":"hexagon_tri","fractal_assignment":["../images/org_blu.png","../images/ylw_slt.png","../images/pnk_blu.png","../images/gry_blk.png","../images/cyn_red.png","../images/blu_wht.png"],"mutagen_generator_assignment":[0,1],"goal":1,"start":4,"action_noise":0.2,"location_history":"[4,0,5,0,5,0,5,4,0,5,0,1]","action_history":"[0,0,0,0,1,0,0,0,0,1,0]","mutagen_history":"[0,0,0,0,1,0,0,0,0,1,0]","location_rts":"[244,5,295,65,522,93,84,86,1018,446,119]","trial_type":"fractal-mutation","trial_index":150,"time_elapsed":1976567,"internal_node_id":"0.0-5.0-46.0"},{"group":"hexagon_tri","fractal_assignment":["../images/org_blu.png","../images/ylw_slt.png","../images/pnk_blu.png","../images/gry_blk.png","../images/cyn_red.png","../images/blu_wht.png"],"mutagen_generator_assignment":[0,1],"goal":4,"start":1,"action_noise":0.2,"location_history":"[1,3,2,1,3,4]","action_history":"[0,0,0,0,0]","mutagen_history":"[0,0,0,0,0]","location_rts":"[272,40,61,619,655]","trial_type":"fractal-mutation","trial_index":151,"time_elapsed":1987047,"internal_node_id":"0.0-5.0-47.0"},{"group":"hexagon_tri","fractal_assignment":["../images/org_blu.png","../images/ylw_slt.png","../images/pnk_blu.png","../images/gry_blk.png","../images/cyn_red.png","../images/blu_wht.png"],"mutagen_generator_assignment":[0,1],"goal":1,"start":4,"action_noise":0.2,"location_history":"[4,2,3,2,3,2,3,2,1]","action_history":"[1,0,0,0,0,1,0,0]","mutagen_history":"[1,0,0,0,0,1,0,0]","location_rts":"[1143,139,180,81,52,294,173,345]","trial_type":"fractal-mutation","trial_index":152,"time_elapsed":2001506,"internal_node_id":"0.0-5.0-48.0"},{"group":"hexagon_tri","fractal_assignment":["../images/org_blu.png","../images/ylw_slt.png","../images/pnk_blu.png","../images/gry_blk.png","../images/cyn_red.png","../images/blu_wht.png"],"mutagen_generator_assignment":[0,1],"goal":3,"start":1,"action_noise":0.2,"location_history":"[1,3]","action_history":"[0]","mutagen_history":"[0]","location_rts":"[1535]","trial_type":"fractal-mutation","trial_index":153,"time_elapsed":2007619,"internal_node_id":"0.0-5.0-49.0"},{"group":"hexagon_tri","fractal_assignment":["../images/org_blu.png","../images/ylw_slt.png","../images/pnk_blu.png","../images/gry_blk.png","../images/cyn_red.png","../images/blu_wht.png"],"mutagen_generator_assignment":[0,1],"goal":5,"start":3,"action_noise":0.2,"location_history":"[3,2,3,2,3,2,1,5]","action_history":"[0,0,0,0,0,0,1]","mutagen_history":"[0,0,0,0,0,0,1]","location_rts":"[212,130,45,352,116,218,287]","trial_type":"fractal-mutation","trial_index":154,"time_elapsed":2019959,"internal_node_id":"0.0-5.0-50.0"},{"group":"hexagon_tri","fractal_assignment":["../images/org_blu.png","../images/ylw_slt.png","../images/pnk_blu.png","../images/gry_blk.png","../images/cyn_red.png","../images/blu_wht.png"],"mutagen_generator_assignment":[0,1],"goal":0,"start":5,"action_noise":0.2,"location_history":"[5,4,0]","action_history":"[0,0]","mutagen_history":"[0,0]","location_rts":"[235,164]","trial_type":"fractal-mutation","trial_index":155,"time_elapsed":2026011,"internal_node_id":"0.0-5.0-51.0"},{"group":"hexagon_tri","fractal_assignment":["../images/org_blu.png","../images/ylw_slt.png","../images/pnk_blu.png","../images/gry_blk.png","../images/cyn_red.png","../images/blu_wht.png"],"mutagen_generator_assignment":[0,1],"goal":2,"start":0,"action_noise":0.2,"location_history":"[0,5,4,0,1,5,0,1,3,2]","action_history":"[0,0,1,1,1,1,1,0,0]","mutagen_history":"[0,0,1,1,1,1,1,0,0]","location_rts":"[222,52,227,413,724,353,1032,211,267]","trial_type":"fractal-mutation","trial_index":156,"time_elapsed":2042640,"internal_node_id":"0.0-5.0-52.0"},{"group":"hexagon_tri","fractal_assignment":["../images/org_blu.png","../images/ylw_slt.png","../images/pnk_blu.png","../images/gry_blk.png","../images/cyn_red.png","../images/blu_wht.png"],"mutagen_generator_assignment":[0,1],"goal":1,"start":2,"action_noise":0.2,"location_history":"[2,1]","action_history":"[0]","mutagen_history":"[0]","location_rts":"[221]","trial_type":"fractal-mutation","trial_index":157,"time_elapsed":2047444,"internal_node_id":"0.0-5.0-53.0"},{"group":"hexagon_tri","fractal_assignment":["../images/org_blu.png","../images/ylw_slt.png","../images/pnk_blu.png","../images/gry_blk.png","../images/cyn_red.png","../images/blu_wht.png"],"mutagen_generator_assignment":[0,1],"goal":2,"start":1,"action_noise":0.2,"location_history":"[1,3,4,0,5,4,2]","action_history":"[0,0,0,0,0,1]","mutagen_history":"[0,0,0,0,0,1]","location_rts":"[100,263,103,51,367,194]","trial_type":"fractal-mutation","trial_index":158,"time_elapsed":2058453,"internal_node_id":"0.0-5.0-54.0"},{"group":"hexagon_tri","fractal_assignment":["../images/org_blu.png","../images/ylw_slt.png","../images/pnk_blu.png","../images/gry_blk.png","../images/cyn_red.png","../images/blu_wht.png"],"mutagen_generator_assignment":[0,1],"goal":5,"start":2,"action_noise":0.2,"location_history":"[2,1,5]","action_history":"[0,0]","mutagen_history":"[0,0]","location_rts":"[240,188]","trial_type":"fractal-mutation","trial_index":159,"time_elapsed":2064515,"internal_node_id":"0.0-5.0-55.0"},{"group":"hexagon_tri","fractal_assignment":["../images/org_blu.png","../images/ylw_slt.png","../images/pnk_blu.png","../images/gry_blk.png","../images/cyn_red.png","../images/blu_wht.png"],"mutagen_generator_assignment":[0,1],"goal":4,"start":5,"action_noise":0.2,"location_history":"[5,4]","action_history":"[0]","mutagen_history":"[0]","location_rts":"[242]","trial_type":"fractal-mutation","trial_index":160,"time_elapsed":2069335,"internal_node_id":"0.0-5.0-56.0"},{"group":"hexagon_tri","fractal_assignment":["../images/org_blu.png","../images/ylw_slt.png","../images/pnk_blu.png","../images/gry_blk.png","../images/cyn_red.png","../images/blu_wht.png"],"mutagen_generator_assignment":[0,1],"goal":3,"start":4,"action_noise":0.2,"location_history":"[4,2,3]","action_history":"[0,0]","mutagen_history":"[0,0]","location_rts":"[334,214]","trial_type":"fractal-mutation","trial_index":161,"time_elapsed":2075501,"internal_node_id":"0.0-5.0-57.0"},{"group":"hexagon_tri","fractal_assignment":["../images/org_blu.png","../images/ylw_slt.png","../images/pnk_blu.png","../images/gry_blk.png","../images/cyn_red.png","../images/blu_wht.png"],"mutagen_generator_assignment":[0,1],"goal":0,"start":3,"action_noise":0.2,"location_history":"[3,2,3,4,2,1,3,2,1,3,4,0]","action_history":"[0,0,0,1,0,0,0,0,0,1,0]","mutagen_history":"[0,0,0,1,0,0,0,0,0,1,0]","location_rts":"[93,161,115,90,284,584,489,1318,229,615,111]","trial_type":"fractal-mutation","trial_index":162,"time_elapsed":2094796,"internal_node_id":"0.0-5.0-58.0"},{"group":"hexagon_tri","fractal_assignment":["../images/org_blu.png","../images/ylw_slt.png","../images/pnk_blu.png","../images/gry_blk.png","../images/cyn_red.png","../images/blu_wht.png"],"mutagen_generator_assignment":[0,1],"goal":2,"start":0,"action_noise":0.2,"location_history":"[0,1,3,4,0,5,4,2]","action_history":"[1,0,0,0,0,0,1]","mutagen_history":"[1,0,0,0,0,0,1]","location_rts":"[1565,551,114,136,157,39,362]","trial_type":"fractal-mutation","trial_index":163,"time_elapsed":2108707,"internal_node_id":"0.0-5.0-59.0"},{"group":"hexagon_tri","fractal_assignment":["../images/org_blu.png","../images/ylw_slt.png","../images/pnk_blu.png","../images/gry_blk.png","../images/cyn_red.png","../images/blu_wht.png"],"mutagen_generator_assignment":[0,1],"goal":1,"start":2,"action_noise":0.2,"location_history":"[2,1]","action_history":"[0]","mutagen_history":"[0]","location_rts":"[1719]","trial_type":"fractal-mutation","trial_index":164,"time_elapsed":2115011,"internal_node_id":"0.0-5.0-60.0"},{"group":"hexagon_tri","fractal_assignment":["../images/org_blu.png","../images/ylw_slt.png","../images/pnk_blu.png","../images/gry_blk.png","../images/cyn_red.png","../images/blu_wht.png"],"mutagen_generator_assignment":[0,1],"goal":0,"start":1,"action_noise":0.2,"location_history":"[1,3,2,3,2,1,5,4,0]","action_history":"[0,0,1,0,0,1,0,0]","mutagen_history":"[0,0,1,0,0,1,0,0]","location_rts":"[1832,906,704,181,149,543,1291,568]","trial_type":"fractal-mutation","trial_index":165,"time_elapsed":2133195,"internal_node_id":"0.0-5.0-61.0"},{"group":"hexagon_tri","fractal_assignment":["../images/org_blu.png","../images/ylw_slt.png","../images/pnk_blu.png","../images/gry_blk.png","../images/cyn_red.png","../images/blu_wht.png"],"mutagen_generator_assignment":[0,1],"goal":3,"start":0,"action_noise":0.2,"location_history":"[0,5,0,5,0,5,0,5,0,1,3]","action_history":"[0,0,0,0,0,1,0,1,1,0]","mutagen_history":"[0,0,0,0,0,1,0,1,1,0]","location_rts":"[1577,156,113,208,80,350,320,633,455,666]","trial_type":"fractal-mutation","trial_index":166,"time_elapsed":2151955,"internal_node_id":"0.0-5.0-62.0"},{"group":"hexagon_tri","fractal_assignment":["../images/org_blu.png","../images/ylw_slt.png","../images/pnk_blu.png","../images/gry_blk.png","../images/cyn_red.png","../images/blu_wht.png"],"mutagen_generator_assignment":[0,1],"goal":5,"start":3,"action_noise":0.2,"location_history":"[3,4,0,1,5]","action_history":"[0,0,0,0]","mutagen_history":"[0,0,0,0]","location_rts":"[90,167,387,429]","trial_type":"fractal-mutation","trial_index":167,"time_elapsed":2160787,"internal_node_id":"0.0-5.0-63.0"},{"group":"hexagon_tri","fractal_assignment":["../images/org_blu.png","../images/ylw_slt.png","../images/pnk_blu.png","../images/gry_blk.png","../images/cyn_red.png","../images/blu_wht.png"],"mutagen_generator_assignment":[0,1],"goal":4,"start":5,"action_noise":0.2,"location_history":"[5,4]","action_history":"[0]","mutagen_history":"[0]","location_rts":"[51]","trial_type":"fractal-mutation","trial_index":168,"time_elapsed":2165406,"internal_node_id":"0.0-5.0-64.0"},{"group":"hexagon_tri","fractal_assignment":["../images/org_blu.png","../images/ylw_slt.png","../images/pnk_blu.png","../images/gry_blk.png","../images/cyn_red.png","../images/blu_wht.png"],"mutagen_generator_assignment":[0,1],"goal":1,"start":4,"action_noise":0.2,"location_history":"[4,2,1]","action_history":"[1,0]","mutagen_history":"[1,0]","location_rts":"[1497,152]","trial_type":"fractal-mutation","trial_index":169,"time_elapsed":2172666,"internal_node_id":"0.0-5.0-65.0"},{"group":"hexagon_tri","fractal_assignment":["../images/org_blu.png","../images/ylw_slt.png","../images/pnk_blu.png","../images/gry_blk.png","../images/cyn_red.png","../images/blu_wht.png"],"mutagen_generator_assignment":[0,1],"goal":5,"start":1,"action_noise":0.2,"location_history":"[1,5]","action_history":"[1]","mutagen_history":"[1]","location_rts":"[2101]","trial_type":"fractal-mutation","trial_index":170,"time_elapsed":2179357,"internal_node_id":"0.0-5.0-66.0"},{"group":"hexagon_tri","fractal_assignment":["../images/org_blu.png","../images/ylw_slt.png","../images/pnk_blu.png","../images/gry_blk.png","../images/cyn_red.png","../images/blu_wht.png"],"mutagen_generator_assignment":[0,1],"goal":2,"start":5,"action_noise":0.2,"location_history":"[5,4,2]","action_history":"[0,1]","mutagen_history":"[0,1]","location_rts":"[1258,892]","trial_type":"fractal-mutation","trial_index":171,"time_elapsed":2187164,"internal_node_id":"0.0-5.0-67.0"},{"group":"hexagon_tri","fractal_assignment":["../images/org_blu.png","../images/ylw_slt.png","../images/pnk_blu.png","../images/gry_blk.png","../images/cyn_red.png","../images/blu_wht.png"],"mutagen_generator_assignment":[0,1],"goal":3,"start":2,"action_noise":0.2,"location_history":"[2,3]","action_history":"[0]","mutagen_history":"[0]","location_rts":"[1125]","trial_type":"fractal-mutation","trial_index":172,"time_elapsed":2192863,"internal_node_id":"0.0-5.0-68.0"},{"group":"hexagon_tri","fractal_assignment":["../images/org_blu.png","../images/ylw_slt.png","../images/pnk_blu.png","../images/gry_blk.png","../images/cyn_red.png","../images/blu_wht.png"],"mutagen_generator_assignment":[0,1],"goal":4,"start":3,"action_noise":0.2,"location_history":"[3,2,3,4]","action_history":"[0,1,0]","mutagen_history":"[0,1,0]","location_rts":"[1321,729,338]","trial_type":"fractal-mutation","trial_index":173,"time_elapsed":2201985,"internal_node_id":"0.0-5.0-69.0"},{"group":"hexagon_tri","fractal_assignment":["../images/org_blu.png","../images/ylw_slt.png","../images/pnk_blu.png","../images/gry_blk.png","../images/cyn_red.png","../images/blu_wht.png"],"mutagen_generator_assignment":[0,1],"goal":0,"start":4,"action_noise":0.2,"location_history":"[4,0]","action_history":"[0]","mutagen_history":"[0]","location_rts":"[809]","trial_type":"fractal-mutation","trial_index":174,"time_elapsed":2207378,"internal_node_id":"0.0-5.0-70.0"},{"group":"hexagon_tri","fractal_assignment":["../images/org_blu.png","../images/ylw_slt.png","../images/pnk_blu.png","../images/gry_blk.png","../images/cyn_red.png","../images/blu_wht.png"],"mutagen_generator_assignment":[0,1],"goal":5,"start":0,"action_noise":0.2,"location_history":"[0,5]","action_history":"[0]","mutagen_history":"[0]","location_rts":"[930]","trial_type":"fractal-mutation","trial_index":175,"time_elapsed":2212895,"internal_node_id":"0.0-5.0-71.0"},{"group":"hexagon_tri","fractal_assignment":["../images/org_blu.png","../images/ylw_slt.png","../images/pnk_blu.png","../images/gry_blk.png","../images/cyn_red.png","../images/blu_wht.png"],"mutagen_generator_assignment":[0,1],"goal":0,"start":5,"action_noise":0.2,"location_history":"[5,4,0]","action_history":"[0,0]","mutagen_history":"[0,0]","location_rts":"[694,75]","trial_type":"fractal-mutation","trial_index":176,"time_elapsed":2219300,"internal_node_id":"0.0-5.0-72.0"},{"group":"hexagon_tri","fractal_assignment":["../images/org_blu.png","../images/ylw_slt.png","../images/pnk_blu.png","../images/gry_blk.png","../images/cyn_red.png","../images/blu_wht.png"],"mutagen_generator_assignment":[0,1],"goal":3,"start":0,"action_noise":0.2,"location_history":"[0,5,0,5,4,0,5,4,0,1,5,4,0,5,0,5,4,2,1,3]","action_history":"[0,1,0,0,1,0,0,0,1,0,0,0,0,0,1,0,1,0,0]","mutagen_history":"[0,1,0,0,1,0,0,0,1,0,0,0,0,0,1,0,1,0,0]","location_rts":"[2222,2898,1716,2189,667,433,532,627,285,610,272,202,100,567,489,37,1333,148,125]","trial_type":"fractal-mutation","trial_index":177,"time_elapsed":2258622,"internal_node_id":"0.0-5.0-73.0"},{"group":"hexagon_tri","fractal_assignment":["../images/org_blu.png","../images/ylw_slt.png","../images/pnk_blu.png","../images/gry_blk.png","../images/cyn_red.png","../images/blu_wht.png"],"mutagen_generator_assignment":[0,1],"goal":1,"start":3,"action_noise":0.2,"location_history":"[3,2,1]","action_history":"[0,0]","mutagen_history":"[0,0]","location_rts":"[2887,627]","trial_type":"fractal-mutation","trial_index":178,"time_elapsed":2267788,"internal_node_id":"0.0-5.0-74.0"},{"group":"hexagon_tri","fractal_assignment":["../images/org_blu.png","../images/ylw_slt.png","../images/pnk_blu.png","../images/gry_blk.png","../images/cyn_red.png","../images/blu_wht.png"],"mutagen_generator_assignment":[0,1],"goal":2,"start":1,"action_noise":0.2,"location_history":"[1,3,2]","action_history":"[0,0]","mutagen_history":"[0,0]","location_rts":"[1126,302]","trial_type":"fractal-mutation","trial_index":179,"time_elapsed":2274865,"internal_node_id":"0.0-5.0-75.0"},{"group":"hexagon_tri","fractal_assignment":["../images/org_blu.png","../images/ylw_slt.png","../images/pnk_blu.png","../images/gry_blk.png","../images/cyn_red.png","../images/blu_wht.png"],"mutagen_generator_assignment":[0,1],"goal":4,"start":2,"action_noise":0.2,"location_history":"[2,3,4]","action_history":"[1,0]","mutagen_history":"[1,0]","location_rts":"[1823,2196]","trial_type":"fractal-mutation","trial_index":180,"time_elapsed":2284549,"internal_node_id":"0.0-5.0-76.0"},{"group":"hexagon_tri","fractal_assignment":["../images/org_blu.png","../images/ylw_slt.png","../images/pnk_blu.png","../images/gry_blk.png","../images/cyn_red.png","../images/blu_wht.png"],"mutagen_generator_assignment":[0,1],"goal":3,"start":4,"action_noise":0.2,"location_history":"[4,2,1,3]","action_history":"[1,0,0]","mutagen_history":"[1,0,0]","location_rts":"[2749,353,266]","trial_type":"fractal-mutation","trial_index":181,"time_elapsed":2294602,"internal_node_id":"0.0-5.0-77.0"},{"group":"hexagon_tri","fractal_assignment":["../images/org_blu.png","../images/ylw_slt.png","../images/pnk_blu.png","../images/gry_blk.png","../images/cyn_red.png","../images/blu_wht.png"],"mutagen_generator_assignment":[0,1],"goal":0,"start":3,"action_noise":0.2,"location_history":"[3,2,1,5,4,0]","action_history":"[1,0,1,0,0]","mutagen_history":"[1,0,1,0,0]","location_rts":"[3710,219,1576,837,242]","trial_type":"fractal-mutation","trial_index":182,"time_elapsed":2310038,"internal_node_id":"0.0-5.0-78.0"},{"group":"hexagon_tri","fractal_assignment":["../images/org_blu.png","../images/ylw_slt.png","../images/pnk_blu.png","../images/gry_blk.png","../images/cyn_red.png","../images/blu_wht.png"],"mutagen_generator_assignment":[0,1],"goal":4,"start":0,"action_noise":0.2,"location_history":"[0,5,0,5,4]","action_history":"[0,0,0,0]","mutagen_history":"[0,0,0,0]","location_rts":"[1670,362,1053,440]","trial_type":"fractal-mutation","trial_index":183,"time_elapsed":2321345,"internal_node_id":"0.0-5.0-79.0"},{"group":"hexagon_tri","fractal_assignment":["../images/org_blu.png","../images/ylw_slt.png","../images/pnk_blu.png","../images/gry_blk.png","../images/cyn_red.png","../images/blu_wht.png"],"mutagen_generator_assignment":[0,1],"goal":5,"start":4,"action_noise":0.2,"location_history":"[4,0,5]","action_history":"[0,0]","mutagen_history":"[0,0]","location_rts":"[1212,350]","trial_type":"fractal-mutation","trial_index":184,"time_elapsed":2328545,"internal_node_id":"0.0-5.0-80.0"},{"group":"hexagon_tri","fractal_assignment":["../images/org_blu.png","../images/ylw_slt.png","../images/pnk_blu.png","../images/gry_blk.png","../images/cyn_red.png","../images/blu_wht.png"],"mutagen_generator_assignment":[0,1],"goal":1,"start":5,"action_noise":0.2,"location_history":"[5,0,5,4,0,1]","action_history":"[1,0,0,0,1]","mutagen_history":"[1,0,0,0,1]","location_rts":"[2062,67,1468,926,252]","trial_type":"fractal-mutation","trial_index":185,"time_elapsed":2342164,"internal_node_id":"0.0-5.0-81.0"},{"group":"hexagon_tri","fractal_assignment":["../images/org_blu.png","../images/ylw_slt.png","../images/pnk_blu.png","../images/gry_blk.png","../images/cyn_red.png","../images/blu_wht.png"],"mutagen_generator_assignment":[0,1],"goal":2,"start":1,"action_noise":0.2,"location_history":"[1,3,4,0,1,3,2]","action_history":"[0,0,0,0,0,0]","mutagen_history":"[0,0,0,0,0,0]","location_rts":"[1237,188,446,569,818,504]","trial_type":"fractal-mutation","trial_index":186,"time_elapsed":2355910,"internal_node_id":"0.0-5.0-82.0"},{"group":"hexagon_tri","fractal_assignment":["../images/org_blu.png","../images/ylw_slt.png","../images/pnk_blu.png","../images/gry_blk.png","../images/cyn_red.png","../images/blu_wht.png"],"mutagen_generator_assignment":[0,1],"goal":4,"start":2,"action_noise":0.2,"location_history":"[2,3,4]","action_history":"[1,0]","mutagen_history":"[1,0]","location_rts":"[1572,696]","trial_type":"fractal-mutation","trial_index":187,"time_elapsed":2363825,"internal_node_id":"0.0-5.0-83.0"},{"group":"hexagon_tri","fractal_assignment":["../images/org_blu.png","../images/ylw_slt.png","../images/pnk_blu.png","../images/gry_blk.png","../images/cyn_red.png","../images/blu_wht.png"],"mutagen_generator_assignment":[0,1],"goal":0,"start":4,"action_noise":0.2,"location_history":"[4,2,3,2,3,2,1,3,2,3,4,2,1,3,2,3,2,1,3,4,0]","action_history":"[0,0,0,1,0,0,0,1,1,1,0,0,0,0,1,0,0,0,1,0]","mutagen_history":"[0,0,0,1,0,0,0,1,1,1,0,0,0,0,1,0,0,0,1,0]","location_rts":"[1977,347,168,751,170,219,584,613,837,1005,484,391,634,331,711,231,455,753,764,839]","trial_type":"fractal-mutation","trial_index":188,"time_elapsed":2400974,"internal_node_id":"0.0-5.0-84.0"},{"group":"hexagon_tri","fractal_assignment":["../images/org_blu.png","../images/ylw_slt.png","../images/pnk_blu.png","../images/gry_blk.png","../images/cyn_red.png","../images/blu_wht.png"],"mutagen_generator_assignment":[0,1],"goal":5,"start":0,"action_noise":0.2,"location_history":"[0,5]","action_history":"[0]","mutagen_history":"[0]","location_rts":"[902]","trial_type":"fractal-mutation","trial_index":189,"time_elapsed":2406457,"internal_node_id":"0.0-5.0-85.0"},{"group":"hexagon_tri","fractal_assignment":["../images/org_blu.png","../images/ylw_slt.png","../images/pnk_blu.png","../images/gry_blk.png","../images/cyn_red.png","../images/blu_wht.png"],"mutagen_generator_assignment":[0,1],"goal":3,"start":5,"action_noise":0.2,"location_history":"[5,4,2,1,5,4,0,5,4,2,1,3]","action_history":"[0,1,0,0,0,1,1,0,1,0,0]","mutagen_history":"[0,1,0,0,0,1,1,0,1,0,0]","location_rts":"[1093,455,83,318,628,328,913,207,707,208,189]","trial_type":"fractal-mutation","trial_index":190,"time_elapsed":2426895,"internal_node_id":"0.0-5.0-86.0"},{"group":"hexagon_tri","fractal_assignment":["../images/org_blu.png","../images/ylw_slt.png","../images/pnk_blu.png","../images/gry_blk.png","../images/cyn_red.png","../images/blu_wht.png"],"mutagen_generator_assignment":[0,1],"goal":1,"start":3,"action_noise":0.2,"location_history":"[3,2,1]","action_history":"[0,0]","mutagen_history":"[0,0]","location_rts":"[1489,40]","trial_type":"fractal-mutation","trial_index":191,"time_elapsed":2434083,"internal_node_id":"0.0-5.0-87.0"},{"group":"hexagon_tri","fractal_assignment":["../images/org_blu.png","../images/ylw_slt.png","../images/pnk_blu.png","../images/gry_blk.png","../images/cyn_red.png","../images/blu_wht.png"],"mutagen_generator_assignment":[0,1],"goal":2,"start":1,"action_noise":0.2,"location_history":"[1,3,2]","action_history":"[0,0]","mutagen_history":"[0,0]","location_rts":"[1148,404]","trial_type":"fractal-mutation","trial_index":192,"time_elapsed":2441301,"internal_node_id":"0.0-5.0-88.0"},{"group":"hexagon_tri","fractal_assignment":["../images/org_blu.png","../images/ylw_slt.png","../images/pnk_blu.png","../images/gry_blk.png","../images/cyn_red.png","../images/blu_wht.png"],"mutagen_generator_assignment":[0,1],"goal":0,"start":2,"action_noise":0.2,"location_history":"[2,1,3,2,3,4,0]","action_history":"[0,0,0,1,1,0]","mutagen_history":"[0,0,0,1,1,0]","location_rts":"[304,395,409,360,1343,598]","trial_type":"fractal-mutation","trial_index":193,"time_elapsed":2454601,"internal_node_id":"0.0-5.0-89.0"},{"group":"hexagon_tri","fractal_assignment":["../images/org_blu.png","../images/ylw_slt.png","../images/pnk_blu.png","../images/gry_blk.png","../images/cyn_red.png","../images/blu_wht.png"],"mutagen_generator_assignment":[0,1],"goal":5,"start":0,"action_noise":0.2,"location_history":"[0,5]","action_history":"[0]","mutagen_history":"[0]","location_rts":"[903]","trial_type":"fractal-mutation","trial_index":194,"time_elapsed":2460085,"internal_node_id":"0.0-5.0-90.0"},{"group":"hexagon_tri","fractal_assignment":["../images/org_blu.png","../images/ylw_slt.png","../images/pnk_blu.png","../images/gry_blk.png","../images/cyn_red.png","../images/blu_wht.png"],"mutagen_generator_assignment":[0,1],"goal":1,"start":5,"action_noise":0.2,"location_history":"[5,4,0,1]","action_history":"[0,0,1]","mutagen_history":"[0,0,1]","location_rts":"[926,562,318]","trial_type":"fractal-mutation","trial_index":195,"time_elapsed":2468605,"internal_node_id":"0.0-5.0-91.0"},{"group":"hexagon_tri","fractal_assignment":["../images/org_blu.png","../images/ylw_slt.png","../images/pnk_blu.png","../images/gry_blk.png","../images/cyn_red.png","../images/blu_wht.png"],"mutagen_generator_assignment":[0,1],"goal":3,"start":1,"action_noise":0.2,"location_history":"[1,3]","action_history":"[0]","mutagen_history":"[0]","location_rts":"[1505]","trial_type":"fractal-mutation","trial_index":196,"time_elapsed":2474681,"internal_node_id":"0.0-5.0-92.0"},{"group":"hexagon_tri","fractal_assignment":["../images/org_blu.png","../images/ylw_slt.png","../images/pnk_blu.png","../images/gry_blk.png","../images/cyn_red.png","../images/blu_wht.png"],"mutagen_generator_assignment":[0,1],"goal":4,"start":3,"action_noise":0.2,"location_history":"[3,2,1,5,0,5,4]","action_history":"[0,1,0,0,0,0]","mutagen_history":"[0,1,0,0,0,0]","location_rts":"[1436,417,1333,599,654,597]","trial_type":"fractal-mutation","trial_index":197,"time_elapsed":2489632,"internal_node_id":"0.0-5.0-93.0"},{"group":"hexagon_tri","fractal_assignment":["../images/org_blu.png","../images/ylw_slt.png","../images/pnk_blu.png","../images/gry_blk.png","../images/cyn_red.png","../images/blu_wht.png"],"mutagen_generator_assignment":[0,1],"goal":2,"start":4,"action_noise":0.2,"location_history":"[4,0,5,4,2]","action_history":"[1,0,0,1]","mutagen_history":"[1,0,0,1]","location_rts":"[1301,1223,416,370]","trial_type":"fractal-mutation","trial_index":198,"time_elapsed":2500721,"internal_node_id":"0.0-5.0-94.0"},{"group":"hexagon_tri","fractal_assignment":["../images/org_blu.png","../images/ylw_slt.png","../images/pnk_blu.png","../images/gry_blk.png","../images/cyn_red.png","../images/blu_wht.png"],"mutagen_generator_assignment":[0,1],"goal":4,"start":2,"action_noise":0.2,"location_history":"[2,3,2,1,3,2,3,2,1,5,4]","action_history":"[0,0,0,0,0,1,0,1,0,0]","mutagen_history":"[0,0,0,0,0,1,0,1,0,0]","location_rts":"[302,472,435,503,394,444,937,621,1245,864]","trial_type":"fractal-mutation","trial_index":199,"time_elapsed":2521122,"internal_node_id":"0.0-5.0-95.0"},{"group":"hexagon_tri","fractal_assignment":["../images/org_blu.png","../images/ylw_slt.png","../images/pnk_blu.png","../images/gry_blk.png","../images/cyn_red.png","../images/blu_wht.png"],"mutagen_generator_assignment":[0,1],"goal":0,"start":4,"action_noise":0.2,"location_history":"[4,0]","action_history":"[0]","mutagen_history":"[0]","location_rts":"[1060]","trial_type":"fractal-mutation","trial_index":200,"time_elapsed":2526771,"internal_node_id":"0.0-5.0-96.0"},{"group":"hexagon_tri","fractal_assignment":["../images/org_blu.png","../images/ylw_slt.png","../images/pnk_blu.png","../images/gry_blk.png","../images/cyn_red.png","../images/blu_wht.png"],"mutagen_generator_assignment":[0,1],"goal":5,"start":0,"action_noise":0.2,"location_history":"[0,1,3,4,2,3,2,3,2,3,4,0,5]","action_history":"[0,0,0,1,0,0,1,0,1,0,0,0]","mutagen_history":"[0,0,0,1,0,0,1,0,1,0,0,0]","location_rts":"[969,429,546,535,371,497,350,231,615,784,765,369]","trial_type":"fractal-mutation","trial_index":201,"time_elapsed":2549541,"internal_node_id":"0.0-5.0-97.0"},{"group":"hexagon_tri","fractal_assignment":["../images/org_blu.png","../images/ylw_slt.png","../images/pnk_blu.png","../images/gry_blk.png","../images/cyn_red.png","../images/blu_wht.png"],"mutagen_generator_assignment":[0,1],"goal":1,"start":5,"action_noise":0.2,"location_history":"[5,0,5,4,0,5,4,0,1]","action_history":"[0,0,0,1,0,0,0,1]","mutagen_history":"[0,0,0,1,0,0,0,1]","location_rts":"[926,578,579,732,672,301,325,308]","trial_type":"fractal-mutation","trial_index":202,"time_elapsed":2566015,"internal_node_id":"0.0-5.0-98.0"},{"group":"hexagon_tri","fractal_assignment":["../images/org_blu.png","../images/ylw_slt.png","../images/pnk_blu.png","../images/gry_blk.png","../images/cyn_red.png","../images/blu_wht.png"],"mutagen_generator_assignment":[0,1],"goal":3,"start":1,"action_noise":0.2,"location_history":"[1,5,4,2,1,5,4,0,5,4,0,1,3]","action_history":"[0,0,1,0,0,0,0,1,0,0,1,0]","mutagen_history":"[0,0,1,0,0,0,0,1,0,0,1,0]","location_rts":"[1119,298,408,1161,398,401,767,387,131,289,384,85]","trial_type":"fractal-mutation","trial_index":203,"time_elapsed":2588159,"internal_node_id":"0.0-5.0-99.0"},{"view_history":"[{\"page_index\":0,\"viewing_time\":5538}]","rt":5539,"trial_type":"instructions","trial_index":204,"time_elapsed":2594701,"internal_node_id":"0.0-6.0"},{"rt":7705,"responses":"{\"Q0\":\"Very challenging.\"}","trial_type":"survey-text","trial_index":205,"time_elapsed":2603413,"internal_node_id":"0.0-7.0"}]