[{"view_history":"[{\"page_index\":0,\"viewing_time\":8301},{\"page_index\":1,\"viewing_time\":39197},{\"page_index\":2,\"viewing_time\":24896},{\"page_index\":3,\"viewing_time\":568188}]","rt":640583,"trial_type":"instructions","trial_index":0,"time_elapsed":640583,"internal_node_id":"0.0-0.0"},{"view_history":"[{\"page_index\":0,\"viewing_time\":2774},{\"page_index\":1,\"viewing_time\":51249}]","rt":54023,"trial_type":"instructions","trial_index":1,"time_elapsed":695607,"internal_node_id":"0.0-1.0"},{"group":"hexagon_tri","room_assignment":["green","grey","purple","blue","yellow","red"],"door_color_assignment":["black","white"],"door_generator_assignment":[1,0],"goal":4,"start":0,"action_noise":0.2,"location_history":"[0,5,0,5,0,1,3,4]","action_history":"[0,1,0,1,1,1,0]","door_history":"[1,0,1,0,0,0,1]","location_rts":"[15418,3039,1637,1982,1204,1362,2285]","trial_type":"two-door-navigation","trial_index":2,"time_elapsed":733208,"internal_node_id":"0.0-2.0-0.0"},{"group":"hexagon_tri","room_assignment":["green","grey","purple","blue","yellow","red"],"door_color_assignment":["black","white"],"door_generator_assignment":[1,0],"goal":3,"start":4,"action_noise":0.2,"location_history":"[4,0,5,0,1,5,0,5,4,0,5,4,0,5,4,0,5,4,2,1,5,4,0,5,0,1,3]","action_history":"[0,0,1,1,1,0,0,0,0,0,0,1,0,1,0,0,0,1,1,1,0,0,1,1,0,1]","door_history":"[1,1,0,0,0,1,1,1,1,1,1,0,1,0,1,1,1,0,0,0,1,1,0,0,1,0]","location_rts":"[3007,1381,1721,1216,848,1621,1001,640,826,2898,1041,2547,1314,1529,2891,1360,960,3221,4051,2035,2385,1121,1666,998,2977,2571]","trial_type":"two-door-navigation","trial_index":3,"time_elapsed":811047,"internal_node_id":"0.0-2.0-1.0"},{"group":"hexagon_tri","room_assignment":["green","grey","purple","blue","yellow","red"],"door_color_assignment":["black","white"],"door_generator_assignment":[1,0],"goal":5,"start":3,"action_noise":0.2,"location_history":"[3,2,1,5]","action_history":"[0,0,1]","door_history":"[1,1,0]","location_rts":"[4867,1845,1603]","trial_type":"two-door-navigation","trial_index":4,"time_elapsed":825924,"internal_node_id":"0.0-2.0-2.0"},{"group":"hexagon_tri","room_assignment":["green","grey","purple","blue","yellow","red"],"door_color_assignment":["black","white"],"door_generator_assignment":[1,0],"goal":2,"start":5,"action_noise":0.2,"location_history":"[5,4,2]","action_history":"[1,1]","door_history":"[0,0]","location_rts":"[2059,2284]","trial_type":"two-door-navigation","trial_index":5,"time_elapsed":835813,"internal_node_id":"0.0-2.0-3.0"},{"group":"hexagon_tri","room_assignment":["green","grey","purple","blue","yellow","red"],"door_color_assignment":["black","white"],"door_generator_assignment":[1,0],"goal":1,"start":2,"action_noise":0.2,"location_history":"[2,3,2,1]","action_history":"[1,0,0]","door_history":"[0,1,1]","location_rts":"[2026,2033,1277]","trial_type":"two-door-navigation","trial_index":6,"time_elapsed":847711,"internal_node_id":"0.0-2.0-4.0"},{"group":"hexagon_tri","room_assignment":["green","grey","purple","blue","yellow","red"],"door_color_assignment":["black","white"],"door_generator_assignment":[1,0],"goal":4,"start":1,"action_noise":0.2,"location_history":"[1,5,4]","action_history":"[1,0]","door_history":"[0,1]","location_rts":"[3288,2199]","trial_type":"two-door-navigation","trial_index":7,"time_elapsed":858735,"internal_node_id":"0.0-2.0-5.0"},{"group":"hexagon_tri","room_assignment":["green","grey","purple","blue","yellow","red"],"door_color_assignment":["black","white"],"door_generator_assignment":[1,0],"goal":1,"start":4,"action_noise":0.2,"location_history":"[4,0,5,0,1]","action_history":"[1,1,1,1]","door_history":"[0,0,0,0]","location_rts":"[2807,1103,881,1021]","trial_type":"two-door-navigation","trial_index":8,"time_elapsed":872147,"internal_node_id":"0.0-2.0-6.0"},{"group":"hexagon_tri","room_assignment":["green","grey","purple","blue","yellow","red"],"door_color_assignment":["black","white"],"door_generator_assignment":[1,0],"goal":5,"start":1,"action_noise":0.2,"location_history":"[1,5]","action_history":"[1]","door_history":"[0]","location_rts":"[1487]","trial_type":"two-door-navigation","trial_index":9,"time_elapsed":878159,"internal_node_id":"0.0-2.0-7.0"},{"group":"hexagon_tri","room_assignment":["green","grey","purple","blue","yellow","red"],"door_color_assignment":["black","white"],"door_generator_assignment":[1,0],"goal":0,"start":5,"action_noise":0.2,"location_history":"[5,0]","action_history":"[1]","door_history":"[0]","location_rts":"[1687]","trial_type":"two-door-navigation","trial_index":10,"time_elapsed":884371,"internal_node_id":"0.0-2.0-8.0"},{"group":"hexagon_tri","room_assignment":["green","grey","purple","blue","yellow","red"],"door_color_assignment":["black","white"],"door_generator_assignment":[1,0],"goal":2,"start":0,"action_noise":0.2,"location_history":"[0,1,3,4,2]","action_history":"[1,0,1,1]","door_history":"[0,1,0,0]","location_rts":"[1719,1865,1581,1296]","trial_type":"two-door-navigation","trial_index":11,"time_elapsed":898410,"internal_node_id":"0.0-2.0-9.0"},{"group":"hexagon_tri","room_assignment":["green","grey","purple","blue","yellow","red"],"door_color_assignment":["black","white"],"door_generator_assignment":[1,0],"goal":3,"start":2,"action_noise":0.2,"location_history":"[2,1,3]","action_history":"[0,1]","door_history":"[1,0]","location_rts":"[3186,2046]","trial_type":"two-door-navigation","trial_index":12,"time_elapsed":909193,"internal_node_id":"0.0-2.0-10.0"},{"group":"hexagon_tri","room_assignment":["green","grey","purple","blue","yellow","red"],"door_color_assignment":["black","white"],"door_generator_assignment":[1,0],"goal":0,"start":3,"action_noise":0.2,"location_history":"[3,4,2,3,2,1,3,2,1,3,4,2,3,4,0]","action_history":"[1,1,0,0,0,0,0,0,0,1,1,1,1,0]","door_history":"[0,0,1,1,1,1,1,1,1,0,0,0,0,1]","location_rts":"[1835,1277,1399,759,873,866,672,667,752,1341,683,548,763,2258]","trial_type":"two-door-navigation","trial_index":13,"time_elapsed":941688,"internal_node_id":"0.0-2.0-11.0"},{"group":"hexagon_tri","room_assignment":["green","grey","purple","blue","yellow","red"],"door_color_assignment":["black","white"],"door_generator_assignment":[1,0],"goal":2,"start":0,"action_noise":0.2,"location_history":"[0,1,5,4,2]","action_history":"[1,1,1,1]","door_history":"[0,0,0,0]","location_rts":"[5262,1078,2018,645]","trial_type":"two-door-navigation","trial_index":14,"time_elapsed":958287,"internal_node_id":"0.0-2.0-12.0"},{"group":"hexagon_tri","room_assignment":["green","grey","purple","blue","yellow","red"],"door_color_assignment":["black","white"],"door_generator_assignment":[1,0],"goal":5,"start":2,"action_noise":0.2,"location_history":"[2,3,2,3,2,3,4,2,1,3,2,3,4,0,5]","action_history":"[0,1,1,0,1,1,1,0,0,0,0,0,0,0]","door_history":"[1,0,0,1,0,0,0,1,1,1,1,1,1,1]","location_rts":"[3030,5170,2195,1193,2497,725,1990,1573,832,1041,664,726,757,710]","trial_type":"two-door-navigation","trial_index":15,"time_elapsed":999177,"internal_node_id":"0.0-2.0-13.0"},{"group":"hexagon_tri","room_assignment":["green","grey","purple","blue","yellow","red"],"door_color_assignment":["black","white"],"door_generator_assignment":[1,0],"goal":4,"start":5,"action_noise":0.2,"location_history":"[5,0,5,0,1,3,2,1,3,2,3,2,3,2,3,4]","action_history":"[1,0,1,1,0,0,0,0,1,1,0,1,0,1,1]","door_history":"[0,1,0,0,1,1,1,1,0,0,1,0,1,0,0]","location_rts":"[3011,2204,1887,1543,1498,1183,1093,760,2366,728,1301,1534,1495,1637,755]","trial_type":"two-door-navigation","trial_index":16,"time_elapsed":1040978,"internal_node_id":"0.0-2.0-14.0"},{"group":"hexagon_tri","room_assignment":["green","grey","purple","blue","yellow","red"],"door_color_assignment":["black","white"],"door_generator_assignment":[1,0],"goal":3,"start":4,"action_noise":0.2,"location_history":"[4,2,1,5,4,0,1,3]","action_history":"[1,0,1,1,0,0,0]","door_history":"[0,1,0,0,1,1,1]","location_rts":"[1773,1291,1635,1228,1103,842,620]","trial_type":"two-door-navigation","trial_index":17,"time_elapsed":1060121,"internal_node_id":"0.0-2.0-15.0"},{"group":"hexagon_tri","room_assignment":["green","grey","purple","blue","yellow","red"],"door_color_assignment":["black","white"],"door_generator_assignment":[1,0],"goal":1,"start":3,"action_noise":0.2,"location_history":"[3,4,0,1]","action_history":"[1,1,0]","door_history":"[0,0,1]","location_rts":"[3753,2234,1470]","trial_type":"two-door-navigation","trial_index":18,"time_elapsed":1074136,"internal_node_id":"0.0-2.0-16.0"},{"group":"hexagon_tri","room_assignment":["green","grey","purple","blue","yellow","red"],"door_color_assignment":["black","white"],"door_generator_assignment":[1,0],"goal":5,"start":1,"action_noise":0.2,"location_history":"[1,5]","action_history":"[1]","door_history":"[0]","location_rts":"[2848]","trial_type":"two-door-navigation","trial_index":19,"time_elapsed":1081505,"internal_node_id":"0.0-2.0-17.0"},{"group":"hexagon_tri","room_assignment":["green","grey","purple","blue","yellow","red"],"door_color_assignment":["black","white"],"door_generator_assignment":[1,0],"goal":4,"start":5,"action_noise":0.2,"location_history":"[5,0,5,0,5,0,1,3,2,3,4]","action_history":"[1,0,1,1,1,0,0,1,1,1]","door_history":"[0,1,0,0,0,1,1,0,0,0]","location_rts":"[4023,1172,1474,857,720,2059,945,1700,634,629]","trial_type":"two-door-navigation","trial_index":20,"time_elapsed":1109414,"internal_node_id":"0.0-2.0-18.0"},{"group":"hexagon_tri","room_assignment":["green","grey","purple","blue","yellow","red"],"door_color_assignment":["black","white"],"door_generator_assignment":[1,0],"goal":0,"start":4,"action_noise":0.2,"location_history":"[4,0]","action_history":"[1]","door_history":"[0]","location_rts":"[2896]","trial_type":"two-door-navigation","trial_index":21,"time_elapsed":1116836,"internal_node_id":"0.0-2.0-19.0"},{"group":"hexagon_tri","room_assignment":["green","grey","purple","blue","yellow","red"],"door_color_assignment":["black","white"],"door_generator_assignment":[1,0],"goal":1,"start":0,"action_noise":0.2,"location_history":"[0,5,0,5,0,1]","action_history":"[0,1,0,1,1]","door_history":"[1,0,1,0,0]","location_rts":"[2719,1371,1294,1433,566]","trial_type":"two-door-navigation","trial_index":22,"time_elapsed":1132817,"internal_node_id":"0.0-2.0-20.0"},{"group":"hexagon_tri","room_assignment":["green","grey","purple","blue","yellow","red"],"door_color_assignment":["black","white"],"door_generator_assignment":[1,0],"goal":3,"start":1,"action_noise":0.2,"location_history":"[1,5,4,0,5,4,0,1,5,4,2,3]","action_history":"[1,0,0,0,0,0,1,1,0,1,1]","door_history":"[0,1,1,1,1,1,0,0,1,0,0]","location_rts":"[1437,1176,3384,1890,1596,1094,1790,1577,1373,1511,609]","trial_type":"two-door-navigation","trial_index":23,"time_elapsed":1164971,"internal_node_id":"0.0-2.0-21.0"},{"group":"hexagon_tri","room_assignment":["green","grey","purple","blue","yellow","red"],"door_color_assignment":["black","white"],"door_generator_assignment":[1,0],"goal":2,"start":3,"action_noise":0.2,"location_history":"[3,4,2]","action_history":"[1,1]","door_history":"[0,0]","location_rts":"[3585,760]","trial_type":"two-door-navigation","trial_index":24,"time_elapsed":1174865,"internal_node_id":"0.0-2.0-22.0"},{"group":"hexagon_tri","room_assignment":["green","grey","purple","blue","yellow","red"],"door_color_assignment":["black","white"],"door_generator_assignment":[1,0],"goal":0,"start":2,"action_noise":0.2,"location_history":"[2,3,2,3,2,3,2,1,3,2,1,3,4,0]","action_history":"[1,0,0,0,1,1,0,0,0,0,0,1,0]","door_history":"[0,1,1,1,0,0,1,1,1,1,1,0,1]","location_rts":"[4041,1312,576,742,1410,910,1543,1322,736,2264,755,1910,1681]","trial_type":"two-door-navigation","trial_index":25,"time_elapsed":1210844,"internal_node_id":"0.0-2.0-23.0"},{"group":"hexagon_tri","room_assignment":["green","grey","purple","blue","yellow","red"],"door_color_assignment":["black","white"],"door_generator_assignment":[1,0],"goal":3,"start":0,"action_noise":0.2,"location_history":"[0,5,4,0,1,5,4,2,1,3]","action_history":"[0,0,0,1,1,0,1,0,0]","door_history":"[1,1,1,0,0,1,0,1,1]","location_rts":"[3528,5733,833,1865,841,1694,1854,977,922]","trial_type":"two-door-navigation","trial_index":26,"time_elapsed":1241760,"internal_node_id":"0.0-2.0-24.0"},{"group":"hexagon_tri","room_assignment":["green","grey","purple","blue","yellow","red"],"door_color_assignment":["black","white"],"door_generator_assignment":[1,0],"goal":1,"start":3,"action_noise":0.2,"location_history":"[3,2,3,2,3,4,0,1]","action_history":"[1,1,0,1,1,0,0]","door_history":"[0,0,1,0,0,1,1]","location_rts":"[3266,1814,1244,1216,721,1510,676]","trial_type":"two-door-navigation","trial_index":27,"time_elapsed":1262892,"internal_node_id":"0.0-2.0-25.0"},{"group":"hexagon_tri","room_assignment":["green","grey","purple","blue","yellow","red"],"door_color_assignment":["black","white"],"door_generator_assignment":[1,0],"goal":2,"start":1,"action_noise":0.2,"location_history":"[1,5,4,2]","action_history":"[0,1,1]","door_history":"[1,0,0]","location_rts":"[2762,1505,1510]","trial_type":"two-door-navigation","trial_index":28,"time_elapsed":1275228,"internal_node_id":"0.0-2.0-26.0"},{"group":"hexagon_tri","room_assignment":["green","grey","purple","blue","yellow","red"],"door_color_assignment":["black","white"],"door_generator_assignment":[1,0],"goal":5,"start":2,"action_noise":0.2,"location_history":"[2,3,4,0,1,5]","action_history":"[1,0,0,0,1]","door_history":"[0,1,1,1,0]","location_rts":"[5020,1175,606,1077,1891]","trial_type":"two-door-navigation","trial_index":29,"time_elapsed":1293597,"internal_node_id":"0.0-2.0-27.0"},{"group":"hexagon_tri","room_assignment":["green","grey","purple","blue","yellow","red"],"door_color_assignment":["black","white"],"door_generator_assignment":[1,0],"goal":4,"start":5,"action_noise":0.2,"location_history":"[5,4]","action_history":"[0]","door_history":"[1]","location_rts":"[2734]","trial_type":"two-door-navigation","trial_index":30,"time_elapsed":1300864,"internal_node_id":"0.0-2.0-28.0"},{"group":"hexagon_tri","room_assignment":["green","grey","purple","blue","yellow","red"],"door_color_assignment":["black","white"],"door_generator_assignment":[1,0],"goal":5,"start":4,"action_noise":0.2,"location_history":"[4,0,1,5]","action_history":"[0,0,1]","door_history":"[1,1,0]","location_rts":"[2251,803,1989]","trial_type":"two-door-navigation","trial_index":31,"time_elapsed":1312468,"internal_node_id":"0.0-2.0-29.0"},{"group":"hexagon_tri","room_assignment":["green","grey","purple","blue","yellow","red"],"door_color_assignment":["black","white"],"door_generator_assignment":[1,0],"goal":3,"start":5,"action_noise":0.2,"location_history":"[5,0,1,5,4,0,1,5,0,1,5,0,5,4,2,1,5,0,1,5,4,0,5,0,1,5,0,5,0,1,3]","action_history":"[1,1,1,0,0,1,1,1,1,0,1,1,0,1,0,1,0,1,1,0,0,1,1,1,1,1,0,1,1,0]","door_history":"[0,0,0,1,1,0,0,0,0,1,0,0,1,0,1,0,1,0,0,1,1,0,0,0,0,0,1,0,0,1]","location_rts":"[6313,3000,1015,1028,981,1691,1257,720,1048,1067,1566,875,1274,1265,1701,1493,1059,1117,860,1772,654,1124,1021,893,1065,595,1206,1280,2038,2163]","trial_type":"two-door-navigation","trial_index":32,"time_elapsed":1389685,"internal_node_id":"0.0-2.0-30.0"},{"group":"hexagon_tri","room_assignment":["green","grey","purple","blue","yellow","red"],"door_color_assignment":["black","white"],"door_generator_assignment":[1,0],"goal":0,"start":3,"action_noise":0.2,"location_history":"[3,4,2,3,4,0]","action_history":"[1,1,1,0,0]","door_history":"[0,0,0,1,1]","location_rts":"[42288,6916,4091,2112,4414]","trial_type":"two-door-navigation","trial_index":33,"time_elapsed":1458099,"internal_node_id":"0.0-2.0-31.0"},{"group":"hexagon_tri","room_assignment":["green","grey","purple","blue","yellow","red"],"door_color_assignment":["black","white"],"door_generator_assignment":[1,0],"goal":4,"start":0,"action_noise":0.2,"location_history":"[0,1,5,4]","action_history":"[1,1,0]","door_history":"[0,0,1]","location_rts":"[6308,1933,1659]","trial_type":"two-door-navigation","trial_index":34,"time_elapsed":1474567,"internal_node_id":"0.0-2.0-32.0"},{"group":"hexagon_tri","room_assignment":["green","grey","purple","blue","yellow","red"],"door_color_assignment":["black","white"],"door_generator_assignment":[1,0],"goal":1,"start":4,"action_noise":0.2,"location_history":"[4,0,5,0,5,4,2,3,2,3,2,1]","action_history":"[0,1,1,1,0,1,1,1,1,0,0]","door_history":"[1,0,0,0,1,0,0,0,0,1,1]","location_rts":"[11123,11727,7289,2601,14294,3565,1925,1758,1107,4847,1747]","trial_type":"two-door-navigation","trial_index":35,"time_elapsed":1551296,"internal_node_id":"0.0-2.0-33.0"},{"group":"hexagon_tri","room_assignment":["green","grey","purple","blue","yellow","red"],"door_color_assignment":["black","white"],"door_generator_assignment":[1,0],"goal":2,"start":1,"action_noise":0.2,"location_history":"[1,5,0,1,5,0,1,5,4,0,1,5,4,2]","action_history":"[1,1,0,1,1,1,1,0,1,1,1,1,0]","door_history":"[0,0,1,0,0,0,0,1,0,0,0,0,1]","location_rts":"[4758,3008,2806,1591,1179,2172,1555,1567,1517,1051,2877,1779,1275]","trial_type":"two-door-navigation","trial_index":36,"time_elapsed":1595180,"internal_node_id":"0.0-2.0-34.0"},{"group":"hexagon_tri","room_assignment":["green","grey","purple","blue","yellow","red"],"door_color_assignment":["black","white"],"door_generator_assignment":[1,0],"goal":0,"start":2,"action_noise":0.2,"location_history":"[2,3,4,2,3,2,1,3,2,3,2,1,5,4,0]","action_history":"[1,0,1,1,0,0,0,1,1,0,1,1,0,0]","door_history":"[0,1,0,0,1,1,1,0,0,1,0,0,1,1]","location_rts":"[5878,4798,4906,7416,2475,1121,2057,1616,1695,1264,2195,1018,1702,3715]","trial_type":"two-door-navigation","trial_index":37,"time_elapsed":1654810,"internal_node_id":"0.0-2.0-35.0"},{"group":"hexagon_tri","room_assignment":["green","grey","purple","blue","yellow","red"],"door_color_assignment":["black","white"],"door_generator_assignment":[1,0],"goal":5,"start":0,"action_noise":0.2,"location_history":"[0,5]","action_history":"[0]","door_history":"[1]","location_rts":"[3564]","trial_type":"two-door-navigation","trial_index":38,"time_elapsed":1662899,"internal_node_id":"0.0-2.0-36.0"},{"group":"hexagon_tri","room_assignment":["green","grey","purple","blue","yellow","red"],"door_color_assignment":["black","white"],"door_generator_assignment":[1,0],"goal":2,"start":5,"action_noise":0.2,"location_history":"[5,0,1,5,0,1,5,4,2]","action_history":"[1,1,1,1,0,1,1,1]","door_history":"[0,0,0,0,1,0,0,0]","location_rts":"[2636,1308,837,2522,1619,1461,1863,2038]","trial_type":"two-door-navigation","trial_index":39,"time_elapsed":1688853,"internal_node_id":"0.0-2.0-37.0"},{"group":"hexagon_tri","room_assignment":["green","grey","purple","blue","yellow","red"],"door_color_assignment":["black","white"],"door_generator_assignment":[1,0],"goal":1,"start":2,"action_noise":0.2,"location_history":"[2,3,2,3,2,1]","action_history":"[1,0,1,0,0]","door_history":"[0,1,0,1,1]","location_rts":"[3621,2325,1551,1673,1942]","trial_type":"two-door-navigation","trial_index":40,"time_elapsed":1708574,"internal_node_id":"0.0-2.0-38.0"},{"group":"hexagon_tri","room_assignment":["green","grey","purple","blue","yellow","red"],"door_color_assignment":["black","white"],"door_generator_assignment":[1,0],"goal":4,"start":1,"action_noise":0.2,"location_history":"[1,3,4]","action_history":"[1,1]","door_history":"[0,0]","location_rts":"[15938,12868]","trial_type":"two-door-navigation","trial_index":41,"time_elapsed":1742943,"internal_node_id":"0.0-2.0-39.0"},{"group":"hexagon_tri","room_assignment":["green","grey","purple","blue","yellow","red"],"door_color_assignment":["black","white"],"door_generator_assignment":[1,0],"goal":3,"start":4,"action_noise":0.2,"location_history":"[4,0,1,3]","action_history":"[1,0,1]","door_history":"[0,1,0]","location_rts":"[13238,2515,1352]","trial_type":"two-door-navigation","trial_index":42,"time_elapsed":1766603,"internal_node_id":"0.0-2.0-40.0"},{"group":"hexagon_tri","room_assignment":["green","grey","purple","blue","yellow","red"],"door_color_assignment":["black","white"],"door_generator_assignment":[1,0],"goal":5,"start":3,"action_noise":0.2,"location_history":"[3,4,0,5]","action_history":"[0,0,0]","door_history":"[1,1,1]","location_rts":"[8186,992,1109]","trial_type":"two-door-navigation","trial_index":43,"time_elapsed":1783457,"internal_node_id":"0.0-2.0-41.0"},{"group":"hexagon_tri","room_assignment":["green","grey","purple","blue","yellow","red"],"door_color_assignment":["black","white"],"door_generator_assignment":[1,0],"goal":3,"start":5,"action_noise":0.2,"location_history":"[5,0,1,5,4,0,5,0,5,4,0,1,5,4,2,3]","action_history":"[1,1,1,1,1,0,1,1,1,0,0,0,1,1,1]","door_history":"[0,0,0,0,0,1,0,0,0,1,1,1,0,0,0]","location_rts":"[2414,2953,5703,1508,1096,2332,1617,1390,1032,1748,1267,1332,2002,1145,1038]","trial_type":"two-door-navigation","trial_index":44,"time_elapsed":1830846,"internal_node_id":"0.0-2.0-42.0"},{"group":"hexagon_tri","room_assignment":["green","grey","purple","blue","yellow","red"],"door_color_assignment":["black","white"],"door_generator_assignment":[1,0],"goal":0,"start":3,"action_noise":0.2,"location_history":"[3,4,2,1,3,2,1,5,0]","action_history":"[1,1,0,1,0,1,1,0]","door_history":"[0,0,1,0,1,0,0,1]","location_rts":"[3977,1887,4870,1525,2221,1420,976,2245]","trial_type":"two-door-navigation","trial_index":45,"time_elapsed":1861639,"internal_node_id":"0.0-2.0-43.0"},{"group":"hexagon_tri","room_assignment":["green","grey","purple","blue","yellow","red"],"door_color_assignment":["black","white"],"door_generator_assignment":[1,0],"goal":2,"start":0,"action_noise":0.2,"location_history":"[0,1,5,4,0,5,0,1,5,0,5,4,2]","action_history":"[1,1,0,1,0,1,1,1,1,0,0,1]","door_history":"[0,0,1,0,1,0,0,0,0,1,1,0]","location_rts":"[4784,1434,1946,1639,2054,1474,1306,1316,1381,1686,1382,1682]","trial_type":"two-door-navigation","trial_index":46,"time_elapsed":1899434,"internal_node_id":"0.0-2.0-44.0"},{"group":"hexagon_tri","room_assignment":["green","grey","purple","blue","yellow","red"],"door_color_assignment":["black","white"],"door_generator_assignment":[1,0],"goal":4,"start":2,"action_noise":0.2,"location_history":"[2,3,4]","action_history":"[1,1]","door_history":"[0,0]","location_rts":"[1911,903]","trial_type":"two-door-navigation","trial_index":47,"time_elapsed":1907787,"internal_node_id":"0.0-2.0-45.0"},{"group":"hexagon_tri","room_assignment":["green","grey","purple","blue","yellow","red"],"door_color_assignment":["black","white"],"door_generator_assignment":[1,0],"goal":1,"start":4,"action_noise":0.2,"location_history":"[4,2,3,4,2,3,4,2,1]","action_history":"[1,1,0,1,1,1,1,0]","door_history":"[0,0,1,0,0,0,0,1]","location_rts":"[2912,1955,2249,1981,1931,1310,1474,1508]","trial_type":"two-door-navigation","trial_index":48,"time_elapsed":1934768,"internal_node_id":"0.0-2.0-46.0"},{"group":"hexagon_tri","room_assignment":["green","grey","purple","blue","yellow","red"],"door_color_assignment":["black","white"],"door_generator_assignment":[1,0],"goal":4,"start":1,"action_noise":0.2,"location_history":"[1,5,4]","action_history":"[1,0]","door_history":"[0,1]","location_rts":"[3169,1259]","trial_type":"two-door-navigation","trial_index":49,"time_elapsed":1944734,"internal_node_id":"0.0-2.0-47.0"},{"group":"hexagon_tri","room_assignment":["green","grey","purple","blue","yellow","red"],"door_color_assignment":["black","white"],"door_generator_assignment":[1,0],"goal":1,"start":4,"action_noise":0.2,"location_history":"[4,2,3,4,0,5,0,1]","action_history":"[1,1,1,1,1,1,0]","door_history":"[0,0,0,0,0,0,1]","location_rts":"[6340,3226,3657,3654,8056,1706,1670]","trial_type":"two-door-navigation","trial_index":50,"time_elapsed":1983686,"internal_node_id":"0.0-2.0-48.0"},{"group":"hexagon_tri","room_assignment":["green","grey","purple","blue","yellow","red"],"door_color_assignment":["black","white"],"door_generator_assignment":[1,0],"goal":3,"start":1,"action_noise":0.2,"location_history":"[1,5,0,5,0,5,0,5,4,0,1,5,0,1,3]","action_history":"[1,1,0,1,0,1,1,0,0,0,1,1,1,0]","door_history":"[0,0,1,0,1,0,0,1,1,1,0,0,0,1]","location_rts":"[4169,1683,1593,1482,1950,1593,606,2299,1888,2480,1443,1901,1834,1302]","trial_type":"two-door-navigation","trial_index":51,"time_elapsed":2027691,"internal_node_id":"0.0-2.0-49.0"},{"group":"hexagon_tri","room_assignment":["green","grey","purple","blue","yellow","red"],"door_color_assignment":["black","white"],"door_generator_assignment":[1,0],"goal":5,"start":3,"action_noise":0.2,"location_history":"[3,2,1,3,2,3,2,3,2,1,3,2,1,5]","action_history":"[0,1,0,0,1,1,1,0,0,0,0,0,1]","door_history":"[1,0,1,1,0,0,0,1,1,1,1,1,0]","location_rts":"[2492,1701,1333,1594,1364,756,1551,1480,704,774,1852,918,1408]","trial_type":"two-door-navigation","trial_index":52,"time_elapsed":2062391,"internal_node_id":"0.0-2.0-50.0"},{"group":"hexagon_tri","room_assignment":["green","grey","purple","blue","yellow","red"],"door_color_assignment":["black","white"],"door_generator_assignment":[1,0],"goal":0,"start":5,"action_noise":0.2,"location_history":"[5,4,0]","action_history":"[0,0]","door_history":"[1,1]","location_rts":"[2942,913]","trial_type":"two-door-navigation","trial_index":53,"time_elapsed":2071800,"internal_node_id":"0.0-2.0-51.0"},{"group":"hexagon_tri","room_assignment":["green","grey","purple","blue","yellow","red"],"door_color_assignment":["black","white"],"door_generator_assignment":[1,0],"goal":2,"start":0,"action_noise":0.2,"location_history":"[0,5,0,5,4,0,5,0,1,3,2]","action_history":"[1,1,0,0,1,0,1,1,0,1]","door_history":"[0,0,1,1,0,1,0,0,1,0]","location_rts":"[6137,3145,2269,1343,1205,2722,1139,1352,1991,1985]","trial_type":"two-door-navigation","trial_index":54,"time_elapsed":2108801,"internal_node_id":"0.0-2.0-52.0"},{"group":"hexagon_tri","room_assignment":["green","grey","purple","blue","yellow","red"],"door_color_assignment":["black","white"],"door_generator_assignment":[1,0],"goal":1,"start":2,"action_noise":0.2,"location_history":"[2,3,4,2,1]","action_history":"[1,1,1,0]","door_history":"[0,0,0,1]","location_rts":"[2780,1594,1761,1507]","trial_type":"two-door-navigation","trial_index":55,"time_elapsed":2124020,"internal_node_id":"0.0-2.0-53.0"},{"group":"hexagon_tri","room_assignment":["green","grey","purple","blue","yellow","red"],"door_color_assignment":["black","white"],"door_generator_assignment":[1,0],"goal":2,"start":1,"action_noise":0.2,"location_history":"[1,3,4,2]","action_history":"[0,1,1]","door_history":"[1,0,0]","location_rts":"[6318,1433,2207]","trial_type":"two-door-navigation","trial_index":56,"time_elapsed":2140539,"internal_node_id":"0.0-2.0-54.0"},{"group":"hexagon_tri","room_assignment":["green","grey","purple","blue","yellow","red"],"door_color_assignment":["black","white"],"door_generator_assignment":[1,0],"goal":5,"start":2,"action_noise":0.2,"location_history":"[2,3,4,0,5]","action_history":"[0,1,0,0]","door_history":"[1,0,1,1]","location_rts":"[5119,2077,1211,1157]","trial_type":"two-door-navigation","trial_index":57,"time_elapsed":2157688,"internal_node_id":"0.0-2.0-55.0"},{"group":"hexagon_tri","room_assignment":["green","grey","purple","blue","yellow","red"],"door_color_assignment":["black","white"],"door_generator_assignment":[1,0],"goal":4,"start":5,"action_noise":0.2,"location_history":"[5,0,1,3,4]","action_history":"[0,0,0,0]","door_history":"[1,1,1,1]","location_rts":"[4581,910,2496,1213]","trial_type":"two-door-navigation","trial_index":58,"time_elapsed":2174470,"internal_node_id":"0.0-2.0-56.0"},{"group":"hexagon_tri","room_assignment":["green","grey","purple","blue","yellow","red"],"door_color_assignment":["black","white"],"door_generator_assignment":[1,0],"goal":3,"start":4,"action_noise":0.2,"location_history":"[4,2,1,5,0,5,4,2,1,3]","action_history":"[1,0,1,1,0,1,1,0,0]","door_history":"[0,1,0,0,1,0,0,1,1]","location_rts":"[4182,1429,2132,2410,3371,1350,866,1775,1215]","trial_type":"two-door-navigation","trial_index":59,"time_elapsed":2205873,"internal_node_id":"0.0-2.0-57.0"},{"group":"hexagon_tri","room_assignment":["green","grey","purple","blue","yellow","red"],"door_color_assignment":["black","white"],"door_generator_assignment":[1,0],"goal":0,"start":3,"action_noise":0.2,"location_history":"[3,2,3,4,0]","action_history":"[0,1,1,0]","door_history":"[1,0,0,1]","location_rts":"[2694,2336,2110,1473]","trial_type":"two-door-navigation","trial_index":60,"time_elapsed":2222076,"internal_node_id":"0.0-2.0-58.0"},{"group":"hexagon_tri","room_assignment":["green","grey","purple","blue","yellow","red"],"door_color_assignment":["black","white"],"door_generator_assignment":[1,0],"goal":2,"start":0,"action_noise":0.2,"location_history":"[0,1,5,0,5,0,5,4,0,5,0,1,3,4,0,5,0,5,0,1,5,0,5,0,1,3,2]","action_history":"[1,1,1,0,1,1,1,0,1,1,1,0,1,1,0,1,0,1,1,1,0,0,1,1,0,0]","door_history":"[0,0,0,1,0,0,0,1,0,0,0,1,0,0,1,0,1,0,0,0,1,1,0,0,1,1]","location_rts":"[3518,1095,1796,1881,1650,711,1859,1322,1789,843,579,1968,1512,2030,1679,2040,1929,1159,840,2462,1454,679,1150,4360,1732,751]","trial_type":"two-door-navigation","trial_index":61,"time_elapsed":2294862,"internal_node_id":"0.0-2.0-59.0"},{"group":"hexagon_tri","room_assignment":["green","grey","purple","blue","yellow","red"],"door_color_assignment":["black","white"],"door_generator_assignment":[1,0],"goal":1,"start":2,"action_noise":0.2,"location_history":"[2,3,2,1]","action_history":"[1,0,0]","door_history":"[0,1,1]","location_rts":"[6075,1113,3386]","trial_type":"two-door-navigation","trial_index":62,"time_elapsed":2311996,"internal_node_id":"0.0-2.0-60.0"},{"group":"hexagon_tri","room_assignment":["green","grey","purple","blue","yellow","red"],"door_color_assignment":["black","white"],"door_generator_assignment":[1,0],"goal":0,"start":1,"action_noise":0.2,"location_history":"[1,3,2,3,2,3,2,3,2,1,3,2,3,2,3,2,3,2,1,3,2,1,5,4,0]","action_history":"[0,0,1,0,1,0,0,0,0,0,0,1,1,1,0,1,0,1,1,0,0,1,0,0]","door_history":"[1,1,0,1,0,1,1,1,1,1,1,0,0,0,1,0,1,0,0,1,1,0,1,1]","location_rts":"[9085,1165,1683,1857,1251,1494,548,996,742,956,2002,1978,929,610,1412,1282,2052,1253,1613,1715,904,1860,2150,667]","trial_type":"two-door-navigation","trial_index":63,"time_elapsed":2380296,"internal_node_id":"0.0-2.0-61.0"},{"group":"hexagon_tri","room_assignment":["green","grey","purple","blue","yellow","red"],"door_color_assignment":["black","white"],"door_generator_assignment":[1,0],"goal":3,"start":0,"action_noise":0.2,"location_history":"[0,1,5,0,5,0,1,3]","action_history":"[1,1,1,0,1,1,1]","door_history":"[0,0,0,1,0,0,0]","location_rts":"[4423,2968,2722,1232,1423,1395,2275]","trial_type":"two-door-navigation","trial_index":64,"time_elapsed":2407377,"internal_node_id":"0.0-2.0-62.0"},{"group":"hexagon_tri","room_assignment":["green","grey","purple","blue","yellow","red"],"door_color_assignment":["black","white"],"door_generator_assignment":[1,0],"goal":5,"start":3,"action_noise":0.2,"location_history":"[3,4,2,1,3,2,1,3,2,3,2,1,3,4,2,3,4,0,5]","action_history":"[1,0,0,0,1,0,0,0,1,0,0,0,1,1,0,1,0,0]","door_history":"[0,1,1,1,0,1,1,1,0,1,1,1,0,0,1,0,1,1]","location_rts":"[27212,8869,1072,1993,1701,1449,1049,900,1763,1870,2916,1907,5510,2415,1760,1499,847,1687]","trial_type":"two-door-navigation","trial_index":65,"time_elapsed":2495673,"internal_node_id":"0.0-2.0-63.0"},{"group":"hexagon_tri","room_assignment":["green","grey","purple","blue","yellow","red"],"door_color_assignment":["black","white"],"door_generator_assignment":[1,0],"goal":4,"start":5,"action_noise":0.2,"location_history":"[5,0,5,4]","action_history":"[0,0,0]","door_history":"[1,1,1]","location_rts":"[5079,754,845]","trial_type":"two-door-navigation","trial_index":66,"time_elapsed":2508913,"internal_node_id":"0.0-2.0-64.0"},{"group":"hexagon_tri","room_assignment":["green","grey","purple","blue","yellow","red"],"door_color_assignment":["black","white"],"door_generator_assignment":[1,0],"goal":1,"start":4,"action_noise":0.2,"location_history":"[4,0,1]","action_history":"[1,1]","door_history":"[0,0]","location_rts":"[5079,3750]","trial_type":"two-door-navigation","trial_index":67,"time_elapsed":2523276,"internal_node_id":"0.0-2.0-65.0"},{"group":"hexagon_tri","room_assignment":["green","grey","purple","blue","yellow","red"],"door_color_assignment":["black","white"],"door_generator_assignment":[1,0],"goal":5,"start":1,"action_noise":0.2,"location_history":"[1,5]","action_history":"[1]","door_history":"[0]","location_rts":"[3930]","trial_type":"two-door-navigation","trial_index":68,"time_elapsed":2531729,"internal_node_id":"0.0-2.0-66.0"},{"group":"hexagon_tri","room_assignment":["green","grey","purple","blue","yellow","red"],"door_color_assignment":["black","white"],"door_generator_assignment":[1,0],"goal":2,"start":5,"action_noise":0.2,"location_history":"[5,0,1,3,4,0,1,3,2]","action_history":"[1,1,0,1,1,1,0,0]","door_history":"[0,0,1,0,0,0,1,1]","location_rts":"[1734,1633,2688,1304,2302,1613,1606,1984]","trial_type":"two-door-navigation","trial_index":69,"time_elapsed":2558257,"internal_node_id":"0.0-2.0-67.0"},{"group":"hexagon_tri","room_assignment":["green","grey","purple","blue","yellow","red"],"door_color_assignment":["black","white"],"door_generator_assignment":[1,0],"goal":3,"start":2,"action_noise":0.2,"location_history":"[2,3]","action_history":"[1]","door_history":"[0]","location_rts":"[6104]","trial_type":"two-door-navigation","trial_index":70,"time_elapsed":2568890,"internal_node_id":"0.0-2.0-68.0"},{"group":"hexagon_tri","room_assignment":["green","grey","purple","blue","yellow","red"],"door_color_assignment":["black","white"],"door_generator_assignment":[1,0],"goal":4,"start":3,"action_noise":0.2,"location_history":"[3,4]","action_history":"[1]","door_history":"[0]","location_rts":"[3744]","trial_type":"two-door-navigation","trial_index":71,"time_elapsed":2577153,"internal_node_id":"0.0-2.0-69.0"},{"group":"hexagon_tri","room_assignment":["green","grey","purple","blue","yellow","red"],"door_color_assignment":["black","white"],"door_generator_assignment":[1,0],"goal":0,"start":4,"action_noise":0.2,"location_history":"[4,2,3,4,0]","action_history":"[0,1,0,0]","door_history":"[1,0,1,1]","location_rts":"[3166,2274,2938,1729]","trial_type":"two-door-navigation","trial_index":72,"time_elapsed":2594846,"internal_node_id":"0.0-2.0-70.0"},{"group":"hexagon_tri","room_assignment":["green","grey","purple","blue","yellow","red"],"door_color_assignment":["black","white"],"door_generator_assignment":[1,0],"goal":5,"start":0,"action_noise":0.2,"location_history":"[0,5]","action_history":"[0]","door_history":"[1]","location_rts":"[3753]","trial_type":"two-door-navigation","trial_index":73,"time_elapsed":2603125,"internal_node_id":"0.0-2.0-71.0"},{"group":"hexagon_tri","room_assignment":["green","grey","purple","blue","yellow","red"],"door_color_assignment":["black","white"],"door_generator_assignment":[1,0],"goal":0,"start":5,"action_noise":0.2,"location_history":"[5,4,0]","action_history":"[0,0]","door_history":"[1,1]","location_rts":"[2024,782]","trial_type":"two-door-navigation","trial_index":74,"time_elapsed":2611479,"internal_node_id":"0.0-2.0-72.0"},{"group":"hexagon_tri","room_assignment":["green","grey","purple","blue","yellow","red"],"door_color_assignment":["black","white"],"door_generator_assignment":[1,0],"goal":3,"start":0,"action_noise":0.2,"location_history":"[0,1,5,0,1,3]","action_history":"[0,1,1,1,0]","door_history":"[1,0,0,0,1]","location_rts":"[3745,1880,2300,1666,1422]","trial_type":"two-door-navigation","trial_index":75,"time_elapsed":2631105,"internal_node_id":"0.0-2.0-73.0"},{"group":"hexagon_tri","room_assignment":["green","grey","purple","blue","yellow","red"],"door_color_assignment":["black","white"],"door_generator_assignment":[1,0],"goal":1,"start":3,"action_noise":0.2,"location_history":"[3,4,2,3,4,2,1]","action_history":"[1,1,0,0,0,1]","door_history":"[0,0,1,1,1,0]","location_rts":"[4489,2604,1209,2279,1304,1150]","trial_type":"two-door-navigation","trial_index":76,"time_elapsed":2653785,"internal_node_id":"0.0-2.0-74.0"},{"group":"hexagon_tri","room_assignment":["green","grey","purple","blue","yellow","red"],"door_color_assignment":["black","white"],"door_generator_assignment":[1,0],"goal":2,"start":1,"action_noise":0.2,"location_history":"[1,5,0,5,4,0,1,3,2]","action_history":"[1,0,0,0,0,1,0,0]","door_history":"[0,1,1,1,1,0,1,1]","location_rts":"[4720,1904,814,959,1289,3810,1491,908]","trial_type":"two-door-navigation","trial_index":77,"time_elapsed":2681345,"internal_node_id":"0.0-2.0-75.0"},{"group":"hexagon_tri","room_assignment":["green","grey","purple","blue","yellow","red"],"door_color_assignment":["black","white"],"door_generator_assignment":[1,0],"goal":4,"start":2,"action_noise":0.2,"location_history":"[2,1,5,0,5,4]","action_history":"[0,1,0,0,0]","door_history":"[1,0,1,1,1]","location_rts":"[16043,1274,1984,560,524]","trial_type":"two-door-navigation","trial_index":78,"time_elapsed":2710339,"internal_node_id":"0.0-2.0-76.0"},{"group":"hexagon_tri","room_assignment":["green","grey","purple","blue","yellow","red"],"door_color_assignment":["black","white"],"door_generator_assignment":[1,0],"goal":3,"start":4,"action_noise":0.2,"location_history":"[4,0,1,5,4,0,5,0,1,5,4,2,3]","action_history":"[0,1,0,1,1,0,1,1,1,0,1,0]","door_history":"[1,0,1,0,0,1,0,0,0,1,0,1]","location_rts":"[4270,2349,2971,1384,1230,1421,1113,634,1626,1522,1101,1681]","trial_type":"two-door-navigation","trial_index":79,"time_elapsed":2747402,"internal_node_id":"0.0-2.0-77.0"},{"group":"hexagon_tri","room_assignment":["green","grey","purple","blue","yellow","red"],"door_color_assignment":["black","white"],"door_generator_assignment":[1,0],"goal":0,"start":3,"action_noise":0.2,"location_history":"[3,2,1,5,4,0]","action_history":"[0,0,0,0,0]","door_history":"[1,1,1,1,1]","location_rts":"[8126,1145,1127,3648,856]","trial_type":"two-door-navigation","trial_index":80,"time_elapsed":2770924,"internal_node_id":"0.0-2.0-78.0"},{"group":"hexagon_tri","room_assignment":["green","grey","purple","blue","yellow","red"],"door_color_assignment":["black","white"],"door_generator_assignment":[1,0],"goal":4,"start":0,"action_noise":0.2,"location_history":"[0,5,4]","action_history":"[0,0]","door_history":"[1,1]","location_rts":"[2993,1003]","trial_type":"two-door-navigation","trial_index":81,"time_elapsed":2780460,"internal_node_id":"0.0-2.0-79.0"},{"group":"hexagon_tri","room_assignment":["green","grey","purple","blue","yellow","red"],"door_color_assignment":["black","white"],"door_generator_assignment":[1,0],"goal":5,"start":4,"action_noise":0.2,"location_history":"[4,2,1,5]","action_history":"[0,0,1]","door_history":"[1,1,0]","location_rts":"[1987,582,1879]","trial_type":"two-door-navigation","trial_index":82,"time_elapsed":2791465,"internal_node_id":"0.0-2.0-80.0"},{"group":"hexagon_tri","room_assignment":["green","grey","purple","blue","yellow","red"],"door_color_assignment":["black","white"],"door_generator_assignment":[1,0],"goal":1,"start":5,"action_noise":0.2,"location_history":"[5,0,1]","action_history":"[1,1]","door_history":"[0,0]","location_rts":"[1646,1196]","trial_type":"two-door-navigation","trial_index":83,"time_elapsed":2799850,"internal_node_id":"0.0-2.0-81.0"},{"group":"hexagon_tri","room_assignment":["green","grey","purple","blue","yellow","red"],"door_color_assignment":["black","white"],"door_generator_assignment":[1,0],"goal":2,"start":1,"action_noise":0.2,"location_history":"[1,5,0,1,3,2]","action_history":"[1,1,1,0,1]","door_history":"[0,0,0,1,0]","location_rts":"[1948,3556,916,1024,2039]","trial_type":"two-door-navigation","trial_index":84,"time_elapsed":2817921,"internal_node_id":"0.0-2.0-82.0"},{"group":"hexagon_tri","room_assignment":["green","grey","purple","blue","yellow","red"],"door_color_assignment":["black","white"],"door_generator_assignment":[1,0],"goal":4,"start":2,"action_noise":0.2,"location_history":"[2,1,3,4]","action_history":"[0,0,1]","door_history":"[1,1,0]","location_rts":"[2730,1164,1730]","trial_type":"two-door-navigation","trial_index":85,"time_elapsed":2830108,"internal_node_id":"0.0-2.0-83.0"},{"group":"hexagon_tri","room_assignment":["green","grey","purple","blue","yellow","red"],"door_color_assignment":["black","white"],"door_generator_assignment":[1,0],"goal":0,"start":4,"action_noise":0.2,"location_history":"[4,0]","action_history":"[0]","door_history":"[1]","location_rts":"[4026]","trial_type":"two-door-navigation","trial_index":86,"time_elapsed":2838655,"internal_node_id":"0.0-2.0-84.0"},{"group":"hexagon_tri","room_assignment":["green","grey","purple","blue","yellow","red"],"door_color_assignment":["black","white"],"door_generator_assignment":[1,0],"goal":5,"start":0,"action_noise":0.2,"location_history":"[0,5]","action_history":"[0]","door_history":"[1]","location_rts":"[4477]","trial_type":"two-door-navigation","trial_index":87,"time_elapsed":2847659,"internal_node_id":"0.0-2.0-85.0"},{"group":"hexagon_tri","room_assignment":["green","grey","purple","blue","yellow","red"],"door_color_assignment":["black","white"],"door_generator_assignment":[1,0],"goal":3,"start":5,"action_noise":0.2,"location_history":"[5,4,2,3]","action_history":"[1,1,1]","door_history":"[0,0,0]","location_rts":"[4828,2479,2857]","trial_type":"two-door-navigation","trial_index":88,"time_elapsed":2864380,"internal_node_id":"0.0-2.0-86.0"},{"group":"hexagon_tri","room_assignment":["green","grey","purple","blue","yellow","red"],"door_color_assignment":["black","white"],"door_generator_assignment":[1,0],"goal":1,"start":3,"action_noise":0.2,"location_history":"[3,4,0,1]","action_history":"[1,1,1]","door_history":"[0,0,0]","location_rts":"[2596,1116,1917]","trial_type":"two-door-navigation","trial_index":89,"time_elapsed":2876579,"internal_node_id":"0.0-2.0-87.0"},{"group":"hexagon_tri","room_assignment":["green","grey","purple","blue","yellow","red"],"door_color_assignment":["black","white"],"door_generator_assignment":[1,0],"goal":2,"start":1,"action_noise":0.2,"location_history":"[1,5,4,0,5,4,2]","action_history":"[1,0,0,0,0,1]","door_history":"[0,1,1,1,1,0]","location_rts":"[4903,1649,959,1121,651,1686]","trial_type":"two-door-navigation","trial_index":90,"time_elapsed":2897161,"internal_node_id":"0.0-2.0-88.0"},{"group":"hexagon_tri","room_assignment":["green","grey","purple","blue","yellow","red"],"door_color_assignment":["black","white"],"door_generator_assignment":[1,0],"goal":0,"start":2,"action_noise":0.2,"location_history":"[2,3,4,0]","action_history":"[1,1,0]","door_history":"[0,0,1]","location_rts":"[2125,889,1492]","trial_type":"two-door-navigation","trial_index":91,"time_elapsed":2908223,"internal_node_id":"0.0-2.0-89.0"},{"group":"hexagon_tri","room_assignment":["green","grey","purple","blue","yellow","red"],"door_color_assignment":["black","white"],"door_generator_assignment":[1,0],"goal":5,"start":0,"action_noise":0.2,"location_history":"[0,5]","action_history":"[0]","door_history":"[1]","location_rts":"[2495]","trial_type":"two-door-navigation","trial_index":92,"time_elapsed":2915242,"internal_node_id":"0.0-2.0-90.0"},{"group":"hexagon_tri","room_assignment":["green","grey","purple","blue","yellow","red"],"door_color_assignment":["black","white"],"door_generator_assignment":[1,0],"goal":1,"start":5,"action_noise":0.2,"location_history":"[5,0,1]","action_history":"[1,1]","door_history":"[0,0]","location_rts":"[2926,2211]","trial_type":"two-door-navigation","trial_index":93,"time_elapsed":2925919,"internal_node_id":"0.0-2.0-91.0"},{"group":"hexagon_tri","room_assignment":["green","grey","purple","blue","yellow","red"],"door_color_assignment":["black","white"],"door_generator_assignment":[1,0],"goal":3,"start":1,"action_noise":0.2,"location_history":"[1,3]","action_history":"[1]","door_history":"[0]","location_rts":"[2147]","trial_type":"two-door-navigation","trial_index":94,"time_elapsed":2932585,"internal_node_id":"0.0-2.0-92.0"},{"group":"hexagon_tri","room_assignment":["green","grey","purple","blue","yellow","red"],"door_color_assignment":["black","white"],"door_generator_assignment":[1,0],"goal":4,"start":3,"action_noise":0.2,"location_history":"[3,4]","action_history":"[1]","door_history":"[0]","location_rts":"[1478]","trial_type":"two-door-navigation","trial_index":95,"time_elapsed":2938584,"internal_node_id":"0.0-2.0-93.0"},{"group":"hexagon_tri","room_assignment":["green","grey","purple","blue","yellow","red"],"door_color_assignment":["black","white"],"door_generator_assignment":[1,0],"goal":2,"start":4,"action_noise":0.2,"location_history":"[4,2]","action_history":"[1]","door_history":"[0]","location_rts":"[3468]","trial_type":"two-door-navigation","trial_index":96,"time_elapsed":2946577,"internal_node_id":"0.0-2.0-94.0"},{"group":"hexagon_tri","room_assignment":["green","grey","purple","blue","yellow","red"],"door_color_assignment":["black","white"],"door_generator_assignment":[1,0],"goal":4,"start":2,"action_noise":0.2,"location_history":"[2,1,5,4]","action_history":"[0,1,0]","door_history":"[1,0,1]","location_rts":"[2385,2572,1173]","trial_type":"two-door-navigation","trial_index":97,"time_elapsed":2959264,"internal_node_id":"0.0-2.0-95.0"},{"group":"hexagon_tri","room_assignment":["green","grey","purple","blue","yellow","red"],"door_color_assignment":["black","white"],"door_generator_assignment":[1,0],"goal":0,"start":4,"action_noise":0.2,"location_history":"[4,0]","action_history":"[0]","door_history":"[1]","location_rts":"[2484]","trial_type":"two-door-navigation","trial_index":98,"time_elapsed":2966275,"internal_node_id":"0.0-2.0-96.0"},{"group":"hexagon_tri","room_assignment":["green","grey","purple","blue","yellow","red"],"door_color_assignment":["black","white"],"door_generator_assignment":[1,0],"goal":5,"start":0,"action_noise":0.2,"location_history":"[0,5]","action_history":"[0]","door_history":"[1]","location_rts":"[2033]","trial_type":"two-door-navigation","trial_index":99,"time_elapsed":2972827,"internal_node_id":"0.0-2.0-97.0"},{"group":"hexagon_tri","room_assignment":["green","grey","purple","blue","yellow","red"],"door_color_assignment":["black","white"],"door_generator_assignment":[1,0],"goal":1,"start":5,"action_noise":0.2,"location_history":"[5,4,2,1]","action_history":"[0,1,1]","door_history":"[1,0,0]","location_rts":"[1418,1945,954]","trial_type":"two-door-navigation","trial_index":100,"time_elapsed":2983710,"internal_node_id":"0.0-2.0-98.0"},{"group":"hexagon_tri","room_assignment":["green","grey","purple","blue","yellow","red"],"door_color_assignment":["black","white"],"door_generator_assignment":[1,0],"goal":3,"start":1,"action_noise":0.2,"location_history":"[1,5,4,0,1,5,0,5,0,1,5,4,2,1,5,0,5,0,5,4,0,1,3]","action_history":"[1,1,1,1,1,1,0,1,1,0,1,1,1,1,1,0,0,0,0,1,1,0]","door_history":"[0,0,0,0,0,0,1,0,0,1,0,0,0,0,0,1,1,1,1,0,0,1]","location_rts":"[1924,3065,944,1220,2412,3939,1766,1295,1877,1240,1515,878,1135,1311,1092,1464,625,521,600,1353,1824,1555]","trial_type":"two-door-navigation","trial_index":101,"time_elapsed":3043187,"internal_node_id":"0.0-2.0-99.0"},{"view_history":"[{\"page_index\":0,\"viewing_time\":3767}]","rt":3767,"trial_type":"instructions","trial_index":102,"time_elapsed":3047955,"internal_node_id":"0.0-3.0"},{"view_history":"[{\"page_index\":0,\"viewing_time\":2856},{\"page_index\":1,\"viewing_time\":45732}]","rt":48588,"trial_type":"instructions","trial_index":103,"time_elapsed":3097543,"internal_node_id":"0.0-4.0"},{"group":"hexagon_bi","fractal_assignment":["../images/pnk_blu.png","../images/blu_wht.png","../images/ylw_slt.png","../images/org_blu.png","../images/gry_blk.png","../images/cyn_red.png"],"mutagen_generator_assignment":[0,1],"goal":4,"start":0,"action_noise":0.2,"location_history":"[0,1,2,3,2,3,2,3,4]","action_history":"[1,0,1,1,0,0,1,0]","mutagen_history":"[1,0,1,1,0,0,1,0]","location_rts":"[16349,19193,10619,5784,1571,5247,2273,56705]","trial_type":"fractal-mutation","trial_index":104,"time_elapsed":3227059,"internal_node_id":"0.0-5.0-0.0"},{"group":"hexagon_bi","fractal_assignment":["../images/pnk_blu.png","../images/blu_wht.png","../images/ylw_slt.png","../images/org_blu.png","../images/gry_blk.png","../images/cyn_red.png"],"mutagen_generator_assignment":[0,1],"goal":3,"start":4,"action_noise":0.2,"location_history":"[4,3]","action_history":"[0]","mutagen_history":"[0]","location_rts":"[3006]","trial_type":"fractal-mutation","trial_index":105,"time_elapsed":3234601,"internal_node_id":"0.0-5.0-1.0"},{"group":"hexagon_bi","fractal_assignment":["../images/pnk_blu.png","../images/blu_wht.png","../images/ylw_slt.png","../images/org_blu.png","../images/gry_blk.png","../images/cyn_red.png"],"mutagen_generator_assignment":[0,1],"goal":5,"start":3,"action_noise":0.2,"location_history":"[3,2,3,2,1,0,5]","action_history":"[1,0,1,0,0,0]","mutagen_history":"[1,0,1,0,0,0]","location_rts":"[2247,5461,2744,695,837,865]","trial_type":"fractal-mutation","trial_index":106,"time_elapsed":3257137,"internal_node_id":"0.0-5.0-2.0"},{"group":"hexagon_bi","fractal_assignment":["../images/pnk_blu.png","../images/blu_wht.png","../images/ylw_slt.png","../images/org_blu.png","../images/gry_blk.png","../images/cyn_red.png"],"mutagen_generator_assignment":[0,1],"goal":2,"start":5,"action_noise":0.2,"location_history":"[5,4,3,4,5,0,1,0,1,2]","action_history":"[1,0,0,0,0,1,1,1,0]","mutagen_history":"[1,0,0,0,0,1,1,1,0]","location_rts":"[2203,969,684,654,603,698,543,597,1109]","trial_type":"fractal-mutation","trial_index":107,"time_elapsed":3277976,"internal_node_id":"0.0-5.0-3.0"},{"group":"hexagon_bi","fractal_assignment":["../images/pnk_blu.png","../images/blu_wht.png","../images/ylw_slt.png","../images/org_blu.png","../images/gry_blk.png","../images/cyn_red.png"],"mutagen_generator_assignment":[0,1],"goal":1,"start":2,"action_noise":0.2,"location_history":"[2,3,4,3,2,3,2,1]","action_history":"[1,0,0,1,1,1,1]","mutagen_history":"[1,0,0,1,1,1,1]","location_rts":"[609,1195,980,503,376,379,505]","trial_type":"fractal-mutation","trial_index":108,"time_elapsed":3293246,"internal_node_id":"0.0-5.0-4.0"},{"group":"hexagon_bi","fractal_assignment":["../images/pnk_blu.png","../images/blu_wht.png","../images/ylw_slt.png","../images/org_blu.png","../images/gry_blk.png","../images/cyn_red.png"],"mutagen_generator_assignment":[0,1],"goal":4,"start":1,"action_noise":0.2,"location_history":"[1,0,5,0,5,4]","action_history":"[0,0,0,0,0]","mutagen_history":"[0,0,0,0,0]","location_rts":"[1658,563,537,466,777]","trial_type":"fractal-mutation","trial_index":109,"time_elapsed":3305891,"internal_node_id":"0.0-5.0-5.0"},{"group":"hexagon_bi","fractal_assignment":["../images/pnk_blu.png","../images/blu_wht.png","../images/ylw_slt.png","../images/org_blu.png","../images/gry_blk.png","../images/cyn_red.png"],"mutagen_generator_assignment":[0,1],"goal":1,"start":4,"action_noise":0.2,"location_history":"[4,5,4,5,0,5,0,5,4,3,4,5,4,5,0,5,0,5,0,5,0,1]","action_history":"[1,1,1,0,0,0,0,0,0,1,1,1,1,0,0,0,0,0,1,0,1]","mutagen_history":"[1,1,1,0,0,0,0,0,0,1,1,1,1,0,0,0,0,0,1,0,1]","location_rts":"[2063,522,702,567,782,617,469,425,555,438,364,367,541,471,449,449,399,552,406,421,409]","trial_type":"fractal-mutation","trial_index":110,"time_elapsed":3343021,"internal_node_id":"0.0-5.0-6.0"},{"group":"hexagon_bi","fractal_assignment":["../images/pnk_blu.png","../images/blu_wht.png","../images/ylw_slt.png","../images/org_blu.png","../images/gry_blk.png","../images/cyn_red.png"],"mutagen_generator_assignment":[0,1],"goal":5,"start":1,"action_noise":0.2,"location_history":"[1,0,5]","action_history":"[0,0]","mutagen_history":"[0,0]","location_rts":"[1093,554]","trial_type":"fractal-mutation","trial_index":111,"time_elapsed":3350235,"internal_node_id":"0.0-5.0-7.0"},{"group":"hexagon_bi","fractal_assignment":["../images/pnk_blu.png","../images/blu_wht.png","../images/ylw_slt.png","../images/org_blu.png","../images/gry_blk.png","../images/cyn_red.png"],"mutagen_generator_assignment":[0,1],"goal":0,"start":5,"action_noise":0.2,"location_history":"[5,0]","action_history":"[1]","mutagen_history":"[1]","location_rts":"[3128]","trial_type":"fractal-mutation","trial_index":112,"time_elapsed":3357902,"internal_node_id":"0.0-5.0-8.0"},{"group":"hexagon_bi","fractal_assignment":["../images/pnk_blu.png","../images/blu_wht.png","../images/ylw_slt.png","../images/org_blu.png","../images/gry_blk.png","../images/cyn_red.png"],"mutagen_generator_assignment":[0,1],"goal":2,"start":0,"action_noise":0.2,"location_history":"[0,1,0,1,0,5,0,5,0,5,0,1,2]","action_history":"[1,1,1,1,0,0,1,0,0,0,1,1]","mutagen_history":"[1,1,1,1,0,0,1,0,0,0,1,1]","location_rts":"[1275,473,468,441,429,439,785,694,1043,723,589,1140]","trial_type":"fractal-mutation","trial_index":113,"time_elapsed":3382283,"internal_node_id":"0.0-5.0-9.0"},{"group":"hexagon_bi","fractal_assignment":["../images/pnk_blu.png","../images/blu_wht.png","../images/ylw_slt.png","../images/org_blu.png","../images/gry_blk.png","../images/cyn_red.png"],"mutagen_generator_assignment":[0,1],"goal":3,"start":2,"action_noise":0.2,"location_history":"[2,3]","action_history":"[1]","mutagen_history":"[1]","location_rts":"[1550]","trial_type":"fractal-mutation","trial_index":114,"time_elapsed":3388376,"internal_node_id":"0.0-5.0-10.0"},{"group":"hexagon_bi","fractal_assignment":["../images/pnk_blu.png","../images/blu_wht.png","../images/ylw_slt.png","../images/org_blu.png","../images/gry_blk.png","../images/cyn_red.png"],"mutagen_generator_assignment":[0,1],"goal":0,"start":3,"action_noise":0.2,"location_history":"[3,4,3,2,1,2,1,2,3,2,1,2,3,2,1,2,1,0]","action_history":"[0,1,1,1,1,0,0,0,1,0,0,1,1,0,0,0,1]","mutagen_history":"[0,1,1,1,1,0,0,0,1,0,0,1,1,0,0,0,1]","location_rts":"[3114,1172,653,990,1342,827,1755,4918,414,5310,688,847,648,1134,595,5730,852]","trial_type":"fractal-mutation","trial_index":115,"time_elapsed":3440424,"internal_node_id":"0.0-5.0-11.0"},{"group":"hexagon_bi","fractal_assignment":["../images/pnk_blu.png","../images/blu_wht.png","../images/ylw_slt.png","../images/org_blu.png","../images/gry_blk.png","../images/cyn_red.png"],"mutagen_generator_assignment":[0,1],"goal":2,"start":0,"action_noise":0.2,"location_history":"[0,1,2]","action_history":"[1,1]","mutagen_history":"[1,1]","location_rts":"[3674,1106]","trial_type":"fractal-mutation","trial_index":116,"time_elapsed":3450771,"internal_node_id":"0.0-5.0-12.0"},{"group":"hexagon_bi","fractal_assignment":["../images/pnk_blu.png","../images/blu_wht.png","../images/ylw_slt.png","../images/org_blu.png","../images/gry_blk.png","../images/cyn_red.png"],"mutagen_generator_assignment":[0,1],"goal":5,"start":2,"action_noise":0.2,"location_history":"[2,1,2,1,0,5]","action_history":"[0,0,0,1,1]","mutagen_history":"[0,0,0,1,1]","location_rts":"[2397,840,2436,959,626]","trial_type":"fractal-mutation","trial_index":117,"time_elapsed":3466678,"internal_node_id":"0.0-5.0-13.0"},{"group":"hexagon_bi","fractal_assignment":["../images/pnk_blu.png","../images/blu_wht.png","../images/ylw_slt.png","../images/org_blu.png","../images/gry_blk.png","../images/cyn_red.png"],"mutagen_generator_assignment":[0,1],"goal":4,"start":5,"action_noise":0.2,"location_history":"[5,4]","action_history":"[1]","mutagen_history":"[1]","location_rts":"[1388]","trial_type":"fractal-mutation","trial_index":118,"time_elapsed":3472605,"internal_node_id":"0.0-5.0-14.0"},{"group":"hexagon_bi","fractal_assignment":["../images/pnk_blu.png","../images/blu_wht.png","../images/ylw_slt.png","../images/org_blu.png","../images/gry_blk.png","../images/cyn_red.png"],"mutagen_generator_assignment":[0,1],"goal":3,"start":4,"action_noise":0.2,"location_history":"[4,3]","action_history":"[0]","mutagen_history":"[0]","location_rts":"[944]","trial_type":"fractal-mutation","trial_index":119,"time_elapsed":3478082,"internal_node_id":"0.0-5.0-15.0"},{"group":"hexagon_bi","fractal_assignment":["../images/pnk_blu.png","../images/blu_wht.png","../images/ylw_slt.png","../images/org_blu.png","../images/gry_blk.png","../images/cyn_red.png"],"mutagen_generator_assignment":[0,1],"goal":1,"start":3,"action_noise":0.2,"location_history":"[3,2,1]","action_history":"[0,0]","mutagen_history":"[0,0]","location_rts":"[1203,754]","trial_type":"fractal-mutation","trial_index":120,"time_elapsed":3485605,"internal_node_id":"0.0-5.0-16.0"},{"group":"hexagon_bi","fractal_assignment":["../images/pnk_blu.png","../images/blu_wht.png","../images/ylw_slt.png","../images/org_blu.png","../images/gry_blk.png","../images/cyn_red.png"],"mutagen_generator_assignment":[0,1],"goal":5,"start":1,"action_noise":0.2,"location_history":"[1,2,1,2,1,2,1,0,5]","action_history":"[0,0,1,0,0,0,1,0]","mutagen_history":"[0,0,1,0,0,0,1,0]","location_rts":"[989,896,887,725,798,555,512,797]","trial_type":"fractal-mutation","trial_index":121,"time_elapsed":3503495,"internal_node_id":"0.0-5.0-17.0"},{"group":"hexagon_bi","fractal_assignment":["../images/pnk_blu.png","../images/blu_wht.png","../images/ylw_slt.png","../images/org_blu.png","../images/gry_blk.png","../images/cyn_red.png"],"mutagen_generator_assignment":[0,1],"goal":4,"start":5,"action_noise":0.2,"location_history":"[5,4]","action_history":"[1]","mutagen_history":"[1]","location_rts":"[924]","trial_type":"fractal-mutation","trial_index":122,"time_elapsed":3508960,"internal_node_id":"0.0-5.0-18.0"},{"group":"hexagon_bi","fractal_assignment":["../images/pnk_blu.png","../images/blu_wht.png","../images/ylw_slt.png","../images/org_blu.png","../images/gry_blk.png","../images/cyn_red.png"],"mutagen_generator_assignment":[0,1],"goal":0,"start":4,"action_noise":0.2,"location_history":"[4,3,2,3,4,5,0]","action_history":"[1,1,1,0,0,0]","mutagen_history":"[1,1,1,0,0,0]","location_rts":"[1158,621,585,364,721,609]","trial_type":"fractal-mutation","trial_index":123,"time_elapsed":3522703,"internal_node_id":"0.0-5.0-19.0"},{"group":"hexagon_bi","fractal_assignment":["../images/pnk_blu.png","../images/blu_wht.png","../images/ylw_slt.png","../images/org_blu.png","../images/gry_blk.png","../images/cyn_red.png"],"mutagen_generator_assignment":[0,1],"goal":1,"start":0,"action_noise":0.2,"location_history":"[0,5,4,5,0,1]","action_history":"[0,1,1,0,1]","mutagen_history":"[0,1,1,0,1]","location_rts":"[900,765,678,901,980]","trial_type":"fractal-mutation","trial_index":124,"time_elapsed":3535581,"internal_node_id":"0.0-5.0-20.0"},{"group":"hexagon_bi","fractal_assignment":["../images/pnk_blu.png","../images/blu_wht.png","../images/ylw_slt.png","../images/org_blu.png","../images/gry_blk.png","../images/cyn_red.png"],"mutagen_generator_assignment":[0,1],"goal":3,"start":1,"action_noise":0.2,"location_history":"[1,2,3]","action_history":"[0,1]","mutagen_history":"[0,1]","location_rts":"[1010,502]","trial_type":"fractal-mutation","trial_index":125,"time_elapsed":3542662,"internal_node_id":"0.0-5.0-21.0"},{"group":"hexagon_bi","fractal_assignment":["../images/pnk_blu.png","../images/blu_wht.png","../images/ylw_slt.png","../images/org_blu.png","../images/gry_blk.png","../images/cyn_red.png"],"mutagen_generator_assignment":[0,1],"goal":2,"start":3,"action_noise":0.2,"location_history":"[3,2]","action_history":"[1]","mutagen_history":"[1]","location_rts":"[938]","trial_type":"fractal-mutation","trial_index":126,"time_elapsed":3548138,"internal_node_id":"0.0-5.0-22.0"},{"group":"hexagon_bi","fractal_assignment":["../images/pnk_blu.png","../images/blu_wht.png","../images/ylw_slt.png","../images/org_blu.png","../images/gry_blk.png","../images/cyn_red.png"],"mutagen_generator_assignment":[0,1],"goal":0,"start":2,"action_noise":0.2,"location_history":"[2,3,4,3,2,1,0]","action_history":"[1,0,0,1,1,0]","mutagen_history":"[1,0,0,1,1,0]","location_rts":"[1229,621,687,720,667,609]","trial_type":"fractal-mutation","trial_index":127,"time_elapsed":3562344,"internal_node_id":"0.0-5.0-23.0"},{"group":"hexagon_bi","fractal_assignment":["../images/pnk_blu.png","../images/blu_wht.png","../images/ylw_slt.png","../images/org_blu.png","../images/gry_blk.png","../images/cyn_red.png"],"mutagen_generator_assignment":[0,1],"goal":3,"start":0,"action_noise":0.2,"location_history":"[0,5,4,3]","action_history":"[0,1,0]","mutagen_history":"[0,1,0]","location_rts":"[1397,552,838]","trial_type":"fractal-mutation","trial_index":128,"time_elapsed":3571724,"internal_node_id":"0.0-5.0-24.0"},{"group":"hexagon_bi","fractal_assignment":["../images/pnk_blu.png","../images/blu_wht.png","../images/ylw_slt.png","../images/org_blu.png","../images/gry_blk.png","../images/cyn_red.png"],"mutagen_generator_assignment":[0,1],"goal":1,"start":3,"action_noise":0.2,"location_history":"[3,4,3,2,1]","action_history":"[0,0,1,0]","mutagen_history":"[0,0,1,0]","location_rts":"[977,1040,776,847]","trial_type":"fractal-mutation","trial_index":129,"time_elapsed":3583001,"internal_node_id":"0.0-5.0-25.0"},{"group":"hexagon_bi","fractal_assignment":["../images/pnk_blu.png","../images/blu_wht.png","../images/ylw_slt.png","../images/org_blu.png","../images/gry_blk.png","../images/cyn_red.png"],"mutagen_generator_assignment":[0,1],"goal":2,"start":1,"action_noise":0.2,"location_history":"[1,2]","action_history":"[0]","mutagen_history":"[0]","location_rts":"[981]","trial_type":"fractal-mutation","trial_index":130,"time_elapsed":3588518,"internal_node_id":"0.0-5.0-26.0"},{"group":"hexagon_bi","fractal_assignment":["../images/pnk_blu.png","../images/blu_wht.png","../images/ylw_slt.png","../images/org_blu.png","../images/gry_blk.png","../images/cyn_red.png"],"mutagen_generator_assignment":[0,1],"goal":5,"start":2,"action_noise":0.2,"location_history":"[2,1,0,1,2,1,2,3,2,1,0,5]","action_history":"[0,1,1,0,0,0,1,1,1,1,0]","mutagen_history":"[0,1,1,0,0,0,1,1,1,1,0]","location_rts":"[790,964,745,870,620,664,890,663,676,479,752]","trial_type":"fractal-mutation","trial_index":131,"time_elapsed":3611458,"internal_node_id":"0.0-5.0-27.0"},{"group":"hexagon_bi","fractal_assignment":["../images/pnk_blu.png","../images/blu_wht.png","../images/ylw_slt.png","../images/org_blu.png","../images/gry_blk.png","../images/cyn_red.png"],"mutagen_generator_assignment":[0,1],"goal":4,"start":5,"action_noise":0.2,"location_history":"[5,0,1,0,1,2,1,2,3,2,3,4]","action_history":"[0,1,1,1,0,0,0,1,1,1,0]","mutagen_history":"[0,1,1,1,0,0,0,1,1,1,0]","location_rts":"[4008,902,612,456,812,608,1138,360,689,827,560]","trial_type":"fractal-mutation","trial_index":132,"time_elapsed":3637268,"internal_node_id":"0.0-5.0-28.0"},{"group":"hexagon_bi","fractal_assignment":["../images/pnk_blu.png","../images/blu_wht.png","../images/ylw_slt.png","../images/org_blu.png","../images/gry_blk.png","../images/cyn_red.png"],"mutagen_generator_assignment":[0,1],"goal":5,"start":4,"action_noise":0.2,"location_history":"[4,3,4,5]","action_history":"[0,0,1]","mutagen_history":"[0,0,1]","location_rts":"[1040,1943,575]","trial_type":"fractal-mutation","trial_index":133,"time_elapsed":3647422,"internal_node_id":"0.0-5.0-29.0"},{"group":"hexagon_bi","fractal_assignment":["../images/pnk_blu.png","../images/blu_wht.png","../images/ylw_slt.png","../images/org_blu.png","../images/gry_blk.png","../images/cyn_red.png"],"mutagen_generator_assignment":[0,1],"goal":3,"start":5,"action_noise":0.2,"location_history":"[5,0,1,0,5,0,1,0,1,2,3]","action_history":"[1,0,1,0,0,1,1,0,0,0]","mutagen_history":"[1,0,1,0,0,1,1,0,0,0]","location_rts":"[811,698,819,581,1018,773,726,775,593,829]","trial_type":"fractal-mutation","trial_index":134,"time_elapsed":3668864,"internal_node_id":"0.0-5.0-30.0"},{"group":"hexagon_bi","fractal_assignment":["../images/pnk_blu.png","../images/blu_wht.png","../images/ylw_slt.png","../images/org_blu.png","../images/gry_blk.png","../images/cyn_red.png"],"mutagen_generator_assignment":[0,1],"goal":0,"start":3,"action_noise":0.2,"location_history":"[3,4,5,4,5,4,5,0]","action_history":"[0,0,1,1,1,0,1]","mutagen_history":"[0,0,1,1,1,0,1]","location_rts":"[1156,893,459,755,594,860,1639]","trial_type":"fractal-mutation","trial_index":135,"time_elapsed":3685931,"internal_node_id":"0.0-5.0-31.0"},{"group":"hexagon_bi","fractal_assignment":["../images/pnk_blu.png","../images/blu_wht.png","../images/ylw_slt.png","../images/org_blu.png","../images/gry_blk.png","../images/cyn_red.png"],"mutagen_generator_assignment":[0,1],"goal":4,"start":0,"action_noise":0.2,"location_history":"[0,1,0,5,4]","action_history":"[0,1,0,1]","mutagen_history":"[0,1,0,1]","location_rts":"[1440,2332,1180,781]","trial_type":"fractal-mutation","trial_index":136,"time_elapsed":3699287,"internal_node_id":"0.0-5.0-32.0"},{"group":"hexagon_bi","fractal_assignment":["../images/pnk_blu.png","../images/blu_wht.png","../images/ylw_slt.png","../images/org_blu.png","../images/gry_blk.png","../images/cyn_red.png"],"mutagen_generator_assignment":[0,1],"goal":1,"start":4,"action_noise":0.2,"location_history":"[4,5,0,5,4,5,4,3,2,1]","action_history":"[1,1,0,1,1,0,0,0,0]","mutagen_history":"[1,1,0,1,1,0,0,0,0]","location_rts":"[587,617,1307,858,820,2064,799,555,924]","trial_type":"fractal-mutation","trial_index":137,"time_elapsed":3720604,"internal_node_id":"0.0-5.0-33.0"},{"group":"hexagon_bi","fractal_assignment":["../images/pnk_blu.png","../images/blu_wht.png","../images/ylw_slt.png","../images/org_blu.png","../images/gry_blk.png","../images/cyn_red.png"],"mutagen_generator_assignment":[0,1],"goal":2,"start":1,"action_noise":0.2,"location_history":"[1,2]","action_history":"[0]","mutagen_history":"[0]","location_rts":"[3043]","trial_type":"fractal-mutation","trial_index":138,"time_elapsed":3728181,"internal_node_id":"0.0-5.0-34.0"},{"group":"hexagon_bi","fractal_assignment":["../images/pnk_blu.png","../images/blu_wht.png","../images/ylw_slt.png","../images/org_blu.png","../images/gry_blk.png","../images/cyn_red.png"],"mutagen_generator_assignment":[0,1],"goal":0,"start":2,"action_noise":0.2,"location_history":"[2,3,2,1,0]","action_history":"[1,0,0,1]","mutagen_history":"[1,0,0,1]","location_rts":"[2293,1958,2538,1390]","trial_type":"fractal-mutation","trial_index":139,"time_elapsed":3743985,"internal_node_id":"0.0-5.0-35.0"},{"group":"hexagon_bi","fractal_assignment":["../images/pnk_blu.png","../images/blu_wht.png","../images/ylw_slt.png","../images/org_blu.png","../images/gry_blk.png","../images/cyn_red.png"],"mutagen_generator_assignment":[0,1],"goal":5,"start":0,"action_noise":0.2,"location_history":"[0,5]","action_history":"[0]","mutagen_history":"[0]","location_rts":"[2179]","trial_type":"fractal-mutation","trial_index":140,"time_elapsed":3750695,"internal_node_id":"0.0-5.0-36.0"},{"group":"hexagon_bi","fractal_assignment":["../images/pnk_blu.png","../images/blu_wht.png","../images/ylw_slt.png","../images/org_blu.png","../images/gry_blk.png","../images/cyn_red.png"],"mutagen_generator_assignment":[0,1],"goal":2,"start":5,"action_noise":0.2,"location_history":"[5,0,5,4,3,4,3,2]","action_history":"[1,0,1,0,0,1,1]","mutagen_history":"[1,0,1,0,0,1,1]","location_rts":"[4347,736,810,2105,664,982,574]","trial_type":"fractal-mutation","trial_index":141,"time_elapsed":3771635,"internal_node_id":"0.0-5.0-37.0"},{"group":"hexagon_bi","fractal_assignment":["../images/pnk_blu.png","../images/blu_wht.png","../images/ylw_slt.png","../images/org_blu.png","../images/gry_blk.png","../images/cyn_red.png"],"mutagen_generator_assignment":[0,1],"goal":1,"start":2,"action_noise":0.2,"location_history":"[2,1]","action_history":"[0]","mutagen_history":"[0]","location_rts":"[1349]","trial_type":"fractal-mutation","trial_index":142,"time_elapsed":3777519,"internal_node_id":"0.0-5.0-38.0"},{"group":"hexagon_bi","fractal_assignment":["../images/pnk_blu.png","../images/blu_wht.png","../images/ylw_slt.png","../images/org_blu.png","../images/gry_blk.png","../images/cyn_red.png"],"mutagen_generator_assignment":[0,1],"goal":4,"start":1,"action_noise":0.2,"location_history":"[1,2,1,0,1,2,1,2,3,2,1,2,1,2,3,4]","action_history":"[0,1,1,1,0,0,0,1,1,0,0,1,1,1,0]","mutagen_history":"[0,1,1,1,0,0,0,1,1,0,0,1,1,1,0]","location_rts":"[1820,1049,764,857,744,490,531,602,743,832,697,552,493,724,649]","trial_type":"fractal-mutation","trial_index":143,"time_elapsed":3808037,"internal_node_id":"0.0-5.0-39.0"},{"group":"hexagon_bi","fractal_assignment":["../images/pnk_blu.png","../images/blu_wht.png","../images/ylw_slt.png","../images/org_blu.png","../images/gry_blk.png","../images/cyn_red.png"],"mutagen_generator_assignment":[0,1],"goal":3,"start":4,"action_noise":0.2,"location_history":"[4,3]","action_history":"[0]","mutagen_history":"[0]","location_rts":"[1382]","trial_type":"fractal-mutation","trial_index":144,"time_elapsed":3813950,"internal_node_id":"0.0-5.0-40.0"},{"group":"hexagon_bi","fractal_assignment":["../images/pnk_blu.png","../images/blu_wht.png","../images/ylw_slt.png","../images/org_blu.png","../images/gry_blk.png","../images/cyn_red.png"],"mutagen_generator_assignment":[0,1],"goal":5,"start":3,"action_noise":0.2,"location_history":"[3,4,5]","action_history":"[0,1]","mutagen_history":"[0,1]","location_rts":"[1253,948]","trial_type":"fractal-mutation","trial_index":145,"time_elapsed":3821723,"internal_node_id":"0.0-5.0-41.0"},{"group":"hexagon_bi","fractal_assignment":["../images/pnk_blu.png","../images/blu_wht.png","../images/ylw_slt.png","../images/org_blu.png","../images/gry_blk.png","../images/cyn_red.png"],"mutagen_generator_assignment":[0,1],"goal":3,"start":5,"action_noise":0.2,"location_history":"[5,4,3]","action_history":"[1,0]","mutagen_history":"[1,0]","location_rts":"[1072,1395]","trial_type":"fractal-mutation","trial_index":146,"time_elapsed":3829751,"internal_node_id":"0.0-5.0-42.0"},{"group":"hexagon_bi","fractal_assignment":["../images/pnk_blu.png","../images/blu_wht.png","../images/ylw_slt.png","../images/org_blu.png","../images/gry_blk.png","../images/cyn_red.png"],"mutagen_generator_assignment":[0,1],"goal":0,"start":3,"action_noise":0.2,"location_history":"[3,2,1,2,3,2,1,2,3,2,1,0]","action_history":"[1,0,0,0,1,1,1,0,1,0,1]","mutagen_history":"[1,0,0,0,1,1,1,0,1,0,1]","location_rts":"[2695,925,672,503,446,867,770,884,949,842,834]","trial_type":"fractal-mutation","trial_index":147,"time_elapsed":3855007,"internal_node_id":"0.0-5.0-43.0"},{"group":"hexagon_bi","fractal_assignment":["../images/pnk_blu.png","../images/blu_wht.png","../images/ylw_slt.png","../images/org_blu.png","../images/gry_blk.png","../images/cyn_red.png"],"mutagen_generator_assignment":[0,1],"goal":2,"start":0,"action_noise":0.2,"location_history":"[0,1,2]","action_history":"[0,0]","mutagen_history":"[0,0]","location_rts":"[1027,1471]","trial_type":"fractal-mutation","trial_index":148,"time_elapsed":3863077,"internal_node_id":"0.0-5.0-44.0"},{"group":"hexagon_bi","fractal_assignment":["../images/pnk_blu.png","../images/blu_wht.png","../images/ylw_slt.png","../images/org_blu.png","../images/gry_blk.png","../images/cyn_red.png"],"mutagen_generator_assignment":[0,1],"goal":4,"start":2,"action_noise":0.2,"location_history":"[2,1,0,1,2,1,2,3,2,1,2,3,2,3,4]","action_history":"[1,1,1,0,0,0,1,1,0,0,1,1,1,0]","mutagen_history":"[1,1,1,0,0,0,1,1,0,0,1,1,1,0]","location_rts":"[1516,830,1083,1024,672,550,555,663,1190,1024,994,810,1251,1132]","trial_type":"fractal-mutation","trial_index":149,"time_elapsed":3894300,"internal_node_id":"0.0-5.0-45.0"},{"group":"hexagon_bi","fractal_assignment":["../images/pnk_blu.png","../images/blu_wht.png","../images/ylw_slt.png","../images/org_blu.png","../images/gry_blk.png","../images/cyn_red.png"],"mutagen_generator_assignment":[0,1],"goal":1,"start":4,"action_noise":0.2,"location_history":"[4,5,0,1]","action_history":"[0,0,0]","mutagen_history":"[0,0,0]","location_rts":"[1095,1044,938]","trial_type":"fractal-mutation","trial_index":150,"time_elapsed":3903973,"internal_node_id":"0.0-5.0-46.0"},{"group":"hexagon_bi","fractal_assignment":["../images/pnk_blu.png","../images/blu_wht.png","../images/ylw_slt.png","../images/org_blu.png","../images/gry_blk.png","../images/cyn_red.png"],"mutagen_generator_assignment":[0,1],"goal":4,"start":1,"action_noise":0.2,"location_history":"[1,2,3,4]","action_history":"[0,1,0]","mutagen_history":"[0,1,0]","location_rts":"[1810,971,1184]","trial_type":"fractal-mutation","trial_index":151,"time_elapsed":3914533,"internal_node_id":"0.0-5.0-47.0"},{"group":"hexagon_bi","fractal_assignment":["../images/pnk_blu.png","../images/blu_wht.png","../images/ylw_slt.png","../images/org_blu.png","../images/gry_blk.png","../images/cyn_red.png"],"mutagen_generator_assignment":[0,1],"goal":1,"start":4,"action_noise":0.2,"location_history":"[4,3,4,3,4,5,0,1]","action_history":"[0,0,0,0,1,0,1]","mutagen_history":"[0,0,0,0,1,0,1]","location_rts":"[1067,749,1260,794,447,738,1125]","trial_type":"fractal-mutation","trial_index":152,"time_elapsed":3931443,"internal_node_id":"0.0-5.0-48.0"},{"group":"hexagon_bi","fractal_assignment":["../images/pnk_blu.png","../images/blu_wht.png","../images/ylw_slt.png","../images/org_blu.png","../images/gry_blk.png","../images/cyn_red.png"],"mutagen_generator_assignment":[0,1],"goal":3,"start":1,"action_noise":0.2,"location_history":"[1,2,3]","action_history":"[0,1]","mutagen_history":"[0,1]","location_rts":"[1453,813]","trial_type":"fractal-mutation","trial_index":153,"time_elapsed":3939273,"internal_node_id":"0.0-5.0-49.0"},{"group":"hexagon_bi","fractal_assignment":["../images/pnk_blu.png","../images/blu_wht.png","../images/ylw_slt.png","../images/org_blu.png","../images/gry_blk.png","../images/cyn_red.png"],"mutagen_generator_assignment":[0,1],"goal":5,"start":3,"action_noise":0.2,"location_history":"[3,4,3,2,1,0,5]","action_history":"[0,0,1,1,1,1]","mutagen_history":"[0,0,1,1,1,1]","location_rts":"[1615,901,1217,886,657,856]","trial_type":"fractal-mutation","trial_index":154,"time_elapsed":3955103,"internal_node_id":"0.0-5.0-50.0"},{"group":"hexagon_bi","fractal_assignment":["../images/pnk_blu.png","../images/blu_wht.png","../images/ylw_slt.png","../images/org_blu.png","../images/gry_blk.png","../images/cyn_red.png"],"mutagen_generator_assignment":[0,1],"goal":0,"start":5,"action_noise":0.2,"location_history":"[5,4,3,4,5,0]","action_history":"[1,0,0,1,1]","mutagen_history":"[1,0,0,1,1]","location_rts":"[1880,1140,476,428,1842]","trial_type":"fractal-mutation","trial_index":155,"time_elapsed":3969540,"internal_node_id":"0.0-5.0-51.0"},{"group":"hexagon_bi","fractal_assignment":["../images/pnk_blu.png","../images/blu_wht.png","../images/ylw_slt.png","../images/org_blu.png","../images/gry_blk.png","../images/cyn_red.png"],"mutagen_generator_assignment":[0,1],"goal":2,"start":0,"action_noise":0.2,"location_history":"[0,5,4,5,0,5,4,5,0,5,4,3,2]","action_history":"[0,1,0,0,0,1,1,0,0,0,0,0]","mutagen_history":"[0,1,0,0,0,1,1,0,0,0,0,0]","location_rts":"[1394,669,404,671,756,894,759,994,738,930,798,1176]","trial_type":"fractal-mutation","trial_index":156,"time_elapsed":3995574,"internal_node_id":"0.0-5.0-52.0"},{"group":"hexagon_bi","fractal_assignment":["../images/pnk_blu.png","../images/blu_wht.png","../images/ylw_slt.png","../images/org_blu.png","../images/gry_blk.png","../images/cyn_red.png"],"mutagen_generator_assignment":[0,1],"goal":1,"start":2,"action_noise":0.2,"location_history":"[2,1]","action_history":"[0]","mutagen_history":"[0]","location_rts":"[653]","trial_type":"fractal-mutation","trial_index":157,"time_elapsed":4000759,"internal_node_id":"0.0-5.0-53.0"},{"group":"hexagon_bi","fractal_assignment":["../images/pnk_blu.png","../images/blu_wht.png","../images/ylw_slt.png","../images/org_blu.png","../images/gry_blk.png","../images/cyn_red.png"],"mutagen_generator_assignment":[0,1],"goal":2,"start":1,"action_noise":0.2,"location_history":"[1,2]","action_history":"[0]","mutagen_history":"[0]","location_rts":"[703]","trial_type":"fractal-mutation","trial_index":158,"time_elapsed":4005992,"internal_node_id":"0.0-5.0-54.0"},{"group":"hexagon_bi","fractal_assignment":["../images/pnk_blu.png","../images/blu_wht.png","../images/ylw_slt.png","../images/org_blu.png","../images/gry_blk.png","../images/cyn_red.png"],"mutagen_generator_assignment":[0,1],"goal":5,"start":2,"action_noise":0.2,"location_history":"[2,1,0,5]","action_history":"[0,1,1]","mutagen_history":"[0,1,1]","location_rts":"[616,618,1095]","trial_type":"fractal-mutation","trial_index":159,"time_elapsed":4014920,"internal_node_id":"0.0-5.0-55.0"},{"group":"hexagon_bi","fractal_assignment":["../images/pnk_blu.png","../images/blu_wht.png","../images/ylw_slt.png","../images/org_blu.png","../images/gry_blk.png","../images/cyn_red.png"],"mutagen_generator_assignment":[0,1],"goal":4,"start":5,"action_noise":0.2,"location_history":"[5,0,5,4]","action_history":"[1,0,1]","mutagen_history":"[1,0,1]","location_rts":"[1987,714,607]","trial_type":"fractal-mutation","trial_index":160,"time_elapsed":4024831,"internal_node_id":"0.0-5.0-56.0"},{"group":"hexagon_bi","fractal_assignment":["../images/pnk_blu.png","../images/blu_wht.png","../images/ylw_slt.png","../images/org_blu.png","../images/gry_blk.png","../images/cyn_red.png"],"mutagen_generator_assignment":[0,1],"goal":3,"start":4,"action_noise":0.2,"location_history":"[4,3]","action_history":"[0]","mutagen_history":"[0]","location_rts":"[1661]","trial_type":"fractal-mutation","trial_index":161,"time_elapsed":4031024,"internal_node_id":"0.0-5.0-57.0"},{"group":"hexagon_bi","fractal_assignment":["../images/pnk_blu.png","../images/blu_wht.png","../images/ylw_slt.png","../images/org_blu.png","../images/gry_blk.png","../images/cyn_red.png"],"mutagen_generator_assignment":[0,1],"goal":0,"start":3,"action_noise":0.2,"location_history":"[3,4,5,4,3,4,5,4,5,4,5,0]","action_history":"[0,1,1,0,0,0,1,1,1,1,0]","mutagen_history":"[0,1,1,0,0,0,1,1,1,1,0]","location_rts":"[1081,814,753,802,499,819,511,552,592,454,477]","trial_type":"fractal-mutation","trial_index":162,"time_elapsed":4053236,"internal_node_id":"0.0-5.0-58.0"},{"group":"hexagon_bi","fractal_assignment":["../images/pnk_blu.png","../images/blu_wht.png","../images/ylw_slt.png","../images/org_blu.png","../images/gry_blk.png","../images/cyn_red.png"],"mutagen_generator_assignment":[0,1],"goal":2,"start":0,"action_noise":0.2,"location_history":"[0,5,0,5,4,5,4,5,0,5,0,5,0,5,0,1,2]","action_history":"[0,0,0,1,1,1,0,0,0,0,0,0,0,0,0,0]","mutagen_history":"[0,0,0,1,1,1,0,0,0,0,0,0,0,0,0,0]","location_rts":"[2736,2063,1175,1980,3968,1265,1264,740,1077,486,484,391,316,395,396,680]","trial_type":"fractal-mutation","trial_index":163,"time_elapsed":4092617,"internal_node_id":"0.0-5.0-59.0"},{"group":"hexagon_bi","fractal_assignment":["../images/pnk_blu.png","../images/blu_wht.png","../images/ylw_slt.png","../images/org_blu.png","../images/gry_blk.png","../images/cyn_red.png"],"mutagen_generator_assignment":[0,1],"goal":1,"start":2,"action_noise":0.2,"location_history":"[2,1]","action_history":"[0]","mutagen_history":"[0]","location_rts":"[2341]","trial_type":"fractal-mutation","trial_index":164,"time_elapsed":4099493,"internal_node_id":"0.0-5.0-60.0"},{"group":"hexagon_bi","fractal_assignment":["../images/pnk_blu.png","../images/blu_wht.png","../images/ylw_slt.png","../images/org_blu.png","../images/gry_blk.png","../images/cyn_red.png"],"mutagen_generator_assignment":[0,1],"goal":0,"start":1,"action_noise":0.2,"location_history":"[1,0]","action_history":"[1]","mutagen_history":"[1]","location_rts":"[2757]","trial_type":"fractal-mutation","trial_index":165,"time_elapsed":4106786,"internal_node_id":"0.0-5.0-61.0"},{"group":"hexagon_bi","fractal_assignment":["../images/pnk_blu.png","../images/blu_wht.png","../images/ylw_slt.png","../images/org_blu.png","../images/gry_blk.png","../images/cyn_red.png"],"mutagen_generator_assignment":[0,1],"goal":3,"start":0,"action_noise":0.2,"location_history":"[0,5,0,5,0,5,0,5,4,5,4,3]","action_history":"[1,0,0,1,0,0,0,1,1,1,0]","mutagen_history":"[1,0,0,1,0,0,0,1,1,1,0]","location_rts":"[1682,1751,669,992,495,688,1480,939,647,1513,433]","trial_type":"fractal-mutation","trial_index":166,"time_elapsed":4132981,"internal_node_id":"0.0-5.0-62.0"},{"group":"hexagon_bi","fractal_assignment":["../images/pnk_blu.png","../images/blu_wht.png","../images/ylw_slt.png","../images/org_blu.png","../images/gry_blk.png","../images/cyn_red.png"],"mutagen_generator_assignment":[0,1],"goal":5,"start":3,"action_noise":0.2,"location_history":"[3,4,5]","action_history":"[0,1]","mutagen_history":"[0,1]","location_rts":"[1476,619]","trial_type":"fractal-mutation","trial_index":167,"time_elapsed":4140638,"internal_node_id":"0.0-5.0-63.0"},{"group":"hexagon_bi","fractal_assignment":["../images/pnk_blu.png","../images/blu_wht.png","../images/ylw_slt.png","../images/org_blu.png","../images/gry_blk.png","../images/cyn_red.png"],"mutagen_generator_assignment":[0,1],"goal":4,"start":5,"action_noise":0.2,"location_history":"[5,4]","action_history":"[1]","mutagen_history":"[1]","location_rts":"[2081]","trial_type":"fractal-mutation","trial_index":168,"time_elapsed":4147263,"internal_node_id":"0.0-5.0-64.0"},{"group":"hexagon_bi","fractal_assignment":["../images/pnk_blu.png","../images/blu_wht.png","../images/ylw_slt.png","../images/org_blu.png","../images/gry_blk.png","../images/cyn_red.png"],"mutagen_generator_assignment":[0,1],"goal":1,"start":4,"action_noise":0.2,"location_history":"[4,3,4,3,2,1]","action_history":"[0,0,1,0,0]","mutagen_history":"[0,0,1,0,0]","location_rts":"[1336,444,878,855,859]","trial_type":"fractal-mutation","trial_index":169,"time_elapsed":4160291,"internal_node_id":"0.0-5.0-65.0"},{"group":"hexagon_bi","fractal_assignment":["../images/pnk_blu.png","../images/blu_wht.png","../images/ylw_slt.png","../images/org_blu.png","../images/gry_blk.png","../images/cyn_red.png"],"mutagen_generator_assignment":[0,1],"goal":5,"start":1,"action_noise":0.2,"location_history":"[1,0,1,2,3,2,3,4,3,2,3,4,3,4,3,2,3,4,3,4,3,4,3,2,3,2,1,2,3,2,3,4,5]","action_history":"[1,1,0,1,1,1,0,0,1,1,0,0,0,0,1,1,0,1,0,0,0,0,0,0,0,0,0,1,1,1,0,1]","mutagen_history":"[1,1,0,1,1,1,0,0,1,1,0,0,0,0,1,1,0,1,0,0,0,0,0,0,0,0,0,1,1,1,0,1]","location_rts":"[1704,843,649,449,1478,1064,620,761,909,616,776,363,402,609,767,587,300,800,589,760,307,388,324,270,365,489,879,543,672,712,526,1144]","trial_type":"fractal-mutation","trial_index":170,"time_elapsed":4218540,"internal_node_id":"0.0-5.0-66.0"},{"group":"hexagon_bi","fractal_assignment":["../images/pnk_blu.png","../images/blu_wht.png","../images/ylw_slt.png","../images/org_blu.png","../images/gry_blk.png","../images/cyn_red.png"],"mutagen_generator_assignment":[0,1],"goal":2,"start":5,"action_noise":0.2,"location_history":"[5,0,1,2]","action_history":"[0,1,0]","mutagen_history":"[0,1,0]","location_rts":"[1169,851,800]","trial_type":"fractal-mutation","trial_index":171,"time_elapsed":4227956,"internal_node_id":"0.0-5.0-67.0"},{"group":"hexagon_bi","fractal_assignment":["../images/pnk_blu.png","../images/blu_wht.png","../images/ylw_slt.png","../images/org_blu.png","../images/gry_blk.png","../images/cyn_red.png"],"mutagen_generator_assignment":[0,1],"goal":3,"start":2,"action_noise":0.2,"location_history":"[2,1,2,3]","action_history":"[0,0,1]","mutagen_history":"[0,0,1]","location_rts":"[838,457,1337]","trial_type":"fractal-mutation","trial_index":172,"time_elapsed":4237186,"internal_node_id":"0.0-5.0-68.0"},{"group":"hexagon_bi","fractal_assignment":["../images/pnk_blu.png","../images/blu_wht.png","../images/ylw_slt.png","../images/org_blu.png","../images/gry_blk.png","../images/cyn_red.png"],"mutagen_generator_assignment":[0,1],"goal":4,"start":3,"action_noise":0.2,"location_history":"[3,4]","action_history":"[0]","mutagen_history":"[0]","location_rts":"[1668]","trial_type":"fractal-mutation","trial_index":173,"time_elapsed":4243386,"internal_node_id":"0.0-5.0-69.0"},{"group":"hexagon_bi","fractal_assignment":["../images/pnk_blu.png","../images/blu_wht.png","../images/ylw_slt.png","../images/org_blu.png","../images/gry_blk.png","../images/cyn_red.png"],"mutagen_generator_assignment":[0,1],"goal":0,"start":4,"action_noise":0.2,"location_history":"[4,5,4,3,4,5,0]","action_history":"[1,0,0,0,1,1]","mutagen_history":"[1,0,0,0,1,1]","location_rts":"[1475,688,1049,993,694,516]","trial_type":"fractal-mutation","trial_index":174,"time_elapsed":4258496,"internal_node_id":"0.0-5.0-70.0"},{"group":"hexagon_bi","fractal_assignment":["../images/pnk_blu.png","../images/blu_wht.png","../images/ylw_slt.png","../images/org_blu.png","../images/gry_blk.png","../images/cyn_red.png"],"mutagen_generator_assignment":[0,1],"goal":5,"start":0,"action_noise":0.2,"location_history":"[0,5]","action_history":"[0]","mutagen_history":"[0]","location_rts":"[985]","trial_type":"fractal-mutation","trial_index":175,"time_elapsed":4264025,"internal_node_id":"0.0-5.0-71.0"},{"group":"hexagon_bi","fractal_assignment":["../images/pnk_blu.png","../images/blu_wht.png","../images/ylw_slt.png","../images/org_blu.png","../images/gry_blk.png","../images/cyn_red.png"],"mutagen_generator_assignment":[0,1],"goal":0,"start":5,"action_noise":0.2,"location_history":"[5,0]","action_history":"[0]","mutagen_history":"[0]","location_rts":"[779]","trial_type":"fractal-mutation","trial_index":176,"time_elapsed":4269337,"internal_node_id":"0.0-5.0-72.0"},{"group":"hexagon_bi","fractal_assignment":["../images/pnk_blu.png","../images/blu_wht.png","../images/ylw_slt.png","../images/org_blu.png","../images/gry_blk.png","../images/cyn_red.png"],"mutagen_generator_assignment":[0,1],"goal":3,"start":0,"action_noise":0.2,"location_history":"[0,1,0,5,0,1,0,5,4,3]","action_history":"[0,1,0,1,1,1,0,1,0]","mutagen_history":"[0,1,0,1,1,1,0,1,0]","location_rts":"[1319,674,949,1589,767,518,800,1998,647]","trial_type":"fractal-mutation","trial_index":177,"time_elapsed":4291376,"internal_node_id":"0.0-5.0-73.0"},{"group":"hexagon_bi","fractal_assignment":["../images/pnk_blu.png","../images/blu_wht.png","../images/ylw_slt.png","../images/org_blu.png","../images/gry_blk.png","../images/cyn_red.png"],"mutagen_generator_assignment":[0,1],"goal":1,"start":3,"action_noise":0.2,"location_history":"[3,4,3,2,1]","action_history":"[0,0,1,0]","mutagen_history":"[0,0,1,0]","location_rts":"[2102,531,1286,1069]","trial_type":"fractal-mutation","trial_index":178,"time_elapsed":4304001,"internal_node_id":"0.0-5.0-74.0"},{"group":"hexagon_bi","fractal_assignment":["../images/pnk_blu.png","../images/blu_wht.png","../images/ylw_slt.png","../images/org_blu.png","../images/gry_blk.png","../images/cyn_red.png"],"mutagen_generator_assignment":[0,1],"goal":2,"start":1,"action_noise":0.2,"location_history":"[1,0,5,0,5,0,5,4,5,4,3,2]","action_history":"[1,0,0,0,0,1,1,1,1,0,1]","mutagen_history":"[1,0,0,0,0,1,1,1,1,0,1]","location_rts":"[2593,1138,601,556,412,2502,413,571,558,1092,1283]","trial_type":"fractal-mutation","trial_index":179,"time_elapsed":4330555,"internal_node_id":"0.0-5.0-75.0"},{"group":"hexagon_bi","fractal_assignment":["../images/pnk_blu.png","../images/blu_wht.png","../images/ylw_slt.png","../images/org_blu.png","../images/gry_blk.png","../images/cyn_red.png"],"mutagen_generator_assignment":[0,1],"goal":4,"start":2,"action_noise":0.2,"location_history":"[2,3,4]","action_history":"[1,0]","mutagen_history":"[1,0]","location_rts":"[2035,647]","trial_type":"fractal-mutation","trial_index":180,"time_elapsed":4338811,"internal_node_id":"0.0-5.0-76.0"},{"group":"hexagon_bi","fractal_assignment":["../images/pnk_blu.png","../images/blu_wht.png","../images/ylw_slt.png","../images/org_blu.png","../images/gry_blk.png","../images/cyn_red.png"],"mutagen_generator_assignment":[0,1],"goal":3,"start":4,"action_noise":0.2,"location_history":"[4,3]","action_history":"[0]","mutagen_history":"[0]","location_rts":"[786]","trial_type":"fractal-mutation","trial_index":181,"time_elapsed":4344130,"internal_node_id":"0.0-5.0-77.0"},{"group":"hexagon_bi","fractal_assignment":["../images/pnk_blu.png","../images/blu_wht.png","../images/ylw_slt.png","../images/org_blu.png","../images/gry_blk.png","../images/cyn_red.png"],"mutagen_generator_assignment":[0,1],"goal":0,"start":3,"action_noise":0.2,"location_history":"[3,4,5,0]","action_history":"[0,1,0]","mutagen_history":"[0,1,0]","location_rts":"[744,966,746]","trial_type":"fractal-mutation","trial_index":182,"time_elapsed":4353180,"internal_node_id":"0.0-5.0-78.0"},{"group":"hexagon_bi","fractal_assignment":["../images/pnk_blu.png","../images/blu_wht.png","../images/ylw_slt.png","../images/org_blu.png","../images/gry_blk.png","../images/cyn_red.png"],"mutagen_generator_assignment":[0,1],"goal":4,"start":0,"action_noise":0.2,"location_history":"[0,5,0,5,0,1,2,1,0,1,2,1,2,1,2,1,0,1,2,1,2,3,2,1,0,5,0,1,0,1,0,5,4]","action_history":"[1,0,0,1,0,0,0,1,1,0,0,0,0,0,1,1,1,1,0,0,0,0,0,1,0,0,1,1,1,1,1,0]","mutagen_history":"[1,0,0,1,0,0,0,1,1,0,0,0,0,0,1,1,1,1,0,0,0,0,0,1,0,0,1,1,1,1,1,0]","location_rts":"[1623,697,1333,1104,1112,590,949,868,542,545,686,848,372,361,550,534,548,692,506,7970,1036,1938,1368,666,1056,1334,1008,634,442,433,406,317]","trial_type":"fractal-mutation","trial_index":183,"time_elapsed":4422697,"internal_node_id":"0.0-5.0-79.0"},{"group":"hexagon_bi","fractal_assignment":["../images/pnk_blu.png","../images/blu_wht.png","../images/ylw_slt.png","../images/org_blu.png","../images/gry_blk.png","../images/cyn_red.png"],"mutagen_generator_assignment":[0,1],"goal":5,"start":4,"action_noise":0.2,"location_history":"[4,3,2,3,4,5]","action_history":"[0,1,1,0,1]","mutagen_history":"[0,1,1,0,1]","location_rts":"[784,556,461,428,827]","trial_type":"fractal-mutation","trial_index":184,"time_elapsed":4434424,"internal_node_id":"0.0-5.0-80.0"},{"group":"hexagon_bi","fractal_assignment":["../images/pnk_blu.png","../images/blu_wht.png","../images/ylw_slt.png","../images/org_blu.png","../images/gry_blk.png","../images/cyn_red.png"],"mutagen_generator_assignment":[0,1],"goal":1,"start":5,"action_noise":0.2,"location_history":"[5,0,1]","action_history":"[0,1]","mutagen_history":"[0,1]","location_rts":"[1997,814]","trial_type":"fractal-mutation","trial_index":185,"time_elapsed":4442798,"internal_node_id":"0.0-5.0-81.0"},{"group":"hexagon_bi","fractal_assignment":["../images/pnk_blu.png","../images/blu_wht.png","../images/ylw_slt.png","../images/org_blu.png","../images/gry_blk.png","../images/cyn_red.png"],"mutagen_generator_assignment":[0,1],"goal":2,"start":1,"action_noise":0.2,"location_history":"[1,0,5,0,1,0,1,2]","action_history":"[1,0,0,1,1,1,0]","mutagen_history":"[1,0,0,1,1,1,0]","location_rts":"[845,754,572,493,520,529,745]","trial_type":"fractal-mutation","trial_index":186,"time_elapsed":4457985,"internal_node_id":"0.0-5.0-82.0"},{"group":"hexagon_bi","fractal_assignment":["../images/pnk_blu.png","../images/blu_wht.png","../images/ylw_slt.png","../images/org_blu.png","../images/gry_blk.png","../images/cyn_red.png"],"mutagen_generator_assignment":[0,1],"goal":4,"start":2,"action_noise":0.2,"location_history":"[2,1,2,1,2,3,4]","action_history":"[0,0,1,0,1,0]","mutagen_history":"[0,0,1,0,1,0]","location_rts":"[865,766,653,747,540,1100]","trial_type":"fractal-mutation","trial_index":187,"time_elapsed":4472339,"internal_node_id":"0.0-5.0-83.0"},{"group":"hexagon_bi","fractal_assignment":["../images/pnk_blu.png","../images/blu_wht.png","../images/ylw_slt.png","../images/org_blu.png","../images/gry_blk.png","../images/cyn_red.png"],"mutagen_generator_assignment":[0,1],"goal":0,"start":4,"action_noise":0.2,"location_history":"[4,5,0]","action_history":"[1,0]","mutagen_history":"[1,0]","location_rts":"[1045,742]","trial_type":"fractal-mutation","trial_index":188,"time_elapsed":4479686,"internal_node_id":"0.0-5.0-84.0"},{"group":"hexagon_bi","fractal_assignment":["../images/pnk_blu.png","../images/blu_wht.png","../images/ylw_slt.png","../images/org_blu.png","../images/gry_blk.png","../images/cyn_red.png"],"mutagen_generator_assignment":[0,1],"goal":5,"start":0,"action_noise":0.2,"location_history":"[0,1,2,1,0,5]","action_history":"[1,0,0,0,1]","mutagen_history":"[1,0,0,0,1]","location_rts":"[986,410,575,496,380]","trial_type":"fractal-mutation","trial_index":189,"time_elapsed":4491196,"internal_node_id":"0.0-5.0-85.0"},{"group":"hexagon_bi","fractal_assignment":["../images/pnk_blu.png","../images/blu_wht.png","../images/ylw_slt.png","../images/org_blu.png","../images/gry_blk.png","../images/cyn_red.png"],"mutagen_generator_assignment":[0,1],"goal":3,"start":5,"action_noise":0.2,"location_history":"[5,0,5,0,1,0,1,0,1,0,1,0,1,0,5,4,3]","action_history":"[0,1,0,1,1,0,1,1,1,1,1,1,1,0,1,0]","mutagen_history":"[0,1,0,1,1,0,1,1,1,1,1,1,1,0,1,0]","location_rts":"[1301,749,684,772,992,484,864,866,704,530,342,320,372,354,1759,942]","trial_type":"fractal-mutation","trial_index":190,"time_elapsed":4523261,"internal_node_id":"0.0-5.0-86.0"},{"group":"hexagon_bi","fractal_assignment":["../images/pnk_blu.png","../images/blu_wht.png","../images/ylw_slt.png","../images/org_blu.png","../images/gry_blk.png","../images/cyn_red.png"],"mutagen_generator_assignment":[0,1],"goal":1,"start":3,"action_noise":0.2,"location_history":"[3,2,3,2,3,2,3,2,3,4,3,4,3,2,1]","action_history":"[1,0,1,1,1,1,1,0,0,0,0,1,1,0]","mutagen_history":"[1,0,1,1,1,1,1,0,0,0,0,1,1,0]","location_rts":"[810,650,1183,960,1077,753,717,522,508,559,668,668,554,402]","trial_type":"fractal-mutation","trial_index":191,"time_elapsed":4551303,"internal_node_id":"0.0-5.0-87.0"},{"group":"hexagon_bi","fractal_assignment":["../images/pnk_blu.png","../images/blu_wht.png","../images/ylw_slt.png","../images/org_blu.png","../images/gry_blk.png","../images/cyn_red.png"],"mutagen_generator_assignment":[0,1],"goal":2,"start":1,"action_noise":0.2,"location_history":"[1,0,5,0,5,4,5,4,3,2]","action_history":"[1,0,0,0,1,0,1,0,0]","mutagen_history":"[1,0,0,0,1,0,1,0,0]","location_rts":"[772,625,783,625,482,1010,976,834,600]","trial_type":"fractal-mutation","trial_index":192,"time_elapsed":4570788,"internal_node_id":"0.0-5.0-88.0"},{"group":"hexagon_bi","fractal_assignment":["../images/pnk_blu.png","../images/blu_wht.png","../images/ylw_slt.png","../images/org_blu.png","../images/gry_blk.png","../images/cyn_red.png"],"mutagen_generator_assignment":[0,1],"goal":0,"start":2,"action_noise":0.2,"location_history":"[2,1,2,3,2,1,0]","action_history":"[0,1,1,0,0,0]","mutagen_history":"[0,1,1,0,0,0]","location_rts":"[1264,451,438,534,820,560]","trial_type":"fractal-mutation","trial_index":193,"time_elapsed":4584543,"internal_node_id":"0.0-5.0-89.0"},{"group":"hexagon_bi","fractal_assignment":["../images/pnk_blu.png","../images/blu_wht.png","../images/ylw_slt.png","../images/org_blu.png","../images/gry_blk.png","../images/cyn_red.png"],"mutagen_generator_assignment":[0,1],"goal":5,"start":0,"action_noise":0.2,"location_history":"[0,1,2,1,0,1,0,5]","action_history":"[0,0,0,1,1,1,0]","mutagen_history":"[0,0,0,1,1,1,0]","location_rts":"[848,626,340,984,389,387,493]","trial_type":"fractal-mutation","trial_index":194,"time_elapsed":4599320,"internal_node_id":"0.0-5.0-90.0"},{"group":"hexagon_bi","fractal_assignment":["../images/pnk_blu.png","../images/blu_wht.png","../images/ylw_slt.png","../images/org_blu.png","../images/gry_blk.png","../images/cyn_red.png"],"mutagen_generator_assignment":[0,1],"goal":1,"start":5,"action_noise":0.2,"location_history":"[5,0,5,4,3,2,1]","action_history":"[0,0,1,1,0,0]","mutagen_history":"[0,0,1,1,0,0]","location_rts":"[3787,511,380,708,497,1138]","trial_type":"fractal-mutation","trial_index":195,"time_elapsed":4616004,"internal_node_id":"0.0-5.0-91.0"},{"group":"hexagon_bi","fractal_assignment":["../images/pnk_blu.png","../images/blu_wht.png","../images/ylw_slt.png","../images/org_blu.png","../images/gry_blk.png","../images/cyn_red.png"],"mutagen_generator_assignment":[0,1],"goal":3,"start":1,"action_noise":0.2,"location_history":"[1,2,1,2,3]","action_history":"[1,0,0,1]","mutagen_history":"[1,0,0,1]","location_rts":"[1454,627,527,838]","trial_type":"fractal-mutation","trial_index":196,"time_elapsed":4627081,"internal_node_id":"0.0-5.0-92.0"},{"group":"hexagon_bi","fractal_assignment":["../images/pnk_blu.png","../images/blu_wht.png","../images/ylw_slt.png","../images/org_blu.png","../images/gry_blk.png","../images/cyn_red.png"],"mutagen_generator_assignment":[0,1],"goal":4,"start":3,"action_noise":0.2,"location_history":"[3,2,3,2,3,4]","action_history":"[0,1,1,1,0]","mutagen_history":"[0,1,1,1,0]","location_rts":"[1119,604,963,549,298]","trial_type":"fractal-mutation","trial_index":197,"time_elapsed":4639265,"internal_node_id":"0.0-5.0-93.0"},{"group":"hexagon_bi","fractal_assignment":["../images/pnk_blu.png","../images/blu_wht.png","../images/ylw_slt.png","../images/org_blu.png","../images/gry_blk.png","../images/cyn_red.png"],"mutagen_generator_assignment":[0,1],"goal":2,"start":4,"action_noise":0.2,"location_history":"[4,3,2]","action_history":"[0,1]","mutagen_history":"[0,1]","location_rts":"[1051,412]","trial_type":"fractal-mutation","trial_index":198,"time_elapsed":4646292,"internal_node_id":"0.0-5.0-94.0"},{"group":"hexagon_bi","fractal_assignment":["../images/pnk_blu.png","../images/blu_wht.png","../images/ylw_slt.png","../images/org_blu.png","../images/gry_blk.png","../images/cyn_red.png"],"mutagen_generator_assignment":[0,1],"goal":4,"start":2,"action_noise":0.2,"location_history":"[2,3,2,3,2,3,2,3,2,3,2,1,2,1,2,3,4]","action_history":"[0,0,1,1,1,0,1,1,1,1,0,0,0,0,0,0]","mutagen_history":"[0,0,1,1,1,0,1,1,1,1,0,0,0,0,0,0]","location_rts":"[1670,1063,601,628,718,560,479,381,435,424,430,346,717,462,357,341]","trial_type":"fractal-mutation","trial_index":199,"time_elapsed":4675917,"internal_node_id":"0.0-5.0-95.0"},{"group":"hexagon_bi","fractal_assignment":["../images/pnk_blu.png","../images/blu_wht.png","../images/ylw_slt.png","../images/org_blu.png","../images/gry_blk.png","../images/cyn_red.png"],"mutagen_generator_assignment":[0,1],"goal":0,"start":4,"action_noise":0.2,"location_history":"[4,3,4,3,2,3,2,1,0]","action_history":"[1,0,0,0,1,1,1,1]","mutagen_history":"[1,0,0,0,1,1,1,1]","location_rts":"[1780,687,1325,1032,709,877,501,424]","trial_type":"fractal-mutation","trial_index":200,"time_elapsed":4695003,"internal_node_id":"0.0-5.0-96.0"},{"group":"hexagon_bi","fractal_assignment":["../images/pnk_blu.png","../images/blu_wht.png","../images/ylw_slt.png","../images/org_blu.png","../images/gry_blk.png","../images/cyn_red.png"],"mutagen_generator_assignment":[0,1],"goal":5,"start":0,"action_noise":0.2,"location_history":"[0,5]","action_history":"[0]","mutagen_history":"[0]","location_rts":"[1528]","trial_type":"fractal-mutation","trial_index":201,"time_elapsed":4701058,"internal_node_id":"0.0-5.0-97.0"},{"group":"hexagon_bi","fractal_assignment":["../images/pnk_blu.png","../images/blu_wht.png","../images/ylw_slt.png","../images/org_blu.png","../images/gry_blk.png","../images/cyn_red.png"],"mutagen_generator_assignment":[0,1],"goal":1,"start":5,"action_noise":0.2,"location_history":"[5,0,5,4,3,2,3,2,3,4,5,4,5,0,5,0,5,4,3,2,1]","action_history":"[0,1,1,0,1,0,1,1,0,1,1,1,0,0,0,0,0,0,1,0]","mutagen_history":"[0,1,1,0,1,0,1,1,0,1,1,1,0,0,0,0,0,0,1,0]","location_rts":"[837,428,528,560,742,883,827,664,569,897,522,518,863,742,629,262,363,743,448,1659]","trial_type":"fractal-mutation","trial_index":202,"time_elapsed":4738879,"internal_node_id":"0.0-5.0-98.0"},{"group":"hexagon_bi","fractal_assignment":["../images/pnk_blu.png","../images/blu_wht.png","../images/ylw_slt.png","../images/org_blu.png","../images/gry_blk.png","../images/cyn_red.png"],"mutagen_generator_assignment":[0,1],"goal":3,"start":1,"action_noise":0.2,"location_history":"[1,2,3]","action_history":"[0,1]","mutagen_history":"[0,1]","location_rts":"[882,403]","trial_type":"fractal-mutation","trial_index":203,"time_elapsed":4745728,"internal_node_id":"0.0-5.0-99.0"},{"view_history":"[{\"page_index\":0,\"viewing_time\":10181}]","rt":10182,"trial_type":"instructions","trial_index":204,"time_elapsed":4756911,"internal_node_id":"0.0-6.0"},{"rt":93064,"responses":"{\"Q0\":\"By far the hardest HIT I've ever attempted.  I found it to be very interesting, but no matter how hard I tried I couldn't find the pattern or formula, though I'm sure they're there.\"}","trial_type":"survey-text","trial_index":205,"time_elapsed":4850982,"internal_node_id":"0.0-7.0"}]