[{"view_history":"[{\"page_index\":0,\"viewing_time\":8939},{\"page_index\":1,\"viewing_time\":17925},{\"page_index\":2,\"viewing_time\":17349},{\"page_index\":3,\"viewing_time\":6130}]","rt":50345,"trial_type":"instructions","trial_index":0,"time_elapsed":50347,"internal_node_id":"0.0-0.0"},{"view_history":"[{\"page_index\":0,\"viewing_time\":2561},{\"page_index\":1,\"viewing_time\":35737}]","rt":38298,"trial_type":"instructions","trial_index":1,"time_elapsed":89648,"internal_node_id":"0.0-1.0"},{"group":"hexagon_tri","room_assignment":["grey","green","red","blue","purple","yellow"],"door_color_assignment":["white","black"],"door_generator_assignment":[0,1],"goal":4,"start":0,"action_noise":0.2,"location_history":"[0,5,0,1,5,4]","action_history":"[1,1,1,1,0]","door_history":"[1,1,1,1,0]","location_rts":"[5727,3043,2864,1979,1279]","trial_type":"two-door-navigation","trial_index":2,"time_elapsed":113169,"internal_node_id":"0.0-2.0-0.0"},{"group":"hexagon_tri","room_assignment":["grey","green","red","blue","purple","yellow"],"door_color_assignment":["white","black"],"door_generator_assignment":[0,1],"goal":3,"start":4,"action_noise":0.2,"location_history":"[4,0,5,4,2,3]","action_history":"[0,0,0,1,1]","door_history":"[0,0,0,1,1]","location_rts":"[3210,1300,824,924,961]","trial_type":"two-door-navigation","trial_index":3,"time_elapsed":129007,"internal_node_id":"0.0-2.0-1.0"},{"group":"hexagon_tri","room_assignment":["grey","green","red","blue","purple","yellow"],"door_color_assignment":["white","black"],"door_generator_assignment":[0,1],"goal":5,"start":3,"action_noise":0.2,"location_history":"[3,2,1,5]","action_history":"[0,0,0]","door_history":"[0,0,0]","location_rts":"[2607,793,897]","trial_type":"two-door-navigation","trial_index":4,"time_elapsed":139873,"internal_node_id":"0.0-2.0-2.0"},{"group":"hexagon_tri","room_assignment":["grey","green","red","blue","purple","yellow"],"door_color_assignment":["white","black"],"door_generator_assignment":[0,1],"goal":2,"start":5,"action_noise":0.2,"location_history":"[5,0,5,4,0,5,4,2]","action_history":"[1,1,1,1,0,0,0]","door_history":"[1,1,1,1,0,0,0]","location_rts":"[4190,650,496,614,853,552,605]","trial_type":"two-door-navigation","trial_index":5,"time_elapsed":158491,"internal_node_id":"0.0-2.0-3.0"},{"group":"hexagon_tri","room_assignment":["grey","green","red","blue","purple","yellow"],"door_color_assignment":["white","black"],"door_generator_assignment":[0,1],"goal":1,"start":2,"action_noise":0.2,"location_history":"[2,1]","action_history":"[0]","door_history":"[0]","location_rts":"[3050]","trial_type":"two-door-navigation","trial_index":6,"time_elapsed":166071,"internal_node_id":"0.0-2.0-4.0"},{"group":"hexagon_tri","room_assignment":["grey","green","red","blue","purple","yellow"],"door_color_assignment":["white","black"],"door_generator_assignment":[0,1],"goal":4,"start":1,"action_noise":0.2,"location_history":"[1,3,4]","action_history":"[0,1]","door_history":"[0,1]","location_rts":"[1846,999]","trial_type":"two-door-navigation","trial_index":7,"time_elapsed":174468,"internal_node_id":"0.0-2.0-5.0"},{"group":"hexagon_tri","room_assignment":["grey","green","red","blue","purple","yellow"],"door_color_assignment":["white","black"],"door_generator_assignment":[0,1],"goal":1,"start":4,"action_noise":0.2,"location_history":"[4,0,5,4,0,5,0,1]","action_history":"[0,0,0,0,1,1,1]","door_history":"[0,0,0,0,1,1,1]","location_rts":"[2548,742,604,572,864,547,562]","trial_type":"two-door-navigation","trial_index":8,"time_elapsed":191563,"internal_node_id":"0.0-2.0-6.0"},{"group":"hexagon_tri","room_assignment":["grey","green","red","blue","purple","yellow"],"door_color_assignment":["white","black"],"door_generator_assignment":[0,1],"goal":5,"start":1,"action_noise":0.2,"location_history":"[1,5]","action_history":"[0]","door_history":"[0]","location_rts":"[1855]","trial_type":"two-door-navigation","trial_index":9,"time_elapsed":197946,"internal_node_id":"0.0-2.0-7.0"},{"group":"hexagon_tri","room_assignment":["grey","green","red","blue","purple","yellow"],"door_color_assignment":["white","black"],"door_generator_assignment":[0,1],"goal":0,"start":5,"action_noise":0.2,"location_history":"[5,0]","action_history":"[1]","door_history":"[1]","location_rts":"[1879]","trial_type":"two-door-navigation","trial_index":10,"time_elapsed":204354,"internal_node_id":"0.0-2.0-8.0"},{"group":"hexagon_tri","room_assignment":["grey","green","red","blue","purple","yellow"],"door_color_assignment":["white","black"],"door_generator_assignment":[0,1],"goal":2,"start":0,"action_noise":0.2,"location_history":"[0,5,4,2]","action_history":"[0,0,0]","door_history":"[0,0,0]","location_rts":"[2318,494,603]","trial_type":"two-door-navigation","trial_index":11,"time_elapsed":214336,"internal_node_id":"0.0-2.0-9.0"},{"group":"hexagon_tri","room_assignment":["grey","green","red","blue","purple","yellow"],"door_color_assignment":["white","black"],"door_generator_assignment":[0,1],"goal":3,"start":2,"action_noise":0.2,"location_history":"[2,3]","action_history":"[1]","door_history":"[1]","location_rts":"[2273]","trial_type":"two-door-navigation","trial_index":12,"time_elapsed":221134,"internal_node_id":"0.0-2.0-10.0"},{"group":"hexagon_tri","room_assignment":["grey","green","red","blue","purple","yellow"],"door_color_assignment":["white","black"],"door_generator_assignment":[0,1],"goal":0,"start":3,"action_noise":0.2,"location_history":"[3,4,2,1,5,0]","action_history":"[1,1,1,1,1]","door_history":"[1,1,1,1,1]","location_rts":"[1573,667,564,615,532]","trial_type":"two-door-navigation","trial_index":13,"time_elapsed":233697,"internal_node_id":"0.0-2.0-11.0"},{"group":"hexagon_tri","room_assignment":["grey","green","red","blue","purple","yellow"],"door_color_assignment":["white","black"],"door_generator_assignment":[0,1],"goal":2,"start":0,"action_noise":0.2,"location_history":"[0,5,4,0,5,4,0,1,5,0,5,0,5,4,2]","action_history":"[0,0,0,0,0,1,1,1,1,1,1,0,0,0]","door_history":"[0,0,0,0,0,1,1,1,1,1,1,0,0,0]","location_rts":"[2512,596,643,496,481,584,480,560,469,532,469,605,504,638]","trial_type":"two-door-navigation","trial_index":14,"time_elapsed":261062,"internal_node_id":"0.0-2.0-12.0"},{"group":"hexagon_tri","room_assignment":["grey","green","red","blue","purple","yellow"],"door_color_assignment":["white","black"],"door_generator_assignment":[0,1],"goal":5,"start":2,"action_noise":0.2,"location_history":"[2,1,3,2,1,5]","action_history":"[0,0,0,0,1]","door_history":"[0,0,0,0,1]","location_rts":"[1815,520,662,588,402]","trial_type":"two-door-navigation","trial_index":15,"time_elapsed":273668,"internal_node_id":"0.0-2.0-13.0"},{"group":"hexagon_tri","room_assignment":["grey","green","red","blue","purple","yellow"],"door_color_assignment":["white","black"],"door_generator_assignment":[0,1],"goal":4,"start":5,"action_noise":0.2,"location_history":"[5,0,5,4]","action_history":"[0,0,0]","door_history":"[0,0,0]","location_rts":"[1617,594,523]","trial_type":"two-door-navigation","trial_index":16,"time_elapsed":282970,"internal_node_id":"0.0-2.0-14.0"},{"group":"hexagon_tri","room_assignment":["grey","green","red","blue","purple","yellow"],"door_color_assignment":["white","black"],"door_generator_assignment":[0,1],"goal":3,"start":4,"action_noise":0.2,"location_history":"[4,2,1,5,4,2,3]","action_history":"[1,1,1,1,0,0]","door_history":"[1,1,1,1,0,0]","location_rts":"[1488,545,698,597,725,555]","trial_type":"two-door-navigation","trial_index":17,"time_elapsed":297219,"internal_node_id":"0.0-2.0-15.0"},{"group":"hexagon_tri","room_assignment":["grey","green","red","blue","purple","yellow"],"door_color_assignment":["white","black"],"door_generator_assignment":[0,1],"goal":1,"start":3,"action_noise":0.2,"location_history":"[3,4,2,3,2,1]","action_history":"[1,1,1,0,0]","door_history":"[1,1,1,0,0]","location_rts":"[2122,580,665,1045,501]","trial_type":"two-door-navigation","trial_index":18,"time_elapsed":310748,"internal_node_id":"0.0-2.0-16.0"},{"group":"hexagon_tri","room_assignment":["grey","green","red","blue","purple","yellow"],"door_color_assignment":["white","black"],"door_generator_assignment":[0,1],"goal":5,"start":1,"action_noise":0.2,"location_history":"[1,5]","action_history":"[1]","door_history":"[1]","location_rts":"[2284]","trial_type":"two-door-navigation","trial_index":19,"time_elapsed":317560,"internal_node_id":"0.0-2.0-17.0"},{"group":"hexagon_tri","room_assignment":["grey","green","red","blue","purple","yellow"],"door_color_assignment":["white","black"],"door_generator_assignment":[0,1],"goal":4,"start":5,"action_noise":0.2,"location_history":"[5,4]","action_history":"[0]","door_history":"[0]","location_rts":"[1665]","trial_type":"two-door-navigation","trial_index":20,"time_elapsed":323760,"internal_node_id":"0.0-2.0-18.0"},{"group":"hexagon_tri","room_assignment":["grey","green","red","blue","purple","yellow"],"door_color_assignment":["white","black"],"door_generator_assignment":[0,1],"goal":0,"start":4,"action_noise":0.2,"location_history":"[4,0]","action_history":"[0]","door_history":"[0]","location_rts":"[1374]","trial_type":"two-door-navigation","trial_index":21,"time_elapsed":329665,"internal_node_id":"0.0-2.0-19.0"},{"group":"hexagon_tri","room_assignment":["grey","green","red","blue","purple","yellow"],"door_color_assignment":["white","black"],"door_generator_assignment":[0,1],"goal":1,"start":0,"action_noise":0.2,"location_history":"[0,1]","action_history":"[1]","door_history":"[1]","location_rts":"[1617]","trial_type":"two-door-navigation","trial_index":22,"time_elapsed":335806,"internal_node_id":"0.0-2.0-20.0"},{"group":"hexagon_tri","room_assignment":["grey","green","red","blue","purple","yellow"],"door_color_assignment":["white","black"],"door_generator_assignment":[0,1],"goal":3,"start":1,"action_noise":0.2,"location_history":"[1,5,4,2,3]","action_history":"[1,1,1,1]","door_history":"[1,1,1,1]","location_rts":"[1810,710,569,487]","trial_type":"two-door-navigation","trial_index":23,"time_elapsed":346975,"internal_node_id":"0.0-2.0-21.0"},{"group":"hexagon_tri","room_assignment":["grey","green","red","blue","purple","yellow"],"door_color_assignment":["white","black"],"door_generator_assignment":[0,1],"goal":2,"start":3,"action_noise":0.2,"location_history":"[3,2]","action_history":"[0]","door_history":"[0]","location_rts":"[1661]","trial_type":"two-door-navigation","trial_index":24,"time_elapsed":353162,"internal_node_id":"0.0-2.0-22.0"},{"group":"hexagon_tri","room_assignment":["grey","green","red","blue","purple","yellow"],"door_color_assignment":["white","black"],"door_generator_assignment":[0,1],"goal":0,"start":2,"action_noise":0.2,"location_history":"[2,1,3,2,1,3,4,0]","action_history":"[0,0,0,0,0,1,1]","door_history":"[0,0,0,0,0,1,1]","location_rts":"[1813,852,636,515,562,563,542]","trial_type":"two-door-navigation","trial_index":25,"time_elapsed":369304,"internal_node_id":"0.0-2.0-23.0"},{"group":"hexagon_tri","room_assignment":["grey","green","red","blue","purple","yellow"],"door_color_assignment":["white","black"],"door_generator_assignment":[0,1],"goal":3,"start":0,"action_noise":0.2,"location_history":"[0,5,4,0,5,0,1,5,0,1,3]","action_history":"[0,0,0,0,1,1,1,1,1,0]","door_history":"[0,0,0,0,1,1,1,1,1,0]","location_rts":"[3684,878,552,526,464,572,566,590,518,556]","trial_type":"two-door-navigation","trial_index":26,"time_elapsed":391935,"internal_node_id":"0.0-2.0-24.0"},{"group":"hexagon_tri","room_assignment":["grey","green","red","blue","purple","yellow"],"door_color_assignment":["white","black"],"door_generator_assignment":[0,1],"goal":1,"start":3,"action_noise":0.2,"location_history":"[3,2,1]","action_history":"[0,0]","door_history":"[0,0]","location_rts":"[2700,1141]","trial_type":"two-door-navigation","trial_index":27,"time_elapsed":401324,"internal_node_id":"0.0-2.0-25.0"},{"group":"hexagon_tri","room_assignment":["grey","green","red","blue","purple","yellow"],"door_color_assignment":["white","black"],"door_generator_assignment":[0,1],"goal":2,"start":1,"action_noise":0.2,"location_history":"[1,5,0,1,3,4,0,5,4,0,5,4,2]","action_history":"[1,1,1,0,0,0,0,0,1,1,1,1]","door_history":"[1,1,1,0,0,0,0,0,1,1,1,1]","location_rts":"[12194,550,578,530,470,547,553,493,752,550,551,560]","trial_type":"two-door-navigation","trial_index":28,"time_elapsed":435414,"internal_node_id":"0.0-2.0-26.0"},{"group":"hexagon_tri","room_assignment":["grey","green","red","blue","purple","yellow"],"door_color_assignment":["white","black"],"door_generator_assignment":[0,1],"goal":5,"start":2,"action_noise":0.2,"location_history":"[2,1,3,4,0,1,5]","action_history":"[0,0,0,0,1,1]","door_history":"[0,0,0,0,1,1]","location_rts":"[2229,418,485,502,459,526]","trial_type":"two-door-navigation","trial_index":29,"time_elapsed":449679,"internal_node_id":"0.0-2.0-27.0"},{"group":"hexagon_tri","room_assignment":["grey","green","red","blue","purple","yellow"],"door_color_assignment":["white","black"],"door_generator_assignment":[0,1],"goal":4,"start":5,"action_noise":0.2,"location_history":"[5,0,5,0,1,3,4]","action_history":"[1,1,1,1,0,0]","door_history":"[1,1,1,1,0,0]","location_rts":"[1796,563,489,435,515,425]","trial_type":"two-door-navigation","trial_index":30,"time_elapsed":463542,"internal_node_id":"0.0-2.0-28.0"},{"group":"hexagon_tri","room_assignment":["grey","green","red","blue","purple","yellow"],"door_color_assignment":["white","black"],"door_generator_assignment":[0,1],"goal":5,"start":4,"action_noise":0.2,"location_history":"[4,2,3,4,2,3,2,1,3,2,1,5]","action_history":"[1,1,1,1,1,0,0,0,0,0,1]","door_history":"[1,1,1,1,1,0,0,0,0,0,1]","location_rts":"[2324,478,490,542,476,211,530,768,508,581,962]","trial_type":"two-door-navigation","trial_index":31,"time_elapsed":486136,"internal_node_id":"0.0-2.0-29.0"},{"group":"hexagon_tri","room_assignment":["grey","green","red","blue","purple","yellow"],"door_color_assignment":["white","black"],"door_generator_assignment":[0,1],"goal":3,"start":5,"action_noise":0.2,"location_history":"[5,4,2,3]","action_history":"[1,1,1]","door_history":"[1,1,1]","location_rts":"[1445,573,514]","trial_type":"two-door-navigation","trial_index":32,"time_elapsed":495235,"internal_node_id":"0.0-2.0-30.0"},{"group":"hexagon_tri","room_assignment":["grey","green","red","blue","purple","yellow"],"door_color_assignment":["white","black"],"door_generator_assignment":[0,1],"goal":0,"start":3,"action_noise":0.2,"location_history":"[3,4,0]","action_history":"[0,0]","door_history":"[0,0]","location_rts":"[1781,522]","trial_type":"two-door-navigation","trial_index":33,"time_elapsed":503089,"internal_node_id":"0.0-2.0-31.0"},{"group":"hexagon_tri","room_assignment":["grey","green","red","blue","purple","yellow"],"door_color_assignment":["white","black"],"door_generator_assignment":[0,1],"goal":4,"start":0,"action_noise":0.2,"location_history":"[0,1,5,0,5,4]","action_history":"[1,1,1,0,0]","door_history":"[1,1,1,0,0]","location_rts":"[2037,578,465,414,431]","trial_type":"two-door-navigation","trial_index":34,"time_elapsed":515624,"internal_node_id":"0.0-2.0-32.0"},{"group":"hexagon_tri","room_assignment":["grey","green","red","blue","purple","yellow"],"door_color_assignment":["white","black"],"door_generator_assignment":[0,1],"goal":1,"start":4,"action_noise":0.2,"location_history":"[4,2,3,4,2,1]","action_history":"[1,1,1,1,0]","door_history":"[1,1,1,1,0]","location_rts":"[1570,492,518,534,831]","trial_type":"two-door-navigation","trial_index":35,"time_elapsed":528181,"internal_node_id":"0.0-2.0-33.0"},{"group":"hexagon_tri","room_assignment":["grey","green","red","blue","purple","yellow"],"door_color_assignment":["white","black"],"door_generator_assignment":[0,1],"goal":2,"start":1,"action_noise":0.2,"location_history":"[1,3,4,2]","action_history":"[1,1,1]","door_history":"[1,1,1]","location_rts":"[1942,421,705]","trial_type":"two-door-navigation","trial_index":36,"time_elapsed":537817,"internal_node_id":"0.0-2.0-34.0"},{"group":"hexagon_tri","room_assignment":["grey","green","red","blue","purple","yellow"],"door_color_assignment":["white","black"],"door_generator_assignment":[0,1],"goal":0,"start":2,"action_noise":0.2,"location_history":"[2,1,3,2,3,4,2,1,5,4,0]","action_history":"[0,0,0,0,1,1,1,1,1,0]","door_history":"[0,0,0,0,1,1,1,1,1,0]","location_rts":"[1562,578,565,550,869,663,567,554,497,619]","trial_type":"two-door-navigation","trial_index":37,"time_elapsed":558556,"internal_node_id":"0.0-2.0-35.0"},{"group":"hexagon_tri","room_assignment":["grey","green","red","blue","purple","yellow"],"door_color_assignment":["white","black"],"door_generator_assignment":[0,1],"goal":5,"start":0,"action_noise":0.2,"location_history":"[0,5]","action_history":"[0]","door_history":"[0]","location_rts":"[1487]","trial_type":"two-door-navigation","trial_index":38,"time_elapsed":564566,"internal_node_id":"0.0-2.0-36.0"},{"group":"hexagon_tri","room_assignment":["grey","green","red","blue","purple","yellow"],"door_color_assignment":["white","black"],"door_generator_assignment":[0,1],"goal":2,"start":5,"action_noise":0.2,"location_history":"[5,4,0,1,3,4,2]","action_history":"[0,0,0,0,1,1]","door_history":"[0,0,0,0,1,1]","location_rts":"[1602,605,573,522,492,605]","trial_type":"two-door-navigation","trial_index":39,"time_elapsed":578595,"internal_node_id":"0.0-2.0-37.0"},{"group":"hexagon_tri","room_assignment":["grey","green","red","blue","purple","yellow"],"door_color_assignment":["white","black"],"door_generator_assignment":[0,1],"goal":1,"start":2,"action_noise":0.2,"location_history":"[2,1]","action_history":"[0]","door_history":"[0]","location_rts":"[1665]","trial_type":"two-door-navigation","trial_index":40,"time_elapsed":584793,"internal_node_id":"0.0-2.0-38.0"},{"group":"hexagon_tri","room_assignment":["grey","green","red","blue","purple","yellow"],"door_color_assignment":["white","black"],"door_generator_assignment":[0,1],"goal":4,"start":1,"action_noise":0.2,"location_history":"[1,3,4]","action_history":"[1,1]","door_history":"[1,1]","location_rts":"[2792,478]","trial_type":"two-door-navigation","trial_index":41,"time_elapsed":593614,"internal_node_id":"0.0-2.0-39.0"},{"group":"hexagon_tri","room_assignment":["grey","green","red","blue","purple","yellow"],"door_color_assignment":["white","black"],"door_generator_assignment":[0,1],"goal":3,"start":4,"action_noise":0.2,"location_history":"[4,0,5,4,0,1,3]","action_history":"[0,0,0,0,1,1]","door_history":"[0,0,0,0,1,1]","location_rts":"[1575,569,498,549,658,509]","trial_type":"two-door-navigation","trial_index":42,"time_elapsed":607599,"internal_node_id":"0.0-2.0-40.0"},{"group":"hexagon_tri","room_assignment":["grey","green","red","blue","purple","yellow"],"door_color_assignment":["white","black"],"door_generator_assignment":[0,1],"goal":5,"start":3,"action_noise":0.2,"location_history":"[3,2,1,5]","action_history":"[0,0,1]","door_history":"[0,0,1]","location_rts":"[1366,585,502]","trial_type":"two-door-navigation","trial_index":43,"time_elapsed":616622,"internal_node_id":"0.0-2.0-41.0"},{"group":"hexagon_tri","room_assignment":["grey","green","red","blue","purple","yellow"],"door_color_assignment":["white","black"],"door_generator_assignment":[0,1],"goal":3,"start":5,"action_noise":0.2,"location_history":"[5,0,1,3]","action_history":"[1,1,1]","door_history":"[1,1,1]","location_rts":"[1797,624,588]","trial_type":"two-door-navigation","trial_index":44,"time_elapsed":626209,"internal_node_id":"0.0-2.0-42.0"},{"group":"hexagon_tri","room_assignment":["grey","green","red","blue","purple","yellow"],"door_color_assignment":["white","black"],"door_generator_assignment":[0,1],"goal":0,"start":3,"action_noise":0.2,"location_history":"[3,2,1,5,4,2,3,4,2,3,2,1,3,2,3,4,2,3,4,0]","action_history":"[0,0,0,0,1,1,1,1,0,0,0,0,0,1,1,1,1,1,0]","door_history":"[0,0,0,0,1,1,1,1,0,0,0,0,0,1,1,1,1,1,0]","location_rts":"[1606,531,523,554,649,410,572,643,622,512,578,536,540,605,557,628,485,494,589]","trial_type":"two-door-navigation","trial_index":45,"time_elapsed":660755,"internal_node_id":"0.0-2.0-43.0"},{"group":"hexagon_tri","room_assignment":["grey","green","red","blue","purple","yellow"],"door_color_assignment":["white","black"],"door_generator_assignment":[0,1],"goal":2,"start":0,"action_noise":0.2,"location_history":"[0,5,0,5,0,1,5,4,2]","action_history":"[0,0,0,1,1,1,0,0]","door_history":"[0,0,0,1,1,1,0,0]","location_rts":"[1390,544,549,1189,689,673,592,594]","trial_type":"two-door-navigation","trial_index":46,"time_elapsed":678641,"internal_node_id":"0.0-2.0-44.0"},{"group":"hexagon_tri","room_assignment":["grey","green","red","blue","purple","yellow"],"door_color_assignment":["white","black"],"door_generator_assignment":[0,1],"goal":4,"start":2,"action_noise":0.2,"location_history":"[2,3,2,1,3,4]","action_history":"[1,1,0,0,1]","door_history":"[1,1,0,0,1]","location_rts":"[1859,615,921,531,1040]","trial_type":"two-door-navigation","trial_index":47,"time_elapsed":692221,"internal_node_id":"0.0-2.0-45.0"},{"group":"hexagon_tri","room_assignment":["grey","green","red","blue","purple","yellow"],"door_color_assignment":["white","black"],"door_generator_assignment":[0,1],"goal":1,"start":4,"action_noise":0.2,"location_history":"[4,0,5,4,2,3,2,1]","action_history":"[0,0,0,1,1,0,0]","door_history":"[0,0,0,1,1,0,0]","location_rts":"[2402,747,613,620,620,1082,566]","trial_type":"two-door-navigation","trial_index":48,"time_elapsed":709537,"internal_node_id":"0.0-2.0-46.0"},{"group":"hexagon_tri","room_assignment":["grey","green","red","blue","purple","yellow"],"door_color_assignment":["white","black"],"door_generator_assignment":[0,1],"goal":4,"start":1,"action_noise":0.2,"location_history":"[1,3,2,3,4]","action_history":"[0,1,1,1]","door_history":"[0,1,1,1]","location_rts":"[1687,699,561,573]","trial_type":"two-door-navigation","trial_index":49,"time_elapsed":720645,"internal_node_id":"0.0-2.0-47.0"},{"group":"hexagon_tri","room_assignment":["grey","green","red","blue","purple","yellow"],"door_color_assignment":["white","black"],"door_generator_assignment":[0,1],"goal":1,"start":4,"action_noise":0.2,"location_history":"[4,0,1]","action_history":"[0,1]","door_history":"[0,1]","location_rts":"[1964,811]","trial_type":"two-door-navigation","trial_index":50,"time_elapsed":728969,"internal_node_id":"0.0-2.0-48.0"},{"group":"hexagon_tri","room_assignment":["grey","green","red","blue","purple","yellow"],"door_color_assignment":["white","black"],"door_generator_assignment":[0,1],"goal":3,"start":1,"action_noise":0.2,"location_history":"[1,5,4,2,1,5,0,1,3]","action_history":"[1,0,0,0,1,1,1,0]","door_history":"[1,0,0,0,1,1,1,0]","location_rts":"[2012,775,840,716,536,674,638,537]","trial_type":"two-door-navigation","trial_index":51,"time_elapsed":747385,"internal_node_id":"0.0-2.0-49.0"},{"group":"hexagon_tri","room_assignment":["grey","green","red","blue","purple","yellow"],"door_color_assignment":["white","black"],"door_generator_assignment":[0,1],"goal":5,"start":3,"action_noise":0.2,"location_history":"[3,2,1,5]","action_history":"[0,1,1]","door_history":"[0,1,1]","location_rts":"[2074,1554,601]","trial_type":"two-door-navigation","trial_index":52,"time_elapsed":758184,"internal_node_id":"0.0-2.0-50.0"},{"group":"hexagon_tri","room_assignment":["grey","green","red","blue","purple","yellow"],"door_color_assignment":["white","black"],"door_generator_assignment":[0,1],"goal":0,"start":5,"action_noise":0.2,"location_history":"[5,4,0]","action_history":"[0,0]","door_history":"[0,0]","location_rts":"[1640,630]","trial_type":"two-door-navigation","trial_index":53,"time_elapsed":766006,"internal_node_id":"0.0-2.0-51.0"},{"group":"hexagon_tri","room_assignment":["grey","green","red","blue","purple","yellow"],"door_color_assignment":["white","black"],"door_generator_assignment":[0,1],"goal":2,"start":0,"action_noise":0.2,"location_history":"[0,5,4,2]","action_history":"[0,1,1]","door_history":"[0,1,1]","location_rts":"[2099,860,656]","trial_type":"two-door-navigation","trial_index":54,"time_elapsed":776192,"internal_node_id":"0.0-2.0-52.0"},{"group":"hexagon_tri","room_assignment":["grey","green","red","blue","purple","yellow"],"door_color_assignment":["white","black"],"door_generator_assignment":[0,1],"goal":1,"start":2,"action_noise":0.2,"location_history":"[2,1]","action_history":"[0]","door_history":"[0]","location_rts":"[1632]","trial_type":"two-door-navigation","trial_index":55,"time_elapsed":782351,"internal_node_id":"0.0-2.0-53.0"},{"group":"hexagon_tri","room_assignment":["grey","green","red","blue","purple","yellow"],"door_color_assignment":["white","black"],"door_generator_assignment":[0,1],"goal":2,"start":1,"action_noise":0.2,"location_history":"[1,5,4,0,1,5,0,1,3,2]","action_history":"[1,0,0,1,1,1,1,0,0]","door_history":"[1,0,0,1,1,1,1,0,0]","location_rts":"[1588,819,474,879,503,419,560,387,524]","trial_type":"two-door-navigation","trial_index":56,"time_elapsed":801220,"internal_node_id":"0.0-2.0-54.0"},{"group":"hexagon_tri","room_assignment":["grey","green","red","blue","purple","yellow"],"door_color_assignment":["white","black"],"door_generator_assignment":[0,1],"goal":5,"start":2,"action_noise":0.2,"location_history":"[2,3,4,0,1,5]","action_history":"[1,0,0,1,1]","door_history":"[1,0,0,1,1]","location_rts":"[1862,1120,757,1370,727]","trial_type":"two-door-navigation","trial_index":57,"time_elapsed":815668,"internal_node_id":"0.0-2.0-55.0"},{"group":"hexagon_tri","room_assignment":["grey","green","red","blue","purple","yellow"],"door_color_assignment":["white","black"],"door_generator_assignment":[0,1],"goal":4,"start":5,"action_noise":0.2,"location_history":"[5,0,5,0,1,3,2,1,5,0,5,4]","action_history":"[0,0,1,1,0,0,0,1,1,0,0]","door_history":"[0,0,1,1,0,0,0,1,1,0,0]","location_rts":"[1400,532,530,527,794,520,964,604,518,1483,591]","trial_type":"two-door-navigation","trial_index":58,"time_elapsed":838866,"internal_node_id":"0.0-2.0-56.0"},{"group":"hexagon_tri","room_assignment":["grey","green","red","blue","purple","yellow"],"door_color_assignment":["white","black"],"door_generator_assignment":[0,1],"goal":3,"start":4,"action_noise":0.2,"location_history":"[4,2,3]","action_history":"[1,1]","door_history":"[1,1]","location_rts":"[1457,475]","trial_type":"two-door-navigation","trial_index":59,"time_elapsed":846352,"internal_node_id":"0.0-2.0-57.0"},{"group":"hexagon_tri","room_assignment":["grey","green","red","blue","purple","yellow"],"door_color_assignment":["white","black"],"door_generator_assignment":[0,1],"goal":0,"start":3,"action_noise":0.2,"location_history":"[3,2,1,5,4,2,3,4,0]","action_history":"[0,0,1,0,1,1,1,0]","door_history":"[0,0,1,0,1,1,1,0]","location_rts":"[3415,489,753,941,970,404,547,769]","trial_type":"two-door-navigation","trial_index":60,"time_elapsed":866332,"internal_node_id":"0.0-2.0-58.0"},{"group":"hexagon_tri","room_assignment":["grey","green","red","blue","purple","yellow"],"door_color_assignment":["white","black"],"door_generator_assignment":[0,1],"goal":2,"start":0,"action_noise":0.2,"location_history":"[0,1,5,0,5,0,5,0,1,3,4,2]","action_history":"[1,1,1,0,0,0,1,1,1,1,1]","door_history":"[1,1,1,0,0,0,1,1,1,1,1]","location_rts":"[1463,514,724,750,434,838,953,429,578,589,739]","trial_type":"two-door-navigation","trial_index":61,"time_elapsed":889087,"internal_node_id":"0.0-2.0-59.0"},{"group":"hexagon_tri","room_assignment":["grey","green","red","blue","purple","yellow"],"door_color_assignment":["white","black"],"door_generator_assignment":[0,1],"goal":1,"start":2,"action_noise":0.2,"location_history":"[2,3,2,1]","action_history":"[1,1,0]","door_history":"[1,1,0]","location_rts":"[1927,599,704]","trial_type":"two-door-navigation","trial_index":62,"time_elapsed":898891,"internal_node_id":"0.0-2.0-60.0"},{"group":"hexagon_tri","room_assignment":["grey","green","red","blue","purple","yellow"],"door_color_assignment":["white","black"],"door_generator_assignment":[0,1],"goal":0,"start":1,"action_noise":0.2,"location_history":"[1,5,4,0]","action_history":"[1,0,0]","door_history":"[1,0,0]","location_rts":"[1582,1239,510]","trial_type":"two-door-navigation","trial_index":63,"time_elapsed":908787,"internal_node_id":"0.0-2.0-61.0"},{"group":"hexagon_tri","room_assignment":["grey","green","red","blue","purple","yellow"],"door_color_assignment":["white","black"],"door_generator_assignment":[0,1],"goal":3,"start":0,"action_noise":0.2,"location_history":"[0,1,3]","action_history":"[1,0]","door_history":"[1,0]","location_rts":"[1395,1104]","trial_type":"two-door-navigation","trial_index":64,"time_elapsed":916831,"internal_node_id":"0.0-2.0-62.0"},{"group":"hexagon_tri","room_assignment":["grey","green","red","blue","purple","yellow"],"door_color_assignment":["white","black"],"door_generator_assignment":[0,1],"goal":5,"start":3,"action_noise":0.2,"location_history":"[3,4,0,1,3,4,0,1,5]","action_history":"[1,0,0,0,0,0,1,1]","door_history":"[1,0,0,0,0,0,1,1]","location_rts":"[1729,2107,854,514,554,597,522,622]","trial_type":"two-door-navigation","trial_index":65,"time_elapsed":936005,"internal_node_id":"0.0-2.0-63.0"},{"group":"hexagon_tri","room_assignment":["grey","green","red","blue","purple","yellow"],"door_color_assignment":["white","black"],"door_generator_assignment":[0,1],"goal":4,"start":5,"action_noise":0.2,"location_history":"[5,0,5,0,1,5,0,5,0,5,4]","action_history":"[1,0,1,1,1,1,0,0,0,0]","door_history":"[1,0,1,1,1,1,0,0,0,0]","location_rts":"[6911,622,759,513,518,579,1017,282,539,769]","trial_type":"two-door-navigation","trial_index":66,"time_elapsed":962233,"internal_node_id":"0.0-2.0-64.0"},{"group":"hexagon_tri","room_assignment":["grey","green","red","blue","purple","yellow"],"door_color_assignment":["white","black"],"door_generator_assignment":[0,1],"goal":1,"start":4,"action_noise":0.2,"location_history":"[4,2,3,4,0,5,4,0,5,0,1]","action_history":"[1,1,1,1,0,0,0,0,0,1]","door_history":"[1,1,1,1,0,0,0,0,0,1]","location_rts":"[2950,621,857,778,966,552,495,561,530,570]","trial_type":"two-door-navigation","trial_index":67,"time_elapsed":984830,"internal_node_id":"0.0-2.0-65.0"},{"group":"hexagon_tri","room_assignment":["grey","green","red","blue","purple","yellow"],"door_color_assignment":["white","black"],"door_generator_assignment":[0,1],"goal":5,"start":1,"action_noise":0.2,"location_history":"[1,5]","action_history":"[1]","door_history":"[1]","location_rts":"[1338]","trial_type":"two-door-navigation","trial_index":68,"time_elapsed":990690,"internal_node_id":"0.0-2.0-66.0"},{"group":"hexagon_tri","room_assignment":["grey","green","red","blue","purple","yellow"],"door_color_assignment":["white","black"],"door_generator_assignment":[0,1],"goal":2,"start":5,"action_noise":0.2,"location_history":"[5,4,2]","action_history":"[1,1]","door_history":"[1,1]","location_rts":"[2705,897]","trial_type":"two-door-navigation","trial_index":69,"time_elapsed":999835,"internal_node_id":"0.0-2.0-67.0"},{"group":"hexagon_tri","room_assignment":["grey","green","red","blue","purple","yellow"],"door_color_assignment":["white","black"],"door_generator_assignment":[0,1],"goal":3,"start":2,"action_noise":0.2,"location_history":"[2,1,5,4,0,5,0,1,5,0,1,3]","action_history":"[1,1,0,0,0,0,1,1,1,1,1]","door_history":"[1,1,0,0,0,0,1,1,1,1,1]","location_rts":"[2206,716,937,822,678,719,727,613,531,694,504]","trial_type":"two-door-navigation","trial_index":70,"time_elapsed":1023716,"internal_node_id":"0.0-2.0-68.0"},{"group":"hexagon_tri","room_assignment":["grey","green","red","blue","purple","yellow"],"door_color_assignment":["white","black"],"door_generator_assignment":[0,1],"goal":4,"start":3,"action_noise":0.2,"location_history":"[3,4]","action_history":"[1]","door_history":"[1]","location_rts":"[2235]","trial_type":"two-door-navigation","trial_index":71,"time_elapsed":1030476,"internal_node_id":"0.0-2.0-69.0"},{"group":"hexagon_tri","room_assignment":["grey","green","red","blue","purple","yellow"],"door_color_assignment":["white","black"],"door_generator_assignment":[0,1],"goal":0,"start":4,"action_noise":0.2,"location_history":"[4,0]","action_history":"[0]","door_history":"[0]","location_rts":"[1870]","trial_type":"two-door-navigation","trial_index":72,"time_elapsed":1036873,"internal_node_id":"0.0-2.0-70.0"},{"group":"hexagon_tri","room_assignment":["grey","green","red","blue","purple","yellow"],"door_color_assignment":["white","black"],"door_generator_assignment":[0,1],"goal":5,"start":0,"action_noise":0.2,"location_history":"[0,5]","action_history":"[0]","door_history":"[0]","location_rts":"[1136]","trial_type":"two-door-navigation","trial_index":73,"time_elapsed":1042537,"internal_node_id":"0.0-2.0-71.0"},{"group":"hexagon_tri","room_assignment":["grey","green","red","blue","purple","yellow"],"door_color_assignment":["white","black"],"door_generator_assignment":[0,1],"goal":0,"start":5,"action_noise":0.2,"location_history":"[5,4,2,1,3,2,1,3,4,0]","action_history":"[0,0,0,0,0,1,0,1,0]","door_history":"[0,0,0,0,0,1,0,1,0]","location_rts":"[1811,691,647,649,689,713,646,1064,804]","trial_type":"two-door-navigation","trial_index":74,"time_elapsed":1062961,"internal_node_id":"0.0-2.0-72.0"},{"group":"hexagon_tri","room_assignment":["grey","green","red","blue","purple","yellow"],"door_color_assignment":["white","black"],"door_generator_assignment":[0,1],"goal":3,"start":0,"action_noise":0.2,"location_history":"[0,1,3]","action_history":"[1,1]","door_history":"[1,1]","location_rts":"[2334,1496]","trial_type":"two-door-navigation","trial_index":75,"time_elapsed":1072338,"internal_node_id":"0.0-2.0-73.0"},{"group":"hexagon_tri","room_assignment":["grey","green","red","blue","purple","yellow"],"door_color_assignment":["white","black"],"door_generator_assignment":[0,1],"goal":1,"start":3,"action_noise":0.2,"location_history":"[3,2,3,4,0,1]","action_history":"[1,1,1,0,0]","door_history":"[1,1,1,0,0]","location_rts":"[1546,747,1248,554,791]","trial_type":"two-door-navigation","trial_index":76,"time_elapsed":1085835,"internal_node_id":"0.0-2.0-74.0"},{"group":"hexagon_tri","room_assignment":["grey","green","red","blue","purple","yellow"],"door_color_assignment":["white","black"],"door_generator_assignment":[0,1],"goal":2,"start":1,"action_noise":0.2,"location_history":"[1,5,0,1,5,4,2]","action_history":"[1,1,1,1,0,1]","door_history":"[1,1,1,1,0,1]","location_rts":"[1480,555,594,623,872,988]","trial_type":"two-door-navigation","trial_index":77,"time_elapsed":1100583,"internal_node_id":"0.0-2.0-75.0"},{"group":"hexagon_tri","room_assignment":["grey","green","red","blue","purple","yellow"],"door_color_assignment":["white","black"],"door_generator_assignment":[0,1],"goal":4,"start":2,"action_noise":0.2,"location_history":"[2,1,5,0,1,3,2,3,4]","action_history":"[0,1,1,1,0,0,1,0]","door_history":"[0,1,1,1,0,0,1,0]","location_rts":"[1452,737,531,737,869,775,958,649]","trial_type":"two-door-navigation","trial_index":78,"time_elapsed":1118974,"internal_node_id":"0.0-2.0-76.0"},{"group":"hexagon_tri","room_assignment":["grey","green","red","blue","purple","yellow"],"door_color_assignment":["white","black"],"door_generator_assignment":[0,1],"goal":3,"start":4,"action_noise":0.2,"location_history":"[4,2,1,5,0,1,3]","action_history":"[1,0,1,1,1,1]","door_history":"[1,0,1,1,1,1]","location_rts":"[1902,654,660,700,2029,748]","trial_type":"two-door-navigation","trial_index":79,"time_elapsed":1135296,"internal_node_id":"0.0-2.0-77.0"},{"group":"hexagon_tri","room_assignment":["grey","green","red","blue","purple","yellow"],"door_color_assignment":["white","black"],"door_generator_assignment":[0,1],"goal":0,"start":3,"action_noise":0.2,"location_history":"[3,2,1,3,2,1,5,0]","action_history":"[0,0,0,0,0,1,0]","door_history":"[0,0,0,0,0,1,0]","location_rts":"[1415,549,555,721,606,552,509]","trial_type":"two-door-navigation","trial_index":80,"time_elapsed":1150858,"internal_node_id":"0.0-2.0-78.0"},{"group":"hexagon_tri","room_assignment":["grey","green","red","blue","purple","yellow"],"door_color_assignment":["white","black"],"door_generator_assignment":[0,1],"goal":4,"start":0,"action_noise":0.2,"location_history":"[0,1,5,4]","action_history":"[1,0,0]","door_history":"[1,0,0]","location_rts":"[1769,1380,920]","trial_type":"two-door-navigation","trial_index":81,"time_elapsed":1161501,"internal_node_id":"0.0-2.0-79.0"},{"group":"hexagon_tri","room_assignment":["grey","green","red","blue","purple","yellow"],"door_color_assignment":["white","black"],"door_generator_assignment":[0,1],"goal":5,"start":4,"action_noise":0.2,"location_history":"[4,2,1,5]","action_history":"[1,0,0]","door_history":"[1,0,0]","location_rts":"[1812,468,822]","trial_type":"two-door-navigation","trial_index":82,"time_elapsed":1171171,"internal_node_id":"0.0-2.0-80.0"},{"group":"hexagon_tri","room_assignment":["grey","green","red","blue","purple","yellow"],"door_color_assignment":["white","black"],"door_generator_assignment":[0,1],"goal":1,"start":5,"action_noise":0.2,"location_history":"[5,0,1]","action_history":"[1,1]","door_history":"[1,1]","location_rts":"[2148,3319]","trial_type":"two-door-navigation","trial_index":83,"time_elapsed":1182187,"internal_node_id":"0.0-2.0-81.0"},{"group":"hexagon_tri","room_assignment":["grey","green","red","blue","purple","yellow"],"door_color_assignment":["white","black"],"door_generator_assignment":[0,1],"goal":2,"start":1,"action_noise":0.2,"location_history":"[1,3,4,2]","action_history":"[0,1,1]","door_history":"[0,1,1]","location_rts":"[2592,862,639]","trial_type":"two-door-navigation","trial_index":84,"time_elapsed":1192856,"internal_node_id":"0.0-2.0-82.0"},{"group":"hexagon_tri","room_assignment":["grey","green","red","blue","purple","yellow"],"door_color_assignment":["white","black"],"door_generator_assignment":[0,1],"goal":4,"start":2,"action_noise":0.2,"location_history":"[2,3,4]","action_history":"[0,1]","door_history":"[0,1]","location_rts":"[1429,834]","trial_type":"two-door-navigation","trial_index":85,"time_elapsed":1200671,"internal_node_id":"0.0-2.0-83.0"},{"group":"hexagon_tri","room_assignment":["grey","green","red","blue","purple","yellow"],"door_color_assignment":["white","black"],"door_generator_assignment":[0,1],"goal":0,"start":4,"action_noise":0.2,"location_history":"[4,2,1,5,4,0]","action_history":"[1,0,1,0,0]","door_history":"[1,0,1,0,0]","location_rts":"[1618,438,1796,499,667]","trial_type":"two-door-navigation","trial_index":86,"time_elapsed":1214301,"internal_node_id":"0.0-2.0-84.0"},{"group":"hexagon_tri","room_assignment":["grey","green","red","blue","purple","yellow"],"door_color_assignment":["white","black"],"door_generator_assignment":[0,1],"goal":5,"start":0,"action_noise":0.2,"location_history":"[0,5]","action_history":"[0]","door_history":"[0]","location_rts":"[1555]","trial_type":"two-door-navigation","trial_index":87,"time_elapsed":1220382,"internal_node_id":"0.0-2.0-85.0"},{"group":"hexagon_tri","room_assignment":["grey","green","red","blue","purple","yellow"],"door_color_assignment":["white","black"],"door_generator_assignment":[0,1],"goal":3,"start":5,"action_noise":0.2,"location_history":"[5,0,5,0,1,5,0,5,4,2,3]","action_history":"[1,0,1,1,1,1,0,0,1,1]","door_history":"[1,0,1,1,1,1,0,0,1,1]","location_rts":"[2307,1557,782,999,899,1735,572,1396,367,548]","trial_type":"two-door-navigation","trial_index":88,"time_elapsed":1245257,"internal_node_id":"0.0-2.0-86.0"},{"group":"hexagon_tri","room_assignment":["grey","green","red","blue","purple","yellow"],"door_color_assignment":["white","black"],"door_generator_assignment":[0,1],"goal":1,"start":3,"action_noise":0.2,"location_history":"[3,4,0,5,0,1]","action_history":"[1,1,0,1,1]","door_history":"[1,1,0,1,1]","location_rts":"[1630,987,1074,731,521]","trial_type":"two-door-navigation","trial_index":89,"time_elapsed":1258812,"internal_node_id":"0.0-2.0-87.0"},{"group":"hexagon_tri","room_assignment":["grey","green","red","blue","purple","yellow"],"door_color_assignment":["white","black"],"door_generator_assignment":[0,1],"goal":2,"start":1,"action_noise":0.2,"location_history":"[1,5,0,1,3,4,2]","action_history":"[1,1,1,0,1,1]","door_history":"[1,1,1,0,1,1]","location_rts":"[1356,915,927,756,885,662]","trial_type":"two-door-navigation","trial_index":90,"time_elapsed":1273948,"internal_node_id":"0.0-2.0-88.0"},{"group":"hexagon_tri","room_assignment":["grey","green","red","blue","purple","yellow"],"door_color_assignment":["white","black"],"door_generator_assignment":[0,1],"goal":0,"start":2,"action_noise":0.2,"location_history":"[2,1,5,0]","action_history":"[0,0,0]","door_history":"[0,0,0]","location_rts":"[2148,923,786]","trial_type":"two-door-navigation","trial_index":91,"time_elapsed":1284375,"internal_node_id":"0.0-2.0-89.0"},{"group":"hexagon_tri","room_assignment":["grey","green","red","blue","purple","yellow"],"door_color_assignment":["white","black"],"door_generator_assignment":[0,1],"goal":5,"start":0,"action_noise":0.2,"location_history":"[0,5]","action_history":"[0]","door_history":"[0]","location_rts":"[1356]","trial_type":"two-door-navigation","trial_index":92,"time_elapsed":1290254,"internal_node_id":"0.0-2.0-90.0"},{"group":"hexagon_tri","room_assignment":["grey","green","red","blue","purple","yellow"],"door_color_assignment":["white","black"],"door_generator_assignment":[0,1],"goal":1,"start":5,"action_noise":0.2,"location_history":"[5,0,5,0,5,4,2,3,4,0,1]","action_history":"[1,0,1,1,0,1,1,1,0,1]","door_history":"[1,0,1,1,0,1,1,1,0,1]","location_rts":"[3210,949,630,533,1227,1262,566,723,831,828]","trial_type":"two-door-navigation","trial_index":93,"time_elapsed":1314740,"internal_node_id":"0.0-2.0-91.0"},{"group":"hexagon_tri","room_assignment":["grey","green","red","blue","purple","yellow"],"door_color_assignment":["white","black"],"door_generator_assignment":[0,1],"goal":3,"start":1,"action_noise":0.2,"location_history":"[1,3]","action_history":"[0]","door_history":"[0]","location_rts":"[3032]","trial_type":"two-door-navigation","trial_index":94,"time_elapsed":1322299,"internal_node_id":"0.0-2.0-92.0"},{"group":"hexagon_tri","room_assignment":["grey","green","red","blue","purple","yellow"],"door_color_assignment":["white","black"],"door_generator_assignment":[0,1],"goal":4,"start":3,"action_noise":0.2,"location_history":"[3,4]","action_history":"[0]","door_history":"[0]","location_rts":"[2795]","trial_type":"two-door-navigation","trial_index":95,"time_elapsed":1330160,"internal_node_id":"0.0-2.0-93.0"},{"group":"hexagon_tri","room_assignment":["grey","green","red","blue","purple","yellow"],"door_color_assignment":["white","black"],"door_generator_assignment":[0,1],"goal":2,"start":4,"action_noise":0.2,"location_history":"[4,2]","action_history":"[1]","door_history":"[1]","location_rts":"[12817]","trial_type":"two-door-navigation","trial_index":96,"time_elapsed":1348499,"internal_node_id":"0.0-2.0-94.0"},{"group":"hexagon_tri","room_assignment":["grey","green","red","blue","purple","yellow"],"door_color_assignment":["white","black"],"door_generator_assignment":[0,1],"goal":4,"start":2,"action_noise":0.2,"location_history":"[2,3,2,3,2,1,5,0,1,3,2,1,3,4]","action_history":"[0,1,1,1,0,0,0,1,0,0,0,0,1]","door_history":"[0,1,1,1,0,0,0,1,0,0,0,0,1]","location_rts":"[1779,722,572,572,671,568,1903,1225,850,936,1755,576,1065]","trial_type":"two-door-navigation","trial_index":97,"time_elapsed":1378470,"internal_node_id":"0.0-2.0-95.0"},{"group":"hexagon_tri","room_assignment":["grey","green","red","blue","purple","yellow"],"door_color_assignment":["white","black"],"door_generator_assignment":[0,1],"goal":0,"start":4,"action_noise":0.2,"location_history":"[4,0]","action_history":"[1]","door_history":"[1]","location_rts":"[1623]","trial_type":"two-door-navigation","trial_index":98,"time_elapsed":1384619,"internal_node_id":"0.0-2.0-96.0"},{"group":"hexagon_tri","room_assignment":["grey","green","red","blue","purple","yellow"],"door_color_assignment":["white","black"],"door_generator_assignment":[0,1],"goal":5,"start":0,"action_noise":0.2,"location_history":"[0,1,3,4,2,3,4,0,5]","action_history":"[1,1,1,1,0,1,0,0]","door_history":"[1,1,1,1,0,1,0,0]","location_rts":"[3320,582,539,641,696,831,1078,635]","trial_type":"two-door-navigation","trial_index":99,"time_elapsed":1404611,"internal_node_id":"0.0-2.0-97.0"},{"group":"hexagon_tri","room_assignment":["grey","green","red","blue","purple","yellow"],"door_color_assignment":["white","black"],"door_generator_assignment":[0,1],"goal":1,"start":5,"action_noise":0.2,"location_history":"[5,4,2,3,4,2,3,4,2,3,2,3,4,2,1]","action_history":"[0,1,1,1,1,1,1,0,1,1,1,1,0,0]","door_history":"[0,1,1,1,1,1,1,0,1,1,1,1,0,0]","location_rts":"[3041,764,575,610,3827,4978,843,650,530,471,542,548,540,505]","trial_type":"two-door-navigation","trial_index":100,"time_elapsed":1440840,"internal_node_id":"0.0-2.0-98.0"},{"group":"hexagon_tri","room_assignment":["grey","green","red","blue","purple","yellow"],"door_color_assignment":["white","black"],"door_generator_assignment":[0,1],"goal":3,"start":1,"action_noise":0.2,"location_history":"[1,5,4,2,3]","action_history":"[1,0,1,1]","door_history":"[1,0,1,1]","location_rts":"[1954,1115,759,592]","trial_type":"two-door-navigation","trial_index":101,"time_elapsed":1452847,"internal_node_id":"0.0-2.0-99.0"},{"view_history":"[{\"page_index\":0,\"viewing_time\":3558}]","rt":3559,"trial_type":"instructions","trial_index":102,"time_elapsed":1457406,"internal_node_id":"0.0-3.0"},{"view_history":"[{\"page_index\":0,\"viewing_time\":3018},{\"page_index\":1,\"viewing_time\":411649}]","rt":414668,"trial_type":"instructions","trial_index":103,"time_elapsed":1873075,"internal_node_id":"0.0-4.0"},{"group":"hexagon_bi","fractal_assignment":["../images/org_blu.png","../images/blu_wht.png","../images/gry_blk.png","../images/ylw_slt.png","../images/pnk_blu.png","../images/cyn_red.png"],"mutagen_generator_assignment":[0,1],"goal":4,"start":0,"action_noise":0.2,"location_history":"[0,5,0,5,0,1,0,1,2,1,2,3,4]","action_history":"[0,1,1,0,1,1,1,0,0,0,1,0]","mutagen_history":"[0,1,1,0,1,1,1,0,0,0,1,0]","location_rts":"[8878,3489,1030,673,747,676,637,772,444,662,302,1019]","trial_type":"fractal-mutation","trial_index":104,"time_elapsed":1908532,"internal_node_id":"0.0-5.0-0.0"},{"group":"hexagon_bi","fractal_assignment":["../images/org_blu.png","../images/blu_wht.png","../images/gry_blk.png","../images/ylw_slt.png","../images/pnk_blu.png","../images/cyn_red.png"],"mutagen_generator_assignment":[0,1],"goal":3,"start":4,"action_noise":0.2,"location_history":"[4,5,4,3]","action_history":"[1,1,0]","mutagen_history":"[1,1,0]","location_rts":"[2678,983,589]","trial_type":"fractal-mutation","trial_index":105,"time_elapsed":1919462,"internal_node_id":"0.0-5.0-1.0"},{"group":"hexagon_bi","fractal_assignment":["../images/org_blu.png","../images/blu_wht.png","../images/gry_blk.png","../images/ylw_slt.png","../images/pnk_blu.png","../images/cyn_red.png"],"mutagen_generator_assignment":[0,1],"goal":5,"start":3,"action_noise":0.2,"location_history":"[3,2,1,0,1,0,5]","action_history":"[1,0,1,1,1,0]","mutagen_history":"[1,0,1,1,1,0]","location_rts":"[2795,1226,954,1055,810,1180]","trial_type":"fractal-mutation","trial_index":106,"time_elapsed":1937317,"internal_node_id":"0.0-5.0-2.0"},{"group":"hexagon_bi","fractal_assignment":["../images/org_blu.png","../images/blu_wht.png","../images/gry_blk.png","../images/ylw_slt.png","../images/pnk_blu.png","../images/cyn_red.png"],"mutagen_generator_assignment":[0,1],"goal":2,"start":5,"action_noise":0.2,"location_history":"[5,4,3,4,3,2]","action_history":"[1,0,0,0,1]","mutagen_history":"[1,0,0,0,1]","location_rts":"[1868,747,798,699,966]","trial_type":"fractal-mutation","trial_index":107,"time_elapsed":1951169,"internal_node_id":"0.0-5.0-3.0"},{"group":"hexagon_bi","fractal_assignment":["../images/org_blu.png","../images/blu_wht.png","../images/gry_blk.png","../images/ylw_slt.png","../images/pnk_blu.png","../images/cyn_red.png"],"mutagen_generator_assignment":[0,1],"goal":1,"start":2,"action_noise":0.2,"location_history":"[2,3,4,3,4,5,0,5,4,5,0,1]","action_history":"[1,1,0,0,1,0,0,0,1,1,1]","mutagen_history":"[1,1,0,0,1,0,0,0,1,1,1]","location_rts":"[1801,1103,605,452,561,516,571,523,493,619,642]","trial_type":"fractal-mutation","trial_index":108,"time_elapsed":1974124,"internal_node_id":"0.0-5.0-4.0"},{"group":"hexagon_bi","fractal_assignment":["../images/org_blu.png","../images/blu_wht.png","../images/gry_blk.png","../images/ylw_slt.png","../images/pnk_blu.png","../images/cyn_red.png"],"mutagen_generator_assignment":[0,1],"goal":4,"start":1,"action_noise":0.2,"location_history":"[1,0,5,4]","action_history":"[1,0,0]","mutagen_history":"[1,0,0]","location_rts":"[1454,474,558]","trial_type":"fractal-mutation","trial_index":109,"time_elapsed":1983273,"internal_node_id":"0.0-5.0-5.0"},{"group":"hexagon_bi","fractal_assignment":["../images/org_blu.png","../images/blu_wht.png","../images/gry_blk.png","../images/ylw_slt.png","../images/pnk_blu.png","../images/cyn_red.png"],"mutagen_generator_assignment":[0,1],"goal":1,"start":4,"action_noise":0.2,"location_history":"[4,5,4,5,4,5,0,5,0,1]","action_history":"[1,0,0,0,0,1,0,0,1]","mutagen_history":"[1,0,0,0,0,1,0,0,1]","location_rts":"[1076,563,716,584,710,981,729,688,461]","trial_type":"fractal-mutation","trial_index":110,"time_elapsed":2002744,"internal_node_id":"0.0-5.0-6.0"},{"group":"hexagon_bi","fractal_assignment":["../images/org_blu.png","../images/blu_wht.png","../images/gry_blk.png","../images/ylw_slt.png","../images/pnk_blu.png","../images/cyn_red.png"],"mutagen_generator_assignment":[0,1],"goal":5,"start":1,"action_noise":0.2,"location_history":"[1,0,5]","action_history":"[1,0]","mutagen_history":"[1,0]","location_rts":"[1764,797]","trial_type":"fractal-mutation","trial_index":111,"time_elapsed":2010912,"internal_node_id":"0.0-5.0-7.0"},{"group":"hexagon_bi","fractal_assignment":["../images/org_blu.png","../images/blu_wht.png","../images/gry_blk.png","../images/ylw_slt.png","../images/pnk_blu.png","../images/cyn_red.png"],"mutagen_generator_assignment":[0,1],"goal":0,"start":5,"action_noise":0.2,"location_history":"[5,4,3,4,3,2,3,2,3,2,1,0]","action_history":"[1,0,0,1,1,1,1,1,1,0,1]","mutagen_history":"[1,0,0,1,1,1,1,1,1,0,1]","location_rts":"[2643,605,910,507,477,474,473,513,502,438,819]","trial_type":"fractal-mutation","trial_index":112,"time_elapsed":2034324,"internal_node_id":"0.0-5.0-8.0"},{"group":"hexagon_bi","fractal_assignment":["../images/org_blu.png","../images/blu_wht.png","../images/gry_blk.png","../images/ylw_slt.png","../images/pnk_blu.png","../images/cyn_red.png"],"mutagen_generator_assignment":[0,1],"goal":2,"start":0,"action_noise":0.2,"location_history":"[0,1,0,1,0,1,2]","action_history":"[1,0,1,1,1,0]","mutagen_history":"[1,0,1,1,1,0]","location_rts":"[1844,723,560,777,594,344]","trial_type":"fractal-mutation","trial_index":113,"time_elapsed":2048972,"internal_node_id":"0.0-5.0-9.0"},{"group":"hexagon_bi","fractal_assignment":["../images/org_blu.png","../images/blu_wht.png","../images/gry_blk.png","../images/ylw_slt.png","../images/pnk_blu.png","../images/cyn_red.png"],"mutagen_generator_assignment":[0,1],"goal":3,"start":2,"action_noise":0.2,"location_history":"[2,1,2,1,2,1,2,1,0,1,0,1,2,1,2,3]","action_history":"[0,0,1,1,1,1,0,0,0,0,1,0,0,0,0]","mutagen_history":"[0,0,1,1,1,1,0,0,0,0,1,0,0,0,0]","location_rts":"[1683,708,813,509,524,576,462,577,574,486,599,460,446,475,550]","trial_type":"fractal-mutation","trial_index":114,"time_elapsed":2077643,"internal_node_id":"0.0-5.0-10.0"},{"group":"hexagon_bi","fractal_assignment":["../images/org_blu.png","../images/blu_wht.png","../images/gry_blk.png","../images/ylw_slt.png","../images/pnk_blu.png","../images/cyn_red.png"],"mutagen_generator_assignment":[0,1],"goal":0,"start":3,"action_noise":0.2,"location_history":"[3,2,3,2,3,4,3,4,5,0]","action_history":"[1,0,0,1,0,0,0,1,0]","mutagen_history":"[1,0,0,1,0,0,0,1,0]","location_rts":"[1592,434,608,440,589,911,509,662,836]","trial_type":"fractal-mutation","trial_index":115,"time_elapsed":2097212,"internal_node_id":"0.0-5.0-11.0"},{"group":"hexagon_bi","fractal_assignment":["../images/org_blu.png","../images/blu_wht.png","../images/gry_blk.png","../images/ylw_slt.png","../images/pnk_blu.png","../images/cyn_red.png"],"mutagen_generator_assignment":[0,1],"goal":2,"start":0,"action_noise":0.2,"location_history":"[0,1,2]","action_history":"[1,0]","mutagen_history":"[1,0]","location_rts":"[1575,513]","trial_type":"fractal-mutation","trial_index":116,"time_elapsed":2104901,"internal_node_id":"0.0-5.0-12.0"},{"group":"hexagon_bi","fractal_assignment":["../images/org_blu.png","../images/blu_wht.png","../images/gry_blk.png","../images/ylw_slt.png","../images/pnk_blu.png","../images/cyn_red.png"],"mutagen_generator_assignment":[0,1],"goal":5,"start":2,"action_noise":0.2,"location_history":"[2,1,2,1,2,3,2,1,2,3,4,5]","action_history":"[0,1,0,0,0,1,0,0,1,0,1]","mutagen_history":"[0,1,0,0,0,1,0,0,1,0,1]","location_rts":"[1592,1149,791,556,3222,487,1094,629,973,431,501]","trial_type":"fractal-mutation","trial_index":117,"time_elapsed":2131387,"internal_node_id":"0.0-5.0-13.0"},{"group":"hexagon_bi","fractal_assignment":["../images/org_blu.png","../images/blu_wht.png","../images/gry_blk.png","../images/ylw_slt.png","../images/pnk_blu.png","../images/cyn_red.png"],"mutagen_generator_assignment":[0,1],"goal":4,"start":5,"action_noise":0.2,"location_history":"[5,0,1,0,1,2,1,2,3,4]","action_history":"[0,1,1,1,0,0,1,1,0]","mutagen_history":"[0,1,1,1,0,0,1,1,0]","location_rts":"[741,687,834,503,569,762,575,557,597]","trial_type":"fractal-mutation","trial_index":118,"time_elapsed":2150177,"internal_node_id":"0.0-5.0-14.0"},{"group":"hexagon_bi","fractal_assignment":["../images/org_blu.png","../images/blu_wht.png","../images/gry_blk.png","../images/ylw_slt.png","../images/pnk_blu.png","../images/cyn_red.png"],"mutagen_generator_assignment":[0,1],"goal":3,"start":4,"action_noise":0.2,"location_history":"[4,3]","action_history":"[0]","mutagen_history":"[0]","location_rts":"[855]","trial_type":"fractal-mutation","trial_index":119,"time_elapsed":2155591,"internal_node_id":"0.0-5.0-15.0"},{"group":"hexagon_bi","fractal_assignment":["../images/org_blu.png","../images/blu_wht.png","../images/gry_blk.png","../images/ylw_slt.png","../images/pnk_blu.png","../images/cyn_red.png"],"mutagen_generator_assignment":[0,1],"goal":1,"start":3,"action_noise":0.2,"location_history":"[3,4,5,4,5,0,1]","action_history":"[0,1,1,1,0,1]","mutagen_history":"[0,1,1,1,0,1]","location_rts":"[1459,555,560,493,561,456]","trial_type":"fractal-mutation","trial_index":120,"time_elapsed":2169505,"internal_node_id":"0.0-5.0-16.0"},{"group":"hexagon_bi","fractal_assignment":["../images/org_blu.png","../images/blu_wht.png","../images/gry_blk.png","../images/ylw_slt.png","../images/pnk_blu.png","../images/cyn_red.png"],"mutagen_generator_assignment":[0,1],"goal":5,"start":1,"action_noise":0.2,"location_history":"[1,0,5]","action_history":"[1,0]","mutagen_history":"[1,0]","location_rts":"[1255,974]","trial_type":"fractal-mutation","trial_index":121,"time_elapsed":2177349,"internal_node_id":"0.0-5.0-17.0"},{"group":"hexagon_bi","fractal_assignment":["../images/org_blu.png","../images/blu_wht.png","../images/gry_blk.png","../images/ylw_slt.png","../images/pnk_blu.png","../images/cyn_red.png"],"mutagen_generator_assignment":[0,1],"goal":4,"start":5,"action_noise":0.2,"location_history":"[5,0,5,0,5,4]","action_history":"[0,0,0,0,0]","mutagen_history":"[0,0,0,0,0]","location_rts":"[1001,620,646,546,565]","trial_type":"fractal-mutation","trial_index":122,"time_elapsed":2189451,"internal_node_id":"0.0-5.0-18.0"},{"group":"hexagon_bi","fractal_assignment":["../images/org_blu.png","../images/blu_wht.png","../images/gry_blk.png","../images/ylw_slt.png","../images/pnk_blu.png","../images/cyn_red.png"],"mutagen_generator_assignment":[0,1],"goal":0,"start":4,"action_noise":0.2,"location_history":"[4,3,4,5,0]","action_history":"[0,0,1,0]","mutagen_history":"[0,0,1,0]","location_rts":"[1055,618,494,478]","trial_type":"fractal-mutation","trial_index":123,"time_elapsed":2199806,"internal_node_id":"0.0-5.0-19.0"},{"group":"hexagon_bi","fractal_assignment":["../images/org_blu.png","../images/blu_wht.png","../images/gry_blk.png","../images/ylw_slt.png","../images/pnk_blu.png","../images/cyn_red.png"],"mutagen_generator_assignment":[0,1],"goal":1,"start":0,"action_noise":0.2,"location_history":"[0,5,0,1]","action_history":"[1,0,1]","mutagen_history":"[1,0,1]","location_rts":"[1186,1982,462]","trial_type":"fractal-mutation","trial_index":124,"time_elapsed":2210123,"internal_node_id":"0.0-5.0-20.0"},{"group":"hexagon_bi","fractal_assignment":["../images/org_blu.png","../images/blu_wht.png","../images/gry_blk.png","../images/ylw_slt.png","../images/pnk_blu.png","../images/cyn_red.png"],"mutagen_generator_assignment":[0,1],"goal":3,"start":1,"action_noise":0.2,"location_history":"[1,2,3]","action_history":"[0,1]","mutagen_history":"[0,1]","location_rts":"[1313,302]","trial_type":"fractal-mutation","trial_index":125,"time_elapsed":2217341,"internal_node_id":"0.0-5.0-21.0"},{"group":"hexagon_bi","fractal_assignment":["../images/org_blu.png","../images/blu_wht.png","../images/gry_blk.png","../images/ylw_slt.png","../images/pnk_blu.png","../images/cyn_red.png"],"mutagen_generator_assignment":[0,1],"goal":2,"start":3,"action_noise":0.2,"location_history":"[3,2]","action_history":"[1]","mutagen_history":"[1]","location_rts":"[1090]","trial_type":"fractal-mutation","trial_index":126,"time_elapsed":2222995,"internal_node_id":"0.0-5.0-22.0"},{"group":"hexagon_bi","fractal_assignment":["../images/org_blu.png","../images/blu_wht.png","../images/gry_blk.png","../images/ylw_slt.png","../images/pnk_blu.png","../images/cyn_red.png"],"mutagen_generator_assignment":[0,1],"goal":0,"start":2,"action_noise":0.2,"location_history":"[2,1,0]","action_history":"[0,1]","mutagen_history":"[0,1]","location_rts":"[981,476]","trial_type":"fractal-mutation","trial_index":127,"time_elapsed":2230067,"internal_node_id":"0.0-5.0-23.0"},{"group":"hexagon_bi","fractal_assignment":["../images/org_blu.png","../images/blu_wht.png","../images/gry_blk.png","../images/ylw_slt.png","../images/pnk_blu.png","../images/cyn_red.png"],"mutagen_generator_assignment":[0,1],"goal":3,"start":0,"action_noise":0.2,"location_history":"[0,5,4,3]","action_history":"[0,1,1]","mutagen_history":"[0,1,1]","location_rts":"[814,543,481]","trial_type":"fractal-mutation","trial_index":128,"time_elapsed":2238544,"internal_node_id":"0.0-5.0-24.0"},{"group":"hexagon_bi","fractal_assignment":["../images/org_blu.png","../images/blu_wht.png","../images/gry_blk.png","../images/ylw_slt.png","../images/pnk_blu.png","../images/cyn_red.png"],"mutagen_generator_assignment":[0,1],"goal":1,"start":3,"action_noise":0.2,"location_history":"[3,2,3,4,5,0,1]","action_history":"[1,0,0,0,0,1]","mutagen_history":"[1,0,0,0,0,1]","location_rts":"[980,704,547,645,595,466]","trial_type":"fractal-mutation","trial_index":129,"time_elapsed":2252279,"internal_node_id":"0.0-5.0-25.0"},{"group":"hexagon_bi","fractal_assignment":["../images/org_blu.png","../images/blu_wht.png","../images/gry_blk.png","../images/ylw_slt.png","../images/pnk_blu.png","../images/cyn_red.png"],"mutagen_generator_assignment":[0,1],"goal":2,"start":1,"action_noise":0.2,"location_history":"[1,2]","action_history":"[0]","mutagen_history":"[0]","location_rts":"[1137]","trial_type":"fractal-mutation","trial_index":130,"time_elapsed":2257961,"internal_node_id":"0.0-5.0-26.0"},{"group":"hexagon_bi","fractal_assignment":["../images/org_blu.png","../images/blu_wht.png","../images/gry_blk.png","../images/ylw_slt.png","../images/pnk_blu.png","../images/cyn_red.png"],"mutagen_generator_assignment":[0,1],"goal":5,"start":2,"action_noise":0.2,"location_history":"[2,3,2,1,0,5]","action_history":"[1,1,0,1,0]","mutagen_history":"[1,1,0,1,0]","location_rts":"[880,470,623,530,964]","trial_type":"fractal-mutation","trial_index":131,"time_elapsed":2270211,"internal_node_id":"0.0-5.0-27.0"},{"group":"hexagon_bi","fractal_assignment":["../images/org_blu.png","../images/blu_wht.png","../images/gry_blk.png","../images/ylw_slt.png","../images/pnk_blu.png","../images/cyn_red.png"],"mutagen_generator_assignment":[0,1],"goal":4,"start":5,"action_noise":0.2,"location_history":"[5,0,5,0,1,0,1,0,1,0,5,0,1,2,3,2,1,0,5,4]","action_history":"[0,0,0,0,0,1,0,0,1,1,0,0,0,1,1,1,0,0,1]","mutagen_history":"[0,0,0,0,0,1,0,0,1,1,0,0,0,1,1,1,0,0,1]","location_rts":"[1164,550,699,566,683,558,648,556,1040,527,586,590,671,507,501,552,548,540,416]","trial_type":"fractal-mutation","trial_index":132,"time_elapsed":2305625,"internal_node_id":"0.0-5.0-28.0"},{"group":"hexagon_bi","fractal_assignment":["../images/org_blu.png","../images/blu_wht.png","../images/gry_blk.png","../images/ylw_slt.png","../images/pnk_blu.png","../images/cyn_red.png"],"mutagen_generator_assignment":[0,1],"goal":5,"start":4,"action_noise":0.2,"location_history":"[4,5]","action_history":"[0]","mutagen_history":"[0]","location_rts":"[1394]","trial_type":"fractal-mutation","trial_index":133,"time_elapsed":2311582,"internal_node_id":"0.0-5.0-29.0"},{"group":"hexagon_bi","fractal_assignment":["../images/org_blu.png","../images/blu_wht.png","../images/gry_blk.png","../images/ylw_slt.png","../images/pnk_blu.png","../images/cyn_red.png"],"mutagen_generator_assignment":[0,1],"goal":3,"start":5,"action_noise":0.2,"location_history":"[5,0,1,2,1,2,3]","action_history":"[0,1,0,0,0,1]","mutagen_history":"[0,1,0,0,0,1]","location_rts":"[1041,845,437,501,557,14391]","trial_type":"fractal-mutation","trial_index":134,"time_elapsed":2339170,"internal_node_id":"0.0-5.0-30.0"},{"group":"hexagon_bi","fractal_assignment":["../images/org_blu.png","../images/blu_wht.png","../images/gry_blk.png","../images/ylw_slt.png","../images/pnk_blu.png","../images/cyn_red.png"],"mutagen_generator_assignment":[0,1],"goal":0,"start":3,"action_noise":0.2,"location_history":"[3,4,3,2,3,4,5,4,3,2,3,4,3,4,5,4,3,2,1,0]","action_history":"[0,1,0,1,0,1,1,0,0,1,0,1,1,0,1,0,1,1,1]","mutagen_history":"[0,1,0,1,0,1,1,0,0,1,0,1,1,0,1,0,1,1,1]","location_rts":"[1030,657,593,477,529,510,1231,437,1597,886,431,425,391,461,613,582,501,427,520]","trial_type":"fractal-mutation","trial_index":135,"time_elapsed":2374946,"internal_node_id":"0.0-5.0-31.0"},{"group":"hexagon_bi","fractal_assignment":["../images/org_blu.png","../images/blu_wht.png","../images/gry_blk.png","../images/ylw_slt.png","../images/pnk_blu.png","../images/cyn_red.png"],"mutagen_generator_assignment":[0,1],"goal":4,"start":0,"action_noise":0.2,"location_history":"[0,1,2,1,2,1,0,1,2,1,0,5,0,5,4]","action_history":"[1,0,0,0,0,1,1,0,0,0,1,0,0,0]","mutagen_history":"[1,0,0,0,0,1,1,0,0,0,1,0,0,0]","location_rts":"[11713,561,480,706,527,536,750,528,480,532,323,533,469,606]","trial_type":"fractal-mutation","trial_index":136,"time_elapsed":2411875,"internal_node_id":"0.0-5.0-32.0"},{"group":"hexagon_bi","fractal_assignment":["../images/org_blu.png","../images/blu_wht.png","../images/gry_blk.png","../images/ylw_slt.png","../images/pnk_blu.png","../images/cyn_red.png"],"mutagen_generator_assignment":[0,1],"goal":1,"start":4,"action_noise":0.2,"location_history":"[4,3,4,3,4,3,2,3,4,3,4,3,2,1]","action_history":"[1,1,0,1,1,1,1,0,0,1,0,1,1]","mutagen_history":"[1,1,0,1,1,1,1,0,0,1,0,1,1]","location_rts":"[2058,511,573,461,417,453,436,432,756,493,705,451,471]","trial_type":"fractal-mutation","trial_index":137,"time_elapsed":2437279,"internal_node_id":"0.0-5.0-33.0"},{"group":"hexagon_bi","fractal_assignment":["../images/org_blu.png","../images/blu_wht.png","../images/gry_blk.png","../images/ylw_slt.png","../images/pnk_blu.png","../images/cyn_red.png"],"mutagen_generator_assignment":[0,1],"goal":2,"start":1,"action_noise":0.2,"location_history":"[1,0,5,0,1,0,1,0,1,2]","action_history":"[1,0,0,1,1,1,1,1,0]","mutagen_history":"[1,0,0,1,1,1,1,1,0]","location_rts":"[989,489,472,384,550,468,487,481,494]","trial_type":"fractal-mutation","trial_index":138,"time_elapsed":2455082,"internal_node_id":"0.0-5.0-34.0"},{"group":"hexagon_bi","fractal_assignment":["../images/org_blu.png","../images/blu_wht.png","../images/gry_blk.png","../images/ylw_slt.png","../images/pnk_blu.png","../images/cyn_red.png"],"mutagen_generator_assignment":[0,1],"goal":0,"start":2,"action_noise":0.2,"location_history":"[2,3,4,3,4,5,0]","action_history":"[1,0,0,0,1,0]","mutagen_history":"[1,0,0,0,1,0]","location_rts":"[1378,482,573,485,398,556]","trial_type":"fractal-mutation","trial_index":139,"time_elapsed":2468763,"internal_node_id":"0.0-5.0-35.0"},{"group":"hexagon_bi","fractal_assignment":["../images/org_blu.png","../images/blu_wht.png","../images/gry_blk.png","../images/ylw_slt.png","../images/pnk_blu.png","../images/cyn_red.png"],"mutagen_generator_assignment":[0,1],"goal":5,"start":0,"action_noise":0.2,"location_history":"[0,5]","action_history":"[0]","mutagen_history":"[0]","location_rts":"[800]","trial_type":"fractal-mutation","trial_index":140,"time_elapsed":2474128,"internal_node_id":"0.0-5.0-36.0"},{"group":"hexagon_bi","fractal_assignment":["../images/org_blu.png","../images/blu_wht.png","../images/gry_blk.png","../images/ylw_slt.png","../images/pnk_blu.png","../images/cyn_red.png"],"mutagen_generator_assignment":[0,1],"goal":2,"start":5,"action_noise":0.2,"location_history":"[5,0,5,0,5,4,3,2]","action_history":"[1,1,0,0,1,0,1]","mutagen_history":"[1,1,0,0,1,0,1]","location_rts":"[1161,747,500,712,415,760,556]","trial_type":"fractal-mutation","trial_index":141,"time_elapsed":2489839,"internal_node_id":"0.0-5.0-37.0"},{"group":"hexagon_bi","fractal_assignment":["../images/org_blu.png","../images/blu_wht.png","../images/gry_blk.png","../images/ylw_slt.png","../images/pnk_blu.png","../images/cyn_red.png"],"mutagen_generator_assignment":[0,1],"goal":1,"start":2,"action_noise":0.2,"location_history":"[2,1]","action_history":"[0]","mutagen_history":"[0]","location_rts":"[1326]","trial_type":"fractal-mutation","trial_index":142,"time_elapsed":2495727,"internal_node_id":"0.0-5.0-38.0"},{"group":"hexagon_bi","fractal_assignment":["../images/org_blu.png","../images/blu_wht.png","../images/gry_blk.png","../images/ylw_slt.png","../images/pnk_blu.png","../images/cyn_red.png"],"mutagen_generator_assignment":[0,1],"goal":4,"start":1,"action_noise":0.2,"location_history":"[1,0,5,0,1,2,1,0,5,0,5,0,1,0,5,4]","action_history":"[1,0,0,1,0,0,1,0,0,0,0,1,1,0,1]","mutagen_history":"[1,0,0,1,0,0,1,0,0,0,0,1,1,0,1]","location_rts":"[1576,688,504,581,665,492,813,269,260,435,490,467,542,326,402]","trial_type":"fractal-mutation","trial_index":143,"time_elapsed":2523549,"internal_node_id":"0.0-5.0-39.0"},{"group":"hexagon_bi","fractal_assignment":["../images/org_blu.png","../images/blu_wht.png","../images/gry_blk.png","../images/ylw_slt.png","../images/pnk_blu.png","../images/cyn_red.png"],"mutagen_generator_assignment":[0,1],"goal":3,"start":4,"action_noise":0.2,"location_history":"[4,3]","action_history":"[0]","mutagen_history":"[0]","location_rts":"[746]","trial_type":"fractal-mutation","trial_index":144,"time_elapsed":2528842,"internal_node_id":"0.0-5.0-40.0"},{"group":"hexagon_bi","fractal_assignment":["../images/org_blu.png","../images/blu_wht.png","../images/gry_blk.png","../images/ylw_slt.png","../images/pnk_blu.png","../images/cyn_red.png"],"mutagen_generator_assignment":[0,1],"goal":5,"start":3,"action_noise":0.2,"location_history":"[3,4,3,4,3,4,5]","action_history":"[1,0,1,0,0,1]","mutagen_history":"[1,0,1,0,0,1]","location_rts":"[757,615,692,490,430,629]","trial_type":"fractal-mutation","trial_index":145,"time_elapsed":2542234,"internal_node_id":"0.0-5.0-41.0"},{"group":"hexagon_bi","fractal_assignment":["../images/org_blu.png","../images/blu_wht.png","../images/gry_blk.png","../images/ylw_slt.png","../images/pnk_blu.png","../images/cyn_red.png"],"mutagen_generator_assignment":[0,1],"goal":3,"start":5,"action_noise":0.2,"location_history":"[5,4,3]","action_history":"[1,0]","mutagen_history":"[1,0]","location_rts":"[1287,539]","trial_type":"fractal-mutation","trial_index":146,"time_elapsed":2549671,"internal_node_id":"0.0-5.0-42.0"},{"group":"hexagon_bi","fractal_assignment":["../images/org_blu.png","../images/blu_wht.png","../images/gry_blk.png","../images/ylw_slt.png","../images/pnk_blu.png","../images/cyn_red.png"],"mutagen_generator_assignment":[0,1],"goal":0,"start":3,"action_noise":0.2,"location_history":"[3,4,5,4,5,4,5,0]","action_history":"[0,1,1,1,1,1,0]","mutagen_history":"[0,1,1,1,1,1,0]","location_rts":"[1874,511,566,499,681,457,652]","trial_type":"fractal-mutation","trial_index":147,"time_elapsed":2565792,"internal_node_id":"0.0-5.0-43.0"},{"group":"hexagon_bi","fractal_assignment":["../images/org_blu.png","../images/blu_wht.png","../images/gry_blk.png","../images/ylw_slt.png","../images/pnk_blu.png","../images/cyn_red.png"],"mutagen_generator_assignment":[0,1],"goal":2,"start":0,"action_noise":0.2,"location_history":"[0,5,4,5,0,1,2]","action_history":"[0,1,1,0,0,1]","mutagen_history":"[0,1,1,0,0,1]","location_rts":"[6265,427,421,511,485,517]","trial_type":"fractal-mutation","trial_index":148,"time_elapsed":2584245,"internal_node_id":"0.0-5.0-44.0"},{"group":"hexagon_bi","fractal_assignment":["../images/org_blu.png","../images/blu_wht.png","../images/gry_blk.png","../images/ylw_slt.png","../images/pnk_blu.png","../images/cyn_red.png"],"mutagen_generator_assignment":[0,1],"goal":4,"start":2,"action_noise":0.2,"location_history":"[2,1,0,5,4]","action_history":"[0,1,0,0]","mutagen_history":"[0,1,0,0]","location_rts":"[851,746,506,770]","trial_type":"fractal-mutation","trial_index":149,"time_elapsed":2594793,"internal_node_id":"0.0-5.0-45.0"},{"group":"hexagon_bi","fractal_assignment":["../images/org_blu.png","../images/blu_wht.png","../images/gry_blk.png","../images/ylw_slt.png","../images/pnk_blu.png","../images/cyn_red.png"],"mutagen_generator_assignment":[0,1],"goal":1,"start":4,"action_noise":0.2,"location_history":"[4,3,4,3,4,5,0,5,4,3,4,3,4,3,2,1]","action_history":"[1,0,0,1,1,0,0,1,0,1,1,0,0,1,0]","mutagen_history":"[1,0,0,1,1,0,0,1,0,1,1,0,0,1,0]","location_rts":"[781,464,532,396,426,363,479,519,675,405,415,436,423,406,655]","trial_type":"fractal-mutation","trial_index":150,"time_elapsed":2621452,"internal_node_id":"0.0-5.0-46.0"},{"group":"hexagon_bi","fractal_assignment":["../images/org_blu.png","../images/blu_wht.png","../images/gry_blk.png","../images/ylw_slt.png","../images/pnk_blu.png","../images/cyn_red.png"],"mutagen_generator_assignment":[0,1],"goal":4,"start":1,"action_noise":0.2,"location_history":"[1,0,5,4]","action_history":"[1,0,1]","mutagen_history":"[1,0,1]","location_rts":"[797,439,565]","trial_type":"fractal-mutation","trial_index":151,"time_elapsed":2629934,"internal_node_id":"0.0-5.0-47.0"},{"group":"hexagon_bi","fractal_assignment":["../images/org_blu.png","../images/blu_wht.png","../images/gry_blk.png","../images/ylw_slt.png","../images/pnk_blu.png","../images/cyn_red.png"],"mutagen_generator_assignment":[0,1],"goal":1,"start":4,"action_noise":0.2,"location_history":"[4,5,0,1]","action_history":"[1,0,1]","mutagen_history":"[1,0,1]","location_rts":"[732,475,461]","trial_type":"fractal-mutation","trial_index":152,"time_elapsed":2638265,"internal_node_id":"0.0-5.0-48.0"},{"group":"hexagon_bi","fractal_assignment":["../images/org_blu.png","../images/blu_wht.png","../images/gry_blk.png","../images/ylw_slt.png","../images/pnk_blu.png","../images/cyn_red.png"],"mutagen_generator_assignment":[0,1],"goal":3,"start":1,"action_noise":0.2,"location_history":"[1,2,3]","action_history":"[0,0]","mutagen_history":"[0,0]","location_rts":"[833,522]","trial_type":"fractal-mutation","trial_index":153,"time_elapsed":2645215,"internal_node_id":"0.0-5.0-49.0"},{"group":"hexagon_bi","fractal_assignment":["../images/org_blu.png","../images/blu_wht.png","../images/gry_blk.png","../images/ylw_slt.png","../images/pnk_blu.png","../images/cyn_red.png"],"mutagen_generator_assignment":[0,1],"goal":5,"start":3,"action_noise":0.2,"location_history":"[3,2,1,2,3,2,3,2,1,0,1,0,5]","action_history":"[1,0,0,1,1,1,1,0,1,1,1,0]","mutagen_history":"[1,0,0,1,1,1,1,0,1,1,1,0]","location_rts":"[8438,472,608,412,400,690,568,181,632,557,490,380]","trial_type":"fractal-mutation","trial_index":154,"time_elapsed":2676165,"internal_node_id":"0.0-5.0-50.0"},{"group":"hexagon_bi","fractal_assignment":["../images/org_blu.png","../images/blu_wht.png","../images/gry_blk.png","../images/ylw_slt.png","../images/pnk_blu.png","../images/cyn_red.png"],"mutagen_generator_assignment":[0,1],"goal":0,"start":5,"action_noise":0.2,"location_history":"[5,0]","action_history":"[0]","mutagen_history":"[0]","location_rts":"[662]","trial_type":"fractal-mutation","trial_index":155,"time_elapsed":2681371,"internal_node_id":"0.0-5.0-51.0"},{"group":"hexagon_bi","fractal_assignment":["../images/org_blu.png","../images/blu_wht.png","../images/gry_blk.png","../images/ylw_slt.png","../images/pnk_blu.png","../images/cyn_red.png"],"mutagen_generator_assignment":[0,1],"goal":2,"start":0,"action_noise":0.2,"location_history":"[0,1,2]","action_history":"[1,0]","mutagen_history":"[1,0]","location_rts":"[687,500]","trial_type":"fractal-mutation","trial_index":156,"time_elapsed":2688176,"internal_node_id":"0.0-5.0-52.0"},{"group":"hexagon_bi","fractal_assignment":["../images/org_blu.png","../images/blu_wht.png","../images/gry_blk.png","../images/ylw_slt.png","../images/pnk_blu.png","../images/cyn_red.png"],"mutagen_generator_assignment":[0,1],"goal":1,"start":2,"action_noise":0.2,"location_history":"[2,3,2,1]","action_history":"[0,1,0]","mutagen_history":"[0,1,0]","location_rts":"[816,504,468]","trial_type":"fractal-mutation","trial_index":157,"time_elapsed":2696637,"internal_node_id":"0.0-5.0-53.0"},{"group":"hexagon_bi","fractal_assignment":["../images/org_blu.png","../images/blu_wht.png","../images/gry_blk.png","../images/ylw_slt.png","../images/pnk_blu.png","../images/cyn_red.png"],"mutagen_generator_assignment":[0,1],"goal":2,"start":1,"action_noise":0.2,"location_history":"[1,0,1,0,1,2]","action_history":"[1,0,1,1,1]","mutagen_history":"[1,0,1,1,1]","location_rts":"[3162,519,743,480,517]","trial_type":"fractal-mutation","trial_index":158,"time_elapsed":2710828,"internal_node_id":"0.0-5.0-54.0"},{"group":"hexagon_bi","fractal_assignment":["../images/org_blu.png","../images/blu_wht.png","../images/gry_blk.png","../images/ylw_slt.png","../images/pnk_blu.png","../images/cyn_red.png"],"mutagen_generator_assignment":[0,1],"goal":5,"start":2,"action_noise":0.2,"location_history":"[2,1,2,3,4,5]","action_history":"[0,1,1,0,0]","mutagen_history":"[0,1,1,0,0]","location_rts":"[800,492,505,384,551]","trial_type":"fractal-mutation","trial_index":159,"time_elapsed":2722327,"internal_node_id":"0.0-5.0-55.0"},{"group":"hexagon_bi","fractal_assignment":["../images/org_blu.png","../images/blu_wht.png","../images/gry_blk.png","../images/ylw_slt.png","../images/pnk_blu.png","../images/cyn_red.png"],"mutagen_generator_assignment":[0,1],"goal":4,"start":5,"action_noise":0.2,"location_history":"[5,4]","action_history":"[1]","mutagen_history":"[1]","location_rts":"[797]","trial_type":"fractal-mutation","trial_index":160,"time_elapsed":2727674,"internal_node_id":"0.0-5.0-56.0"},{"group":"hexagon_bi","fractal_assignment":["../images/org_blu.png","../images/blu_wht.png","../images/gry_blk.png","../images/ylw_slt.png","../images/pnk_blu.png","../images/cyn_red.png"],"mutagen_generator_assignment":[0,1],"goal":3,"start":4,"action_noise":0.2,"location_history":"[4,3]","action_history":"[0]","mutagen_history":"[0]","location_rts":"[865]","trial_type":"fractal-mutation","trial_index":161,"time_elapsed":2733100,"internal_node_id":"0.0-5.0-57.0"},{"group":"hexagon_bi","fractal_assignment":["../images/org_blu.png","../images/blu_wht.png","../images/gry_blk.png","../images/ylw_slt.png","../images/pnk_blu.png","../images/cyn_red.png"],"mutagen_generator_assignment":[0,1],"goal":0,"start":3,"action_noise":0.2,"location_history":"[3,2,3,4,3,4,3,4,5,0]","action_history":"[1,1,0,0,0,0,1,0,0]","mutagen_history":"[1,1,0,0,0,0,1,0,0]","location_rts":"[1096,868,382,580,509,594,405,517,1131]","trial_type":"fractal-mutation","trial_index":162,"time_elapsed":2752136,"internal_node_id":"0.0-5.0-58.0"},{"group":"hexagon_bi","fractal_assignment":["../images/org_blu.png","../images/blu_wht.png","../images/gry_blk.png","../images/ylw_slt.png","../images/pnk_blu.png","../images/cyn_red.png"],"mutagen_generator_assignment":[0,1],"goal":2,"start":0,"action_noise":0.2,"location_history":"[0,5,4,3,4,3,2]","action_history":"[0,1,0,0,0,1]","mutagen_history":"[0,1,0,0,0,1]","location_rts":"[17404,632,369,468,490,1071]","trial_type":"fractal-mutation","trial_index":163,"time_elapsed":2782405,"internal_node_id":"0.0-5.0-59.0"},{"group":"hexagon_bi","fractal_assignment":["../images/org_blu.png","../images/blu_wht.png","../images/gry_blk.png","../images/ylw_slt.png","../images/pnk_blu.png","../images/cyn_red.png"],"mutagen_generator_assignment":[0,1],"goal":1,"start":2,"action_noise":0.2,"location_history":"[2,1]","action_history":"[0]","mutagen_history":"[0]","location_rts":"[886]","trial_type":"fractal-mutation","trial_index":164,"time_elapsed":2787844,"internal_node_id":"0.0-5.0-60.0"},{"group":"hexagon_bi","fractal_assignment":["../images/org_blu.png","../images/blu_wht.png","../images/gry_blk.png","../images/ylw_slt.png","../images/pnk_blu.png","../images/cyn_red.png"],"mutagen_generator_assignment":[0,1],"goal":0,"start":1,"action_noise":0.2,"location_history":"[1,2,3,4,5,0]","action_history":"[0,1,1,1,0]","mutagen_history":"[0,1,1,1,0]","location_rts":"[872,445,484,515,402]","trial_type":"fractal-mutation","trial_index":165,"time_elapsed":2799303,"internal_node_id":"0.0-5.0-61.0"},{"group":"hexagon_bi","fractal_assignment":["../images/org_blu.png","../images/blu_wht.png","../images/gry_blk.png","../images/ylw_slt.png","../images/pnk_blu.png","../images/cyn_red.png"],"mutagen_generator_assignment":[0,1],"goal":3,"start":0,"action_noise":0.2,"location_history":"[0,1,2,3]","action_history":"[1,0,0]","mutagen_history":"[1,0,0]","location_rts":"[758,496,353]","trial_type":"fractal-mutation","trial_index":166,"time_elapsed":2807567,"internal_node_id":"0.0-5.0-62.0"},{"group":"hexagon_bi","fractal_assignment":["../images/org_blu.png","../images/blu_wht.png","../images/gry_blk.png","../images/ylw_slt.png","../images/pnk_blu.png","../images/cyn_red.png"],"mutagen_generator_assignment":[0,1],"goal":5,"start":3,"action_noise":0.2,"location_history":"[3,4,5]","action_history":"[0,1]","mutagen_history":"[0,1]","location_rts":"[1029,529]","trial_type":"fractal-mutation","trial_index":167,"time_elapsed":2814734,"internal_node_id":"0.0-5.0-63.0"},{"group":"hexagon_bi","fractal_assignment":["../images/org_blu.png","../images/blu_wht.png","../images/gry_blk.png","../images/ylw_slt.png","../images/pnk_blu.png","../images/cyn_red.png"],"mutagen_generator_assignment":[0,1],"goal":4,"start":5,"action_noise":0.2,"location_history":"[5,0,1,2,3,4]","action_history":"[0,1,0,0,0]","mutagen_history":"[0,1,0,0,0]","location_rts":"[856,413,406,459,451]","trial_type":"fractal-mutation","trial_index":168,"time_elapsed":2826095,"internal_node_id":"0.0-5.0-64.0"},{"group":"hexagon_bi","fractal_assignment":["../images/org_blu.png","../images/blu_wht.png","../images/gry_blk.png","../images/ylw_slt.png","../images/pnk_blu.png","../images/cyn_red.png"],"mutagen_generator_assignment":[0,1],"goal":1,"start":4,"action_noise":0.2,"location_history":"[4,3,2,3,2,1]","action_history":"[0,1,1,1,0]","mutagen_history":"[0,1,1,1,0]","location_rts":"[800,476,483,499,657]","trial_type":"fractal-mutation","trial_index":169,"time_elapsed":2837779,"internal_node_id":"0.0-5.0-65.0"},{"group":"hexagon_bi","fractal_assignment":["../images/org_blu.png","../images/blu_wht.png","../images/gry_blk.png","../images/ylw_slt.png","../images/pnk_blu.png","../images/cyn_red.png"],"mutagen_generator_assignment":[0,1],"goal":5,"start":1,"action_noise":0.2,"location_history":"[1,2,3,2,3,4,5]","action_history":"[0,1,1,1,0,1]","mutagen_history":"[0,1,1,1,0,1]","location_rts":"[1108,441,379,449,424,409]","trial_type":"fractal-mutation","trial_index":170,"time_elapsed":2850819,"internal_node_id":"0.0-5.0-66.0"},{"group":"hexagon_bi","fractal_assignment":["../images/org_blu.png","../images/blu_wht.png","../images/gry_blk.png","../images/ylw_slt.png","../images/pnk_blu.png","../images/cyn_red.png"],"mutagen_generator_assignment":[0,1],"goal":2,"start":5,"action_noise":0.2,"location_history":"[5,0,5,0,1,2]","action_history":"[1,0,0,0,1]","mutagen_history":"[1,0,0,0,1]","location_rts":"[926,433,690,488,483]","trial_type":"fractal-mutation","trial_index":171,"time_elapsed":2862610,"internal_node_id":"0.0-5.0-67.0"},{"group":"hexagon_bi","fractal_assignment":["../images/org_blu.png","../images/blu_wht.png","../images/gry_blk.png","../images/ylw_slt.png","../images/pnk_blu.png","../images/cyn_red.png"],"mutagen_generator_assignment":[0,1],"goal":3,"start":2,"action_noise":0.2,"location_history":"[2,1,0,1,2,1,0,1,0,5,0,1,0,5,0,5,4,5,4,3]","action_history":"[0,1,1,0,0,1,1,0,0,0,1,1,1,0,0,0,1,1,0]","mutagen_history":"[0,1,1,0,0,1,1,0,0,0,1,1,1,0,0,0,1,1,0]","location_rts":"[914,720,381,480,467,455,406,402,391,550,310,415,403,376,436,520,264,482,301]","trial_type":"fractal-mutation","trial_index":172,"time_elapsed":2894752,"internal_node_id":"0.0-5.0-68.0"},{"group":"hexagon_bi","fractal_assignment":["../images/org_blu.png","../images/blu_wht.png","../images/gry_blk.png","../images/ylw_slt.png","../images/pnk_blu.png","../images/cyn_red.png"],"mutagen_generator_assignment":[0,1],"goal":4,"start":3,"action_noise":0.2,"location_history":"[3,4]","action_history":"[0]","mutagen_history":"[0]","location_rts":"[877]","trial_type":"fractal-mutation","trial_index":173,"time_elapsed":2900180,"internal_node_id":"0.0-5.0-69.0"},{"group":"hexagon_bi","fractal_assignment":["../images/org_blu.png","../images/blu_wht.png","../images/gry_blk.png","../images/ylw_slt.png","../images/pnk_blu.png","../images/cyn_red.png"],"mutagen_generator_assignment":[0,1],"goal":0,"start":4,"action_noise":0.2,"location_history":"[4,5,0]","action_history":"[1,0]","mutagen_history":"[1,0]","location_rts":"[723,462]","trial_type":"fractal-mutation","trial_index":174,"time_elapsed":2906968,"internal_node_id":"0.0-5.0-70.0"},{"group":"hexagon_bi","fractal_assignment":["../images/org_blu.png","../images/blu_wht.png","../images/gry_blk.png","../images/ylw_slt.png","../images/pnk_blu.png","../images/cyn_red.png"],"mutagen_generator_assignment":[0,1],"goal":5,"start":0,"action_noise":0.2,"location_history":"[0,5]","action_history":"[0]","mutagen_history":"[0]","location_rts":"[1807]","trial_type":"fractal-mutation","trial_index":175,"time_elapsed":2913330,"internal_node_id":"0.0-5.0-71.0"},{"group":"hexagon_bi","fractal_assignment":["../images/org_blu.png","../images/blu_wht.png","../images/gry_blk.png","../images/ylw_slt.png","../images/pnk_blu.png","../images/cyn_red.png"],"mutagen_generator_assignment":[0,1],"goal":0,"start":5,"action_noise":0.2,"location_history":"[5,0]","action_history":"[0]","mutagen_history":"[0]","location_rts":"[934]","trial_type":"fractal-mutation","trial_index":176,"time_elapsed":2918817,"internal_node_id":"0.0-5.0-72.0"},{"group":"hexagon_bi","fractal_assignment":["../images/org_blu.png","../images/blu_wht.png","../images/gry_blk.png","../images/ylw_slt.png","../images/pnk_blu.png","../images/cyn_red.png"],"mutagen_generator_assignment":[0,1],"goal":3,"start":0,"action_noise":0.2,"location_history":"[0,1,0,1,0,5,0,1,2,3]","action_history":"[1,0,1,1,1,1,1,0,0]","mutagen_history":"[1,0,1,1,1,1,1,0,0]","location_rts":"[1000,704,723,509,570,494,536,185,395]","trial_type":"fractal-mutation","trial_index":177,"time_elapsed":2936888,"internal_node_id":"0.0-5.0-73.0"},{"group":"hexagon_bi","fractal_assignment":["../images/org_blu.png","../images/blu_wht.png","../images/gry_blk.png","../images/ylw_slt.png","../images/pnk_blu.png","../images/cyn_red.png"],"mutagen_generator_assignment":[0,1],"goal":1,"start":3,"action_noise":0.2,"location_history":"[3,4,3,4,3,4,5,4,5,0,1]","action_history":"[0,0,0,0,0,1,1,1,0,1]","mutagen_history":"[0,0,0,0,0,1,1,1,0,1]","location_rts":"[1550,586,505,555,478,314,464,535,533,484]","trial_type":"fractal-mutation","trial_index":178,"time_elapsed":2956932,"internal_node_id":"0.0-5.0-74.0"},{"group":"hexagon_bi","fractal_assignment":["../images/org_blu.png","../images/blu_wht.png","../images/gry_blk.png","../images/ylw_slt.png","../images/pnk_blu.png","../images/cyn_red.png"],"mutagen_generator_assignment":[0,1],"goal":2,"start":1,"action_noise":0.2,"location_history":"[1,0,5,4,5,4,5,0,5,0,5,4,3,4,3,4,3,2]","action_history":"[1,0,1,1,1,0,0,0,0,1,1,1,0,0,0,0,1]","mutagen_history":"[1,0,1,1,1,0,0,0,0,1,1,1,0,0,0,0,1]","location_rts":"[780,492,440,411,425,476,523,449,526,427,523,558,412,477,416,440,404]","trial_type":"fractal-mutation","trial_index":179,"time_elapsed":2986501,"internal_node_id":"0.0-5.0-75.0"},{"group":"hexagon_bi","fractal_assignment":["../images/org_blu.png","../images/blu_wht.png","../images/gry_blk.png","../images/ylw_slt.png","../images/pnk_blu.png","../images/cyn_red.png"],"mutagen_generator_assignment":[0,1],"goal":4,"start":2,"action_noise":0.2,"location_history":"[2,3,4]","action_history":"[1,0]","mutagen_history":"[1,0]","location_rts":"[812,390]","trial_type":"fractal-mutation","trial_index":180,"time_elapsed":2993309,"internal_node_id":"0.0-5.0-76.0"},{"group":"hexagon_bi","fractal_assignment":["../images/org_blu.png","../images/blu_wht.png","../images/gry_blk.png","../images/ylw_slt.png","../images/pnk_blu.png","../images/cyn_red.png"],"mutagen_generator_assignment":[0,1],"goal":3,"start":4,"action_noise":0.2,"location_history":"[4,5,4,3]","action_history":"[1,1,1]","mutagen_history":"[1,1,1]","location_rts":"[771,521,453]","trial_type":"fractal-mutation","trial_index":181,"time_elapsed":3001742,"internal_node_id":"0.0-5.0-77.0"},{"group":"hexagon_bi","fractal_assignment":["../images/org_blu.png","../images/blu_wht.png","../images/gry_blk.png","../images/ylw_slt.png","../images/pnk_blu.png","../images/cyn_red.png"],"mutagen_generator_assignment":[0,1],"goal":0,"start":3,"action_noise":0.2,"location_history":"[3,4,5,4,5,4,5,0]","action_history":"[0,1,1,1,1,1,0]","mutagen_history":"[0,1,1,1,1,1,0]","location_rts":"[789,863,581,465,550,471,335]","trial_type":"fractal-mutation","trial_index":182,"time_elapsed":3016665,"internal_node_id":"0.0-5.0-78.0"},{"group":"hexagon_bi","fractal_assignment":["../images/org_blu.png","../images/blu_wht.png","../images/gry_blk.png","../images/ylw_slt.png","../images/pnk_blu.png","../images/cyn_red.png"],"mutagen_generator_assignment":[0,1],"goal":4,"start":0,"action_noise":0.2,"location_history":"[0,5,0,5,4]","action_history":"[0,0,0,1]","mutagen_history":"[0,0,0,1]","location_rts":"[1874,755,705,570]","trial_type":"fractal-mutation","trial_index":183,"time_elapsed":3028279,"internal_node_id":"0.0-5.0-79.0"},{"group":"hexagon_bi","fractal_assignment":["../images/org_blu.png","../images/blu_wht.png","../images/gry_blk.png","../images/ylw_slt.png","../images/pnk_blu.png","../images/cyn_red.png"],"mutagen_generator_assignment":[0,1],"goal":5,"start":4,"action_noise":0.2,"location_history":"[4,5]","action_history":"[1]","mutagen_history":"[1]","location_rts":"[875]","trial_type":"fractal-mutation","trial_index":184,"time_elapsed":3033707,"internal_node_id":"0.0-5.0-80.0"},{"group":"hexagon_bi","fractal_assignment":["../images/org_blu.png","../images/blu_wht.png","../images/gry_blk.png","../images/ylw_slt.png","../images/pnk_blu.png","../images/cyn_red.png"],"mutagen_generator_assignment":[0,1],"goal":1,"start":5,"action_noise":0.2,"location_history":"[5,4,3,4,3,2,3,2,3,2,1]","action_history":"[1,0,0,0,1,1,1,1,1,0]","mutagen_history":"[1,0,0,0,1,1,1,1,1,0]","location_rts":"[2020,795,478,644,612,472,444,530,464,780]","trial_type":"fractal-mutation","trial_index":185,"time_elapsed":3054965,"internal_node_id":"0.0-5.0-81.0"},{"group":"hexagon_bi","fractal_assignment":["../images/org_blu.png","../images/blu_wht.png","../images/gry_blk.png","../images/ylw_slt.png","../images/pnk_blu.png","../images/cyn_red.png"],"mutagen_generator_assignment":[0,1],"goal":2,"start":1,"action_noise":0.2,"location_history":"[1,2]","action_history":"[0]","mutagen_history":"[0]","location_rts":"[1176]","trial_type":"fractal-mutation","trial_index":186,"time_elapsed":3060699,"internal_node_id":"0.0-5.0-82.0"},{"group":"hexagon_bi","fractal_assignment":["../images/org_blu.png","../images/blu_wht.png","../images/gry_blk.png","../images/ylw_slt.png","../images/pnk_blu.png","../images/cyn_red.png"],"mutagen_generator_assignment":[0,1],"goal":4,"start":2,"action_noise":0.2,"location_history":"[2,1,0,5,0,1,0,5,0,1,0,5,4]","action_history":"[0,0,0,1,1,1,0,0,0,0,0,1]","mutagen_history":"[0,0,0,1,1,1,0,0,0,0,0,1]","location_rts":"[1360,523,2403,705,491,1110,363,727,463,629,465,395]","trial_type":"fractal-mutation","trial_index":187,"time_elapsed":3086477,"internal_node_id":"0.0-5.0-83.0"},{"group":"hexagon_bi","fractal_assignment":["../images/org_blu.png","../images/blu_wht.png","../images/gry_blk.png","../images/ylw_slt.png","../images/pnk_blu.png","../images/cyn_red.png"],"mutagen_generator_assignment":[0,1],"goal":0,"start":4,"action_noise":0.2,"location_history":"[4,5,0]","action_history":"[1,1]","mutagen_history":"[1,1]","location_rts":"[1015,476]","trial_type":"fractal-mutation","trial_index":188,"time_elapsed":3093585,"internal_node_id":"0.0-5.0-84.0"},{"group":"hexagon_bi","fractal_assignment":["../images/org_blu.png","../images/blu_wht.png","../images/gry_blk.png","../images/ylw_slt.png","../images/pnk_blu.png","../images/cyn_red.png"],"mutagen_generator_assignment":[0,1],"goal":5,"start":0,"action_noise":0.2,"location_history":"[0,5]","action_history":"[0]","mutagen_history":"[0]","location_rts":"[611]","trial_type":"fractal-mutation","trial_index":189,"time_elapsed":3098757,"internal_node_id":"0.0-5.0-85.0"},{"group":"hexagon_bi","fractal_assignment":["../images/org_blu.png","../images/blu_wht.png","../images/gry_blk.png","../images/ylw_slt.png","../images/pnk_blu.png","../images/cyn_red.png"],"mutagen_generator_assignment":[0,1],"goal":3,"start":5,"action_noise":0.2,"location_history":"[5,4,5,4,3]","action_history":"[0,1,1,0]","mutagen_history":"[0,1,1,0]","location_rts":"[1764,638,904,636]","trial_type":"fractal-mutation","trial_index":190,"time_elapsed":3110430,"internal_node_id":"0.0-5.0-86.0"},{"group":"hexagon_bi","fractal_assignment":["../images/org_blu.png","../images/blu_wht.png","../images/gry_blk.png","../images/ylw_slt.png","../images/pnk_blu.png","../images/cyn_red.png"],"mutagen_generator_assignment":[0,1],"goal":1,"start":3,"action_noise":0.2,"location_history":"[3,2,1]","action_history":"[0,0]","mutagen_history":"[0,0]","location_rts":"[1427,548]","trial_type":"fractal-mutation","trial_index":191,"time_elapsed":3117993,"internal_node_id":"0.0-5.0-87.0"},{"group":"hexagon_bi","fractal_assignment":["../images/org_blu.png","../images/blu_wht.png","../images/gry_blk.png","../images/ylw_slt.png","../images/pnk_blu.png","../images/cyn_red.png"],"mutagen_generator_assignment":[0,1],"goal":2,"start":1,"action_noise":0.2,"location_history":"[1,0,1,2]","action_history":"[1,1,0]","mutagen_history":"[1,1,0]","location_rts":"[911,578,742]","trial_type":"fractal-mutation","trial_index":192,"time_elapsed":3126875,"internal_node_id":"0.0-5.0-88.0"},{"group":"hexagon_bi","fractal_assignment":["../images/org_blu.png","../images/blu_wht.png","../images/gry_blk.png","../images/ylw_slt.png","../images/pnk_blu.png","../images/cyn_red.png"],"mutagen_generator_assignment":[0,1],"goal":0,"start":2,"action_noise":0.2,"location_history":"[2,3,2,1,0]","action_history":"[1,1,0,1]","mutagen_history":"[1,1,0,1]","location_rts":"[1593,633,432,563]","trial_type":"fractal-mutation","trial_index":193,"time_elapsed":3137831,"internal_node_id":"0.0-5.0-89.0"},{"group":"hexagon_bi","fractal_assignment":["../images/org_blu.png","../images/blu_wht.png","../images/gry_blk.png","../images/ylw_slt.png","../images/pnk_blu.png","../images/cyn_red.png"],"mutagen_generator_assignment":[0,1],"goal":5,"start":0,"action_noise":0.2,"location_history":"[0,1,2,3,4,3,2,3,4,3,4,5]","action_history":"[1,0,1,0,0,1,1,0,0,0,1]","mutagen_history":"[1,0,1,0,0,1,1,0,0,0,1]","location_rts":"[1159,533,544,397,692,562,589,376,307,538,490]","trial_type":"fractal-mutation","trial_index":194,"time_elapsed":3159054,"internal_node_id":"0.0-5.0-90.0"},{"group":"hexagon_bi","fractal_assignment":["../images/org_blu.png","../images/blu_wht.png","../images/gry_blk.png","../images/ylw_slt.png","../images/pnk_blu.png","../images/cyn_red.png"],"mutagen_generator_assignment":[0,1],"goal":1,"start":5,"action_noise":0.2,"location_history":"[5,4,3,4,5,4,5,4,5,4,3,2,1]","action_history":"[1,0,0,0,0,1,1,0,1,0,0,0]","mutagen_history":"[1,0,0,0,0,1,1,0,1,0,0,0]","location_rts":"[1286,779,464,586,447,372,648,605,242,484,449,490]","trial_type":"fractal-mutation","trial_index":195,"time_elapsed":3182033,"internal_node_id":"0.0-5.0-91.0"},{"group":"hexagon_bi","fractal_assignment":["../images/org_blu.png","../images/blu_wht.png","../images/gry_blk.png","../images/ylw_slt.png","../images/pnk_blu.png","../images/cyn_red.png"],"mutagen_generator_assignment":[0,1],"goal":3,"start":1,"action_noise":0.2,"location_history":"[1,2,3]","action_history":"[0,0]","mutagen_history":"[0,0]","location_rts":"[1012,509]","trial_type":"fractal-mutation","trial_index":196,"time_elapsed":3189142,"internal_node_id":"0.0-5.0-92.0"},{"group":"hexagon_bi","fractal_assignment":["../images/org_blu.png","../images/blu_wht.png","../images/gry_blk.png","../images/ylw_slt.png","../images/pnk_blu.png","../images/cyn_red.png"],"mutagen_generator_assignment":[0,1],"goal":4,"start":3,"action_noise":0.2,"location_history":"[3,2,1,2,3,4]","action_history":"[1,0,0,0,0]","mutagen_history":"[1,0,0,0,0]","location_rts":"[1497,563,552,500,485]","trial_type":"fractal-mutation","trial_index":197,"time_elapsed":3201508,"internal_node_id":"0.0-5.0-93.0"},{"group":"hexagon_bi","fractal_assignment":["../images/org_blu.png","../images/blu_wht.png","../images/gry_blk.png","../images/ylw_slt.png","../images/pnk_blu.png","../images/cyn_red.png"],"mutagen_generator_assignment":[0,1],"goal":2,"start":4,"action_noise":0.2,"location_history":"[4,5,4,5,4,3,2]","action_history":"[1,1,0,0,0,1]","mutagen_history":"[1,1,0,0,0,1]","location_rts":"[798,641,422,523,430,383]","trial_type":"fractal-mutation","trial_index":198,"time_elapsed":3214535,"internal_node_id":"0.0-5.0-94.0"},{"group":"hexagon_bi","fractal_assignment":["../images/org_blu.png","../images/blu_wht.png","../images/gry_blk.png","../images/ylw_slt.png","../images/pnk_blu.png","../images/cyn_red.png"],"mutagen_generator_assignment":[0,1],"goal":4,"start":2,"action_noise":0.2,"location_history":"[2,1,2,1,2,1,0,1,2,1,2,3,2,3,2,3,4]","action_history":"[1,0,0,0,1,0,0,0,0,1,1,1,1,1,1,0]","mutagen_history":"[1,0,0,0,1,0,0,0,0,1,1,1,1,1,1,0]","location_rts":"[866,627,448,408,528,498,589,314,476,396,475,456,486,509,913,446]","trial_type":"fractal-mutation","trial_index":199,"time_elapsed":3243332,"internal_node_id":"0.0-5.0-95.0"},{"group":"hexagon_bi","fractal_assignment":["../images/org_blu.png","../images/blu_wht.png","../images/gry_blk.png","../images/ylw_slt.png","../images/pnk_blu.png","../images/cyn_red.png"],"mutagen_generator_assignment":[0,1],"goal":0,"start":4,"action_noise":0.2,"location_history":"[4,5,0]","action_history":"[0,0]","mutagen_history":"[0,0]","location_rts":"[1571,538]","trial_type":"fractal-mutation","trial_index":200,"time_elapsed":3251048,"internal_node_id":"0.0-5.0-96.0"},{"group":"hexagon_bi","fractal_assignment":["../images/org_blu.png","../images/blu_wht.png","../images/gry_blk.png","../images/ylw_slt.png","../images/pnk_blu.png","../images/cyn_red.png"],"mutagen_generator_assignment":[0,1],"goal":5,"start":0,"action_noise":0.2,"location_history":"[0,1,2,1,0,5]","action_history":"[0,0,0,0,0]","mutagen_history":"[0,0,0,0,0]","location_rts":"[1089,623,452,409,687]","trial_type":"fractal-mutation","trial_index":201,"time_elapsed":3263087,"internal_node_id":"0.0-5.0-97.0"},{"group":"hexagon_bi","fractal_assignment":["../images/org_blu.png","../images/blu_wht.png","../images/gry_blk.png","../images/ylw_slt.png","../images/pnk_blu.png","../images/cyn_red.png"],"mutagen_generator_assignment":[0,1],"goal":1,"start":5,"action_noise":0.2,"location_history":"[5,4,3,2,1]","action_history":"[1,0,1,0]","mutagen_history":"[1,0,1,0]","location_rts":"[1004,538,405,671]","trial_type":"fractal-mutation","trial_index":202,"time_elapsed":3273412,"internal_node_id":"0.0-5.0-98.0"},{"group":"hexagon_bi","fractal_assignment":["../images/org_blu.png","../images/blu_wht.png","../images/gry_blk.png","../images/ylw_slt.png","../images/pnk_blu.png","../images/cyn_red.png"],"mutagen_generator_assignment":[0,1],"goal":3,"start":1,"action_noise":0.2,"location_history":"[1,0,5,0,5,0,1,2,3]","action_history":"[0,0,0,0,0,1,0,1]","mutagen_history":"[0,0,0,0,0,1,0,1]","location_rts":"[1791,491,827,562,735,318,562,519]","trial_type":"fractal-mutation","trial_index":203,"time_elapsed":3291116,"internal_node_id":"0.0-5.0-99.0"},{"view_history":"[{\"page_index\":0,\"viewing_time\":15616}]","rt":15617,"trial_type":"instructions","trial_index":204,"time_elapsed":3307733,"internal_node_id":"0.0-6.0"},{"rt":5955,"responses":"{\"Q0\":\"Not at this time\"}","trial_type":"survey-text","trial_index":205,"time_elapsed":3314702,"internal_node_id":"0.0-7.0"}]