[{"view_history":"[{\"page_index\":0,\"viewing_time\":42414},{\"page_index\":1,\"viewing_time\":16169},{\"page_index\":2,\"viewing_time\":19273},{\"page_index\":3,\"viewing_time\":5078}]","rt":82934,"trial_type":"instructions","trial_index":0,"time_elapsed":82934,"internal_node_id":"0.0-0.0"},{"view_history":"[{\"page_index\":0,\"viewing_time\":1585},{\"page_index\":1,\"viewing_time\":38772}]","rt":40358,"trial_type":"instructions","trial_index":1,"time_elapsed":124293,"internal_node_id":"0.0-1.0"},{"group":"hexagon_bi","room_assignment":["blue","red","green","grey","purple","yellow"],"door_color_assignment":["black","white"],"door_generator_assignment":[1,0],"goal":4,"start":0,"action_noise":0.2,"location_history":"[0,5,4]","action_history":"[0,0]","door_history":"[1,1]","location_rts":"[2566,1557]","trial_type":"two-door-navigation","trial_index":2,"time_elapsed":133931,"internal_node_id":"0.0-2.0-0.0"},{"group":"hexagon_bi","room_assignment":["blue","red","green","grey","purple","yellow"],"door_color_assignment":["black","white"],"door_generator_assignment":[1,0],"goal":3,"start":4,"action_noise":0.2,"location_history":"[4,3]","action_history":"[1]","door_history":"[0]","location_rts":"[3395]","trial_type":"two-door-navigation","trial_index":3,"time_elapsed":141829,"internal_node_id":"0.0-2.0-1.0"},{"group":"hexagon_bi","room_assignment":["blue","red","green","grey","purple","yellow"],"door_color_assignment":["black","white"],"door_generator_assignment":[1,0],"goal":5,"start":3,"action_noise":0.2,"location_history":"[3,4,3,2,1,2,3,2,1,2,1,2,1,0,1,0,5]","action_history":"[0,0,0,0,0,1,1,1,1,0,0,0,1,0,1,1]","door_history":"[1,1,1,1,1,0,0,0,0,1,1,1,0,1,0,0]","location_rts":"[1019,851,1395,865,741,1093,439,660,925,719,455,831,468,1809,804,439]","trial_type":"two-door-navigation","trial_index":4,"time_elapsed":174905,"internal_node_id":"0.0-2.0-2.0"},{"group":"hexagon_bi","room_assignment":["blue","red","green","grey","purple","yellow"],"door_color_assignment":["black","white"],"door_generator_assignment":[1,0],"goal":2,"start":5,"action_noise":0.2,"location_history":"[5,0,5,0,5,4,5,0,5,0,1,2]","action_history":"[1,0,0,0,1,0,0,0,1,1,0]","door_history":"[0,1,1,1,0,1,1,1,0,0,1]","location_rts":"[1761,532,459,947,186,744,2442,979,493,286,843]","trial_type":"two-door-navigation","trial_index":5,"time_elapsed":199110,"internal_node_id":"0.0-2.0-3.0"},{"group":"hexagon_bi","room_assignment":["blue","red","green","grey","purple","yellow"],"door_color_assignment":["black","white"],"door_generator_assignment":[1,0],"goal":1,"start":2,"action_noise":0.2,"location_history":"[2,3,4,3,2,1]","action_history":"[1,1,0,1,0]","door_history":"[0,0,1,0,1]","location_rts":"[2388,709,1089,638,657]","trial_type":"two-door-navigation","trial_index":6,"time_elapsed":213114,"internal_node_id":"0.0-2.0-4.0"},{"group":"hexagon_bi","room_assignment":["blue","red","green","grey","purple","yellow"],"door_color_assignment":["black","white"],"door_generator_assignment":[1,0],"goal":4,"start":1,"action_noise":0.2,"location_history":"[1,0,5,4]","action_history":"[1,0,0]","door_history":"[0,1,1]","location_rts":"[1439,455,588]","trial_type":"two-door-navigation","trial_index":7,"time_elapsed":222111,"internal_node_id":"0.0-2.0-5.0"},{"group":"hexagon_bi","room_assignment":["blue","red","green","grey","purple","yellow"],"door_color_assignment":["black","white"],"door_generator_assignment":[1,0],"goal":1,"start":4,"action_noise":0.2,"location_history":"[4,5,0,1]","action_history":"[0,0,1]","door_history":"[1,1,0]","location_rts":"[1479,325,392]","trial_type":"two-door-navigation","trial_index":8,"time_elapsed":230819,"internal_node_id":"0.0-2.0-6.0"},{"group":"hexagon_bi","room_assignment":["blue","red","green","grey","purple","yellow"],"door_color_assignment":["black","white"],"door_generator_assignment":[1,0],"goal":5,"start":1,"action_noise":0.2,"location_history":"[1,2,1,2,1,0,5]","action_history":"[0,0,0,1,1,0]","door_history":"[1,1,1,0,0,1]","location_rts":"[1764,365,850,136,1303,548]","trial_type":"two-door-navigation","trial_index":9,"time_elapsed":245313,"internal_node_id":"0.0-2.0-7.0"},{"group":"hexagon_bi","room_assignment":["blue","red","green","grey","purple","yellow"],"door_color_assignment":["black","white"],"door_generator_assignment":[1,0],"goal":0,"start":5,"action_noise":0.2,"location_history":"[5,0]","action_history":"[0]","door_history":"[1]","location_rts":"[1702]","trial_type":"two-door-navigation","trial_index":10,"time_elapsed":251523,"internal_node_id":"0.0-2.0-8.0"},{"group":"hexagon_bi","room_assignment":["blue","red","green","grey","purple","yellow"],"door_color_assignment":["black","white"],"door_generator_assignment":[1,0],"goal":2,"start":0,"action_noise":0.2,"location_history":"[0,5,4,5,0,1,2]","action_history":"[0,1,0,0,1,0]","door_history":"[1,0,1,1,0,1]","location_rts":"[3604,978,611,1201,1187,730]","trial_type":"two-door-navigation","trial_index":11,"time_elapsed":269358,"internal_node_id":"0.0-2.0-9.0"},{"group":"hexagon_bi","room_assignment":["blue","red","green","grey","purple","yellow"],"door_color_assignment":["black","white"],"door_generator_assignment":[1,0],"goal":3,"start":2,"action_noise":0.2,"location_history":"[2,3]","action_history":"[1]","door_history":"[0]","location_rts":"[1086]","trial_type":"two-door-navigation","trial_index":12,"time_elapsed":274952,"internal_node_id":"0.0-2.0-10.0"},{"group":"hexagon_bi","room_assignment":["blue","red","green","grey","purple","yellow"],"door_color_assignment":["black","white"],"door_generator_assignment":[1,0],"goal":0,"start":3,"action_noise":0.2,"location_history":"[3,4,5,0]","action_history":"[0,1,0]","door_history":"[1,0,1]","location_rts":"[1954,737,505]","trial_type":"two-door-navigation","trial_index":13,"time_elapsed":284656,"internal_node_id":"0.0-2.0-11.0"},{"group":"hexagon_bi","room_assignment":["blue","red","green","grey","purple","yellow"],"door_color_assignment":["black","white"],"door_generator_assignment":[1,0],"goal":2,"start":0,"action_noise":0.2,"location_history":"[0,1,0,5,0,1,2]","action_history":"[1,0,0,0,1,0]","door_history":"[0,1,1,1,0,1]","location_rts":"[1392,437,1286,2546,325,522]","trial_type":"two-door-navigation","trial_index":14,"time_elapsed":300697,"internal_node_id":"0.0-2.0-12.0"},{"group":"hexagon_bi","room_assignment":["blue","red","green","grey","purple","yellow"],"door_color_assignment":["black","white"],"door_generator_assignment":[1,0],"goal":5,"start":2,"action_noise":0.2,"location_history":"[2,3,2,1,0,1,2,1,0,5]","action_history":"[1,0,0,1,0,0,1,1,0]","door_history":"[0,1,1,0,1,1,0,0,1]","location_rts":"[1275,1593,1020,960,452,1560,296,1175,785]","trial_type":"two-door-navigation","trial_index":15,"time_elapsed":322342,"internal_node_id":"0.0-2.0-13.0"},{"group":"hexagon_bi","room_assignment":["blue","red","green","grey","purple","yellow"],"door_color_assignment":["black","white"],"door_generator_assignment":[1,0],"goal":4,"start":5,"action_noise":0.2,"location_history":"[5,0,1,2,3,4]","action_history":"[0,1,0,1,0]","door_history":"[1,0,1,0,1]","location_rts":"[3303,443,571,1075,560]","trial_type":"two-door-navigation","trial_index":16,"time_elapsed":336810,"internal_node_id":"0.0-2.0-14.0"},{"group":"hexagon_bi","room_assignment":["blue","red","green","grey","purple","yellow"],"door_color_assignment":["black","white"],"door_generator_assignment":[1,0],"goal":3,"start":4,"action_noise":0.2,"location_history":"[4,3]","action_history":"[0]","door_history":"[1]","location_rts":"[1635]","trial_type":"two-door-navigation","trial_index":17,"time_elapsed":342949,"internal_node_id":"0.0-2.0-15.0"},{"group":"hexagon_bi","room_assignment":["blue","red","green","grey","purple","yellow"],"door_color_assignment":["black","white"],"door_generator_assignment":[1,0],"goal":1,"start":3,"action_noise":0.2,"location_history":"[3,4,3,2,1]","action_history":"[1,1,1,0]","door_history":"[0,0,0,1]","location_rts":"[3068,2235,605,792]","trial_type":"two-door-navigation","trial_index":18,"time_elapsed":357167,"internal_node_id":"0.0-2.0-16.0"},{"group":"hexagon_bi","room_assignment":["blue","red","green","grey","purple","yellow"],"door_color_assignment":["black","white"],"door_generator_assignment":[1,0],"goal":5,"start":1,"action_noise":0.2,"location_history":"[1,0,5]","action_history":"[1,0]","door_history":"[0,1]","location_rts":"[2208,464]","trial_type":"two-door-navigation","trial_index":19,"time_elapsed":365346,"internal_node_id":"0.0-2.0-17.0"},{"group":"hexagon_bi","room_assignment":["blue","red","green","grey","purple","yellow"],"door_color_assignment":["black","white"],"door_generator_assignment":[1,0],"goal":4,"start":5,"action_noise":0.2,"location_history":"[5,4]","action_history":"[1]","door_history":"[0]","location_rts":"[1004]","trial_type":"two-door-navigation","trial_index":20,"time_elapsed":370857,"internal_node_id":"0.0-2.0-18.0"},{"group":"hexagon_bi","room_assignment":["blue","red","green","grey","purple","yellow"],"door_color_assignment":["black","white"],"door_generator_assignment":[1,0],"goal":0,"start":4,"action_noise":0.2,"location_history":"[4,5,0]","action_history":"[1,0]","door_history":"[0,1]","location_rts":"[1777,1470]","trial_type":"two-door-navigation","trial_index":21,"time_elapsed":379620,"internal_node_id":"0.0-2.0-19.0"},{"group":"hexagon_bi","room_assignment":["blue","red","green","grey","purple","yellow"],"door_color_assignment":["black","white"],"door_generator_assignment":[1,0],"goal":1,"start":0,"action_noise":0.2,"location_history":"[0,1]","action_history":"[1]","door_history":"[0]","location_rts":"[1481]","trial_type":"two-door-navigation","trial_index":22,"time_elapsed":385604,"internal_node_id":"0.0-2.0-20.0"},{"group":"hexagon_bi","room_assignment":["blue","red","green","grey","purple","yellow"],"door_color_assignment":["black","white"],"door_generator_assignment":[1,0],"goal":3,"start":1,"action_noise":0.2,"location_history":"[1,0,1,0,5,4,5,4,3]","action_history":"[1,1,1,1,1,1,1,0]","door_history":"[0,0,0,0,0,0,0,1]","location_rts":"[1346,624,450,337,773,1347,500,598]","trial_type":"two-door-navigation","trial_index":23,"time_elapsed":403112,"internal_node_id":"0.0-2.0-21.0"},{"group":"hexagon_bi","room_assignment":["blue","red","green","grey","purple","yellow"],"door_color_assignment":["black","white"],"door_generator_assignment":[1,0],"goal":2,"start":3,"action_noise":0.2,"location_history":"[3,2]","action_history":"[1]","door_history":"[0]","location_rts":"[1459]","trial_type":"two-door-navigation","trial_index":24,"time_elapsed":409074,"internal_node_id":"0.0-2.0-22.0"},{"group":"hexagon_bi","room_assignment":["blue","red","green","grey","purple","yellow"],"door_color_assignment":["black","white"],"door_generator_assignment":[1,0],"goal":0,"start":2,"action_noise":0.2,"location_history":"[2,3,2,1,0]","action_history":"[1,1,0,1]","door_history":"[0,0,1,0]","location_rts":"[2026,803,1101,819]","trial_type":"two-door-navigation","trial_index":25,"time_elapsed":421351,"internal_node_id":"0.0-2.0-23.0"},{"group":"hexagon_bi","room_assignment":["blue","red","green","grey","purple","yellow"],"door_color_assignment":["black","white"],"door_generator_assignment":[1,0],"goal":3,"start":0,"action_noise":0.2,"location_history":"[0,5,4,5,4,3]","action_history":"[1,1,1,1,0]","door_history":"[0,0,0,0,1]","location_rts":"[2006,600,1589,284,444]","trial_type":"two-door-navigation","trial_index":26,"time_elapsed":434796,"internal_node_id":"0.0-2.0-24.0"},{"group":"hexagon_bi","room_assignment":["blue","red","green","grey","purple","yellow"],"door_color_assignment":["black","white"],"door_generator_assignment":[1,0],"goal":1,"start":3,"action_noise":0.2,"location_history":"[3,4,5,4,5,0,1]","action_history":"[0,1,1,1,0,1]","door_history":"[1,0,0,0,1,0]","location_rts":"[2642,977,2614,956,838,386]","trial_type":"two-door-navigation","trial_index":27,"time_elapsed":452731,"internal_node_id":"0.0-2.0-25.0"},{"group":"hexagon_bi","room_assignment":["blue","red","green","grey","purple","yellow"],"door_color_assignment":["black","white"],"door_generator_assignment":[1,0],"goal":2,"start":1,"action_noise":0.2,"location_history":"[1,0,1,0,1,0,5,0,1,0,1,2]","action_history":"[1,0,1,1,0,0,0,1,0,1,0]","door_history":"[0,1,0,0,1,1,1,0,1,0,1]","location_rts":"[2285,312,199,4928,1691,960,1484,380,1149,2412,671]","trial_type":"two-door-navigation","trial_index":28,"time_elapsed":483752,"internal_node_id":"0.0-2.0-26.0"},{"group":"hexagon_bi","room_assignment":["blue","red","green","grey","purple","yellow"],"door_color_assignment":["black","white"],"door_generator_assignment":[1,0],"goal":5,"start":2,"action_noise":0.2,"location_history":"[2,3,2,3,4,3,4,5]","action_history":"[1,1,1,0,1,0,1]","door_history":"[0,0,0,1,0,1,0]","location_rts":"[3258,1845,1140,521,1126,1098,1053]","trial_type":"two-door-navigation","trial_index":29,"time_elapsed":504316,"internal_node_id":"0.0-2.0-27.0"},{"group":"hexagon_bi","room_assignment":["blue","red","green","grey","purple","yellow"],"door_color_assignment":["black","white"],"door_generator_assignment":[1,0],"goal":4,"start":5,"action_noise":0.2,"location_history":"[5,0,1,0,1,0,1,2,1,0,5,0,1,0,1,2,3,4]","action_history":"[0,1,1,1,1,1,0,1,0,1,0,1,1,1,0,1,0]","door_history":"[1,0,0,0,0,0,1,0,1,0,1,0,0,0,1,0,1]","location_rts":"[3543,140,2812,2044,1237,720,1149,227,1668,256,1712,1048,395,378,1736,475,828]","trial_type":"two-door-navigation","trial_index":30,"time_elapsed":545227,"internal_node_id":"0.0-2.0-28.0"},{"group":"hexagon_bi","room_assignment":["blue","red","green","grey","purple","yellow"],"door_color_assignment":["black","white"],"door_generator_assignment":[1,0],"goal":5,"start":4,"action_noise":0.2,"location_history":"[4,3,2,1,0,5]","action_history":"[1,0,0,1,0]","door_history":"[0,1,1,0,1]","location_rts":"[3120,1090,1544,2611,714]","trial_type":"two-door-navigation","trial_index":31,"time_elapsed":562828,"internal_node_id":"0.0-2.0-29.0"},{"group":"hexagon_bi","room_assignment":["blue","red","green","grey","purple","yellow"],"door_color_assignment":["black","white"],"door_generator_assignment":[1,0],"goal":3,"start":5,"action_noise":0.2,"location_history":"[5,0,5,4,3]","action_history":"[0,1,1,0]","door_history":"[1,0,0,1]","location_rts":"[5268,633,1410,2139]","trial_type":"two-door-navigation","trial_index":32,"time_elapsed":579795,"internal_node_id":"0.0-2.0-30.0"},{"group":"hexagon_bi","room_assignment":["blue","red","green","grey","purple","yellow"],"door_color_assignment":["black","white"],"door_generator_assignment":[1,0],"goal":0,"start":3,"action_noise":0.2,"location_history":"[3,2,3,4,5,0]","action_history":"[1,1,0,1,0]","door_history":"[0,0,1,0,1]","location_rts":"[1545,2899,1028,1030,1225]","trial_type":"two-door-navigation","trial_index":33,"time_elapsed":596049,"internal_node_id":"0.0-2.0-31.0"},{"group":"hexagon_bi","room_assignment":["blue","red","green","grey","purple","yellow"],"door_color_assignment":["black","white"],"door_generator_assignment":[1,0],"goal":4,"start":0,"action_noise":0.2,"location_history":"[0,5,4]","action_history":"[0,1]","door_history":"[1,0]","location_rts":"[1340,383]","trial_type":"two-door-navigation","trial_index":34,"time_elapsed":603284,"internal_node_id":"0.0-2.0-32.0"},{"group":"hexagon_bi","room_assignment":["blue","red","green","grey","purple","yellow"],"door_color_assignment":["black","white"],"door_generator_assignment":[1,0],"goal":1,"start":4,"action_noise":0.2,"location_history":"[4,3,2,3,4,5,0,1]","action_history":"[0,1,0,0,1,0,1]","door_history":"[1,0,1,1,0,1,0]","location_rts":"[1871,208,4297,2250,147,1236,391]","trial_type":"two-door-navigation","trial_index":35,"time_elapsed":624216,"internal_node_id":"0.0-2.0-33.0"},{"group":"hexagon_bi","room_assignment":["blue","red","green","grey","purple","yellow"],"door_color_assignment":["black","white"],"door_generator_assignment":[1,0],"goal":2,"start":1,"action_noise":0.2,"location_history":"[1,2]","action_history":"[0]","door_history":"[1]","location_rts":"[2389]","trial_type":"two-door-navigation","trial_index":36,"time_elapsed":631108,"internal_node_id":"0.0-2.0-34.0"},{"group":"hexagon_bi","room_assignment":["blue","red","green","grey","purple","yellow"],"door_color_assignment":["black","white"],"door_generator_assignment":[1,0],"goal":0,"start":2,"action_noise":0.2,"location_history":"[2,3,4,5,0]","action_history":"[1,0,1,0]","door_history":"[0,1,0,1]","location_rts":"[3821,819,221,1088]","trial_type":"two-door-navigation","trial_index":37,"time_elapsed":644568,"internal_node_id":"0.0-2.0-35.0"},{"group":"hexagon_bi","room_assignment":["blue","red","green","grey","purple","yellow"],"door_color_assignment":["black","white"],"door_generator_assignment":[1,0],"goal":5,"start":0,"action_noise":0.2,"location_history":"[0,5]","action_history":"[0]","door_history":"[1]","location_rts":"[1250]","trial_type":"two-door-navigation","trial_index":38,"time_elapsed":650325,"internal_node_id":"0.0-2.0-36.0"},{"group":"hexagon_bi","room_assignment":["blue","red","green","grey","purple","yellow"],"door_color_assignment":["black","white"],"door_generator_assignment":[1,0],"goal":2,"start":5,"action_noise":0.2,"location_history":"[5,0,5,4,5,0,1,2]","action_history":"[1,0,1,1,0,1,0]","door_history":"[0,1,0,0,1,0,1]","location_rts":"[3354,1125,1034,1755,3096,326,1680]","trial_type":"two-door-navigation","trial_index":39,"time_elapsed":673228,"internal_node_id":"0.0-2.0-37.0"},{"group":"hexagon_bi","room_assignment":["blue","red","green","grey","purple","yellow"],"door_color_assignment":["black","white"],"door_generator_assignment":[1,0],"goal":1,"start":2,"action_noise":0.2,"location_history":"[2,3,4,5,4,5,0,5,0,1]","action_history":"[0,0,1,1,1,0,1,0,1]","door_history":"[1,1,0,0,0,1,0,1,0]","location_rts":"[14300,1038,831,7211,1254,840,1637,1542,331]","trial_type":"two-door-navigation","trial_index":40,"time_elapsed":714749,"internal_node_id":"0.0-2.0-38.0"},{"group":"hexagon_bi","room_assignment":["blue","red","green","grey","purple","yellow"],"door_color_assignment":["black","white"],"door_generator_assignment":[1,0],"goal":4,"start":1,"action_noise":0.2,"location_history":"[1,0,1,2,1,0,5,4]","action_history":"[0,1,1,1,1,0,1]","door_history":"[1,0,0,0,0,1,0]","location_rts":"[6354,357,1859,2367,1922,1434,474]","trial_type":"two-door-navigation","trial_index":41,"time_elapsed":740035,"internal_node_id":"0.0-2.0-39.0"},{"group":"hexagon_bi","room_assignment":["blue","red","green","grey","purple","yellow"],"door_color_assignment":["black","white"],"door_generator_assignment":[1,0],"goal":3,"start":4,"action_noise":0.2,"location_history":"[4,3]","action_history":"[0]","door_history":"[1]","location_rts":"[3531]","trial_type":"two-door-navigation","trial_index":42,"time_elapsed":748070,"internal_node_id":"0.0-2.0-40.0"},{"group":"hexagon_bi","room_assignment":["blue","red","green","grey","purple","yellow"],"door_color_assignment":["black","white"],"door_generator_assignment":[1,0],"goal":5,"start":3,"action_noise":0.2,"location_history":"[3,4,5]","action_history":"[0,1]","door_history":"[1,0]","location_rts":"[6314,259]","trial_type":"two-door-navigation","trial_index":43,"time_elapsed":760149,"internal_node_id":"0.0-2.0-41.0"},{"group":"hexagon_bi","room_assignment":["blue","red","green","grey","purple","yellow"],"door_color_assignment":["black","white"],"door_generator_assignment":[1,0],"goal":3,"start":5,"action_noise":0.2,"location_history":"[5,4,3]","action_history":"[1,0]","door_history":"[0,1]","location_rts":"[2791,486]","trial_type":"two-door-navigation","trial_index":44,"time_elapsed":768943,"internal_node_id":"0.0-2.0-42.0"},{"group":"hexagon_bi","room_assignment":["blue","red","green","grey","purple","yellow"],"door_color_assignment":["black","white"],"door_generator_assignment":[1,0],"goal":0,"start":3,"action_noise":0.2,"location_history":"[3,4,5,0]","action_history":"[0,1,0]","door_history":"[1,0,1]","location_rts":"[3802,226,293]","trial_type":"two-door-navigation","trial_index":45,"time_elapsed":779778,"internal_node_id":"0.0-2.0-43.0"},{"group":"hexagon_bi","room_assignment":["blue","red","green","grey","purple","yellow"],"door_color_assignment":["black","white"],"door_generator_assignment":[1,0],"goal":2,"start":0,"action_noise":0.2,"location_history":"[0,1,2]","action_history":"[1,0]","door_history":"[0,1]","location_rts":"[7332,610]","trial_type":"two-door-navigation","trial_index":46,"time_elapsed":793226,"internal_node_id":"0.0-2.0-44.0"},{"group":"hexagon_bi","room_assignment":["blue","red","green","grey","purple","yellow"],"door_color_assignment":["black","white"],"door_generator_assignment":[1,0],"goal":4,"start":2,"action_noise":0.2,"location_history":"[2,3,4]","action_history":"[1,0]","door_history":"[0,1]","location_rts":"[1683,620]","trial_type":"two-door-navigation","trial_index":47,"time_elapsed":801037,"internal_node_id":"0.0-2.0-45.0"},{"group":"hexagon_bi","room_assignment":["blue","red","green","grey","purple","yellow"],"door_color_assignment":["black","white"],"door_generator_assignment":[1,0],"goal":1,"start":4,"action_noise":0.2,"location_history":"[4,5,0,1]","action_history":"[1,0,1]","door_history":"[0,1,0]","location_rts":"[1468,406,1196]","trial_type":"two-door-navigation","trial_index":48,"time_elapsed":810614,"internal_node_id":"0.0-2.0-46.0"},{"group":"hexagon_bi","room_assignment":["blue","red","green","grey","purple","yellow"],"door_color_assignment":["black","white"],"door_generator_assignment":[1,0],"goal":4,"start":1,"action_noise":0.2,"location_history":"[1,0,5,4]","action_history":"[1,0,1]","door_history":"[0,1,0]","location_rts":"[3927,2852,933]","trial_type":"two-door-navigation","trial_index":49,"time_elapsed":824842,"internal_node_id":"0.0-2.0-47.0"},{"group":"hexagon_bi","room_assignment":["blue","red","green","grey","purple","yellow"],"door_color_assignment":["black","white"],"door_generator_assignment":[1,0],"goal":1,"start":4,"action_noise":0.2,"location_history":"[4,5,0,1]","action_history":"[1,0,1]","door_history":"[0,1,0]","location_rts":"[1231,2350,205]","trial_type":"two-door-navigation","trial_index":50,"time_elapsed":835138,"internal_node_id":"0.0-2.0-48.0"},{"group":"hexagon_bi","room_assignment":["blue","red","green","grey","purple","yellow"],"door_color_assignment":["black","white"],"door_generator_assignment":[1,0],"goal":3,"start":1,"action_noise":0.2,"location_history":"[1,0,1,2,3]","action_history":"[1,1,0,1]","door_history":"[0,0,1,0]","location_rts":"[1428,1198,709,537]","trial_type":"two-door-navigation","trial_index":51,"time_elapsed":846519,"internal_node_id":"0.0-2.0-49.0"},{"group":"hexagon_bi","room_assignment":["blue","red","green","grey","purple","yellow"],"door_color_assignment":["black","white"],"door_generator_assignment":[1,0],"goal":5,"start":3,"action_noise":0.2,"location_history":"[3,4,5]","action_history":"[0,1]","door_history":"[1,0]","location_rts":"[1609,160]","trial_type":"two-door-navigation","trial_index":52,"time_elapsed":853797,"internal_node_id":"0.0-2.0-50.0"},{"group":"hexagon_bi","room_assignment":["blue","red","green","grey","purple","yellow"],"door_color_assignment":["black","white"],"door_generator_assignment":[1,0],"goal":0,"start":5,"action_noise":0.2,"location_history":"[5,0]","action_history":"[0]","door_history":"[1]","location_rts":"[2210]","trial_type":"two-door-navigation","trial_index":53,"time_elapsed":860511,"internal_node_id":"0.0-2.0-51.0"},{"group":"hexagon_bi","room_assignment":["blue","red","green","grey","purple","yellow"],"door_color_assignment":["black","white"],"door_generator_assignment":[1,0],"goal":2,"start":0,"action_noise":0.2,"location_history":"[0,5,4,5,0,1,2]","action_history":"[0,1,1,0,1,0]","door_history":"[1,0,0,1,0,1]","location_rts":"[1400,724,981,2993,94,1219]","trial_type":"two-door-navigation","trial_index":54,"time_elapsed":877450,"internal_node_id":"0.0-2.0-52.0"},{"group":"hexagon_bi","room_assignment":["blue","red","green","grey","purple","yellow"],"door_color_assignment":["black","white"],"door_generator_assignment":[1,0],"goal":1,"start":2,"action_noise":0.2,"location_history":"[2,1]","action_history":"[0]","door_history":"[1]","location_rts":"[1888]","trial_type":"two-door-navigation","trial_index":55,"time_elapsed":883844,"internal_node_id":"0.0-2.0-53.0"},{"group":"hexagon_bi","room_assignment":["blue","red","green","grey","purple","yellow"],"door_color_assignment":["black","white"],"door_generator_assignment":[1,0],"goal":2,"start":1,"action_noise":0.2,"location_history":"[1,2]","action_history":"[0]","door_history":"[1]","location_rts":"[2388]","trial_type":"two-door-navigation","trial_index":56,"time_elapsed":890737,"internal_node_id":"0.0-2.0-54.0"},{"group":"hexagon_bi","room_assignment":["blue","red","green","grey","purple","yellow"],"door_color_assignment":["black","white"],"door_generator_assignment":[1,0],"goal":5,"start":2,"action_noise":0.2,"location_history":"[2,1,2,3,4,5]","action_history":"[1,0,1,0,1]","door_history":"[0,1,0,1,0]","location_rts":"[3568,569,4598,1016,42]","trial_type":"two-door-navigation","trial_index":57,"time_elapsed":909049,"internal_node_id":"0.0-2.0-55.0"},{"group":"hexagon_bi","room_assignment":["blue","red","green","grey","purple","yellow"],"door_color_assignment":["black","white"],"door_generator_assignment":[1,0],"goal":4,"start":5,"action_noise":0.2,"location_history":"[5,0,1,0,1,2,1,0,5,4]","action_history":"[0,1,1,0,1,0,1,0,1]","door_history":"[1,0,0,1,0,1,0,1,0]","location_rts":"[800,403,679,872,167,3864,3030,643,394]","trial_type":"two-door-navigation","trial_index":58,"time_elapsed":932432,"internal_node_id":"0.0-2.0-56.0"},{"group":"hexagon_bi","room_assignment":["blue","red","green","grey","purple","yellow"],"door_color_assignment":["black","white"],"door_generator_assignment":[1,0],"goal":3,"start":4,"action_noise":0.2,"location_history":"[4,3]","action_history":"[0]","door_history":"[1]","location_rts":"[1203]","trial_type":"two-door-navigation","trial_index":59,"time_elapsed":938141,"internal_node_id":"0.0-2.0-57.0"},{"group":"hexagon_bi","room_assignment":["blue","red","green","grey","purple","yellow"],"door_color_assignment":["black","white"],"door_generator_assignment":[1,0],"goal":0,"start":3,"action_noise":0.2,"location_history":"[3,2,1,2,1,0]","action_history":"[1,0,1,0,1]","door_history":"[0,1,0,1,0]","location_rts":"[5132,4238,616,1017,220]","trial_type":"two-door-navigation","trial_index":60,"time_elapsed":957886,"internal_node_id":"0.0-2.0-58.0"},{"group":"hexagon_bi","room_assignment":["blue","red","green","grey","purple","yellow"],"door_color_assignment":["black","white"],"door_generator_assignment":[1,0],"goal":2,"start":0,"action_noise":0.2,"location_history":"[0,1,0,1,2]","action_history":"[0,1,1,0]","door_history":"[1,0,0,1]","location_rts":"[4763,359,5411,1397]","trial_type":"two-door-navigation","trial_index":61,"time_elapsed":977331,"internal_node_id":"0.0-2.0-59.0"},{"group":"hexagon_bi","room_assignment":["blue","red","green","grey","purple","yellow"],"door_color_assignment":["black","white"],"door_generator_assignment":[1,0],"goal":1,"start":2,"action_noise":0.2,"location_history":"[2,3,2,1]","action_history":"[0,1,0]","door_history":"[1,0,1]","location_rts":"[1138,2547,1109]","trial_type":"two-door-navigation","trial_index":62,"time_elapsed":988640,"internal_node_id":"0.0-2.0-60.0"},{"group":"hexagon_bi","room_assignment":["blue","red","green","grey","purple","yellow"],"door_color_assignment":["black","white"],"door_generator_assignment":[1,0],"goal":0,"start":1,"action_noise":0.2,"location_history":"[1,2,1,0]","action_history":"[0,0,1]","door_history":"[1,1,0]","location_rts":"[7078,507,324]","trial_type":"two-door-navigation","trial_index":63,"time_elapsed":1003060,"internal_node_id":"0.0-2.0-61.0"},{"group":"hexagon_bi","room_assignment":["blue","red","green","grey","purple","yellow"],"door_color_assignment":["black","white"],"door_generator_assignment":[1,0],"goal":3,"start":0,"action_noise":0.2,"location_history":"[0,5,4,3]","action_history":"[0,1,0]","door_history":"[1,0,1]","location_rts":"[9658,862,299]","trial_type":"two-door-navigation","trial_index":64,"time_elapsed":1020387,"internal_node_id":"0.0-2.0-62.0"},{"group":"hexagon_bi","room_assignment":["blue","red","green","grey","purple","yellow"],"door_color_assignment":["black","white"],"door_generator_assignment":[1,0],"goal":5,"start":3,"action_noise":0.2,"location_history":"[3,2,1,2,3,2,3,2,1,0,5]","action_history":"[1,0,1,0,0,1,1,0,1,0]","door_history":"[0,1,0,1,1,0,0,1,0,1]","location_rts":"[1458,390,787,809,888,789,2862,511,1843,314]","trial_type":"two-door-navigation","trial_index":65,"time_elapsed":1044583,"internal_node_id":"0.0-2.0-63.0"},{"group":"hexagon_bi","room_assignment":["blue","red","green","grey","purple","yellow"],"door_color_assignment":["black","white"],"door_generator_assignment":[1,0],"goal":4,"start":5,"action_noise":0.2,"location_history":"[5,4]","action_history":"[1]","door_history":"[0]","location_rts":"[12081]","trial_type":"two-door-navigation","trial_index":66,"time_elapsed":1061170,"internal_node_id":"0.0-2.0-64.0"},{"group":"hexagon_bi","room_assignment":["blue","red","green","grey","purple","yellow"],"door_color_assignment":["black","white"],"door_generator_assignment":[1,0],"goal":1,"start":4,"action_noise":0.2,"location_history":"[4,3,4,5,4,3,2,3,4,5,0,5,0,1]","action_history":"[0,1,0,1,0,0,1,0,1,0,1,0,1]","door_history":"[1,0,1,0,1,1,0,1,0,1,0,1,0]","location_rts":"[1638,1722,1611,106,931,623,34,3390,942,3519,1294,1465,359]","trial_type":"two-door-navigation","trial_index":67,"time_elapsed":1095362,"internal_node_id":"0.0-2.0-65.0"},{"group":"hexagon_bi","room_assignment":["blue","red","green","grey","purple","yellow"],"door_color_assignment":["black","white"],"door_generator_assignment":[1,0],"goal":5,"start":1,"action_noise":0.2,"location_history":"[1,2,3,2,3,2,3,2,1,0,5]","action_history":"[1,0,0,1,0,1,1,0,1,0]","door_history":"[0,1,1,0,1,0,0,1,0,1]","location_rts":"[11044,1376,767,484,945,479,2186,489,1480,303]","trial_type":"two-door-navigation","trial_index":68,"time_elapsed":1128460,"internal_node_id":"0.0-2.0-66.0"},{"group":"hexagon_bi","room_assignment":["blue","red","green","grey","purple","yellow"],"door_color_assignment":["black","white"],"door_generator_assignment":[1,0],"goal":2,"start":5,"action_noise":0.2,"location_history":"[5,0,1,2]","action_history":"[1,0,0]","door_history":"[0,1,1]","location_rts":"[4588,467,3072]","trial_type":"two-door-navigation","trial_index":69,"time_elapsed":1143094,"internal_node_id":"0.0-2.0-67.0"},{"group":"hexagon_bi","room_assignment":["blue","red","green","grey","purple","yellow"],"door_color_assignment":["black","white"],"door_generator_assignment":[1,0],"goal":3,"start":2,"action_noise":0.2,"location_history":"[2,3]","action_history":"[1]","door_history":"[0]","location_rts":"[2241]","trial_type":"two-door-navigation","trial_index":70,"time_elapsed":1149842,"internal_node_id":"0.0-2.0-68.0"},{"group":"hexagon_bi","room_assignment":["blue","red","green","grey","purple","yellow"],"door_color_assignment":["black","white"],"door_generator_assignment":[1,0],"goal":4,"start":3,"action_noise":0.2,"location_history":"[3,2,3,4]","action_history":"[0,0,0]","door_history":"[1,1,1]","location_rts":"[1617,1132,847]","trial_type":"two-door-navigation","trial_index":71,"time_elapsed":1159950,"internal_node_id":"0.0-2.0-69.0"},{"group":"hexagon_bi","room_assignment":["blue","red","green","grey","purple","yellow"],"door_color_assignment":["black","white"],"door_generator_assignment":[1,0],"goal":0,"start":4,"action_noise":0.2,"location_history":"[4,3,4,3,4,3,2,1,2,3,4,5,0]","action_history":"[1,0,1,0,1,1,0,1,0,0,1,0]","door_history":"[0,1,0,1,0,0,1,0,1,1,0,1]","location_rts":"[1683,1681,762,1428,261,332,770,779,756,939,1311,2793]","trial_type":"two-door-navigation","trial_index":72,"time_elapsed":1188992,"internal_node_id":"0.0-2.0-70.0"},{"group":"hexagon_bi","room_assignment":["blue","red","green","grey","purple","yellow"],"door_color_assignment":["black","white"],"door_generator_assignment":[1,0],"goal":5,"start":0,"action_noise":0.2,"location_history":"[0,5]","action_history":"[0]","door_history":"[1]","location_rts":"[9172]","trial_type":"two-door-navigation","trial_index":73,"time_elapsed":1202669,"internal_node_id":"0.0-2.0-71.0"},{"group":"hexagon_bi","room_assignment":["blue","red","green","grey","purple","yellow"],"door_color_assignment":["black","white"],"door_generator_assignment":[1,0],"goal":0,"start":5,"action_noise":0.2,"location_history":"[5,0]","action_history":"[0]","door_history":"[1]","location_rts":"[2238]","trial_type":"two-door-navigation","trial_index":74,"time_elapsed":1209411,"internal_node_id":"0.0-2.0-72.0"},{"group":"hexagon_bi","room_assignment":["blue","red","green","grey","purple","yellow"],"door_color_assignment":["black","white"],"door_generator_assignment":[1,0],"goal":3,"start":0,"action_noise":0.2,"location_history":"[0,1,0,1,2,1,0,5,0,5,4,5,0,5,4,3]","action_history":"[1,1,0,0,0,1,0,1,0,1,0,0,0,1,0]","door_history":"[0,0,1,1,1,0,1,0,1,0,1,1,1,0,1]","location_rts":"[7368,4738,5539,762,1038,1630,375,573,935,407,970,803,559,152,599]","trial_type":"two-door-navigation","trial_index":75,"time_elapsed":1254414,"internal_node_id":"0.0-2.0-73.0"},{"group":"hexagon_bi","room_assignment":["blue","red","green","grey","purple","yellow"],"door_color_assignment":["black","white"],"door_generator_assignment":[1,0],"goal":1,"start":3,"action_noise":0.2,"location_history":"[3,2,1]","action_history":"[1,0]","door_history":"[0,1]","location_rts":"[1916,783]","trial_type":"two-door-navigation","trial_index":76,"time_elapsed":1262622,"internal_node_id":"0.0-2.0-74.0"},{"group":"hexagon_bi","room_assignment":["blue","red","green","grey","purple","yellow"],"door_color_assignment":["black","white"],"door_generator_assignment":[1,0],"goal":2,"start":1,"action_noise":0.2,"location_history":"[1,2]","action_history":"[0]","door_history":"[1]","location_rts":"[4094]","trial_type":"two-door-navigation","trial_index":77,"time_elapsed":1271222,"internal_node_id":"0.0-2.0-75.0"},{"group":"hexagon_bi","room_assignment":["blue","red","green","grey","purple","yellow"],"door_color_assignment":["black","white"],"door_generator_assignment":[1,0],"goal":4,"start":2,"action_noise":0.2,"location_history":"[2,3,2,3,4]","action_history":"[1,0,1,0]","door_history":"[0,1,0,1]","location_rts":"[3908,446,943,304]","trial_type":"two-door-navigation","trial_index":78,"time_elapsed":1284334,"internal_node_id":"0.0-2.0-76.0"},{"group":"hexagon_bi","room_assignment":["blue","red","green","grey","purple","yellow"],"door_color_assignment":["black","white"],"door_generator_assignment":[1,0],"goal":3,"start":4,"action_noise":0.2,"location_history":"[4,3]","action_history":"[0]","door_history":"[1]","location_rts":"[1680]","trial_type":"two-door-navigation","trial_index":79,"time_elapsed":1290521,"internal_node_id":"0.0-2.0-77.0"},{"group":"hexagon_bi","room_assignment":["blue","red","green","grey","purple","yellow"],"door_color_assignment":["black","white"],"door_generator_assignment":[1,0],"goal":0,"start":3,"action_noise":0.2,"location_history":"[3,4,5,0]","action_history":"[0,1,0]","door_history":"[1,0,1]","location_rts":"[3765,200,537]","trial_type":"two-door-navigation","trial_index":80,"time_elapsed":1301535,"internal_node_id":"0.0-2.0-78.0"},{"group":"hexagon_bi","room_assignment":["blue","red","green","grey","purple","yellow"],"door_color_assignment":["black","white"],"door_generator_assignment":[1,0],"goal":4,"start":0,"action_noise":0.2,"location_history":"[0,1,0,5,0,5,4]","action_history":"[0,1,0,1,0,1]","door_history":"[1,0,1,0,1,0]","location_rts":"[3989,2505,1115,1521,4711,771]","trial_type":"two-door-navigation","trial_index":81,"time_elapsed":1325668,"internal_node_id":"0.0-2.0-79.0"},{"group":"hexagon_bi","room_assignment":["blue","red","green","grey","purple","yellow"],"door_color_assignment":["black","white"],"door_generator_assignment":[1,0],"goal":5,"start":4,"action_noise":0.2,"location_history":"[4,5]","action_history":"[1]","door_history":"[0]","location_rts":"[3491]","trial_type":"two-door-navigation","trial_index":82,"time_elapsed":1333662,"internal_node_id":"0.0-2.0-80.0"},{"group":"hexagon_bi","room_assignment":["blue","red","green","grey","purple","yellow"],"door_color_assignment":["black","white"],"door_generator_assignment":[1,0],"goal":1,"start":5,"action_noise":0.2,"location_history":"[5,4,3,2,1]","action_history":"[1,0,1,0]","door_history":"[0,1,0,1]","location_rts":"[3840,2562,259,786]","trial_type":"two-door-navigation","trial_index":83,"time_elapsed":1348626,"internal_node_id":"0.0-2.0-81.0"},{"group":"hexagon_bi","room_assignment":["blue","red","green","grey","purple","yellow"],"door_color_assignment":["black","white"],"door_generator_assignment":[1,0],"goal":2,"start":1,"action_noise":0.2,"location_history":"[1,2]","action_history":"[0]","door_history":"[1]","location_rts":"[2707]","trial_type":"two-door-navigation","trial_index":84,"time_elapsed":1355840,"internal_node_id":"0.0-2.0-82.0"},{"group":"hexagon_bi","room_assignment":["blue","red","green","grey","purple","yellow"],"door_color_assignment":["black","white"],"door_generator_assignment":[1,0],"goal":4,"start":2,"action_noise":0.2,"location_history":"[2,1,0,1,0,5,0,1,2,3,4]","action_history":"[0,1,1,1,1,0,0,0,1,0]","door_history":"[1,0,0,0,0,1,1,1,0,1]","location_rts":"[4224,330,3508,3180,587,266,345,751,709,1304]","trial_type":"two-door-navigation","trial_index":85,"time_elapsed":1384578,"internal_node_id":"0.0-2.0-83.0"},{"group":"hexagon_bi","room_assignment":["blue","red","green","grey","purple","yellow"],"door_color_assignment":["black","white"],"door_generator_assignment":[1,0],"goal":0,"start":4,"action_noise":0.2,"location_history":"[4,5,0]","action_history":"[1,0]","door_history":"[0,1]","location_rts":"[6395,496]","trial_type":"two-door-navigation","trial_index":86,"time_elapsed":1396977,"internal_node_id":"0.0-2.0-84.0"},{"group":"hexagon_bi","room_assignment":["blue","red","green","grey","purple","yellow"],"door_color_assignment":["black","white"],"door_generator_assignment":[1,0],"goal":5,"start":0,"action_noise":0.2,"location_history":"[0,1,2,1,0,5]","action_history":"[0,0,0,1,0]","door_history":"[1,1,1,0,1]","location_rts":"[1525,858,1667,1322,811]","trial_type":"two-door-navigation","trial_index":87,"time_elapsed":1411675,"internal_node_id":"0.0-2.0-85.0"},{"group":"hexagon_bi","room_assignment":["blue","red","green","grey","purple","yellow"],"door_color_assignment":["black","white"],"door_generator_assignment":[1,0],"goal":3,"start":5,"action_noise":0.2,"location_history":"[5,4,3]","action_history":"[1,0]","door_history":"[0,1]","location_rts":"[2326,789]","trial_type":"two-door-navigation","trial_index":88,"time_elapsed":1420299,"internal_node_id":"0.0-2.0-86.0"},{"group":"hexagon_bi","room_assignment":["blue","red","green","grey","purple","yellow"],"door_color_assignment":["black","white"],"door_generator_assignment":[1,0],"goal":1,"start":3,"action_noise":0.2,"location_history":"[3,2,1]","action_history":"[1,0]","door_history":"[0,1]","location_rts":"[5589,473]","trial_type":"two-door-navigation","trial_index":89,"time_elapsed":1431869,"internal_node_id":"0.0-2.0-87.0"},{"group":"hexagon_bi","room_assignment":["blue","red","green","grey","purple","yellow"],"door_color_assignment":["black","white"],"door_generator_assignment":[1,0],"goal":2,"start":1,"action_noise":0.2,"location_history":"[1,2]","action_history":"[0]","door_history":"[1]","location_rts":"[1234]","trial_type":"two-door-navigation","trial_index":90,"time_elapsed":1437607,"internal_node_id":"0.0-2.0-88.0"},{"group":"hexagon_bi","room_assignment":["blue","red","green","grey","purple","yellow"],"door_color_assignment":["black","white"],"door_generator_assignment":[1,0],"goal":0,"start":2,"action_noise":0.2,"location_history":"[2,3,2,3,4,5,0]","action_history":"[1,0,1,0,1,0]","door_history":"[0,1,0,1,0,1]","location_rts":"[2636,1108,283,740,437,400]","trial_type":"two-door-navigation","trial_index":91,"time_elapsed":1452736,"internal_node_id":"0.0-2.0-89.0"},{"group":"hexagon_bi","room_assignment":["blue","red","green","grey","purple","yellow"],"door_color_assignment":["black","white"],"door_generator_assignment":[1,0],"goal":5,"start":0,"action_noise":0.2,"location_history":"[0,5]","action_history":"[0]","door_history":"[1]","location_rts":"[1758]","trial_type":"two-door-navigation","trial_index":92,"time_elapsed":1458999,"internal_node_id":"0.0-2.0-90.0"},{"group":"hexagon_bi","room_assignment":["blue","red","green","grey","purple","yellow"],"door_color_assignment":["black","white"],"door_generator_assignment":[1,0],"goal":1,"start":5,"action_noise":0.2,"location_history":"[5,4,3,2,1]","action_history":"[1,0,1,0]","door_history":"[0,1,0,1]","location_rts":"[1602,2065,295,613]","trial_type":"two-door-navigation","trial_index":93,"time_elapsed":1471093,"internal_node_id":"0.0-2.0-91.0"},{"group":"hexagon_bi","room_assignment":["blue","red","green","grey","purple","yellow"],"door_color_assignment":["black","white"],"door_generator_assignment":[1,0],"goal":3,"start":1,"action_noise":0.2,"location_history":"[1,2,1,2,3]","action_history":"[0,1,0,1]","door_history":"[1,0,1,0]","location_rts":"[3202,316,638,267]","trial_type":"two-door-navigation","trial_index":94,"time_elapsed":1483032,"internal_node_id":"0.0-2.0-92.0"},{"group":"hexagon_bi","room_assignment":["blue","red","green","grey","purple","yellow"],"door_color_assignment":["black","white"],"door_generator_assignment":[1,0],"goal":4,"start":3,"action_noise":0.2,"location_history":"[3,2,3,4]","action_history":"[1,1,0]","door_history":"[0,0,1]","location_rts":"[1722,3216,257]","trial_type":"two-door-navigation","trial_index":95,"time_elapsed":1494739,"internal_node_id":"0.0-2.0-93.0"},{"group":"hexagon_bi","room_assignment":["blue","red","green","grey","purple","yellow"],"door_color_assignment":["black","white"],"door_generator_assignment":[1,0],"goal":2,"start":4,"action_noise":0.2,"location_history":"[4,5,0,5,4,3,2]","action_history":"[0,0,0,1,0,1]","door_history":"[1,1,1,0,1,0]","location_rts":"[2566,574,995,86,607,288]","trial_type":"two-door-navigation","trial_index":96,"time_elapsed":1509369,"internal_node_id":"0.0-2.0-94.0"},{"group":"hexagon_bi","room_assignment":["blue","red","green","grey","purple","yellow"],"door_color_assignment":["black","white"],"door_generator_assignment":[1,0],"goal":4,"start":2,"action_noise":0.2,"location_history":"[2,1,2,1,2,3,2,1,2,1,2,3,4]","action_history":"[1,0,1,0,1,0,1,0,1,0,1,0]","door_history":"[0,1,0,1,0,1,0,1,0,1,0,1]","location_rts":"[1952,185,774,1518,340,401,1018,1032,296,654,503,361]","trial_type":"two-door-navigation","trial_index":97,"time_elapsed":1533946,"internal_node_id":"0.0-2.0-95.0"},{"group":"hexagon_bi","room_assignment":["blue","red","green","grey","purple","yellow"],"door_color_assignment":["black","white"],"door_generator_assignment":[1,0],"goal":0,"start":4,"action_noise":0.2,"location_history":"[4,5,4,5,0]","action_history":"[1,0,1,0]","door_history":"[0,1,0,1]","location_rts":"[4457,448,1802,339]","trial_type":"two-door-navigation","trial_index":98,"time_elapsed":1548506,"internal_node_id":"0.0-2.0-96.0"},{"group":"hexagon_bi","room_assignment":["blue","red","green","grey","purple","yellow"],"door_color_assignment":["black","white"],"door_generator_assignment":[1,0],"goal":5,"start":0,"action_noise":0.2,"location_history":"[0,5]","action_history":"[0]","door_history":"[1]","location_rts":"[2019]","trial_type":"two-door-navigation","trial_index":99,"time_elapsed":1555030,"internal_node_id":"0.0-2.0-97.0"},{"group":"hexagon_bi","room_assignment":["blue","red","green","grey","purple","yellow"],"door_color_assignment":["black","white"],"door_generator_assignment":[1,0],"goal":1,"start":5,"action_noise":0.2,"location_history":"[5,4,3,2,1]","action_history":"[1,0,1,0]","door_history":"[0,1,0,1]","location_rts":"[3499,2573,274,647]","trial_type":"two-door-navigation","trial_index":100,"time_elapsed":1569543,"internal_node_id":"0.0-2.0-98.0"},{"group":"hexagon_bi","room_assignment":["blue","red","green","grey","purple","yellow"],"door_color_assignment":["black","white"],"door_generator_assignment":[1,0],"goal":3,"start":1,"action_noise":0.2,"location_history":"[1,2,3]","action_history":"[1,1]","door_history":"[0,0]","location_rts":"[2780,1064]","trial_type":"two-door-navigation","trial_index":101,"time_elapsed":1578898,"internal_node_id":"0.0-2.0-99.0"},{"view_history":"[{\"page_index\":0,\"viewing_time\":5517}]","rt":5517,"trial_type":"instructions","trial_index":102,"time_elapsed":1585416,"internal_node_id":"0.0-3.0"},{"view_history":"[{\"page_index\":0,\"viewing_time\":1776},{\"page_index\":1,\"viewing_time\":13350}]","rt":15126,"trial_type":"instructions","trial_index":103,"time_elapsed":1601542,"internal_node_id":"0.0-4.0"},{"group":"hexagon_tri","fractal_assignment":["../images/gry_blk.png","../images/blu_wht.png","../images/pnk_blu.png","../images/ylw_slt.png","../images/org_blu.png","../images/cyn_red.png"],"mutagen_generator_assignment":[1,0],"goal":4,"start":0,"action_noise":0.2,"location_history":"[0,1,3,4]","action_history":"[1,0,0]","mutagen_history":"[0,1,1]","location_rts":"[5389,1617,1711]","trial_type":"fractal-mutation","trial_index":104,"time_elapsed":1616804,"internal_node_id":"0.0-5.0-0.0"},{"group":"hexagon_tri","fractal_assignment":["../images/gry_blk.png","../images/blu_wht.png","../images/pnk_blu.png","../images/ylw_slt.png","../images/org_blu.png","../images/cyn_red.png"],"mutagen_generator_assignment":[1,0],"goal":3,"start":4,"action_noise":0.2,"location_history":"[4,0,5,0,1,5,4,0,5,4,0,1,3]","action_history":"[0,0,1,1,1,1,0,0,0,0,0,0]","mutagen_history":"[1,1,0,0,0,0,1,1,1,1,1,1]","location_rts":"[2015,544,514,485,442,525,391,263,310,744,351,490]","trial_type":"fractal-mutation","trial_index":105,"time_elapsed":1639517,"internal_node_id":"0.0-5.0-1.0"},{"group":"hexagon_tri","fractal_assignment":["../images/gry_blk.png","../images/blu_wht.png","../images/pnk_blu.png","../images/ylw_slt.png","../images/org_blu.png","../images/cyn_red.png"],"mutagen_generator_assignment":[1,0],"goal":5,"start":3,"action_noise":0.2,"location_history":"[3,4,0,1,5]","action_history":"[1,1,1,1]","mutagen_history":"[0,0,0,0]","location_rts":"[1725,411,722,290]","trial_type":"fractal-mutation","trial_index":106,"time_elapsed":1650188,"internal_node_id":"0.0-5.0-2.0"},{"group":"hexagon_tri","fractal_assignment":["../images/gry_blk.png","../images/blu_wht.png","../images/pnk_blu.png","../images/ylw_slt.png","../images/org_blu.png","../images/cyn_red.png"],"mutagen_generator_assignment":[1,0],"goal":2,"start":5,"action_noise":0.2,"location_history":"[5,4,0,5,4,0,5,4,2]","action_history":"[0,0,0,0,0,0,0,1]","mutagen_history":"[1,1,1,1,1,1,1,0]","location_rts":"[911,358,483,283,294,526,422,693]","trial_type":"fractal-mutation","trial_index":107,"time_elapsed":1665763,"internal_node_id":"0.0-5.0-3.0"},{"group":"hexagon_tri","fractal_assignment":["../images/gry_blk.png","../images/blu_wht.png","../images/pnk_blu.png","../images/ylw_slt.png","../images/org_blu.png","../images/cyn_red.png"],"mutagen_generator_assignment":[1,0],"goal":1,"start":2,"action_noise":0.2,"location_history":"[2,3,2,1]","action_history":"[1,0,0]","mutagen_history":"[0,1,1]","location_rts":"[1700,939,1893]","trial_type":"fractal-mutation","trial_index":108,"time_elapsed":1676832,"internal_node_id":"0.0-5.0-4.0"},{"group":"hexagon_tri","fractal_assignment":["../images/gry_blk.png","../images/blu_wht.png","../images/pnk_blu.png","../images/ylw_slt.png","../images/org_blu.png","../images/cyn_red.png"],"mutagen_generator_assignment":[1,0],"goal":4,"start":1,"action_noise":0.2,"location_history":"[1,3,2,1,3,2,3,2,3,2,1,3,2,1,3,2,1,3,2,1,5,0,5,4]","action_history":"[0,0,0,0,0,1,1,1,0,0,1,0,0,0,0,0,0,0,0,1,0,0,0]","mutagen_history":"[1,1,1,1,1,0,0,0,1,1,0,1,1,1,1,1,1,1,1,0,1,1,1]","location_rts":"[1568,386,812,510,931,657,993,612,761,1118,449,873,1053,318,384,1020,416,466,466,840,1110,625,926]","trial_type":"fractal-mutation","trial_index":109,"time_elapsed":1720898,"internal_node_id":"0.0-5.0-5.0"},{"group":"hexagon_tri","fractal_assignment":["../images/gry_blk.png","../images/blu_wht.png","../images/pnk_blu.png","../images/ylw_slt.png","../images/org_blu.png","../images/cyn_red.png"],"mutagen_generator_assignment":[1,0],"goal":1,"start":4,"action_noise":0.2,"location_history":"[4,2,1]","action_history":"[1,0]","mutagen_history":"[0,1]","location_rts":"[2755,719]","trial_type":"fractal-mutation","trial_index":110,"time_elapsed":1729893,"internal_node_id":"0.0-5.0-6.0"},{"group":"hexagon_tri","fractal_assignment":["../images/gry_blk.png","../images/blu_wht.png","../images/pnk_blu.png","../images/ylw_slt.png","../images/org_blu.png","../images/cyn_red.png"],"mutagen_generator_assignment":[1,0],"goal":5,"start":1,"action_noise":0.2,"location_history":"[1,5]","action_history":"[1]","mutagen_history":"[0]","location_rts":"[2520]","trial_type":"fractal-mutation","trial_index":111,"time_elapsed":1736921,"internal_node_id":"0.0-5.0-7.0"},{"group":"hexagon_tri","fractal_assignment":["../images/gry_blk.png","../images/blu_wht.png","../images/pnk_blu.png","../images/ylw_slt.png","../images/org_blu.png","../images/cyn_red.png"],"mutagen_generator_assignment":[1,0],"goal":0,"start":5,"action_noise":0.2,"location_history":"[5,0]","action_history":"[1]","mutagen_history":"[0]","location_rts":"[1537]","trial_type":"fractal-mutation","trial_index":112,"time_elapsed":1742965,"internal_node_id":"0.0-5.0-8.0"},{"group":"hexagon_tri","fractal_assignment":["../images/gry_blk.png","../images/blu_wht.png","../images/pnk_blu.png","../images/ylw_slt.png","../images/org_blu.png","../images/cyn_red.png"],"mutagen_generator_assignment":[1,0],"goal":2,"start":0,"action_noise":0.2,"location_history":"[0,5,4,0,1,3,2]","action_history":"[0,0,0,1,0,0]","mutagen_history":"[1,1,1,0,1,1]","location_rts":"[2116,500,436,875,704,509]","trial_type":"fractal-mutation","trial_index":113,"time_elapsed":1757671,"internal_node_id":"0.0-5.0-9.0"},{"group":"hexagon_tri","fractal_assignment":["../images/gry_blk.png","../images/blu_wht.png","../images/pnk_blu.png","../images/ylw_slt.png","../images/org_blu.png","../images/cyn_red.png"],"mutagen_generator_assignment":[1,0],"goal":3,"start":2,"action_noise":0.2,"location_history":"[2,1,3]","action_history":"[0,0]","mutagen_history":"[1,1]","location_rts":"[1074,337]","trial_type":"fractal-mutation","trial_index":114,"time_elapsed":1764608,"internal_node_id":"0.0-5.0-10.0"},{"group":"hexagon_tri","fractal_assignment":["../images/gry_blk.png","../images/blu_wht.png","../images/pnk_blu.png","../images/ylw_slt.png","../images/org_blu.png","../images/cyn_red.png"],"mutagen_generator_assignment":[1,0],"goal":0,"start":3,"action_noise":0.2,"location_history":"[3,2,1,3,2,1,5,0]","action_history":"[0,0,0,0,0,1,0]","mutagen_history":"[1,1,1,1,1,0,1]","location_rts":"[1066,304,323,350,370,503,385]","trial_type":"fractal-mutation","trial_index":115,"time_elapsed":1778504,"internal_node_id":"0.0-5.0-11.0"},{"group":"hexagon_tri","fractal_assignment":["../images/gry_blk.png","../images/blu_wht.png","../images/pnk_blu.png","../images/ylw_slt.png","../images/org_blu.png","../images/cyn_red.png"],"mutagen_generator_assignment":[1,0],"goal":2,"start":0,"action_noise":0.2,"location_history":"[0,1,3,4,0,5,0,1,3,4,0,1,5,4,0,1,5,4,2]","action_history":"[1,0,0,0,0,0,1,0,0,0,1,1,1,0,1,0,0,1]","mutagen_history":"[0,1,1,1,1,1,0,1,1,1,0,0,0,1,0,1,1,0]","location_rts":"[1734,294,282,510,757,365,582,394,334,735,630,515,538,548,505,539,17,498]","trial_type":"fractal-mutation","trial_index":116,"time_elapsed":1809985,"internal_node_id":"0.0-5.0-12.0"},{"group":"hexagon_tri","fractal_assignment":["../images/gry_blk.png","../images/blu_wht.png","../images/pnk_blu.png","../images/ylw_slt.png","../images/org_blu.png","../images/cyn_red.png"],"mutagen_generator_assignment":[1,0],"goal":5,"start":2,"action_noise":0.2,"location_history":"[2,3,2,1,5]","action_history":"[1,0,0,1]","mutagen_history":"[0,1,1,0]","location_rts":"[1516,452,648,758]","trial_type":"fractal-mutation","trial_index":117,"time_elapsed":1820895,"internal_node_id":"0.0-5.0-13.0"},{"group":"hexagon_tri","fractal_assignment":["../images/gry_blk.png","../images/blu_wht.png","../images/pnk_blu.png","../images/ylw_slt.png","../images/org_blu.png","../images/cyn_red.png"],"mutagen_generator_assignment":[1,0],"goal":4,"start":5,"action_noise":0.2,"location_history":"[5,0,5,4]","action_history":"[0,0,0]","mutagen_history":"[1,1,1]","location_rts":"[1250,466,721]","trial_type":"fractal-mutation","trial_index":118,"time_elapsed":1829872,"internal_node_id":"0.0-5.0-14.0"},{"group":"hexagon_tri","fractal_assignment":["../images/gry_blk.png","../images/blu_wht.png","../images/pnk_blu.png","../images/ylw_slt.png","../images/org_blu.png","../images/cyn_red.png"],"mutagen_generator_assignment":[1,0],"goal":3,"start":4,"action_noise":0.2,"location_history":"[4,2,1,5,0,5,0,5,4,2,1,3]","action_history":"[1,0,0,0,0,1,0,0,1,0,0]","mutagen_history":"[0,1,1,1,1,0,1,1,0,1,1]","location_rts":"[985,361,326,340,401,567,390,741,636,353,505]","trial_type":"fractal-mutation","trial_index":119,"time_elapsed":1850102,"internal_node_id":"0.0-5.0-15.0"},{"group":"hexagon_tri","fractal_assignment":["../images/gry_blk.png","../images/blu_wht.png","../images/pnk_blu.png","../images/ylw_slt.png","../images/org_blu.png","../images/cyn_red.png"],"mutagen_generator_assignment":[1,0],"goal":1,"start":3,"action_noise":0.2,"location_history":"[3,4,0,5,4,2,1]","action_history":"[1,0,1,0,1,0]","mutagen_history":"[0,1,0,1,0,1]","location_rts":"[1748,477,192,381,469,512]","trial_type":"fractal-mutation","trial_index":120,"time_elapsed":1863442,"internal_node_id":"0.0-5.0-16.0"},{"group":"hexagon_tri","fractal_assignment":["../images/gry_blk.png","../images/blu_wht.png","../images/pnk_blu.png","../images/ylw_slt.png","../images/org_blu.png","../images/cyn_red.png"],"mutagen_generator_assignment":[1,0],"goal":5,"start":1,"action_noise":0.2,"location_history":"[1,3,2,3,2,1,5]","action_history":"[1,0,1,0,0,1]","mutagen_history":"[0,1,0,1,1,0]","location_rts":"[1479,1240,635,605,406,841]","trial_type":"fractal-mutation","trial_index":121,"time_elapsed":1878208,"internal_node_id":"0.0-5.0-17.0"},{"group":"hexagon_tri","fractal_assignment":["../images/gry_blk.png","../images/blu_wht.png","../images/pnk_blu.png","../images/ylw_slt.png","../images/org_blu.png","../images/cyn_red.png"],"mutagen_generator_assignment":[1,0],"goal":4,"start":5,"action_noise":0.2,"location_history":"[5,4]","action_history":"[0]","mutagen_history":"[1]","location_rts":"[1199]","trial_type":"fractal-mutation","trial_index":122,"time_elapsed":1883920,"internal_node_id":"0.0-5.0-18.0"},{"group":"hexagon_tri","fractal_assignment":["../images/gry_blk.png","../images/blu_wht.png","../images/pnk_blu.png","../images/ylw_slt.png","../images/org_blu.png","../images/cyn_red.png"],"mutagen_generator_assignment":[1,0],"goal":0,"start":4,"action_noise":0.2,"location_history":"[4,2,1,5,4,0]","action_history":"[1,0,1,0,0]","mutagen_history":"[0,1,0,1,1]","location_rts":"[1248,780,532,359,470]","trial_type":"fractal-mutation","trial_index":123,"time_elapsed":1895863,"internal_node_id":"0.0-5.0-19.0"},{"group":"hexagon_tri","fractal_assignment":["../images/gry_blk.png","../images/blu_wht.png","../images/pnk_blu.png","../images/ylw_slt.png","../images/org_blu.png","../images/cyn_red.png"],"mutagen_generator_assignment":[1,0],"goal":1,"start":0,"action_noise":0.2,"location_history":"[0,5,4,0,5,0,5,0,5,0,5,0,1]","action_history":"[1,0,0,0,1,0,1,1,1,0,1,1]","mutagen_history":"[0,1,1,1,0,1,0,0,0,1,0,0]","location_rts":"[1059,368,401,1533,419,663,575,942,1550,657,702,813]","trial_type":"fractal-mutation","trial_index":124,"time_elapsed":1921160,"internal_node_id":"0.0-5.0-20.0"},{"group":"hexagon_tri","fractal_assignment":["../images/gry_blk.png","../images/blu_wht.png","../images/pnk_blu.png","../images/ylw_slt.png","../images/org_blu.png","../images/cyn_red.png"],"mutagen_generator_assignment":[1,0],"goal":3,"start":1,"action_noise":0.2,"location_history":"[1,3]","action_history":"[0]","mutagen_history":"[1]","location_rts":"[1035]","trial_type":"fractal-mutation","trial_index":125,"time_elapsed":1926709,"internal_node_id":"0.0-5.0-21.0"},{"group":"hexagon_tri","fractal_assignment":["../images/gry_blk.png","../images/blu_wht.png","../images/pnk_blu.png","../images/ylw_slt.png","../images/org_blu.png","../images/cyn_red.png"],"mutagen_generator_assignment":[1,0],"goal":2,"start":3,"action_noise":0.2,"location_history":"[3,2]","action_history":"[0]","mutagen_history":"[1]","location_rts":"[1348]","trial_type":"fractal-mutation","trial_index":126,"time_elapsed":1932571,"internal_node_id":"0.0-5.0-22.0"},{"group":"hexagon_tri","fractal_assignment":["../images/gry_blk.png","../images/blu_wht.png","../images/pnk_blu.png","../images/ylw_slt.png","../images/org_blu.png","../images/cyn_red.png"],"mutagen_generator_assignment":[1,0],"goal":0,"start":2,"action_noise":0.2,"location_history":"[2,3,2,3,4,0]","action_history":"[1,0,1,1,0]","mutagen_history":"[0,1,0,0,1]","location_rts":"[1550,373,382,329,611]","trial_type":"fractal-mutation","trial_index":127,"time_elapsed":1944363,"internal_node_id":"0.0-5.0-23.0"},{"group":"hexagon_tri","fractal_assignment":["../images/gry_blk.png","../images/blu_wht.png","../images/pnk_blu.png","../images/ylw_slt.png","../images/org_blu.png","../images/cyn_red.png"],"mutagen_generator_assignment":[1,0],"goal":3,"start":0,"action_noise":0.2,"location_history":"[0,5,0,1,3]","action_history":"[1,1,1,0]","mutagen_history":"[0,0,0,1]","location_rts":"[1562,566,575,889]","trial_type":"fractal-mutation","trial_index":128,"time_elapsed":1955494,"internal_node_id":"0.0-5.0-24.0"},{"group":"hexagon_tri","fractal_assignment":["../images/gry_blk.png","../images/blu_wht.png","../images/pnk_blu.png","../images/ylw_slt.png","../images/org_blu.png","../images/cyn_red.png"],"mutagen_generator_assignment":[1,0],"goal":1,"start":3,"action_noise":0.2,"location_history":"[3,4,2,1]","action_history":"[1,1,0]","mutagen_history":"[0,0,1]","location_rts":"[1113,433,572]","trial_type":"fractal-mutation","trial_index":129,"time_elapsed":1964138,"internal_node_id":"0.0-5.0-25.0"},{"group":"hexagon_tri","fractal_assignment":["../images/gry_blk.png","../images/blu_wht.png","../images/pnk_blu.png","../images/ylw_slt.png","../images/org_blu.png","../images/cyn_red.png"],"mutagen_generator_assignment":[1,0],"goal":2,"start":1,"action_noise":0.2,"location_history":"[1,3,2]","action_history":"[0,0]","mutagen_history":"[1,1]","location_rts":"[1039,344]","trial_type":"fractal-mutation","trial_index":130,"time_elapsed":1971055,"internal_node_id":"0.0-5.0-26.0"},{"group":"hexagon_tri","fractal_assignment":["../images/gry_blk.png","../images/blu_wht.png","../images/pnk_blu.png","../images/ylw_slt.png","../images/org_blu.png","../images/cyn_red.png"],"mutagen_generator_assignment":[1,0],"goal":5,"start":2,"action_noise":0.2,"location_history":"[2,1,3,4,0,5]","action_history":"[1,1,1,0,0]","mutagen_history":"[0,0,0,1,1]","location_rts":"[1068,525,596,637,495]","trial_type":"fractal-mutation","trial_index":131,"time_elapsed":1982933,"internal_node_id":"0.0-5.0-27.0"},{"group":"hexagon_tri","fractal_assignment":["../images/gry_blk.png","../images/blu_wht.png","../images/pnk_blu.png","../images/ylw_slt.png","../images/org_blu.png","../images/cyn_red.png"],"mutagen_generator_assignment":[1,0],"goal":4,"start":5,"action_noise":0.2,"location_history":"[5,4]","action_history":"[0]","mutagen_history":"[1]","location_rts":"[1100]","trial_type":"fractal-mutation","trial_index":132,"time_elapsed":1988549,"internal_node_id":"0.0-5.0-28.0"},{"group":"hexagon_tri","fractal_assignment":["../images/gry_blk.png","../images/blu_wht.png","../images/pnk_blu.png","../images/ylw_slt.png","../images/org_blu.png","../images/cyn_red.png"],"mutagen_generator_assignment":[1,0],"goal":5,"start":4,"action_noise":0.2,"location_history":"[4,2,3,4,2,3,4,0,1,3,4,0,5]","action_history":"[1,1,1,0,0,1,0,0,1,0,0,0]","mutagen_history":"[0,0,0,1,1,0,1,1,0,1,1,1]","location_rts":"[1832,245,392,787,355,395,591,575,704,730,1034,564]","trial_type":"fractal-mutation","trial_index":133,"time_elapsed":2012389,"internal_node_id":"0.0-5.0-29.0"},{"group":"hexagon_tri","fractal_assignment":["../images/gry_blk.png","../images/blu_wht.png","../images/pnk_blu.png","../images/ylw_slt.png","../images/org_blu.png","../images/cyn_red.png"],"mutagen_generator_assignment":[1,0],"goal":3,"start":5,"action_noise":0.2,"location_history":"[5,4,0,1,3]","action_history":"[1,0,1,0]","mutagen_history":"[0,1,0,1]","location_rts":"[967,252,616,892]","trial_type":"fractal-mutation","trial_index":134,"time_elapsed":2022661,"internal_node_id":"0.0-5.0-30.0"},{"group":"hexagon_tri","fractal_assignment":["../images/gry_blk.png","../images/blu_wht.png","../images/pnk_blu.png","../images/ylw_slt.png","../images/org_blu.png","../images/cyn_red.png"],"mutagen_generator_assignment":[1,0],"goal":0,"start":3,"action_noise":0.2,"location_history":"[3,2,3,2,1,5,4,0]","action_history":"[0,1,0,0,1,0,0]","mutagen_history":"[1,0,1,1,0,1,1]","location_rts":"[1610,909,1133,462,173,249,351]","trial_type":"fractal-mutation","trial_index":135,"time_elapsed":2038123,"internal_node_id":"0.0-5.0-31.0"},{"group":"hexagon_tri","fractal_assignment":["../images/gry_blk.png","../images/blu_wht.png","../images/pnk_blu.png","../images/ylw_slt.png","../images/org_blu.png","../images/cyn_red.png"],"mutagen_generator_assignment":[1,0],"goal":4,"start":0,"action_noise":0.2,"location_history":"[0,5,4]","action_history":"[0,0]","mutagen_history":"[1,1]","location_rts":"[1598,415]","trial_type":"fractal-mutation","trial_index":136,"time_elapsed":2045666,"internal_node_id":"0.0-5.0-32.0"},{"group":"hexagon_tri","fractal_assignment":["../images/gry_blk.png","../images/blu_wht.png","../images/pnk_blu.png","../images/ylw_slt.png","../images/org_blu.png","../images/cyn_red.png"],"mutagen_generator_assignment":[1,0],"goal":1,"start":4,"action_noise":0.2,"location_history":"[4,2,3,2,1]","action_history":"[1,0,0,0]","mutagen_history":"[0,1,1,1]","location_rts":"[1539,706,381,427]","trial_type":"fractal-mutation","trial_index":137,"time_elapsed":2056271,"internal_node_id":"0.0-5.0-33.0"},{"group":"hexagon_tri","fractal_assignment":["../images/gry_blk.png","../images/blu_wht.png","../images/pnk_blu.png","../images/ylw_slt.png","../images/org_blu.png","../images/cyn_red.png"],"mutagen_generator_assignment":[1,0],"goal":2,"start":1,"action_noise":0.2,"location_history":"[1,3,4,0,5,0,5,0,1,5,4,2]","action_history":"[0,0,0,0,1,0,1,1,0,0,1]","mutagen_history":"[1,1,1,1,0,1,0,0,1,1,0]","location_rts":"[1229,353,391,115,520,291,410,259,344,283,584]","trial_type":"fractal-mutation","trial_index":138,"time_elapsed":2075659,"internal_node_id":"0.0-5.0-34.0"},{"group":"hexagon_tri","fractal_assignment":["../images/gry_blk.png","../images/blu_wht.png","../images/pnk_blu.png","../images/ylw_slt.png","../images/org_blu.png","../images/cyn_red.png"],"mutagen_generator_assignment":[1,0],"goal":0,"start":2,"action_noise":0.2,"location_history":"[2,1,5,4,2,1,5,4,2,1,3,4,0]","action_history":"[1,1,0,0,0,1,0,0,1,0,1,0]","mutagen_history":"[0,0,1,1,1,0,1,1,0,1,0,1]","location_rts":"[1378,858,458,377,453,119,194,335,493,1322,450,580]","trial_type":"fractal-mutation","trial_index":139,"time_elapsed":2098294,"internal_node_id":"0.0-5.0-35.0"},{"group":"hexagon_tri","fractal_assignment":["../images/gry_blk.png","../images/blu_wht.png","../images/pnk_blu.png","../images/ylw_slt.png","../images/org_blu.png","../images/cyn_red.png"],"mutagen_generator_assignment":[1,0],"goal":5,"start":0,"action_noise":0.2,"location_history":"[0,5]","action_history":"[0]","mutagen_history":"[1]","location_rts":"[1600]","trial_type":"fractal-mutation","trial_index":140,"time_elapsed":2104408,"internal_node_id":"0.0-5.0-36.0"},{"group":"hexagon_tri","fractal_assignment":["../images/gry_blk.png","../images/blu_wht.png","../images/pnk_blu.png","../images/ylw_slt.png","../images/org_blu.png","../images/cyn_red.png"],"mutagen_generator_assignment":[1,0],"goal":2,"start":5,"action_noise":0.2,"location_history":"[5,4,2]","action_history":"[0,1]","mutagen_history":"[1,0]","location_rts":"[1135,256]","trial_type":"fractal-mutation","trial_index":141,"time_elapsed":2111324,"internal_node_id":"0.0-5.0-37.0"},{"group":"hexagon_tri","fractal_assignment":["../images/gry_blk.png","../images/blu_wht.png","../images/pnk_blu.png","../images/ylw_slt.png","../images/org_blu.png","../images/cyn_red.png"],"mutagen_generator_assignment":[1,0],"goal":1,"start":2,"action_noise":0.2,"location_history":"[2,1]","action_history":"[0]","mutagen_history":"[1]","location_rts":"[1566]","trial_type":"fractal-mutation","trial_index":142,"time_elapsed":2117405,"internal_node_id":"0.0-5.0-38.0"},{"group":"hexagon_tri","fractal_assignment":["../images/gry_blk.png","../images/blu_wht.png","../images/pnk_blu.png","../images/ylw_slt.png","../images/org_blu.png","../images/cyn_red.png"],"mutagen_generator_assignment":[1,0],"goal":4,"start":1,"action_noise":0.2,"location_history":"[1,3,4]","action_history":"[0,1]","mutagen_history":"[1,0]","location_rts":"[1507,678]","trial_type":"fractal-mutation","trial_index":143,"time_elapsed":2125114,"internal_node_id":"0.0-5.0-39.0"},{"group":"hexagon_tri","fractal_assignment":["../images/gry_blk.png","../images/blu_wht.png","../images/pnk_blu.png","../images/ylw_slt.png","../images/org_blu.png","../images/cyn_red.png"],"mutagen_generator_assignment":[1,0],"goal":3,"start":4,"action_noise":0.2,"location_history":"[4,0,5,0,1,3]","action_history":"[0,0,0,1,0]","mutagen_history":"[1,1,1,0,1]","location_rts":"[2299,561,692,682,677]","trial_type":"fractal-mutation","trial_index":144,"time_elapsed":2138591,"internal_node_id":"0.0-5.0-40.0"},{"group":"hexagon_tri","fractal_assignment":["../images/gry_blk.png","../images/blu_wht.png","../images/pnk_blu.png","../images/ylw_slt.png","../images/org_blu.png","../images/cyn_red.png"],"mutagen_generator_assignment":[1,0],"goal":5,"start":3,"action_noise":0.2,"location_history":"[3,2,1,5]","action_history":"[0,0,1]","mutagen_history":"[1,1,0]","location_rts":"[1176,498,387]","trial_type":"fractal-mutation","trial_index":145,"time_elapsed":2147185,"internal_node_id":"0.0-5.0-41.0"},{"group":"hexagon_tri","fractal_assignment":["../images/gry_blk.png","../images/blu_wht.png","../images/pnk_blu.png","../images/ylw_slt.png","../images/org_blu.png","../images/cyn_red.png"],"mutagen_generator_assignment":[1,0],"goal":3,"start":5,"action_noise":0.2,"location_history":"[5,0,5,4,2,3]","action_history":"[0,1,0,1,0]","mutagen_history":"[1,0,1,0,1]","location_rts":"[1233,536,874,115,824]","trial_type":"fractal-mutation","trial_index":146,"time_elapsed":2159329,"internal_node_id":"0.0-5.0-42.0"},{"group":"hexagon_tri","fractal_assignment":["../images/gry_blk.png","../images/blu_wht.png","../images/pnk_blu.png","../images/ylw_slt.png","../images/org_blu.png","../images/cyn_red.png"],"mutagen_generator_assignment":[1,0],"goal":0,"start":3,"action_noise":0.2,"location_history":"[3,4,2,1,5,0]","action_history":"[1,0,1,0,0]","mutagen_history":"[0,1,0,1,1]","location_rts":"[1364,555,804,1042,492]","trial_type":"fractal-mutation","trial_index":147,"time_elapsed":2172135,"internal_node_id":"0.0-5.0-43.0"},{"group":"hexagon_tri","fractal_assignment":["../images/gry_blk.png","../images/blu_wht.png","../images/pnk_blu.png","../images/ylw_slt.png","../images/org_blu.png","../images/cyn_red.png"],"mutagen_generator_assignment":[1,0],"goal":2,"start":0,"action_noise":0.2,"location_history":"[0,5,4,2]","action_history":"[0,0,1]","mutagen_history":"[1,1,0]","location_rts":"[1050,510,415]","trial_type":"fractal-mutation","trial_index":148,"time_elapsed":2180641,"internal_node_id":"0.0-5.0-44.0"},{"group":"hexagon_tri","fractal_assignment":["../images/gry_blk.png","../images/blu_wht.png","../images/pnk_blu.png","../images/ylw_slt.png","../images/org_blu.png","../images/cyn_red.png"],"mutagen_generator_assignment":[1,0],"goal":4,"start":2,"action_noise":0.2,"location_history":"[2,1,3,4]","action_history":"[0,1,0]","mutagen_history":"[1,0,1]","location_rts":"[1199,234,379]","trial_type":"fractal-mutation","trial_index":149,"time_elapsed":2188977,"internal_node_id":"0.0-5.0-45.0"},{"group":"hexagon_tri","fractal_assignment":["../images/gry_blk.png","../images/blu_wht.png","../images/pnk_blu.png","../images/ylw_slt.png","../images/org_blu.png","../images/cyn_red.png"],"mutagen_generator_assignment":[1,0],"goal":1,"start":4,"action_noise":0.2,"location_history":"[4,2,1]","action_history":"[0,0]","mutagen_history":"[1,1]","location_rts":"[1372,725]","trial_type":"fractal-mutation","trial_index":150,"time_elapsed":2196605,"internal_node_id":"0.0-5.0-46.0"},{"group":"hexagon_tri","fractal_assignment":["../images/gry_blk.png","../images/blu_wht.png","../images/pnk_blu.png","../images/ylw_slt.png","../images/org_blu.png","../images/cyn_red.png"],"mutagen_generator_assignment":[1,0],"goal":4,"start":1,"action_noise":0.2,"location_history":"[1,3,4]","action_history":"[0,1]","mutagen_history":"[1,0]","location_rts":"[1170,796]","trial_type":"fractal-mutation","trial_index":151,"time_elapsed":2204098,"internal_node_id":"0.0-5.0-47.0"},{"group":"hexagon_tri","fractal_assignment":["../images/gry_blk.png","../images/blu_wht.png","../images/pnk_blu.png","../images/ylw_slt.png","../images/org_blu.png","../images/cyn_red.png"],"mutagen_generator_assignment":[1,0],"goal":1,"start":4,"action_noise":0.2,"location_history":"[4,0,5,0,5,0,5,0,5,4,2,1]","action_history":"[0,0,1,0,1,0,1,0,1,1,0]","mutagen_history":"[1,1,0,1,0,1,0,1,0,0,1]","location_rts":"[1071,699,455,857,468,445,103,298,27,283,471]","trial_type":"fractal-mutation","trial_index":152,"time_elapsed":2223884,"internal_node_id":"0.0-5.0-48.0"},{"group":"hexagon_tri","fractal_assignment":["../images/gry_blk.png","../images/blu_wht.png","../images/pnk_blu.png","../images/ylw_slt.png","../images/org_blu.png","../images/cyn_red.png"],"mutagen_generator_assignment":[1,0],"goal":3,"start":1,"action_noise":0.2,"location_history":"[1,3]","action_history":"[0]","mutagen_history":"[1]","location_rts":"[1624]","trial_type":"fractal-mutation","trial_index":153,"time_elapsed":2230025,"internal_node_id":"0.0-5.0-49.0"},{"group":"hexagon_tri","fractal_assignment":["../images/gry_blk.png","../images/blu_wht.png","../images/pnk_blu.png","../images/ylw_slt.png","../images/org_blu.png","../images/cyn_red.png"],"mutagen_generator_assignment":[1,0],"goal":5,"start":3,"action_noise":0.2,"location_history":"[3,4,0,1,5]","action_history":"[1,0,0,0]","mutagen_history":"[0,1,1,1]","location_rts":"[1251,361,461,395]","trial_type":"fractal-mutation","trial_index":154,"time_elapsed":2240039,"internal_node_id":"0.0-5.0-50.0"},{"group":"hexagon_tri","fractal_assignment":["../images/gry_blk.png","../images/blu_wht.png","../images/pnk_blu.png","../images/ylw_slt.png","../images/org_blu.png","../images/cyn_red.png"],"mutagen_generator_assignment":[1,0],"goal":0,"start":5,"action_noise":0.2,"location_history":"[5,4,0]","action_history":"[0,0]","mutagen_history":"[1,1]","location_rts":"[1130,315]","trial_type":"fractal-mutation","trial_index":155,"time_elapsed":2247017,"internal_node_id":"0.0-5.0-51.0"},{"group":"hexagon_tri","fractal_assignment":["../images/gry_blk.png","../images/blu_wht.png","../images/pnk_blu.png","../images/ylw_slt.png","../images/org_blu.png","../images/cyn_red.png"],"mutagen_generator_assignment":[1,0],"goal":2,"start":0,"action_noise":0.2,"location_history":"[0,5,0,5,0,1,3,4,0,1,3,2]","action_history":"[0,1,0,1,1,0,0,0,0,0,0]","mutagen_history":"[1,0,1,0,0,1,1,1,1,1,1]","location_rts":"[846,878,821,1653,341,812,601,434,625,1118,709]","trial_type":"fractal-mutation","trial_index":156,"time_elapsed":2270465,"internal_node_id":"0.0-5.0-52.0"},{"group":"hexagon_tri","fractal_assignment":["../images/gry_blk.png","../images/blu_wht.png","../images/pnk_blu.png","../images/ylw_slt.png","../images/org_blu.png","../images/cyn_red.png"],"mutagen_generator_assignment":[1,0],"goal":1,"start":2,"action_noise":0.2,"location_history":"[2,1]","action_history":"[0]","mutagen_history":"[1]","location_rts":"[1085]","trial_type":"fractal-mutation","trial_index":157,"time_elapsed":2276063,"internal_node_id":"0.0-5.0-53.0"},{"group":"hexagon_tri","fractal_assignment":["../images/gry_blk.png","../images/blu_wht.png","../images/pnk_blu.png","../images/ylw_slt.png","../images/org_blu.png","../images/cyn_red.png"],"mutagen_generator_assignment":[1,0],"goal":2,"start":1,"action_noise":0.2,"location_history":"[1,3,2]","action_history":"[0,1]","mutagen_history":"[1,0]","location_rts":"[1072,636]","trial_type":"fractal-mutation","trial_index":158,"time_elapsed":2283284,"internal_node_id":"0.0-5.0-54.0"},{"group":"hexagon_tri","fractal_assignment":["../images/gry_blk.png","../images/blu_wht.png","../images/pnk_blu.png","../images/ylw_slt.png","../images/org_blu.png","../images/cyn_red.png"],"mutagen_generator_assignment":[1,0],"goal":5,"start":2,"action_noise":0.2,"location_history":"[2,1,5]","action_history":"[0,1]","mutagen_history":"[1,0]","location_rts":"[1243,441]","trial_type":"fractal-mutation","trial_index":159,"time_elapsed":2290487,"internal_node_id":"0.0-5.0-55.0"},{"group":"hexagon_tri","fractal_assignment":["../images/gry_blk.png","../images/blu_wht.png","../images/pnk_blu.png","../images/ylw_slt.png","../images/org_blu.png","../images/cyn_red.png"],"mutagen_generator_assignment":[1,0],"goal":4,"start":5,"action_noise":0.2,"location_history":"[5,4]","action_history":"[0]","mutagen_history":"[1]","location_rts":"[1432]","trial_type":"fractal-mutation","trial_index":160,"time_elapsed":2296434,"internal_node_id":"0.0-5.0-56.0"},{"group":"hexagon_tri","fractal_assignment":["../images/gry_blk.png","../images/blu_wht.png","../images/pnk_blu.png","../images/ylw_slt.png","../images/org_blu.png","../images/cyn_red.png"],"mutagen_generator_assignment":[1,0],"goal":3,"start":4,"action_noise":0.2,"location_history":"[4,2,1,3]","action_history":"[1,0,0]","mutagen_history":"[0,1,1]","location_rts":"[1279,715,645]","trial_type":"fractal-mutation","trial_index":161,"time_elapsed":2305611,"internal_node_id":"0.0-5.0-57.0"},{"group":"hexagon_tri","fractal_assignment":["../images/gry_blk.png","../images/blu_wht.png","../images/pnk_blu.png","../images/ylw_slt.png","../images/org_blu.png","../images/cyn_red.png"],"mutagen_generator_assignment":[1,0],"goal":0,"start":3,"action_noise":0.2,"location_history":"[3,2,1,5,0]","action_history":"[1,1,1,0]","mutagen_history":"[0,0,0,1]","location_rts":"[2121,979,591,190]","trial_type":"fractal-mutation","trial_index":162,"time_elapsed":2317023,"internal_node_id":"0.0-5.0-58.0"},{"group":"hexagon_tri","fractal_assignment":["../images/gry_blk.png","../images/blu_wht.png","../images/pnk_blu.png","../images/ylw_slt.png","../images/org_blu.png","../images/cyn_red.png"],"mutagen_generator_assignment":[1,0],"goal":2,"start":0,"action_noise":0.2,"location_history":"[0,1,3,2]","action_history":"[1,0,0]","mutagen_history":"[0,1,1]","location_rts":"[3070,830,376]","trial_type":"fractal-mutation","trial_index":163,"time_elapsed":2327835,"internal_node_id":"0.0-5.0-59.0"},{"group":"hexagon_tri","fractal_assignment":["../images/gry_blk.png","../images/blu_wht.png","../images/pnk_blu.png","../images/ylw_slt.png","../images/org_blu.png","../images/cyn_red.png"],"mutagen_generator_assignment":[1,0],"goal":1,"start":2,"action_noise":0.2,"location_history":"[2,1]","action_history":"[0]","mutagen_history":"[1]","location_rts":"[1398]","trial_type":"fractal-mutation","trial_index":164,"time_elapsed":2333747,"internal_node_id":"0.0-5.0-60.0"},{"group":"hexagon_tri","fractal_assignment":["../images/gry_blk.png","../images/blu_wht.png","../images/pnk_blu.png","../images/ylw_slt.png","../images/org_blu.png","../images/cyn_red.png"],"mutagen_generator_assignment":[1,0],"goal":0,"start":1,"action_noise":0.2,"location_history":"[1,3,4,0]","action_history":"[0,1,0]","mutagen_history":"[1,0,1]","location_rts":"[1209,1506,685]","trial_type":"fractal-mutation","trial_index":165,"time_elapsed":2343680,"internal_node_id":"0.0-5.0-61.0"},{"group":"hexagon_tri","fractal_assignment":["../images/gry_blk.png","../images/blu_wht.png","../images/pnk_blu.png","../images/ylw_slt.png","../images/org_blu.png","../images/cyn_red.png"],"mutagen_generator_assignment":[1,0],"goal":3,"start":0,"action_noise":0.2,"location_history":"[0,1,5,4,2,1,3]","action_history":"[1,0,0,1,0,0]","mutagen_history":"[0,1,1,0,1,1]","location_rts":"[1083,449,295,228,438,500]","trial_type":"fractal-mutation","trial_index":166,"time_elapsed":2356237,"internal_node_id":"0.0-5.0-62.0"},{"group":"hexagon_tri","fractal_assignment":["../images/gry_blk.png","../images/blu_wht.png","../images/pnk_blu.png","../images/ylw_slt.png","../images/org_blu.png","../images/cyn_red.png"],"mutagen_generator_assignment":[1,0],"goal":5,"start":3,"action_noise":0.2,"location_history":"[3,4,0,5]","action_history":"[1,0,0]","mutagen_history":"[0,1,1]","location_rts":"[1078,583,387]","trial_type":"fractal-mutation","trial_index":167,"time_elapsed":2364819,"internal_node_id":"0.0-5.0-63.0"},{"group":"hexagon_tri","fractal_assignment":["../images/gry_blk.png","../images/blu_wht.png","../images/pnk_blu.png","../images/ylw_slt.png","../images/org_blu.png","../images/cyn_red.png"],"mutagen_generator_assignment":[1,0],"goal":4,"start":5,"action_noise":0.2,"location_history":"[5,4]","action_history":"[0]","mutagen_history":"[1]","location_rts":"[2133]","trial_type":"fractal-mutation","trial_index":168,"time_elapsed":2371471,"internal_node_id":"0.0-5.0-64.0"},{"group":"hexagon_tri","fractal_assignment":["../images/gry_blk.png","../images/blu_wht.png","../images/pnk_blu.png","../images/ylw_slt.png","../images/org_blu.png","../images/cyn_red.png"],"mutagen_generator_assignment":[1,0],"goal":1,"start":4,"action_noise":0.2,"location_history":"[4,2,1]","action_history":"[1,0]","mutagen_history":"[0,1]","location_rts":"[2258,563]","trial_type":"fractal-mutation","trial_index":169,"time_elapsed":2379812,"internal_node_id":"0.0-5.0-65.0"},{"group":"hexagon_tri","fractal_assignment":["../images/gry_blk.png","../images/blu_wht.png","../images/pnk_blu.png","../images/ylw_slt.png","../images/org_blu.png","../images/cyn_red.png"],"mutagen_generator_assignment":[1,0],"goal":5,"start":1,"action_noise":0.2,"location_history":"[1,5]","action_history":"[1]","mutagen_history":"[0]","location_rts":"[1314]","trial_type":"fractal-mutation","trial_index":170,"time_elapsed":2385634,"internal_node_id":"0.0-5.0-66.0"},{"group":"hexagon_tri","fractal_assignment":["../images/gry_blk.png","../images/blu_wht.png","../images/pnk_blu.png","../images/ylw_slt.png","../images/org_blu.png","../images/cyn_red.png"],"mutagen_generator_assignment":[1,0],"goal":2,"start":5,"action_noise":0.2,"location_history":"[5,0,1,3,2]","action_history":"[1,1,0,0]","mutagen_history":"[0,0,1,1]","location_rts":"[1654,615,711,724]","trial_type":"fractal-mutation","trial_index":171,"time_elapsed":2396878,"internal_node_id":"0.0-5.0-67.0"},{"group":"hexagon_tri","fractal_assignment":["../images/gry_blk.png","../images/blu_wht.png","../images/pnk_blu.png","../images/ylw_slt.png","../images/org_blu.png","../images/cyn_red.png"],"mutagen_generator_assignment":[1,0],"goal":3,"start":2,"action_noise":0.2,"location_history":"[2,1,3]","action_history":"[0,0]","mutagen_history":"[1,1]","location_rts":"[1300,483]","trial_type":"fractal-mutation","trial_index":172,"time_elapsed":2404189,"internal_node_id":"0.0-5.0-68.0"},{"group":"hexagon_tri","fractal_assignment":["../images/gry_blk.png","../images/blu_wht.png","../images/pnk_blu.png","../images/ylw_slt.png","../images/org_blu.png","../images/cyn_red.png"],"mutagen_generator_assignment":[1,0],"goal":4,"start":3,"action_noise":0.2,"location_history":"[3,4]","action_history":"[1]","mutagen_history":"[0]","location_rts":"[1747]","trial_type":"fractal-mutation","trial_index":173,"time_elapsed":2410443,"internal_node_id":"0.0-5.0-69.0"},{"group":"hexagon_tri","fractal_assignment":["../images/gry_blk.png","../images/blu_wht.png","../images/pnk_blu.png","../images/ylw_slt.png","../images/org_blu.png","../images/cyn_red.png"],"mutagen_generator_assignment":[1,0],"goal":0,"start":4,"action_noise":0.2,"location_history":"[4,2,3,4,0]","action_history":"[1,1,1,0]","mutagen_history":"[0,0,0,1]","location_rts":"[1791,726,619,598]","trial_type":"fractal-mutation","trial_index":174,"time_elapsed":2421709,"internal_node_id":"0.0-5.0-70.0"},{"group":"hexagon_tri","fractal_assignment":["../images/gry_blk.png","../images/blu_wht.png","../images/pnk_blu.png","../images/ylw_slt.png","../images/org_blu.png","../images/cyn_red.png"],"mutagen_generator_assignment":[1,0],"goal":5,"start":0,"action_noise":0.2,"location_history":"[0,5]","action_history":"[0]","mutagen_history":"[1]","location_rts":"[1547]","trial_type":"fractal-mutation","trial_index":175,"time_elapsed":2427772,"internal_node_id":"0.0-5.0-71.0"},{"group":"hexagon_tri","fractal_assignment":["../images/gry_blk.png","../images/blu_wht.png","../images/pnk_blu.png","../images/ylw_slt.png","../images/org_blu.png","../images/cyn_red.png"],"mutagen_generator_assignment":[1,0],"goal":0,"start":5,"action_noise":0.2,"location_history":"[5,4,0]","action_history":"[0,0]","mutagen_history":"[1,1]","location_rts":"[2114,419]","trial_type":"fractal-mutation","trial_index":176,"time_elapsed":2435832,"internal_node_id":"0.0-5.0-72.0"},{"group":"hexagon_tri","fractal_assignment":["../images/gry_blk.png","../images/blu_wht.png","../images/pnk_blu.png","../images/ylw_slt.png","../images/org_blu.png","../images/cyn_red.png"],"mutagen_generator_assignment":[1,0],"goal":3,"start":0,"action_noise":0.2,"location_history":"[0,1,3]","action_history":"[1,0]","mutagen_history":"[0,1]","location_rts":"[1497,566]","trial_type":"fractal-mutation","trial_index":177,"time_elapsed":2443415,"internal_node_id":"0.0-5.0-73.0"},{"group":"hexagon_tri","fractal_assignment":["../images/gry_blk.png","../images/blu_wht.png","../images/pnk_blu.png","../images/ylw_slt.png","../images/org_blu.png","../images/cyn_red.png"],"mutagen_generator_assignment":[1,0],"goal":1,"start":3,"action_noise":0.2,"location_history":"[3,2,1]","action_history":"[0,0]","mutagen_history":"[1,1]","location_rts":"[1570,336]","trial_type":"fractal-mutation","trial_index":178,"time_elapsed":2450853,"internal_node_id":"0.0-5.0-74.0"},{"group":"hexagon_tri","fractal_assignment":["../images/gry_blk.png","../images/blu_wht.png","../images/pnk_blu.png","../images/ylw_slt.png","../images/org_blu.png","../images/cyn_red.png"],"mutagen_generator_assignment":[1,0],"goal":2,"start":1,"action_noise":0.2,"location_history":"[1,3,2]","action_history":"[0,0]","mutagen_history":"[1,1]","location_rts":"[1248,400]","trial_type":"fractal-mutation","trial_index":179,"time_elapsed":2458024,"internal_node_id":"0.0-5.0-75.0"},{"group":"hexagon_tri","fractal_assignment":["../images/gry_blk.png","../images/blu_wht.png","../images/pnk_blu.png","../images/ylw_slt.png","../images/org_blu.png","../images/cyn_red.png"],"mutagen_generator_assignment":[1,0],"goal":4,"start":2,"action_noise":0.2,"location_history":"[2,1,5,4]","action_history":"[0,1,0]","mutagen_history":"[1,0,1]","location_rts":"[1977,513,212]","trial_type":"fractal-mutation","trial_index":180,"time_elapsed":2467258,"internal_node_id":"0.0-5.0-76.0"},{"group":"hexagon_tri","fractal_assignment":["../images/gry_blk.png","../images/blu_wht.png","../images/pnk_blu.png","../images/ylw_slt.png","../images/org_blu.png","../images/cyn_red.png"],"mutagen_generator_assignment":[1,0],"goal":3,"start":4,"action_noise":0.2,"location_history":"[4,0,5,4,2,1,3]","action_history":"[1,0,0,1,0,0]","mutagen_history":"[0,1,1,0,1,1]","location_rts":"[1994,512,526,182,705,350]","trial_type":"fractal-mutation","trial_index":181,"time_elapsed":2481090,"internal_node_id":"0.0-5.0-77.0"},{"group":"hexagon_tri","fractal_assignment":["../images/gry_blk.png","../images/blu_wht.png","../images/pnk_blu.png","../images/ylw_slt.png","../images/org_blu.png","../images/cyn_red.png"],"mutagen_generator_assignment":[1,0],"goal":0,"start":3,"action_noise":0.2,"location_history":"[3,4,0]","action_history":"[1,0]","mutagen_history":"[0,1]","location_rts":"[1856,250]","trial_type":"fractal-mutation","trial_index":182,"time_elapsed":2488714,"internal_node_id":"0.0-5.0-78.0"},{"group":"hexagon_tri","fractal_assignment":["../images/gry_blk.png","../images/blu_wht.png","../images/pnk_blu.png","../images/ylw_slt.png","../images/org_blu.png","../images/cyn_red.png"],"mutagen_generator_assignment":[1,0],"goal":4,"start":0,"action_noise":0.2,"location_history":"[0,1,3,4]","action_history":"[0,0,1]","mutagen_history":"[1,1,0]","location_rts":"[1415,533,756]","trial_type":"fractal-mutation","trial_index":183,"time_elapsed":2497950,"internal_node_id":"0.0-5.0-79.0"},{"group":"hexagon_tri","fractal_assignment":["../images/gry_blk.png","../images/blu_wht.png","../images/pnk_blu.png","../images/ylw_slt.png","../images/org_blu.png","../images/cyn_red.png"],"mutagen_generator_assignment":[1,0],"goal":5,"start":4,"action_noise":0.2,"location_history":"[4,0,5]","action_history":"[0,0]","mutagen_history":"[1,1]","location_rts":"[1074,378]","trial_type":"fractal-mutation","trial_index":184,"time_elapsed":2504932,"internal_node_id":"0.0-5.0-80.0"},{"group":"hexagon_tri","fractal_assignment":["../images/gry_blk.png","../images/blu_wht.png","../images/pnk_blu.png","../images/ylw_slt.png","../images/org_blu.png","../images/cyn_red.png"],"mutagen_generator_assignment":[1,0],"goal":1,"start":5,"action_noise":0.2,"location_history":"[5,0,5,0,1]","action_history":"[1,1,1,0]","mutagen_history":"[0,0,0,1]","location_rts":"[804,355,1349,485]","trial_type":"fractal-mutation","trial_index":185,"time_elapsed":2515452,"internal_node_id":"0.0-5.0-81.0"},{"group":"hexagon_tri","fractal_assignment":["../images/gry_blk.png","../images/blu_wht.png","../images/pnk_blu.png","../images/ylw_slt.png","../images/org_blu.png","../images/cyn_red.png"],"mutagen_generator_assignment":[1,0],"goal":2,"start":1,"action_noise":0.2,"location_history":"[1,3,2]","action_history":"[0,0]","mutagen_history":"[1,1]","location_rts":"[1253,395]","trial_type":"fractal-mutation","trial_index":186,"time_elapsed":2522632,"internal_node_id":"0.0-5.0-82.0"},{"group":"hexagon_tri","fractal_assignment":["../images/gry_blk.png","../images/blu_wht.png","../images/pnk_blu.png","../images/ylw_slt.png","../images/org_blu.png","../images/cyn_red.png"],"mutagen_generator_assignment":[1,0],"goal":4,"start":2,"action_noise":0.2,"location_history":"[2,3,2,1,5,0,5,4]","action_history":"[1,1,1,1,0,0,0]","mutagen_history":"[0,0,0,0,1,1,1]","location_rts":"[1517,1066,685,595,743,444,688]","trial_type":"fractal-mutation","trial_index":187,"time_elapsed":2538936,"internal_node_id":"0.0-5.0-83.0"},{"group":"hexagon_tri","fractal_assignment":["../images/gry_blk.png","../images/blu_wht.png","../images/pnk_blu.png","../images/ylw_slt.png","../images/org_blu.png","../images/cyn_red.png"],"mutagen_generator_assignment":[1,0],"goal":0,"start":4,"action_noise":0.2,"location_history":"[4,0]","action_history":"[0]","mutagen_history":"[1]","location_rts":"[1474]","trial_type":"fractal-mutation","trial_index":188,"time_elapsed":2544925,"internal_node_id":"0.0-5.0-84.0"},{"group":"hexagon_tri","fractal_assignment":["../images/gry_blk.png","../images/blu_wht.png","../images/pnk_blu.png","../images/ylw_slt.png","../images/org_blu.png","../images/cyn_red.png"],"mutagen_generator_assignment":[1,0],"goal":5,"start":0,"action_noise":0.2,"location_history":"[0,5]","action_history":"[0]","mutagen_history":"[1]","location_rts":"[1090]","trial_type":"fractal-mutation","trial_index":189,"time_elapsed":2550531,"internal_node_id":"0.0-5.0-85.0"},{"group":"hexagon_tri","fractal_assignment":["../images/gry_blk.png","../images/blu_wht.png","../images/pnk_blu.png","../images/ylw_slt.png","../images/org_blu.png","../images/cyn_red.png"],"mutagen_generator_assignment":[1,0],"goal":3,"start":5,"action_noise":0.2,"location_history":"[5,4,2,1,5,0,5,4,0,5,0,1,3]","action_history":"[1,1,0,0,0,1,0,0,0,1,1,0]","mutagen_history":"[0,0,1,1,1,0,1,1,1,0,0,1]","location_rts":"[2070,741,600,380,446,377,465,54,168,581,618,890]","trial_type":"fractal-mutation","trial_index":190,"time_elapsed":2573535,"internal_node_id":"0.0-5.0-86.0"},{"group":"hexagon_tri","fractal_assignment":["../images/gry_blk.png","../images/blu_wht.png","../images/pnk_blu.png","../images/ylw_slt.png","../images/org_blu.png","../images/cyn_red.png"],"mutagen_generator_assignment":[1,0],"goal":1,"start":3,"action_noise":0.2,"location_history":"[3,4,0,1]","action_history":"[0,0,1]","mutagen_history":"[1,1,0]","location_rts":"[1015,369,427]","trial_type":"fractal-mutation","trial_index":191,"time_elapsed":2581882,"internal_node_id":"0.0-5.0-87.0"},{"group":"hexagon_tri","fractal_assignment":["../images/gry_blk.png","../images/blu_wht.png","../images/pnk_blu.png","../images/ylw_slt.png","../images/org_blu.png","../images/cyn_red.png"],"mutagen_generator_assignment":[1,0],"goal":2,"start":1,"action_noise":0.2,"location_history":"[1,5,0,5,0,1,5,4,2]","action_history":"[0,1,1,1,1,0,0,1]","mutagen_history":"[1,0,0,0,0,1,1,0]","location_rts":"[897,728,1075,762,571,1038,613,539]","trial_type":"fractal-mutation","trial_index":192,"time_elapsed":2599679,"internal_node_id":"0.0-5.0-88.0"},{"group":"hexagon_tri","fractal_assignment":["../images/gry_blk.png","../images/blu_wht.png","../images/pnk_blu.png","../images/ylw_slt.png","../images/org_blu.png","../images/cyn_red.png"],"mutagen_generator_assignment":[1,0],"goal":0,"start":2,"action_noise":0.2,"location_history":"[2,1,5,4,0]","action_history":"[1,1,0,0]","mutagen_history":"[0,0,1,1]","location_rts":"[2109,678,794,789]","trial_type":"fractal-mutation","trial_index":193,"time_elapsed":2611587,"internal_node_id":"0.0-5.0-89.0"},{"group":"hexagon_tri","fractal_assignment":["../images/gry_blk.png","../images/blu_wht.png","../images/pnk_blu.png","../images/ylw_slt.png","../images/org_blu.png","../images/cyn_red.png"],"mutagen_generator_assignment":[1,0],"goal":5,"start":0,"action_noise":0.2,"location_history":"[0,1,3,2,1,5]","action_history":"[0,1,0,1,1]","mutagen_history":"[1,0,1,0,0]","location_rts":"[996,974,664,417,623]","trial_type":"fractal-mutation","trial_index":194,"time_elapsed":2623805,"internal_node_id":"0.0-5.0-90.0"},{"group":"hexagon_tri","fractal_assignment":["../images/gry_blk.png","../images/blu_wht.png","../images/pnk_blu.png","../images/ylw_slt.png","../images/org_blu.png","../images/cyn_red.png"],"mutagen_generator_assignment":[1,0],"goal":1,"start":5,"action_noise":0.2,"location_history":"[5,0,1]","action_history":"[1,1]","mutagen_history":"[0,0]","location_rts":"[991,731]","trial_type":"fractal-mutation","trial_index":195,"time_elapsed":2631036,"internal_node_id":"0.0-5.0-91.0"},{"group":"hexagon_tri","fractal_assignment":["../images/gry_blk.png","../images/blu_wht.png","../images/pnk_blu.png","../images/ylw_slt.png","../images/org_blu.png","../images/cyn_red.png"],"mutagen_generator_assignment":[1,0],"goal":3,"start":1,"action_noise":0.2,"location_history":"[1,3]","action_history":"[0]","mutagen_history":"[1]","location_rts":"[884]","trial_type":"fractal-mutation","trial_index":196,"time_elapsed":2636438,"internal_node_id":"0.0-5.0-92.0"},{"group":"hexagon_tri","fractal_assignment":["../images/gry_blk.png","../images/blu_wht.png","../images/pnk_blu.png","../images/ylw_slt.png","../images/org_blu.png","../images/cyn_red.png"],"mutagen_generator_assignment":[1,0],"goal":4,"start":3,"action_noise":0.2,"location_history":"[3,2,3,2,3,4]","action_history":"[1,1,1,1,1]","mutagen_history":"[0,0,0,0,0]","location_rts":"[1694,540,577,505,452]","trial_type":"fractal-mutation","trial_index":197,"time_elapsed":2648734,"internal_node_id":"0.0-5.0-93.0"},{"group":"hexagon_tri","fractal_assignment":["../images/gry_blk.png","../images/blu_wht.png","../images/pnk_blu.png","../images/ylw_slt.png","../images/org_blu.png","../images/cyn_red.png"],"mutagen_generator_assignment":[1,0],"goal":2,"start":4,"action_noise":0.2,"location_history":"[4,2]","action_history":"[1]","mutagen_history":"[0]","location_rts":"[1435]","trial_type":"fractal-mutation","trial_index":198,"time_elapsed":2654671,"internal_node_id":"0.0-5.0-94.0"},{"group":"hexagon_tri","fractal_assignment":["../images/gry_blk.png","../images/blu_wht.png","../images/pnk_blu.png","../images/ylw_slt.png","../images/org_blu.png","../images/cyn_red.png"],"mutagen_generator_assignment":[1,0],"goal":4,"start":2,"action_noise":0.2,"location_history":"[2,3,4]","action_history":"[1,1]","mutagen_history":"[0,0]","location_rts":"[1317,973]","trial_type":"fractal-mutation","trial_index":199,"time_elapsed":2662472,"internal_node_id":"0.0-5.0-95.0"},{"group":"hexagon_tri","fractal_assignment":["../images/gry_blk.png","../images/blu_wht.png","../images/pnk_blu.png","../images/ylw_slt.png","../images/org_blu.png","../images/cyn_red.png"],"mutagen_generator_assignment":[1,0],"goal":0,"start":4,"action_noise":0.2,"location_history":"[4,0]","action_history":"[0]","mutagen_history":"[1]","location_rts":"[1315]","trial_type":"fractal-mutation","trial_index":200,"time_elapsed":2668302,"internal_node_id":"0.0-5.0-96.0"},{"group":"hexagon_tri","fractal_assignment":["../images/gry_blk.png","../images/blu_wht.png","../images/pnk_blu.png","../images/ylw_slt.png","../images/org_blu.png","../images/cyn_red.png"],"mutagen_generator_assignment":[1,0],"goal":5,"start":0,"action_noise":0.2,"location_history":"[0,5]","action_history":"[0]","mutagen_history":"[1]","location_rts":"[924]","trial_type":"fractal-mutation","trial_index":201,"time_elapsed":2673737,"internal_node_id":"0.0-5.0-97.0"},{"group":"hexagon_tri","fractal_assignment":["../images/gry_blk.png","../images/blu_wht.png","../images/pnk_blu.png","../images/ylw_slt.png","../images/org_blu.png","../images/cyn_red.png"],"mutagen_generator_assignment":[1,0],"goal":1,"start":5,"action_noise":0.2,"location_history":"[5,0,1]","action_history":"[1,0]","mutagen_history":"[0,1]","location_rts":"[935,371]","trial_type":"fractal-mutation","trial_index":202,"time_elapsed":2680564,"internal_node_id":"0.0-5.0-98.0"},{"group":"hexagon_tri","fractal_assignment":["../images/gry_blk.png","../images/blu_wht.png","../images/pnk_blu.png","../images/ylw_slt.png","../images/org_blu.png","../images/cyn_red.png"],"mutagen_generator_assignment":[1,0],"goal":3,"start":1,"action_noise":0.2,"location_history":"[1,3]","action_history":"[0]","mutagen_history":"[1]","location_rts":"[1045]","trial_type":"fractal-mutation","trial_index":203,"time_elapsed":2686131,"internal_node_id":"0.0-5.0-99.0"},{"view_history":"[{\"page_index\":0,\"viewing_time\":5719}]","rt":5719,"trial_type":"instructions","trial_index":204,"time_elapsed":2692850,"internal_node_id":"0.0-6.0"},{"rt":24474,"responses":"{\"Q0\":\"It definitely takes longer than 30 minutes.\"}","trial_type":"survey-text","trial_index":205,"time_elapsed":2718329,"internal_node_id":"0.0-7.0"}]