[{"view_history":"[{\"page_index\":0,\"viewing_time\":3972},{\"page_index\":1,\"viewing_time\":8659},{\"page_index\":2,\"viewing_time\":12324},{\"page_index\":3,\"viewing_time\":4895}]","rt":29851,"trial_type":"instructions","trial_index":0,"time_elapsed":29853,"internal_node_id":"0.0-0.0"},{"view_history":"[{\"page_index\":0,\"viewing_time\":1572},{\"page_index\":1,\"viewing_time\":631736}]","rt":633310,"trial_type":"instructions","trial_index":1,"time_elapsed":664168,"internal_node_id":"0.0-1.0"},{"group":"hexagon_tri","room_assignment":["green","yellow","purple","grey","red","blue"],"door_color_assignment":["black","white"],"door_generator_assignment":[1,0],"goal":4,"start":0,"action_noise":0.2,"location_history":"[0,5,0,5,0,5,4]","action_history":"[0,1,1,1,0,0]","door_history":"[1,0,0,0,1,1]","location_rts":"[8257,2262,794,816,1372,580]","trial_type":"two-door-navigation","trial_index":2,"time_elapsed":688276,"internal_node_id":"0.0-2.0-0.0"},{"group":"hexagon_tri","room_assignment":["green","yellow","purple","grey","red","blue"],"door_color_assignment":["black","white"],"door_generator_assignment":[1,0],"goal":3,"start":4,"action_noise":0.2,"location_history":"[4,0,5,0,5,4,2,1,3]","action_history":"[0,0,1,0,0,0,0,0]","door_history":"[1,1,0,1,1,1,1,1]","location_rts":"[2535,781,1892,924,367,1309,1266,532]","trial_type":"two-door-navigation","trial_index":3,"time_elapsed":710086,"internal_node_id":"0.0-2.0-1.0"},{"group":"hexagon_tri","room_assignment":["green","yellow","purple","grey","red","blue"],"door_color_assignment":["black","white"],"door_generator_assignment":[1,0],"goal":5,"start":3,"action_noise":0.2,"location_history":"[3,2,3,2,1,3,2,1,3,2,3,2,1,5]","action_history":"[1,1,0,0,1,0,0,0,0,1,0,0,1]","door_history":"[0,0,1,1,0,1,1,1,1,0,1,1,0]","location_rts":"[4602,762,1521,442,1262,624,430,461,634,1335,1211,574,852]","trial_type":"two-door-navigation","trial_index":4,"time_elapsed":742358,"internal_node_id":"0.0-2.0-2.0"},{"group":"hexagon_tri","room_assignment":["green","yellow","purple","grey","red","blue"],"door_color_assignment":["black","white"],"door_generator_assignment":[1,0],"goal":2,"start":5,"action_noise":0.2,"location_history":"[5,0,1,5,4,0,5,4,0,1,5,4,0,1,5,0,1,5,0,1,5,0,5,4,0,5,4,0,5,4,2]","action_history":"[1,1,1,0,0,0,0,0,1,1,0,0,0,0,1,1,1,1,1,1,1,0,0,0,0,0,0,0,0,0]","door_history":"[0,0,0,1,1,1,1,1,0,0,1,1,1,1,0,0,0,0,0,0,0,1,1,1,1,1,1,1,1,1]","location_rts":"[2373,847,650,1372,750,488,641,871,1011,1101,1237,1162,2772,537,601,481,828,491,431,399,459,756,395,421,408,518,634,841,486,393]","trial_type":"two-door-navigation","trial_index":5,"time_elapsed":802653,"internal_node_id":"0.0-2.0-3.0"},{"group":"hexagon_tri","room_assignment":["green","yellow","purple","grey","red","blue"],"door_color_assignment":["black","white"],"door_generator_assignment":[1,0],"goal":1,"start":2,"action_noise":0.2,"location_history":"[2,3,2,1]","action_history":"[1,0,0]","door_history":"[0,1,1]","location_rts":"[2794,1048,607]","trial_type":"two-door-navigation","trial_index":6,"time_elapsed":813881,"internal_node_id":"0.0-2.0-4.0"},{"group":"hexagon_tri","room_assignment":["green","yellow","purple","grey","red","blue"],"door_color_assignment":["black","white"],"door_generator_assignment":[1,0],"goal":4,"start":1,"action_noise":0.2,"location_history":"[1,5,0,1,3,4]","action_history":"[1,1,1,1,1]","door_history":"[0,0,0,0,0]","location_rts":"[2047,463,566,668,444]","trial_type":"two-door-navigation","trial_index":7,"time_elapsed":827016,"internal_node_id":"0.0-2.0-5.0"},{"group":"hexagon_tri","room_assignment":["green","yellow","purple","grey","red","blue"],"door_color_assignment":["black","white"],"door_generator_assignment":[1,0],"goal":1,"start":4,"action_noise":0.2,"location_history":"[4,0,1]","action_history":"[0,0]","door_history":"[1,1]","location_rts":"[2240,441]","trial_type":"two-door-navigation","trial_index":8,"time_elapsed":835379,"internal_node_id":"0.0-2.0-6.0"},{"group":"hexagon_tri","room_assignment":["green","yellow","purple","grey","red","blue"],"door_color_assignment":["black","white"],"door_generator_assignment":[1,0],"goal":5,"start":1,"action_noise":0.2,"location_history":"[1,5]","action_history":"[1]","door_history":"[0]","location_rts":"[9074]","trial_type":"two-door-navigation","trial_index":9,"time_elapsed":849037,"internal_node_id":"0.0-2.0-7.0"},{"group":"hexagon_tri","room_assignment":["green","yellow","purple","grey","red","blue"],"door_color_assignment":["black","white"],"door_generator_assignment":[1,0],"goal":0,"start":5,"action_noise":0.2,"location_history":"[5,4,0]","action_history":"[0,0]","door_history":"[1,1]","location_rts":"[1744,659]","trial_type":"two-door-navigation","trial_index":10,"time_elapsed":857125,"internal_node_id":"0.0-2.0-8.0"},{"group":"hexagon_tri","room_assignment":["green","yellow","purple","grey","red","blue"],"door_color_assignment":["black","white"],"door_generator_assignment":[1,0],"goal":2,"start":0,"action_noise":0.2,"location_history":"[0,1,3,2]","action_history":"[0,0,0]","door_history":"[1,1,1]","location_rts":"[1848,423,479]","trial_type":"two-door-navigation","trial_index":11,"time_elapsed":866638,"internal_node_id":"0.0-2.0-9.0"},{"group":"hexagon_tri","room_assignment":["green","yellow","purple","grey","red","blue"],"door_color_assignment":["black","white"],"door_generator_assignment":[1,0],"goal":3,"start":2,"action_noise":0.2,"location_history":"[2,3]","action_history":"[1]","door_history":"[0]","location_rts":"[1945]","trial_type":"two-door-navigation","trial_index":12,"time_elapsed":873179,"internal_node_id":"0.0-2.0-10.0"},{"group":"hexagon_tri","room_assignment":["green","yellow","purple","grey","red","blue"],"door_color_assignment":["black","white"],"door_generator_assignment":[1,0],"goal":0,"start":3,"action_noise":0.2,"location_history":"[3,2,3,2,3,4,2,1,3,2,3,4,0]","action_history":"[0,0,0,0,0,0,0,0,0,1,1,1]","door_history":"[1,1,1,1,1,1,1,1,1,0,0,0]","location_rts":"[1917,578,462,426,579,427,465,1272,519,620,509,437]","trial_type":"two-door-navigation","trial_index":13,"time_elapsed":897829,"internal_node_id":"0.0-2.0-11.0"},{"group":"hexagon_tri","room_assignment":["green","yellow","purple","grey","red","blue"],"door_color_assignment":["black","white"],"door_generator_assignment":[1,0],"goal":2,"start":0,"action_noise":0.2,"location_history":"[0,1,3,4,0,5,4,0,5,4,0,5,4,2]","action_history":"[1,1,1,0,0,0,0,0,0,0,0,0,0]","door_history":"[0,0,0,1,1,1,1,1,1,1,1,1,1]","location_rts":"[11056,647,691,852,415,435,430,471,598,1430,673,772,484]","trial_type":"two-door-navigation","trial_index":14,"time_elapsed":935003,"internal_node_id":"0.0-2.0-12.0"},{"group":"hexagon_tri","room_assignment":["green","yellow","purple","grey","red","blue"],"door_color_assignment":["black","white"],"door_generator_assignment":[1,0],"goal":5,"start":2,"action_noise":0.2,"location_history":"[2,3,4,0,1,5]","action_history":"[1,1,1,1,1]","door_history":"[0,0,0,0,0]","location_rts":"[6272,518,564,599,650]","trial_type":"two-door-navigation","trial_index":15,"time_elapsed":952552,"internal_node_id":"0.0-2.0-13.0"},{"group":"hexagon_tri","room_assignment":["green","yellow","purple","grey","red","blue"],"door_color_assignment":["black","white"],"door_generator_assignment":[1,0],"goal":4,"start":5,"action_noise":0.2,"location_history":"[5,4]","action_history":"[0]","door_history":"[1]","location_rts":"[2564]","trial_type":"two-door-navigation","trial_index":16,"time_elapsed":959718,"internal_node_id":"0.0-2.0-14.0"},{"group":"hexagon_tri","room_assignment":["green","yellow","purple","grey","red","blue"],"door_color_assignment":["black","white"],"door_generator_assignment":[1,0],"goal":3,"start":4,"action_noise":0.2,"location_history":"[4,0,5,4,0,1,5,0,1,5,4,0,1,3]","action_history":"[0,0,0,0,1,1,1,1,1,0,0,1,0]","door_history":"[1,1,1,1,0,0,0,0,0,1,1,0,1]","location_rts":"[6411,461,407,577,1050,1086,705,440,430,694,452,489,371]","trial_type":"two-door-navigation","trial_index":17,"time_elapsed":990810,"internal_node_id":"0.0-2.0-15.0"},{"group":"hexagon_tri","room_assignment":["green","yellow","purple","grey","red","blue"],"door_color_assignment":["black","white"],"door_generator_assignment":[1,0],"goal":1,"start":3,"action_noise":0.2,"location_history":"[3,4,2,3,4,2,1]","action_history":"[1,1,0,1,1,0]","door_history":"[0,0,1,0,0,1]","location_rts":"[19289,968,393,997,379,378]","trial_type":"two-door-navigation","trial_index":18,"time_elapsed":1023236,"internal_node_id":"0.0-2.0-16.0"},{"group":"hexagon_tri","room_assignment":["green","yellow","purple","grey","red","blue"],"door_color_assignment":["black","white"],"door_generator_assignment":[1,0],"goal":5,"start":1,"action_noise":0.2,"location_history":"[1,5]","action_history":"[0]","door_history":"[1]","location_rts":"[1308]","trial_type":"two-door-navigation","trial_index":19,"time_elapsed":1029135,"internal_node_id":"0.0-2.0-17.0"},{"group":"hexagon_tri","room_assignment":["green","yellow","purple","grey","red","blue"],"door_color_assignment":["black","white"],"door_generator_assignment":[1,0],"goal":4,"start":5,"action_noise":0.2,"location_history":"[5,0,5,4]","action_history":"[1,1,0]","door_history":"[0,0,1]","location_rts":"[3235,870,649]","trial_type":"two-door-navigation","trial_index":20,"time_elapsed":1040632,"internal_node_id":"0.0-2.0-18.0"},{"group":"hexagon_tri","room_assignment":["green","yellow","purple","grey","red","blue"],"door_color_assignment":["black","white"],"door_generator_assignment":[1,0],"goal":0,"start":4,"action_noise":0.2,"location_history":"[4,2,1,3,4,2,3,4,2,1,3,2,3,2,1,3,2,3,2,3,2,1,5,4,0]","action_history":"[1,0,0,1,1,1,1,1,0,0,0,0,1,0,0,0,0,0,1,1,0,1,0,1]","door_history":"[0,1,1,0,0,0,0,0,1,1,1,1,0,1,1,1,1,1,0,0,1,0,1,0]","location_rts":"[2554,792,483,1162,681,674,567,447,1163,559,437,517,909,801,456,441,506,507,665,653,756,504,799,990]","trial_type":"two-door-navigation","trial_index":21,"time_elapsed":1088052,"internal_node_id":"0.0-2.0-19.0"},{"group":"hexagon_tri","room_assignment":["green","yellow","purple","grey","red","blue"],"door_color_assignment":["black","white"],"door_generator_assignment":[1,0],"goal":1,"start":0,"action_noise":0.2,"location_history":"[0,5,0,1]","action_history":"[0,1,1]","door_history":"[1,0,0]","location_rts":"[1663,2875,628]","trial_type":"two-door-navigation","trial_index":22,"time_elapsed":1099958,"internal_node_id":"0.0-2.0-20.0"},{"group":"hexagon_tri","room_assignment":["green","yellow","purple","grey","red","blue"],"door_color_assignment":["black","white"],"door_generator_assignment":[1,0],"goal":3,"start":1,"action_noise":0.2,"location_history":"[1,5,0,1,3]","action_history":"[1,1,1,0]","door_history":"[0,0,0,1]","location_rts":"[1883,664,439,1283]","trial_type":"two-door-navigation","trial_index":23,"time_elapsed":1112058,"internal_node_id":"0.0-2.0-21.0"},{"group":"hexagon_tri","room_assignment":["green","yellow","purple","grey","red","blue"],"door_color_assignment":["black","white"],"door_generator_assignment":[1,0],"goal":2,"start":3,"action_noise":0.2,"location_history":"[3,2]","action_history":"[0]","door_history":"[1]","location_rts":"[1396]","trial_type":"two-door-navigation","trial_index":24,"time_elapsed":1118059,"internal_node_id":"0.0-2.0-22.0"},{"group":"hexagon_tri","room_assignment":["green","yellow","purple","grey","red","blue"],"door_color_assignment":["black","white"],"door_generator_assignment":[1,0],"goal":0,"start":2,"action_noise":0.2,"location_history":"[2,1,3,2,3,2,3,4,2,3,2,3,2,3,2,3,2,1,5,4,2,3,4,2,1,3,4,2,1,3,4,0]","action_history":"[0,1,0,0,0,1,1,1,1,1,1,0,0,0,0,0,0,1,0,1,1,1,1,0,0,1,1,0,0,0,0]","door_history":"[1,0,1,1,1,0,0,0,0,0,0,1,1,1,1,1,1,0,1,0,0,0,0,1,1,0,0,1,1,1,1]","location_rts":"[1384,1700,764,390,506,696,520,424,485,509,463,391,426,412,422,482,394,685,567,802,974,469,419,897,545,1298,1031,939,853,1671,468]","trial_type":"two-door-navigation","trial_index":25,"time_elapsed":1177074,"internal_node_id":"0.0-2.0-23.0"},{"group":"hexagon_tri","room_assignment":["green","yellow","purple","grey","red","blue"],"door_color_assignment":["black","white"],"door_generator_assignment":[1,0],"goal":3,"start":0,"action_noise":0.2,"location_history":"[0,1,5,0,5,4,0,5,4,2,1,5,0,5,4,2,1,5,4,2,1,3]","action_history":"[1,1,1,0,0,0,0,0,1,0,1,1,1,0,1,1,0,0,0,0,0]","door_history":"[0,0,0,1,1,1,1,1,0,1,0,0,0,1,0,0,1,1,1,1,1]","location_rts":"[2156,946,655,930,581,417,777,4664,1344,835,829,707,752,1510,1078,583,1336,634,828,482,527]","trial_type":"two-door-navigation","trial_index":26,"time_elapsed":1225733,"internal_node_id":"0.0-2.0-24.0"},{"group":"hexagon_tri","room_assignment":["green","yellow","purple","grey","red","blue"],"door_color_assignment":["black","white"],"door_generator_assignment":[1,0],"goal":1,"start":3,"action_noise":0.2,"location_history":"[3,4,2,3,4,0,5,4,0,5,0,5,4,2,1]","action_history":"[1,0,1,1,1,0,0,0,0,0,0,0,0,0]","door_history":"[0,1,0,0,0,1,1,1,1,1,1,1,1,1]","location_rts":"[5871,1183,1208,531,753,1174,818,795,711,578,836,541,1123,889]","trial_type":"two-door-navigation","trial_index":27,"time_elapsed":1261324,"internal_node_id":"0.0-2.0-25.0"},{"group":"hexagon_tri","room_assignment":["green","yellow","purple","grey","red","blue"],"door_color_assignment":["black","white"],"door_generator_assignment":[1,0],"goal":2,"start":1,"action_noise":0.2,"location_history":"[1,5,0,1,5,4,0,1,3,2]","action_history":"[1,1,1,0,0,0,1,0,0]","door_history":"[0,0,0,1,1,1,0,1,1]","location_rts":"[5789,2129,593,937,632,741,2928,8170,697]","trial_type":"two-door-navigation","trial_index":28,"time_elapsed":1297183,"internal_node_id":"0.0-2.0-26.0"},{"group":"hexagon_tri","room_assignment":["green","yellow","purple","grey","red","blue"],"door_color_assignment":["black","white"],"door_generator_assignment":[1,0],"goal":5,"start":2,"action_noise":0.2,"location_history":"[2,1,3,2,3,4,2,3,4,2,3,2,1,3,2,1,3,4,2,3,2,3,4,2,1,3,4,0,5]","action_history":"[1,0,1,1,1,1,1,1,1,0,0,0,0,0,0,0,1,1,0,0,0,0,0,0,0,0,1,0]","door_history":"[0,1,0,0,0,0,0,0,0,1,1,1,1,1,1,1,0,0,1,1,1,1,1,1,1,1,0,1]","location_rts":"[1306,1057,706,447,549,966,1436,677,621,952,596,905,708,784,438,638,936,645,483,406,489,49854,936,652,522,814,160,503]","trial_type":"two-door-navigation","trial_index":29,"time_elapsed":1400072,"internal_node_id":"0.0-2.0-27.0"},{"group":"hexagon_tri","room_assignment":["green","yellow","purple","grey","red","blue"],"door_color_assignment":["black","white"],"door_generator_assignment":[1,0],"goal":4,"start":5,"action_noise":0.2,"location_history":"[5,0,1,3,4]","action_history":"[1,0,0,1]","door_history":"[0,1,1,0]","location_rts":"[10518,899,544,1060]","trial_type":"two-door-navigation","trial_index":30,"time_elapsed":1420932,"internal_node_id":"0.0-2.0-28.0"},{"group":"hexagon_tri","room_assignment":["green","yellow","purple","grey","red","blue"],"door_color_assignment":["black","white"],"door_generator_assignment":[1,0],"goal":5,"start":4,"action_noise":0.2,"location_history":"[4,0,1,3,2,3,2,1,5]","action_history":"[0,1,0,1,1,0,0,1]","door_history":"[1,0,1,0,0,1,1,0]","location_rts":"[1325,537,797,680,568,876,484,736]","trial_type":"two-door-navigation","trial_index":31,"time_elapsed":1439102,"internal_node_id":"0.0-2.0-29.0"},{"group":"hexagon_tri","room_assignment":["green","yellow","purple","grey","red","blue"],"door_color_assignment":["black","white"],"door_generator_assignment":[1,0],"goal":3,"start":5,"action_noise":0.2,"location_history":"[5,0,5,0,1,5,0,1,3]","action_history":"[1,0,0,1,0,1,1,1]","door_history":"[0,1,1,0,1,0,0,0]","location_rts":"[1176,731,425,1108,843,752,574,429]","trial_type":"two-door-navigation","trial_index":32,"time_elapsed":1457317,"internal_node_id":"0.0-2.0-30.0"},{"group":"hexagon_tri","room_assignment":["green","yellow","purple","grey","red","blue"],"door_color_assignment":["black","white"],"door_generator_assignment":[1,0],"goal":0,"start":3,"action_noise":0.2,"location_history":"[3,2,3,4,2,1,3,4,2,3,4,0]","action_history":"[0,1,1,1,0,0,1,1,1,1,0]","door_history":"[1,0,0,0,1,1,0,0,0,0,1]","location_rts":"[1859,968,572,565,933,595,934,319,612,550,956]","trial_type":"two-door-navigation","trial_index":33,"time_elapsed":1481572,"internal_node_id":"0.0-2.0-31.0"},{"group":"hexagon_tri","room_assignment":["green","yellow","purple","grey","red","blue"],"door_color_assignment":["black","white"],"door_generator_assignment":[1,0],"goal":4,"start":0,"action_noise":0.2,"location_history":"[0,5,0,1,5,4]","action_history":"[0,1,1,1,0]","door_history":"[1,0,0,0,1]","location_rts":"[1368,1173,431,594,453]","trial_type":"two-door-navigation","trial_index":34,"time_elapsed":1494495,"internal_node_id":"0.0-2.0-32.0"},{"group":"hexagon_tri","room_assignment":["green","yellow","purple","grey","red","blue"],"door_color_assignment":["black","white"],"door_generator_assignment":[1,0],"goal":1,"start":4,"action_noise":0.2,"location_history":"[4,2,3,4,0,5,0,5,4,2,1]","action_history":"[0,1,1,0,0,1,0,0,1,1]","door_history":"[1,0,0,1,1,0,1,1,0,0]","location_rts":"[1334,662,427,882,478,1577,544,398,1053,969]","trial_type":"two-door-navigation","trial_index":35,"time_elapsed":1517114,"internal_node_id":"0.0-2.0-33.0"},{"group":"hexagon_tri","room_assignment":["green","yellow","purple","grey","red","blue"],"door_color_assignment":["black","white"],"door_generator_assignment":[1,0],"goal":2,"start":1,"action_noise":0.2,"location_history":"[1,3,2]","action_history":"[0,1]","door_history":"[1,0]","location_rts":"[1341,1069]","trial_type":"two-door-navigation","trial_index":36,"time_elapsed":1525192,"internal_node_id":"0.0-2.0-34.0"},{"group":"hexagon_tri","room_assignment":["green","yellow","purple","grey","red","blue"],"door_color_assignment":["black","white"],"door_generator_assignment":[1,0],"goal":0,"start":2,"action_noise":0.2,"location_history":"[2,1,3,2,3,4,2,1,3,2,3,4,2,1,3,2,1,3,4,0]","action_history":"[0,1,0,1,1,0,0,0,0,1,1,1,0,1,0,0,0,1,0]","door_history":"[1,0,1,0,0,1,1,1,1,0,0,0,1,0,1,1,1,0,1]","location_rts":"[13580,2356,701,1415,700,718,643,417,446,1233,1345,424,975,587,986,586,616,923,1194]","trial_type":"two-door-navigation","trial_index":37,"time_elapsed":1579367,"internal_node_id":"0.0-2.0-35.0"},{"group":"hexagon_tri","room_assignment":["green","yellow","purple","grey","red","blue"],"door_color_assignment":["black","white"],"door_generator_assignment":[1,0],"goal":5,"start":0,"action_noise":0.2,"location_history":"[0,5]","action_history":"[1]","door_history":"[0]","location_rts":"[1460]","trial_type":"two-door-navigation","trial_index":38,"time_elapsed":1585418,"internal_node_id":"0.0-2.0-36.0"},{"group":"hexagon_tri","room_assignment":["green","yellow","purple","grey","red","blue"],"door_color_assignment":["black","white"],"door_generator_assignment":[1,0],"goal":2,"start":5,"action_noise":0.2,"location_history":"[5,4,2]","action_history":"[0,1]","door_history":"[1,0]","location_rts":"[1319,862]","trial_type":"two-door-navigation","trial_index":39,"time_elapsed":1593256,"internal_node_id":"0.0-2.0-37.0"},{"group":"hexagon_tri","room_assignment":["green","yellow","purple","grey","red","blue"],"door_color_assignment":["black","white"],"door_generator_assignment":[1,0],"goal":1,"start":2,"action_noise":0.2,"location_history":"[2,1]","action_history":"[0]","door_history":"[1]","location_rts":"[1129]","trial_type":"two-door-navigation","trial_index":40,"time_elapsed":1598982,"internal_node_id":"0.0-2.0-38.0"},{"group":"hexagon_tri","room_assignment":["green","yellow","purple","grey","red","blue"],"door_color_assignment":["black","white"],"door_generator_assignment":[1,0],"goal":4,"start":1,"action_noise":0.2,"location_history":"[1,5,4]","action_history":"[1,0]","door_history":"[0,1]","location_rts":"[1370,509]","trial_type":"two-door-navigation","trial_index":41,"time_elapsed":1606537,"internal_node_id":"0.0-2.0-39.0"},{"group":"hexagon_tri","room_assignment":["green","yellow","purple","grey","red","blue"],"door_color_assignment":["black","white"],"door_generator_assignment":[1,0],"goal":3,"start":4,"action_noise":0.2,"location_history":"[4,2,1,3]","action_history":"[1,1,0]","door_history":"[0,0,1]","location_rts":"[1245,829,888]","trial_type":"two-door-navigation","trial_index":42,"time_elapsed":1616244,"internal_node_id":"0.0-2.0-40.0"},{"group":"hexagon_tri","room_assignment":["green","yellow","purple","grey","red","blue"],"door_color_assignment":["black","white"],"door_generator_assignment":[1,0],"goal":5,"start":3,"action_noise":0.2,"location_history":"[3,4,0,1,5]","action_history":"[1,0,1,1]","door_history":"[0,1,0,0]","location_rts":"[1324,1191,1235,853]","trial_type":"two-door-navigation","trial_index":43,"time_elapsed":1628674,"internal_node_id":"0.0-2.0-41.0"},{"group":"hexagon_tri","room_assignment":["green","yellow","purple","grey","red","blue"],"door_color_assignment":["black","white"],"door_generator_assignment":[1,0],"goal":3,"start":5,"action_noise":0.2,"location_history":"[5,0,1,3]","action_history":"[0,1,0]","door_history":"[1,0,1]","location_rts":"[7085,784,979]","trial_type":"two-door-navigation","trial_index":44,"time_elapsed":1644272,"internal_node_id":"0.0-2.0-42.0"},{"group":"hexagon_tri","room_assignment":["green","yellow","purple","grey","red","blue"],"door_color_assignment":["black","white"],"door_generator_assignment":[1,0],"goal":0,"start":3,"action_noise":0.2,"location_history":"[3,4,0]","action_history":"[1,0]","door_history":"[0,1]","location_rts":"[1178,933]","trial_type":"two-door-navigation","trial_index":45,"time_elapsed":1652053,"internal_node_id":"0.0-2.0-43.0"},{"group":"hexagon_tri","room_assignment":["green","yellow","purple","grey","red","blue"],"door_color_assignment":["black","white"],"door_generator_assignment":[1,0],"goal":2,"start":0,"action_noise":0.2,"location_history":"[0,5,4,2]","action_history":"[1,0,0]","door_history":"[0,1,1]","location_rts":"[1535,1331,829]","trial_type":"two-door-navigation","trial_index":46,"time_elapsed":1662489,"internal_node_id":"0.0-2.0-44.0"},{"group":"hexagon_tri","room_assignment":["green","yellow","purple","grey","red","blue"],"door_color_assignment":["black","white"],"door_generator_assignment":[1,0],"goal":4,"start":2,"action_noise":0.2,"location_history":"[2,3,4]","action_history":"[1,0]","door_history":"[0,1]","location_rts":"[1304,1135]","trial_type":"two-door-navigation","trial_index":47,"time_elapsed":1670596,"internal_node_id":"0.0-2.0-45.0"},{"group":"hexagon_tri","room_assignment":["green","yellow","purple","grey","red","blue"],"door_color_assignment":["black","white"],"door_generator_assignment":[1,0],"goal":1,"start":4,"action_noise":0.2,"location_history":"[4,0,5,4,0,1]","action_history":"[1,0,0,0,1]","door_history":"[0,1,1,1,0]","location_rts":"[1554,991,736,764,733]","trial_type":"two-door-navigation","trial_index":48,"time_elapsed":1684260,"internal_node_id":"0.0-2.0-46.0"},{"group":"hexagon_tri","room_assignment":["green","yellow","purple","grey","red","blue"],"door_color_assignment":["black","white"],"door_generator_assignment":[1,0],"goal":4,"start":1,"action_noise":0.2,"location_history":"[1,3,2,1,5,0,1,5,0,5,0,1,5,0,5,0,1,3,2,1,5,0,1,5,4]","action_history":"[0,0,1,1,1,1,1,0,0,0,1,1,0,0,0,1,0,1,0,1,1,0,1,1]","door_history":"[1,1,0,0,0,0,0,1,1,1,0,0,1,1,1,0,1,0,1,0,0,1,0,0]","location_rts":"[1050,585,990,1549,513,564,538,459,814,565,823,943,651,611,660,916,934,1176,882,726,410,746,917,797]","trial_type":"two-door-navigation","trial_index":49,"time_elapsed":1732421,"internal_node_id":"0.0-2.0-47.0"},{"group":"hexagon_tri","room_assignment":["green","yellow","purple","grey","red","blue"],"door_color_assignment":["black","white"],"door_generator_assignment":[1,0],"goal":1,"start":4,"action_noise":0.2,"location_history":"[4,0,5,0,5,4,0,5,0,5,4,0,5,4,2,1]","action_history":"[0,1,1,0,0,0,0,1,0,0,1,0,0,1,0]","door_history":"[1,0,0,1,1,1,1,0,1,1,0,1,1,0,1]","location_rts":"[4177,923,609,758,384,669,465,900,835,346,1013,931,1957,782,674]","trial_type":"two-door-navigation","trial_index":50,"time_elapsed":1767598,"internal_node_id":"0.0-2.0-48.0"},{"group":"hexagon_tri","room_assignment":["green","yellow","purple","grey","red","blue"],"door_color_assignment":["black","white"],"door_generator_assignment":[1,0],"goal":3,"start":1,"action_noise":0.2,"location_history":"[1,5,4,2,1,3]","action_history":"[1,0,1,1,0]","door_history":"[0,1,0,0,1]","location_rts":"[9964,771,968,558,795]","trial_type":"two-door-navigation","trial_index":51,"time_elapsed":1789552,"internal_node_id":"0.0-2.0-49.0"},{"group":"hexagon_tri","room_assignment":["green","yellow","purple","grey","red","blue"],"door_color_assignment":["black","white"],"door_generator_assignment":[1,0],"goal":5,"start":3,"action_noise":0.2,"location_history":"[3,2,3,4,0,5]","action_history":"[1,0,0,0,0]","door_history":"[0,1,1,1,1]","location_rts":"[2532,753,631,484,494]","trial_type":"two-door-navigation","trial_index":52,"time_elapsed":1803327,"internal_node_id":"0.0-2.0-50.0"},{"group":"hexagon_tri","room_assignment":["green","yellow","purple","grey","red","blue"],"door_color_assignment":["black","white"],"door_generator_assignment":[1,0],"goal":0,"start":5,"action_noise":0.2,"location_history":"[5,4,0]","action_history":"[0,0]","door_history":"[1,1]","location_rts":"[1451,881]","trial_type":"two-door-navigation","trial_index":53,"time_elapsed":1811315,"internal_node_id":"0.0-2.0-51.0"},{"group":"hexagon_tri","room_assignment":["green","yellow","purple","grey","red","blue"],"door_color_assignment":["black","white"],"door_generator_assignment":[1,0],"goal":2,"start":0,"action_noise":0.2,"location_history":"[0,5,4,2]","action_history":"[0,1,1]","door_history":"[1,0,0]","location_rts":"[1307,746,335]","trial_type":"two-door-navigation","trial_index":54,"time_elapsed":1820457,"internal_node_id":"0.0-2.0-52.0"},{"group":"hexagon_tri","room_assignment":["green","yellow","purple","grey","red","blue"],"door_color_assignment":["black","white"],"door_generator_assignment":[1,0],"goal":1,"start":2,"action_noise":0.2,"location_history":"[2,1]","action_history":"[0]","door_history":"[1]","location_rts":"[1324]","trial_type":"two-door-navigation","trial_index":55,"time_elapsed":1826367,"internal_node_id":"0.0-2.0-53.0"},{"group":"hexagon_tri","room_assignment":["green","yellow","purple","grey","red","blue"],"door_color_assignment":["black","white"],"door_generator_assignment":[1,0],"goal":2,"start":1,"action_noise":0.2,"location_history":"[1,3,4,0,5,0,5,4,0,1,5,0,1,5,0,5,0,1,3,4,2]","action_history":"[0,1,0,0,0,0,0,0,1,0,1,1,1,1,0,0,1,0,0,1]","door_history":"[1,0,1,1,1,1,1,1,0,1,0,0,0,0,1,1,0,1,1,0]","location_rts":"[1138,1994,881,483,525,477,581,623,364,925,1011,388,493,537,587,388,613,823,1394,926]","trial_type":"two-door-navigation","trial_index":56,"time_elapsed":1866572,"internal_node_id":"0.0-2.0-54.0"},{"group":"hexagon_tri","room_assignment":["green","yellow","purple","grey","red","blue"],"door_color_assignment":["black","white"],"door_generator_assignment":[1,0],"goal":5,"start":2,"action_noise":0.2,"location_history":"[2,3,2,1,3,4,0,5]","action_history":"[1,0,0,0,1,0,0]","door_history":"[0,1,1,1,0,1,1]","location_rts":"[880,699,586,714,1022,1377,694]","trial_type":"two-door-navigation","trial_index":57,"time_elapsed":1883625,"internal_node_id":"0.0-2.0-55.0"},{"group":"hexagon_tri","room_assignment":["green","yellow","purple","grey","red","blue"],"door_color_assignment":["black","white"],"door_generator_assignment":[1,0],"goal":4,"start":5,"action_noise":0.2,"location_history":"[5,4]","action_history":"[0]","door_history":"[1]","location_rts":"[1402]","trial_type":"two-door-navigation","trial_index":58,"time_elapsed":1889620,"internal_node_id":"0.0-2.0-56.0"},{"group":"hexagon_tri","room_assignment":["green","yellow","purple","grey","red","blue"],"door_color_assignment":["black","white"],"door_generator_assignment":[1,0],"goal":3,"start":4,"action_noise":0.2,"location_history":"[4,2,3]","action_history":"[0,1]","door_history":"[1,0]","location_rts":"[1308,1421]","trial_type":"two-door-navigation","trial_index":59,"time_elapsed":1898027,"internal_node_id":"0.0-2.0-57.0"},{"group":"hexagon_tri","room_assignment":["green","yellow","purple","grey","red","blue"],"door_color_assignment":["black","white"],"door_generator_assignment":[1,0],"goal":0,"start":3,"action_noise":0.2,"location_history":"[3,2,1,3,2,3,4,0]","action_history":"[0,0,0,0,1,1,0]","door_history":"[1,1,1,1,0,0,1]","location_rts":"[1176,580,640,432,837,446,1243]","trial_type":"two-door-navigation","trial_index":60,"time_elapsed":1914459,"internal_node_id":"0.0-2.0-58.0"},{"group":"hexagon_tri","room_assignment":["green","yellow","purple","grey","red","blue"],"door_color_assignment":["black","white"],"door_generator_assignment":[1,0],"goal":2,"start":0,"action_noise":0.2,"location_history":"[0,1,5,0,5,0,5,0,5,4,0,1,5,4,0,5,4,0,1,5,4,2]","action_history":"[0,1,1,0,0,0,1,1,0,0,1,1,0,0,0,0,0,1,0,1,1]","door_history":"[1,0,0,1,1,1,0,0,1,1,0,0,1,1,1,1,1,0,1,0,0]","location_rts":"[1589,423,771,519,335,859,1047,629,760,296,552,575,1005,600,541,516,620,915,678,910,632]","trial_type":"two-door-navigation","trial_index":61,"time_elapsed":1955355,"internal_node_id":"0.0-2.0-59.0"},{"group":"hexagon_tri","room_assignment":["green","yellow","purple","grey","red","blue"],"door_color_assignment":["black","white"],"door_generator_assignment":[1,0],"goal":1,"start":2,"action_noise":0.2,"location_history":"[2,1]","action_history":"[0]","door_history":"[1]","location_rts":"[4182]","trial_type":"two-door-navigation","trial_index":62,"time_elapsed":1964500,"internal_node_id":"0.0-2.0-60.0"},{"group":"hexagon_tri","room_assignment":["green","yellow","purple","grey","red","blue"],"door_color_assignment":["black","white"],"door_generator_assignment":[1,0],"goal":0,"start":1,"action_noise":0.2,"location_history":"[1,5,4,0]","action_history":"[0,1,0]","door_history":"[1,0,1]","location_rts":"[79538,586,682]","trial_type":"two-door-navigation","trial_index":63,"time_elapsed":2053026,"internal_node_id":"0.0-2.0-61.0"},{"group":"hexagon_tri","room_assignment":["green","yellow","purple","grey","red","blue"],"door_color_assignment":["black","white"],"door_generator_assignment":[1,0],"goal":3,"start":0,"action_noise":0.2,"location_history":"[0,5,4,2,1,5,0,5,0,5,0,5,0,1,3]","action_history":"[1,0,1,0,1,1,0,1,0,0,0,1,1,0]","door_history":"[0,1,0,1,0,0,1,0,1,1,1,0,0,1]","location_rts":"[1771,590,521,1370,1575,480,401,601,689,289,673,1162,546,1200]","trial_type":"two-door-navigation","trial_index":64,"time_elapsed":2083475,"internal_node_id":"0.0-2.0-62.0"},{"group":"hexagon_tri","room_assignment":["green","yellow","purple","grey","red","blue"],"door_color_assignment":["black","white"],"door_generator_assignment":[1,0],"goal":5,"start":3,"action_noise":0.2,"location_history":"[3,2,3,2,1,5]","action_history":"[0,1,0,0,1]","door_history":"[1,0,1,1,0]","location_rts":"[2033,1422,1310,684,980]","trial_type":"two-door-navigation","trial_index":65,"time_elapsed":2098845,"internal_node_id":"0.0-2.0-63.0"},{"group":"hexagon_tri","room_assignment":["green","yellow","purple","grey","red","blue"],"door_color_assignment":["black","white"],"door_generator_assignment":[1,0],"goal":4,"start":5,"action_noise":0.2,"location_history":"[5,0,5,0,5,4]","action_history":"[1,0,0,0,0]","door_history":"[0,1,1,1,1]","location_rts":"[1138,1249,790,2407,888]","trial_type":"two-door-navigation","trial_index":66,"time_elapsed":2114209,"internal_node_id":"0.0-2.0-64.0"},{"group":"hexagon_tri","room_assignment":["green","yellow","purple","grey","red","blue"],"door_color_assignment":["black","white"],"door_generator_assignment":[1,0],"goal":1,"start":4,"action_noise":0.2,"location_history":"[4,2,3,2,1]","action_history":"[0,1,0,0]","door_history":"[1,0,1,1]","location_rts":"[1090,1037,1003,343]","trial_type":"two-door-navigation","trial_index":67,"time_elapsed":2125533,"internal_node_id":"0.0-2.0-65.0"},{"group":"hexagon_tri","room_assignment":["green","yellow","purple","grey","red","blue"],"door_color_assignment":["black","white"],"door_generator_assignment":[1,0],"goal":5,"start":1,"action_noise":0.2,"location_history":"[1,5]","action_history":"[1]","door_history":"[0]","location_rts":"[1102]","trial_type":"two-door-navigation","trial_index":68,"time_elapsed":2131222,"internal_node_id":"0.0-2.0-66.0"},{"group":"hexagon_tri","room_assignment":["green","yellow","purple","grey","red","blue"],"door_color_assignment":["black","white"],"door_generator_assignment":[1,0],"goal":2,"start":5,"action_noise":0.2,"location_history":"[5,0,1,3,2]","action_history":"[0,1,0,0]","door_history":"[1,0,1,1]","location_rts":"[1306,772,678,622]","trial_type":"two-door-navigation","trial_index":69,"time_elapsed":2142449,"internal_node_id":"0.0-2.0-67.0"},{"group":"hexagon_tri","room_assignment":["green","yellow","purple","grey","red","blue"],"door_color_assignment":["black","white"],"door_generator_assignment":[1,0],"goal":3,"start":2,"action_noise":0.2,"location_history":"[2,1,5,0,1,5,0,5,0,1,5,0,5,0,5,4,0,1,3]","action_history":"[0,1,1,1,1,1,1,1,1,1,1,0,0,1,0,0,1,0]","door_history":"[1,0,0,0,0,0,0,0,0,0,0,1,1,0,1,1,0,1]","location_rts":"[1340,760,515,537,421,412,393,570,395,511,449,783,625,596,86,456,480,554]","trial_type":"two-door-navigation","trial_index":70,"time_elapsed":2175202,"internal_node_id":"0.0-2.0-68.0"},{"group":"hexagon_tri","room_assignment":["green","yellow","purple","grey","red","blue"],"door_color_assignment":["black","white"],"door_generator_assignment":[1,0],"goal":4,"start":3,"action_noise":0.2,"location_history":"[3,4]","action_history":"[0]","door_history":"[1]","location_rts":"[1942]","trial_type":"two-door-navigation","trial_index":71,"time_elapsed":2181740,"internal_node_id":"0.0-2.0-69.0"},{"group":"hexagon_tri","room_assignment":["green","yellow","purple","grey","red","blue"],"door_color_assignment":["black","white"],"door_generator_assignment":[1,0],"goal":0,"start":4,"action_noise":0.2,"location_history":"[4,2,3,2,1,5,4,0]","action_history":"[1,0,0,0,1,0,0]","door_history":"[0,1,1,1,0,1,1]","location_rts":"[1319,900,634,620,1038,552,769]","trial_type":"two-door-navigation","trial_index":72,"time_elapsed":2198626,"internal_node_id":"0.0-2.0-70.0"},{"group":"hexagon_tri","room_assignment":["green","yellow","purple","grey","red","blue"],"door_color_assignment":["black","white"],"door_generator_assignment":[1,0],"goal":5,"start":0,"action_noise":0.2,"location_history":"[0,1,5]","action_history":"[1,1]","door_history":"[0,0]","location_rts":"[1030,1393]","trial_type":"two-door-navigation","trial_index":73,"time_elapsed":2206713,"internal_node_id":"0.0-2.0-71.0"},{"group":"hexagon_tri","room_assignment":["green","yellow","purple","grey","red","blue"],"door_color_assignment":["black","white"],"door_generator_assignment":[1,0],"goal":0,"start":5,"action_noise":0.2,"location_history":"[5,0]","action_history":"[0]","door_history":"[1]","location_rts":"[3548]","trial_type":"two-door-navigation","trial_index":74,"time_elapsed":2214865,"internal_node_id":"0.0-2.0-72.0"},{"group":"hexagon_tri","room_assignment":["green","yellow","purple","grey","red","blue"],"door_color_assignment":["black","white"],"door_generator_assignment":[1,0],"goal":3,"start":0,"action_noise":0.2,"location_history":"[0,5,0,1,5,0,1,5,0,1,3]","action_history":"[0,1,1,0,1,1,1,1,1,0]","door_history":"[1,0,0,1,0,0,0,0,0,1]","location_rts":"[1087,1168,635,954,753,295,479,450,551,124]","trial_type":"two-door-navigation","trial_index":75,"time_elapsed":2235657,"internal_node_id":"0.0-2.0-73.0"},{"group":"hexagon_tri","room_assignment":["green","yellow","purple","grey","red","blue"],"door_color_assignment":["black","white"],"door_generator_assignment":[1,0],"goal":1,"start":3,"action_noise":0.2,"location_history":"[3,4,0,1]","action_history":"[1,0,1]","door_history":"[0,1,0]","location_rts":"[1904,3194,672]","trial_type":"two-door-navigation","trial_index":76,"time_elapsed":2248157,"internal_node_id":"0.0-2.0-74.0"},{"group":"hexagon_tri","room_assignment":["green","yellow","purple","grey","red","blue"],"door_color_assignment":["black","white"],"door_generator_assignment":[1,0],"goal":2,"start":1,"action_noise":0.2,"location_history":"[1,3,4,0,5,4,2]","action_history":"[0,1,0,0,0,1]","door_history":"[1,0,1,1,1,0]","location_rts":"[3911,1076,773,607,333,808]","trial_type":"two-door-navigation","trial_index":77,"time_elapsed":2265613,"internal_node_id":"0.0-2.0-75.0"},{"group":"hexagon_tri","room_assignment":["green","yellow","purple","grey","red","blue"],"door_color_assignment":["black","white"],"door_generator_assignment":[1,0],"goal":4,"start":2,"action_noise":0.2,"location_history":"[2,1,3,4]","action_history":"[1,0,1]","door_history":"[0,1,0]","location_rts":"[8694,709,1434]","trial_type":"two-door-navigation","trial_index":78,"time_elapsed":2283149,"internal_node_id":"0.0-2.0-76.0"},{"group":"hexagon_tri","room_assignment":["green","yellow","purple","grey","red","blue"],"door_color_assignment":["black","white"],"door_generator_assignment":[1,0],"goal":3,"start":4,"action_noise":0.2,"location_history":"[4,0,1,3]","action_history":"[0,1,0]","door_history":"[1,0,1]","location_rts":"[2151,559,1228]","trial_type":"two-door-navigation","trial_index":79,"time_elapsed":2293837,"internal_node_id":"0.0-2.0-77.0"},{"group":"hexagon_tri","room_assignment":["green","yellow","purple","grey","red","blue"],"door_color_assignment":["black","white"],"door_generator_assignment":[1,0],"goal":0,"start":3,"action_noise":0.2,"location_history":"[3,2,3,2,3,2,3,2,1,3,2,3,2,3,4,0]","action_history":"[0,1,0,0,0,0,0,0,0,0,0,0,1,0,1]","door_history":"[1,0,1,1,1,1,1,1,1,1,1,1,0,1,0]","location_rts":"[1088,2215,7166,2300,494,556,6754,875,1101,936,1882,362,555,278,1036]","trial_type":"two-door-navigation","trial_index":80,"time_elapsed":2341081,"internal_node_id":"0.0-2.0-78.0"},{"group":"hexagon_tri","room_assignment":["green","yellow","purple","grey","red","blue"],"door_color_assignment":["black","white"],"door_generator_assignment":[1,0],"goal":4,"start":0,"action_noise":0.2,"location_history":"[0,1,3,4]","action_history":"[1,0,1]","door_history":"[0,1,0]","location_rts":"[13672,630,465]","trial_type":"two-door-navigation","trial_index":81,"time_elapsed":2362545,"internal_node_id":"0.0-2.0-79.0"},{"group":"hexagon_tri","room_assignment":["green","yellow","purple","grey","red","blue"],"door_color_assignment":["black","white"],"door_generator_assignment":[1,0],"goal":5,"start":4,"action_noise":0.2,"location_history":"[4,0,5]","action_history":"[0,0]","door_history":"[1,1]","location_rts":"[1051,432]","trial_type":"two-door-navigation","trial_index":82,"time_elapsed":2369689,"internal_node_id":"0.0-2.0-80.0"},{"group":"hexagon_tri","room_assignment":["green","yellow","purple","grey","red","blue"],"door_color_assignment":["black","white"],"door_generator_assignment":[1,0],"goal":1,"start":5,"action_noise":0.2,"location_history":"[5,4,0,5,4,2,1]","action_history":"[1,0,0,0,1,0]","door_history":"[0,1,1,1,0,1]","location_rts":"[3595,432,639,570,1267,417]","trial_type":"two-door-navigation","trial_index":83,"time_elapsed":2386542,"internal_node_id":"0.0-2.0-81.0"},{"group":"hexagon_tri","room_assignment":["green","yellow","purple","grey","red","blue"],"door_color_assignment":["black","white"],"door_generator_assignment":[1,0],"goal":2,"start":1,"action_noise":0.2,"location_history":"[1,3,2]","action_history":"[1,0]","door_history":"[0,1]","location_rts":"[1327,431]","trial_type":"two-door-navigation","trial_index":84,"time_elapsed":2393949,"internal_node_id":"0.0-2.0-82.0"},{"group":"hexagon_tri","room_assignment":["green","yellow","purple","grey","red","blue"],"door_color_assignment":["black","white"],"door_generator_assignment":[1,0],"goal":4,"start":2,"action_noise":0.2,"location_history":"[2,3,2,1,3,2,1,5,4]","action_history":"[1,1,0,0,0,0,1,0]","door_history":"[0,0,1,1,1,1,0,1]","location_rts":"[1605,5829,540,439,555,584,776,384]","trial_type":"two-door-navigation","trial_index":85,"time_elapsed":2416773,"internal_node_id":"0.0-2.0-83.0"},{"group":"hexagon_tri","room_assignment":["green","yellow","purple","grey","red","blue"],"door_color_assignment":["black","white"],"door_generator_assignment":[1,0],"goal":0,"start":4,"action_noise":0.2,"location_history":"[4,2,3,2,1,3,2,3,4,2,3,2,1,5,4,2,1,3,4,0]","action_history":"[1,1,0,0,0,0,1,1,0,1,1,0,1,0,1,0,0,1,0]","door_history":"[0,0,1,1,1,1,0,0,1,0,0,1,0,1,0,1,1,0,1]","location_rts":"[12744,6464,655,5881,806,16051,3614,517,506,666,461,503,576,604,786,1031,924,672,583]","trial_type":"two-door-navigation","trial_index":86,"time_elapsed":2494698,"internal_node_id":"0.0-2.0-84.0"},{"group":"hexagon_tri","room_assignment":["green","yellow","purple","grey","red","blue"],"door_color_assignment":["black","white"],"door_generator_assignment":[1,0],"goal":5,"start":0,"action_noise":0.2,"location_history":"[0,5]","action_history":"[0]","door_history":"[1]","location_rts":"[1482]","trial_type":"two-door-navigation","trial_index":87,"time_elapsed":2500779,"internal_node_id":"0.0-2.0-85.0"},{"group":"hexagon_tri","room_assignment":["green","yellow","purple","grey","red","blue"],"door_color_assignment":["black","white"],"door_generator_assignment":[1,0],"goal":3,"start":5,"action_noise":0.2,"location_history":"[5,0,1,3]","action_history":"[1,0,0]","door_history":"[0,1,1]","location_rts":"[2338,1308,427]","trial_type":"two-door-navigation","trial_index":88,"time_elapsed":2511612,"internal_node_id":"0.0-2.0-86.0"},{"group":"hexagon_tri","room_assignment":["green","yellow","purple","grey","red","blue"],"door_color_assignment":["black","white"],"door_generator_assignment":[1,0],"goal":1,"start":3,"action_noise":0.2,"location_history":"[3,2,1]","action_history":"[0,1]","door_history":"[1,0]","location_rts":"[1210,531]","trial_type":"two-door-navigation","trial_index":89,"time_elapsed":2519030,"internal_node_id":"0.0-2.0-87.0"},{"group":"hexagon_tri","room_assignment":["green","yellow","purple","grey","red","blue"],"door_color_assignment":["black","white"],"door_generator_assignment":[1,0],"goal":2,"start":1,"action_noise":0.2,"location_history":"[1,3,2]","action_history":"[0,0]","door_history":"[1,1]","location_rts":"[3298,782]","trial_type":"two-door-navigation","trial_index":90,"time_elapsed":2528786,"internal_node_id":"0.0-2.0-88.0"},{"group":"hexagon_tri","room_assignment":["green","yellow","purple","grey","red","blue"],"door_color_assignment":["black","white"],"door_generator_assignment":[1,0],"goal":0,"start":2,"action_noise":0.2,"location_history":"[2,3,2,3,4,2,1,5,4,2,3,4,2,1,3,2,1,5,4,0]","action_history":"[1,0,1,1,0,1,1,0,1,1,1,1,0,0,1,1,1,0,1]","door_history":"[0,1,0,0,1,0,0,1,0,0,0,0,1,1,0,0,0,1,0]","location_rts":"[24941,726,538,331,816,670,373,404,629,371,600,968,854,661,824,462,567,616,747]","trial_type":"two-door-navigation","trial_index":91,"time_elapsed":2588768,"internal_node_id":"0.0-2.0-89.0"},{"group":"hexagon_tri","room_assignment":["green","yellow","purple","grey","red","blue"],"door_color_assignment":["black","white"],"door_generator_assignment":[1,0],"goal":5,"start":0,"action_noise":0.2,"location_history":"[0,5]","action_history":"[0]","door_history":"[1]","location_rts":"[1721]","trial_type":"two-door-navigation","trial_index":92,"time_elapsed":2595084,"internal_node_id":"0.0-2.0-90.0"},{"group":"hexagon_tri","room_assignment":["green","yellow","purple","grey","red","blue"],"door_color_assignment":["black","white"],"door_generator_assignment":[1,0],"goal":1,"start":5,"action_noise":0.2,"location_history":"[5,4,2,1]","action_history":"[0,1,0]","door_history":"[1,0,1]","location_rts":"[1098,730,809]","trial_type":"two-door-navigation","trial_index":93,"time_elapsed":2604468,"internal_node_id":"0.0-2.0-91.0"},{"group":"hexagon_tri","room_assignment":["green","yellow","purple","grey","red","blue"],"door_color_assignment":["black","white"],"door_generator_assignment":[1,0],"goal":3,"start":1,"action_noise":0.2,"location_history":"[1,3]","action_history":"[1]","door_history":"[0]","location_rts":"[1435]","trial_type":"two-door-navigation","trial_index":94,"time_elapsed":2610498,"internal_node_id":"0.0-2.0-92.0"},{"group":"hexagon_tri","room_assignment":["green","yellow","purple","grey","red","blue"],"door_color_assignment":["black","white"],"door_generator_assignment":[1,0],"goal":4,"start":3,"action_noise":0.2,"location_history":"[3,2,3,4]","action_history":"[0,1,1]","door_history":"[1,0,0]","location_rts":"[1465,805,563]","trial_type":"two-door-navigation","trial_index":95,"time_elapsed":2620064,"internal_node_id":"0.0-2.0-93.0"},{"group":"hexagon_tri","room_assignment":["green","yellow","purple","grey","red","blue"],"door_color_assignment":["black","white"],"door_generator_assignment":[1,0],"goal":2,"start":4,"action_noise":0.2,"location_history":"[4,2]","action_history":"[0]","door_history":"[1]","location_rts":"[1129]","trial_type":"two-door-navigation","trial_index":96,"time_elapsed":2625787,"internal_node_id":"0.0-2.0-94.0"},{"group":"hexagon_tri","room_assignment":["green","yellow","purple","grey","red","blue"],"door_color_assignment":["black","white"],"door_generator_assignment":[1,0],"goal":4,"start":2,"action_noise":0.2,"location_history":"[2,3,4]","action_history":"[1,0]","door_history":"[0,1]","location_rts":"[1163,1821]","trial_type":"two-door-navigation","trial_index":97,"time_elapsed":2634437,"internal_node_id":"0.0-2.0-95.0"},{"group":"hexagon_tri","room_assignment":["green","yellow","purple","grey","red","blue"],"door_color_assignment":["black","white"],"door_generator_assignment":[1,0],"goal":0,"start":4,"action_noise":0.2,"location_history":"[4,2,1,3,2,1,3,4,0]","action_history":"[1,0,0,0,0,0,1,0]","door_history":"[0,1,1,1,1,1,0,1]","location_rts":"[1330,825,565,617,730,836,726,1029]","trial_type":"two-door-navigation","trial_index":98,"time_elapsed":2653236,"internal_node_id":"0.0-2.0-96.0"},{"group":"hexagon_tri","room_assignment":["green","yellow","purple","grey","red","blue"],"door_color_assignment":["black","white"],"door_generator_assignment":[1,0],"goal":5,"start":0,"action_noise":0.2,"location_history":"[0,1,3,4,0,1,5]","action_history":"[1,0,1,1,0,1]","door_history":"[0,1,0,0,1,0]","location_rts":"[1731,875,566,977,1026,771]","trial_type":"two-door-navigation","trial_index":99,"time_elapsed":2669168,"internal_node_id":"0.0-2.0-97.0"},{"group":"hexagon_tri","room_assignment":["green","yellow","purple","grey","red","blue"],"door_color_assignment":["black","white"],"door_generator_assignment":[1,0],"goal":1,"start":5,"action_noise":0.2,"location_history":"[5,4,2,3,4,2,1]","action_history":"[0,1,1,1,1,0]","door_history":"[1,0,0,0,0,1]","location_rts":"[1472,1056,932,562,564,1358]","trial_type":"two-door-navigation","trial_index":100,"time_elapsed":2685079,"internal_node_id":"0.0-2.0-98.0"},{"group":"hexagon_tri","room_assignment":["green","yellow","purple","grey","red","blue"],"door_color_assignment":["black","white"],"door_generator_assignment":[1,0],"goal":3,"start":1,"action_noise":0.2,"location_history":"[1,3]","action_history":"[1]","door_history":"[0]","location_rts":"[1883]","trial_type":"two-door-navigation","trial_index":101,"time_elapsed":2691557,"internal_node_id":"0.0-2.0-99.0"},{"view_history":"[{\"page_index\":0,\"viewing_time\":1886}]","rt":1886,"trial_type":"instructions","trial_index":102,"time_elapsed":2694448,"internal_node_id":"0.0-3.0"},{"view_history":"[{\"page_index\":0,\"viewing_time\":2081},{\"page_index\":1,\"viewing_time\":18507}]","rt":20589,"trial_type":"instructions","trial_index":103,"time_elapsed":2716040,"internal_node_id":"0.0-4.0"},{"group":"hexagon_bi","fractal_assignment":["../images/ylw_slt.png","../images/cyn_red.png","../images/gry_blk.png","../images/org_blu.png","../images/pnk_blu.png","../images/blu_wht.png"],"mutagen_generator_assignment":[1,0],"goal":4,"start":0,"action_noise":0.2,"location_history":"[0,5,4]","action_history":"[0,1]","mutagen_history":"[1,0]","location_rts":"[3070,3325]","trial_type":"fractal-mutation","trial_index":104,"time_elapsed":2728128,"internal_node_id":"0.0-5.0-0.0"},{"group":"hexagon_bi","fractal_assignment":["../images/ylw_slt.png","../images/cyn_red.png","../images/gry_blk.png","../images/org_blu.png","../images/pnk_blu.png","../images/blu_wht.png"],"mutagen_generator_assignment":[1,0],"goal":3,"start":4,"action_noise":0.2,"location_history":"[4,3]","action_history":"[1]","mutagen_history":"[0]","location_rts":"[1401]","trial_type":"fractal-mutation","trial_index":105,"time_elapsed":2734136,"internal_node_id":"0.0-5.0-1.0"},{"group":"hexagon_bi","fractal_assignment":["../images/ylw_slt.png","../images/cyn_red.png","../images/gry_blk.png","../images/org_blu.png","../images/pnk_blu.png","../images/blu_wht.png"],"mutagen_generator_assignment":[1,0],"goal":5,"start":3,"action_noise":0.2,"location_history":"[3,4,5]","action_history":"[0,0]","mutagen_history":"[1,1]","location_rts":"[1702,1521]","trial_type":"fractal-mutation","trial_index":106,"time_elapsed":2743063,"internal_node_id":"0.0-5.0-2.0"},{"group":"hexagon_bi","fractal_assignment":["../images/ylw_slt.png","../images/cyn_red.png","../images/gry_blk.png","../images/org_blu.png","../images/pnk_blu.png","../images/blu_wht.png"],"mutagen_generator_assignment":[1,0],"goal":2,"start":5,"action_noise":0.2,"location_history":"[5,0,5,4,5,4,5,0,1,2]","action_history":"[0,0,1,1,1,1,0,1,0]","mutagen_history":"[1,1,0,0,0,0,1,0,1]","location_rts":"[1891,1337,1293,698,643,1033,1957,936,2259]","trial_type":"fractal-mutation","trial_index":107,"time_elapsed":2768414,"internal_node_id":"0.0-5.0-3.0"},{"group":"hexagon_bi","fractal_assignment":["../images/ylw_slt.png","../images/cyn_red.png","../images/gry_blk.png","../images/org_blu.png","../images/pnk_blu.png","../images/blu_wht.png"],"mutagen_generator_assignment":[1,0],"goal":1,"start":2,"action_noise":0.2,"location_history":"[2,3,2,1]","action_history":"[1,1,0]","mutagen_history":"[0,0,1]","location_rts":"[2666,731,1112]","trial_type":"fractal-mutation","trial_index":108,"time_elapsed":2779697,"internal_node_id":"0.0-5.0-4.0"},{"group":"hexagon_bi","fractal_assignment":["../images/ylw_slt.png","../images/cyn_red.png","../images/gry_blk.png","../images/org_blu.png","../images/pnk_blu.png","../images/blu_wht.png"],"mutagen_generator_assignment":[1,0],"goal":4,"start":1,"action_noise":0.2,"location_history":"[1,0,1,2,1,0,5,0,1,0,5,4]","action_history":"[1,0,0,0,1,0,0,0,0,1,1]","mutagen_history":"[0,1,1,1,0,1,1,1,1,0,0]","location_rts":"[1864,1222,681,655,1382,1057,1389,591,1374,828,1305]","trial_type":"fractal-mutation","trial_index":109,"time_elapsed":2807534,"internal_node_id":"0.0-5.0-5.0"},{"group":"hexagon_bi","fractal_assignment":["../images/ylw_slt.png","../images/cyn_red.png","../images/gry_blk.png","../images/org_blu.png","../images/pnk_blu.png","../images/blu_wht.png"],"mutagen_generator_assignment":[1,0],"goal":1,"start":4,"action_noise":0.2,"location_history":"[4,5,4,3,4,3,2,1]","action_history":"[1,1,0,0,1,0,0]","mutagen_history":"[0,0,1,1,0,1,1]","location_rts":"[6094,1201,1006,843,1053,1109,1066]","trial_type":"fractal-mutation","trial_index":110,"time_elapsed":2831045,"internal_node_id":"0.0-5.0-6.0"},{"group":"hexagon_bi","fractal_assignment":["../images/ylw_slt.png","../images/cyn_red.png","../images/gry_blk.png","../images/org_blu.png","../images/pnk_blu.png","../images/blu_wht.png"],"mutagen_generator_assignment":[1,0],"goal":5,"start":1,"action_noise":0.2,"location_history":"[1,2,1,0,5]","action_history":"[0,0,1,1]","mutagen_history":"[1,1,0,0]","location_rts":"[2755,737,868,923]","trial_type":"fractal-mutation","trial_index":111,"time_elapsed":2844203,"internal_node_id":"0.0-5.0-7.0"},{"group":"hexagon_bi","fractal_assignment":["../images/ylw_slt.png","../images/cyn_red.png","../images/gry_blk.png","../images/org_blu.png","../images/pnk_blu.png","../images/blu_wht.png"],"mutagen_generator_assignment":[1,0],"goal":0,"start":5,"action_noise":0.2,"location_history":"[5,4,3,4,5,0]","action_history":"[1,0,0,1,0]","mutagen_history":"[0,1,1,0,1]","location_rts":"[2426,2675,574,886,924]","trial_type":"fractal-mutation","trial_index":112,"time_elapsed":2860643,"internal_node_id":"0.0-5.0-8.0"},{"group":"hexagon_bi","fractal_assignment":["../images/ylw_slt.png","../images/cyn_red.png","../images/gry_blk.png","../images/org_blu.png","../images/pnk_blu.png","../images/blu_wht.png"],"mutagen_generator_assignment":[1,0],"goal":2,"start":0,"action_noise":0.2,"location_history":"[0,5,0,5,4,3,2]","action_history":"[0,0,0,1,0,1]","mutagen_history":"[1,1,1,0,1,0]","location_rts":"[2343,1777,1693,341,1262,965]","trial_type":"fractal-mutation","trial_index":113,"time_elapsed":2879059,"internal_node_id":"0.0-5.0-9.0"},{"group":"hexagon_bi","fractal_assignment":["../images/ylw_slt.png","../images/cyn_red.png","../images/gry_blk.png","../images/org_blu.png","../images/pnk_blu.png","../images/blu_wht.png"],"mutagen_generator_assignment":[1,0],"goal":3,"start":2,"action_noise":0.2,"location_history":"[2,1,2,3]","action_history":"[0,0,1]","mutagen_history":"[1,1,0]","location_rts":"[2349,921,875]","trial_type":"fractal-mutation","trial_index":114,"time_elapsed":2889986,"internal_node_id":"0.0-5.0-10.0"},{"group":"hexagon_bi","fractal_assignment":["../images/ylw_slt.png","../images/cyn_red.png","../images/gry_blk.png","../images/org_blu.png","../images/pnk_blu.png","../images/blu_wht.png"],"mutagen_generator_assignment":[1,0],"goal":0,"start":3,"action_noise":0.2,"location_history":"[3,4,3,2,1,0]","action_history":"[0,0,1,0,1]","mutagen_history":"[1,1,0,1,0]","location_rts":"[2073,682,794,956,986]","trial_type":"fractal-mutation","trial_index":115,"time_elapsed":2904435,"internal_node_id":"0.0-5.0-11.0"},{"group":"hexagon_bi","fractal_assignment":["../images/ylw_slt.png","../images/cyn_red.png","../images/gry_blk.png","../images/org_blu.png","../images/pnk_blu.png","../images/blu_wht.png"],"mutagen_generator_assignment":[1,0],"goal":2,"start":0,"action_noise":0.2,"location_history":"[0,1,2]","action_history":"[1,0]","mutagen_history":"[0,1]","location_rts":"[1871,1236]","trial_type":"fractal-mutation","trial_index":116,"time_elapsed":2913216,"internal_node_id":"0.0-5.0-12.0"},{"group":"hexagon_bi","fractal_assignment":["../images/ylw_slt.png","../images/cyn_red.png","../images/gry_blk.png","../images/org_blu.png","../images/pnk_blu.png","../images/blu_wht.png"],"mutagen_generator_assignment":[1,0],"goal":5,"start":2,"action_noise":0.2,"location_history":"[2,3,4,3,4,5]","action_history":"[0,0,1,0,1]","mutagen_history":"[1,1,0,1,0]","location_rts":"[1809,642,1071,895,1183]","trial_type":"fractal-mutation","trial_index":117,"time_elapsed":2927754,"internal_node_id":"0.0-5.0-13.0"},{"group":"hexagon_bi","fractal_assignment":["../images/ylw_slt.png","../images/cyn_red.png","../images/gry_blk.png","../images/org_blu.png","../images/pnk_blu.png","../images/blu_wht.png"],"mutagen_generator_assignment":[1,0],"goal":4,"start":5,"action_noise":0.2,"location_history":"[5,4]","action_history":"[0]","mutagen_history":"[1]","location_rts":"[1559]","trial_type":"fractal-mutation","trial_index":118,"time_elapsed":2933924,"internal_node_id":"0.0-5.0-14.0"},{"group":"hexagon_bi","fractal_assignment":["../images/ylw_slt.png","../images/cyn_red.png","../images/gry_blk.png","../images/org_blu.png","../images/pnk_blu.png","../images/blu_wht.png"],"mutagen_generator_assignment":[1,0],"goal":3,"start":4,"action_noise":0.2,"location_history":"[4,5,0,5,4,5,0,5,0,1,0,5,0,5,4,5,0,1,0,1,0,5,4,3]","action_history":"[1,0,0,1,1,0,0,0,1,0,1,0,0,1,1,0,1,0,1,1,0,1,1]","mutagen_history":"[0,1,1,0,0,1,1,1,0,1,0,1,1,0,0,1,0,1,0,0,1,0,0]","location_rts":"[1916,1008,681,988,1115,1136,600,695,934,1335,1119,1040,581,1054,834,1040,1263,1687,1145,1721,1285,832,1283]","trial_type":"fractal-mutation","trial_index":119,"time_elapsed":2987712,"internal_node_id":"0.0-5.0-15.0"},{"group":"hexagon_bi","fractal_assignment":["../images/ylw_slt.png","../images/cyn_red.png","../images/gry_blk.png","../images/org_blu.png","../images/pnk_blu.png","../images/blu_wht.png"],"mutagen_generator_assignment":[1,0],"goal":1,"start":3,"action_noise":0.2,"location_history":"[3,2,3,2,1]","action_history":"[1,0,1,0]","mutagen_history":"[0,1,0,1]","location_rts":"[16323,1110,1226,1059]","trial_type":"fractal-mutation","trial_index":120,"time_elapsed":3015300,"internal_node_id":"0.0-5.0-16.0"},{"group":"hexagon_bi","fractal_assignment":["../images/ylw_slt.png","../images/cyn_red.png","../images/gry_blk.png","../images/org_blu.png","../images/pnk_blu.png","../images/blu_wht.png"],"mutagen_generator_assignment":[1,0],"goal":5,"start":1,"action_noise":0.2,"location_history":"[1,2,1,2,1,2,3,4,3,4,3,4,5]","action_history":"[0,1,0,0,0,1,1,0,0,0,1,0]","mutagen_history":"[1,0,1,1,1,0,0,1,1,1,0,1]","location_rts":"[1395,972,1023,586,610,119,1459,1137,600,623,1100,924]","trial_type":"fractal-mutation","trial_index":121,"time_elapsed":3042353,"internal_node_id":"0.0-5.0-17.0"},{"group":"hexagon_bi","fractal_assignment":["../images/ylw_slt.png","../images/cyn_red.png","../images/gry_blk.png","../images/org_blu.png","../images/pnk_blu.png","../images/blu_wht.png"],"mutagen_generator_assignment":[1,0],"goal":4,"start":5,"action_noise":0.2,"location_history":"[5,0,1,2,3,2,1,0,1,2,3,2,3,4]","action_history":"[0,1,0,1,1,1,1,1,0,0,1,0,1]","mutagen_history":"[1,0,1,0,0,0,0,0,1,1,0,1,0]","location_rts":"[1909,845,1294,817,556,766,997,516,1803,576,1340,1045,380]","trial_type":"fractal-mutation","trial_index":122,"time_elapsed":3072847,"internal_node_id":"0.0-5.0-18.0"},{"group":"hexagon_bi","fractal_assignment":["../images/ylw_slt.png","../images/cyn_red.png","../images/gry_blk.png","../images/org_blu.png","../images/pnk_blu.png","../images/blu_wht.png"],"mutagen_generator_assignment":[1,0],"goal":0,"start":4,"action_noise":0.2,"location_history":"[4,5,0]","action_history":"[0,0]","mutagen_history":"[1,1]","location_rts":"[74185,690]","trial_type":"fractal-mutation","trial_index":123,"time_elapsed":3153412,"internal_node_id":"0.0-5.0-19.0"},{"group":"hexagon_bi","fractal_assignment":["../images/ylw_slt.png","../images/cyn_red.png","../images/gry_blk.png","../images/org_blu.png","../images/pnk_blu.png","../images/blu_wht.png"],"mutagen_generator_assignment":[1,0],"goal":1,"start":0,"action_noise":0.2,"location_history":"[0,5,4,5,0,1]","action_history":"[0,1,1,0,1]","mutagen_history":"[1,0,0,1,0]","location_rts":"[2213,418,530,1077,561]","trial_type":"fractal-mutation","trial_index":124,"time_elapsed":3167155,"internal_node_id":"0.0-5.0-20.0"},{"group":"hexagon_bi","fractal_assignment":["../images/ylw_slt.png","../images/cyn_red.png","../images/gry_blk.png","../images/org_blu.png","../images/pnk_blu.png","../images/blu_wht.png"],"mutagen_generator_assignment":[1,0],"goal":3,"start":1,"action_noise":0.2,"location_history":"[1,0,1,0,5,0,5,4,3]","action_history":"[0,1,1,1,0,0,1,0]","mutagen_history":"[1,0,0,0,1,1,0,1]","location_rts":"[1670,1184,620,1170,785,500,782,784]","trial_type":"fractal-mutation","trial_index":125,"time_elapsed":3186845,"internal_node_id":"0.0-5.0-21.0"},{"group":"hexagon_bi","fractal_assignment":["../images/ylw_slt.png","../images/cyn_red.png","../images/gry_blk.png","../images/org_blu.png","../images/pnk_blu.png","../images/blu_wht.png"],"mutagen_generator_assignment":[1,0],"goal":2,"start":3,"action_noise":0.2,"location_history":"[3,2]","action_history":"[0]","mutagen_history":"[1]","location_rts":"[1571]","trial_type":"fractal-mutation","trial_index":126,"time_elapsed":3193019,"internal_node_id":"0.0-5.0-22.0"},{"group":"hexagon_bi","fractal_assignment":["../images/ylw_slt.png","../images/cyn_red.png","../images/gry_blk.png","../images/org_blu.png","../images/pnk_blu.png","../images/blu_wht.png"],"mutagen_generator_assignment":[1,0],"goal":0,"start":2,"action_noise":0.2,"location_history":"[2,3,4,3,2,1,2,1,0]","action_history":"[1,0,1,1,0,0,0,1]","mutagen_history":"[0,1,0,0,1,1,1,0]","location_rts":"[1471,999,877,403,1051,608,657,483]","trial_type":"fractal-mutation","trial_index":127,"time_elapsed":3211778,"internal_node_id":"0.0-5.0-23.0"},{"group":"hexagon_bi","fractal_assignment":["../images/ylw_slt.png","../images/cyn_red.png","../images/gry_blk.png","../images/org_blu.png","../images/pnk_blu.png","../images/blu_wht.png"],"mutagen_generator_assignment":[1,0],"goal":3,"start":0,"action_noise":0.2,"location_history":"[0,1,2,1,0,5,0,1,2,3]","action_history":"[1,0,0,1,0,1,1,0,1]","mutagen_history":"[0,1,1,0,1,0,0,1,0]","location_rts":"[2717,953,981,589,842,783,484,784,925]","trial_type":"fractal-mutation","trial_index":128,"time_elapsed":3234121,"internal_node_id":"0.0-5.0-24.0"},{"group":"hexagon_bi","fractal_assignment":["../images/ylw_slt.png","../images/cyn_red.png","../images/gry_blk.png","../images/org_blu.png","../images/pnk_blu.png","../images/blu_wht.png"],"mutagen_generator_assignment":[1,0],"goal":1,"start":3,"action_noise":0.2,"location_history":"[3,2,1]","action_history":"[0,1]","mutagen_history":"[1,0]","location_rts":"[1348,696]","trial_type":"fractal-mutation","trial_index":129,"time_elapsed":3241860,"internal_node_id":"0.0-5.0-25.0"},{"group":"hexagon_bi","fractal_assignment":["../images/ylw_slt.png","../images/cyn_red.png","../images/gry_blk.png","../images/org_blu.png","../images/pnk_blu.png","../images/blu_wht.png"],"mutagen_generator_assignment":[1,0],"goal":2,"start":1,"action_noise":0.2,"location_history":"[1,2]","action_history":"[0]","mutagen_history":"[1]","location_rts":"[998]","trial_type":"fractal-mutation","trial_index":130,"time_elapsed":3247459,"internal_node_id":"0.0-5.0-26.0"},{"group":"hexagon_bi","fractal_assignment":["../images/ylw_slt.png","../images/cyn_red.png","../images/gry_blk.png","../images/org_blu.png","../images/pnk_blu.png","../images/blu_wht.png"],"mutagen_generator_assignment":[1,0],"goal":5,"start":2,"action_noise":0.2,"location_history":"[2,3,4,3,4,3,4,3,2,1,0,1,2,1,0,5]","action_history":"[0,0,1,0,0,0,0,1,0,1,1,0,0,1,0]","mutagen_history":"[1,1,0,1,1,1,1,0,1,0,0,1,1,0,1]","location_rts":"[1854,451,1095,516,444,546,774,800,433,447,497,476,376,285,487]","trial_type":"fractal-mutation","trial_index":131,"time_elapsed":3276787,"internal_node_id":"0.0-5.0-27.0"},{"group":"hexagon_bi","fractal_assignment":["../images/ylw_slt.png","../images/cyn_red.png","../images/gry_blk.png","../images/org_blu.png","../images/pnk_blu.png","../images/blu_wht.png"],"mutagen_generator_assignment":[1,0],"goal":4,"start":5,"action_noise":0.2,"location_history":"[5,0,1,2,3,2,3,2,3,4]","action_history":"[0,1,0,1,0,1,1,0,0]","mutagen_history":"[1,0,1,0,1,0,0,1,1]","location_rts":"[1569,623,575,797,607,529,477,758,733]","trial_type":"fractal-mutation","trial_index":132,"time_elapsed":3296773,"internal_node_id":"0.0-5.0-28.0"},{"group":"hexagon_bi","fractal_assignment":["../images/ylw_slt.png","../images/cyn_red.png","../images/gry_blk.png","../images/org_blu.png","../images/pnk_blu.png","../images/blu_wht.png"],"mutagen_generator_assignment":[1,0],"goal":5,"start":4,"action_noise":0.2,"location_history":"[4,3,4,5]","action_history":"[0,0,1]","mutagen_history":"[1,1,0]","location_rts":"[3656,766,1039]","trial_type":"fractal-mutation","trial_index":133,"time_elapsed":3309021,"internal_node_id":"0.0-5.0-29.0"},{"group":"hexagon_bi","fractal_assignment":["../images/ylw_slt.png","../images/cyn_red.png","../images/gry_blk.png","../images/org_blu.png","../images/pnk_blu.png","../images/blu_wht.png"],"mutagen_generator_assignment":[1,0],"goal":3,"start":5,"action_noise":0.2,"location_history":"[5,0,5,4,5,0,1,2,1,0,1,2,3]","action_history":"[0,1,1,1,0,1,0,1,1,0,1,1]","mutagen_history":"[1,0,0,0,1,0,1,0,0,1,0,0]","location_rts":"[1333,700,530,661,1070,756,691,791,591,1424,929,389]","trial_type":"fractal-mutation","trial_index":134,"time_elapsed":3335419,"internal_node_id":"0.0-5.0-30.0"},{"group":"hexagon_bi","fractal_assignment":["../images/ylw_slt.png","../images/cyn_red.png","../images/gry_blk.png","../images/org_blu.png","../images/pnk_blu.png","../images/blu_wht.png"],"mutagen_generator_assignment":[1,0],"goal":0,"start":3,"action_noise":0.2,"location_history":"[3,4,5,0]","action_history":"[0,0,1]","mutagen_history":"[1,1,0]","location_rts":"[5158,536,1088]","trial_type":"fractal-mutation","trial_index":135,"time_elapsed":3348986,"internal_node_id":"0.0-5.0-31.0"},{"group":"hexagon_bi","fractal_assignment":["../images/ylw_slt.png","../images/cyn_red.png","../images/gry_blk.png","../images/org_blu.png","../images/pnk_blu.png","../images/blu_wht.png"],"mutagen_generator_assignment":[1,0],"goal":4,"start":0,"action_noise":0.2,"location_history":"[0,5,4]","action_history":"[0,1]","mutagen_history":"[1,0]","location_rts":"[1980,1080]","trial_type":"fractal-mutation","trial_index":136,"time_elapsed":3357731,"internal_node_id":"0.0-5.0-32.0"},{"group":"hexagon_bi","fractal_assignment":["../images/ylw_slt.png","../images/cyn_red.png","../images/gry_blk.png","../images/org_blu.png","../images/pnk_blu.png","../images/blu_wht.png"],"mutagen_generator_assignment":[1,0],"goal":1,"start":4,"action_noise":0.2,"location_history":"[4,5,0,5,0,5,0,1]","action_history":"[1,0,1,0,0,1,1]","mutagen_history":"[0,1,0,1,1,0,0]","location_rts":"[1048,1254,843,761,330,1067,592]","trial_type":"fractal-mutation","trial_index":137,"time_elapsed":3374757,"internal_node_id":"0.0-5.0-33.0"},{"group":"hexagon_bi","fractal_assignment":["../images/ylw_slt.png","../images/cyn_red.png","../images/gry_blk.png","../images/org_blu.png","../images/pnk_blu.png","../images/blu_wht.png"],"mutagen_generator_assignment":[1,0],"goal":2,"start":1,"action_noise":0.2,"location_history":"[1,2]","action_history":"[0]","mutagen_history":"[1]","location_rts":"[1690]","trial_type":"fractal-mutation","trial_index":138,"time_elapsed":3381061,"internal_node_id":"0.0-5.0-34.0"},{"group":"hexagon_bi","fractal_assignment":["../images/ylw_slt.png","../images/cyn_red.png","../images/gry_blk.png","../images/org_blu.png","../images/pnk_blu.png","../images/blu_wht.png"],"mutagen_generator_assignment":[1,0],"goal":0,"start":2,"action_noise":0.2,"location_history":"[2,3,4,5,4,3,2,1,0]","action_history":"[0,0,1,0,0,1,0,1]","mutagen_history":"[1,1,0,1,1,0,1,0]","location_rts":"[1405,707,780,465,712,685,1573,988]","trial_type":"fractal-mutation","trial_index":139,"time_elapsed":3400603,"internal_node_id":"0.0-5.0-35.0"},{"group":"hexagon_bi","fractal_assignment":["../images/ylw_slt.png","../images/cyn_red.png","../images/gry_blk.png","../images/org_blu.png","../images/pnk_blu.png","../images/blu_wht.png"],"mutagen_generator_assignment":[1,0],"goal":5,"start":0,"action_noise":0.2,"location_history":"[0,5]","action_history":"[0]","mutagen_history":"[1]","location_rts":"[1591]","trial_type":"fractal-mutation","trial_index":140,"time_elapsed":3406799,"internal_node_id":"0.0-5.0-36.0"},{"group":"hexagon_bi","fractal_assignment":["../images/ylw_slt.png","../images/cyn_red.png","../images/gry_blk.png","../images/org_blu.png","../images/pnk_blu.png","../images/blu_wht.png"],"mutagen_generator_assignment":[1,0],"goal":2,"start":5,"action_noise":0.2,"location_history":"[5,0,1,0,5,0,5,4,5,0,5,0,5,4,3,4,5,4,3,4,3,4,3,4,5,4,5,4,3,2]","action_history":"[0,1,1,0,0,0,1,1,1,0,0,0,1,0,1,0,0,0,0,0,1,0,0,1,0,1,1,0,1]","mutagen_history":"[1,0,0,1,1,1,0,0,0,1,1,1,0,1,0,1,1,1,1,1,0,1,1,0,1,0,0,1,0]","location_rts":"[1628,1330,854,752,477,766,658,1183,1380,677,543,1215,856,845,1052,826,445,473,754,68876,791,888,480,975,1004,935,387,933,893]","trial_type":"fractal-mutation","trial_index":141,"time_elapsed":3534733,"internal_node_id":"0.0-5.0-37.0"},{"group":"hexagon_bi","fractal_assignment":["../images/ylw_slt.png","../images/cyn_red.png","../images/gry_blk.png","../images/org_blu.png","../images/pnk_blu.png","../images/blu_wht.png"],"mutagen_generator_assignment":[1,0],"goal":1,"start":2,"action_noise":0.2,"location_history":"[2,3,2,1]","action_history":"[0,1,0]","mutagen_history":"[1,0,1]","location_rts":"[2000,986,1267]","trial_type":"fractal-mutation","trial_index":142,"time_elapsed":3545763,"internal_node_id":"0.0-5.0-38.0"},{"group":"hexagon_bi","fractal_assignment":["../images/ylw_slt.png","../images/cyn_red.png","../images/gry_blk.png","../images/org_blu.png","../images/pnk_blu.png","../images/blu_wht.png"],"mutagen_generator_assignment":[1,0],"goal":4,"start":1,"action_noise":0.2,"location_history":"[1,0,1,0,5,0,5,4]","action_history":"[0,1,1,0,0,0,1]","mutagen_history":"[1,0,0,1,1,1,0]","location_rts":"[1263,837,1056,1126,536,618,1063]","trial_type":"fractal-mutation","trial_index":143,"time_elapsed":3563384,"internal_node_id":"0.0-5.0-39.0"},{"group":"hexagon_bi","fractal_assignment":["../images/ylw_slt.png","../images/cyn_red.png","../images/gry_blk.png","../images/org_blu.png","../images/pnk_blu.png","../images/blu_wht.png"],"mutagen_generator_assignment":[1,0],"goal":3,"start":4,"action_noise":0.2,"location_history":"[4,5,0,1,0,1,0,5,0,1,0,5,4,5,0,1,0,1,2,1,0,1,0,1,0,5,4,5,4,5,4,3]","action_history":"[0,1,1,0,1,1,0,0,1,1,0,1,1,1,0,1,1,1,0,1,1,1,1,1,1,0,1,0,0,1,0]","mutagen_history":"[1,0,0,1,0,0,1,1,0,0,1,0,0,0,1,0,0,0,1,0,0,0,0,0,0,1,0,1,1,0,1]","location_rts":"[4560,710,941,3192,914,899,1133,556,799,1023,1381,875,986,833,1203,1085,678,439,874,881,384,454,995,507,457,3420,1353,553,391,648,470]","trial_type":"fractal-mutation","trial_index":144,"time_elapsed":3634139,"internal_node_id":"0.0-5.0-40.0"},{"group":"hexagon_bi","fractal_assignment":["../images/ylw_slt.png","../images/cyn_red.png","../images/gry_blk.png","../images/org_blu.png","../images/pnk_blu.png","../images/blu_wht.png"],"mutagen_generator_assignment":[1,0],"goal":5,"start":3,"action_noise":0.2,"location_history":"[3,2,1,0,5]","action_history":"[1,0,0,0]","mutagen_history":"[0,1,1,1]","location_rts":"[1063,1008,533,1185]","trial_type":"fractal-mutation","trial_index":145,"time_elapsed":3645776,"internal_node_id":"0.0-5.0-41.0"},{"group":"hexagon_bi","fractal_assignment":["../images/ylw_slt.png","../images/cyn_red.png","../images/gry_blk.png","../images/org_blu.png","../images/pnk_blu.png","../images/blu_wht.png"],"mutagen_generator_assignment":[1,0],"goal":3,"start":5,"action_noise":0.2,"location_history":"[5,4,5,4,3]","action_history":"[1,0,1,1]","mutagen_history":"[0,1,0,0]","location_rts":"[1644,1191,709,680]","trial_type":"fractal-mutation","trial_index":146,"time_elapsed":3657861,"internal_node_id":"0.0-5.0-42.0"},{"group":"hexagon_bi","fractal_assignment":["../images/ylw_slt.png","../images/cyn_red.png","../images/gry_blk.png","../images/org_blu.png","../images/pnk_blu.png","../images/blu_wht.png"],"mutagen_generator_assignment":[1,0],"goal":0,"start":3,"action_noise":0.2,"location_history":"[3,4,5,0]","action_history":"[0,1,0]","mutagen_history":"[1,0,1]","location_rts":"[1685,1679,1208]","trial_type":"fractal-mutation","trial_index":147,"time_elapsed":3669223,"internal_node_id":"0.0-5.0-43.0"},{"group":"hexagon_bi","fractal_assignment":["../images/ylw_slt.png","../images/cyn_red.png","../images/gry_blk.png","../images/org_blu.png","../images/pnk_blu.png","../images/blu_wht.png"],"mutagen_generator_assignment":[1,0],"goal":2,"start":0,"action_noise":0.2,"location_history":"[0,1,0,5,4,5,4,3,4,3,2]","action_history":"[1,1,0,0,1,1,0,1,0,0]","mutagen_history":"[0,0,1,1,0,0,1,0,1,1]","location_rts":"[1329,546,1075,1153,765,644,900,788,1175,430]","trial_type":"fractal-mutation","trial_index":148,"time_elapsed":3692410,"internal_node_id":"0.0-5.0-44.0"},{"group":"hexagon_bi","fractal_assignment":["../images/ylw_slt.png","../images/cyn_red.png","../images/gry_blk.png","../images/org_blu.png","../images/pnk_blu.png","../images/blu_wht.png"],"mutagen_generator_assignment":[1,0],"goal":4,"start":2,"action_noise":0.2,"location_history":"[2,1,0,1,2,1,0,1,2,1,0,1,2,3,4]","action_history":"[0,1,0,0,0,1,1,1,1,1,0,0,0,0]","mutagen_history":"[1,0,1,1,1,0,0,0,0,0,1,1,1,1]","location_rts":"[1684,705,735,631,766,803,388,495,605,680,4009,484,772,1223]","trial_type":"fractal-mutation","trial_index":149,"time_elapsed":3725139,"internal_node_id":"0.0-5.0-45.0"},{"group":"hexagon_bi","fractal_assignment":["../images/ylw_slt.png","../images/cyn_red.png","../images/gry_blk.png","../images/org_blu.png","../images/pnk_blu.png","../images/blu_wht.png"],"mutagen_generator_assignment":[1,0],"goal":1,"start":4,"action_noise":0.2,"location_history":"[4,3,4,5,4,5,4,3,4,5,4,5,4,5,0,5,0,1]","action_history":"[0,1,0,1,1,1,0,0,0,1,1,1,1,1,0,1,1]","mutagen_history":"[1,0,1,0,0,0,1,1,1,0,0,0,0,0,1,0,0]","location_rts":"[17946,1332,1039,977,803,602,1805,864,783,865,457,527,428,486,1113,885,489]","trial_type":"fractal-mutation","trial_index":150,"time_elapsed":3778914,"internal_node_id":"0.0-5.0-46.0"},{"group":"hexagon_bi","fractal_assignment":["../images/ylw_slt.png","../images/cyn_red.png","../images/gry_blk.png","../images/org_blu.png","../images/pnk_blu.png","../images/blu_wht.png"],"mutagen_generator_assignment":[1,0],"goal":4,"start":1,"action_noise":0.2,"location_history":"[1,2,1,2,3,4]","action_history":"[0,1,0,0,0]","mutagen_history":"[1,0,1,1,1]","location_rts":"[11349,2954,1372,384,657]","trial_type":"fractal-mutation","trial_index":151,"time_elapsed":3804586,"internal_node_id":"0.0-5.0-47.0"},{"group":"hexagon_bi","fractal_assignment":["../images/ylw_slt.png","../images/cyn_red.png","../images/gry_blk.png","../images/org_blu.png","../images/pnk_blu.png","../images/blu_wht.png"],"mutagen_generator_assignment":[1,0],"goal":1,"start":4,"action_noise":0.2,"location_history":"[4,5,0,1]","action_history":"[1,0,1]","mutagen_history":"[0,1,0]","location_rts":"[4869,1223,810]","trial_type":"fractal-mutation","trial_index":152,"time_elapsed":3818236,"internal_node_id":"0.0-5.0-48.0"},{"group":"hexagon_bi","fractal_assignment":["../images/ylw_slt.png","../images/cyn_red.png","../images/gry_blk.png","../images/org_blu.png","../images/pnk_blu.png","../images/blu_wht.png"],"mutagen_generator_assignment":[1,0],"goal":3,"start":1,"action_noise":0.2,"location_history":"[1,2,3]","action_history":"[0,1]","mutagen_history":"[1,0]","location_rts":"[1139,910]","trial_type":"fractal-mutation","trial_index":153,"time_elapsed":3825974,"internal_node_id":"0.0-5.0-49.0"},{"group":"hexagon_bi","fractal_assignment":["../images/ylw_slt.png","../images/cyn_red.png","../images/gry_blk.png","../images/org_blu.png","../images/pnk_blu.png","../images/blu_wht.png"],"mutagen_generator_assignment":[1,0],"goal":5,"start":3,"action_noise":0.2,"location_history":"[3,4,5]","action_history":"[0,1]","mutagen_history":"[1,0]","location_rts":"[1384,990]","trial_type":"fractal-mutation","trial_index":154,"time_elapsed":3834034,"internal_node_id":"0.0-5.0-50.0"},{"group":"hexagon_bi","fractal_assignment":["../images/ylw_slt.png","../images/cyn_red.png","../images/gry_blk.png","../images/org_blu.png","../images/pnk_blu.png","../images/blu_wht.png"],"mutagen_generator_assignment":[1,0],"goal":0,"start":5,"action_noise":0.2,"location_history":"[5,0]","action_history":"[0]","mutagen_history":"[1]","location_rts":"[1345]","trial_type":"fractal-mutation","trial_index":155,"time_elapsed":3839989,"internal_node_id":"0.0-5.0-51.0"},{"group":"hexagon_bi","fractal_assignment":["../images/ylw_slt.png","../images/cyn_red.png","../images/gry_blk.png","../images/org_blu.png","../images/pnk_blu.png","../images/blu_wht.png"],"mutagen_generator_assignment":[1,0],"goal":2,"start":0,"action_noise":0.2,"location_history":"[0,1,0,5,0,5,4,5,0,5,4,5,0,1,2]","action_history":"[1,1,0,1,0,0,1,0,0,1,0,0,1,0]","mutagen_history":"[0,0,1,0,1,1,0,1,1,0,1,1,0,1]","location_rts":"[2840,689,773,936,909,448,972,2100,610,893,792,484,834,2586]","trial_type":"fractal-mutation","trial_index":156,"time_elapsed":3874610,"internal_node_id":"0.0-5.0-52.0"},{"group":"hexagon_bi","fractal_assignment":["../images/ylw_slt.png","../images/cyn_red.png","../images/gry_blk.png","../images/org_blu.png","../images/pnk_blu.png","../images/blu_wht.png"],"mutagen_generator_assignment":[1,0],"goal":1,"start":2,"action_noise":0.2,"location_history":"[2,1]","action_history":"[1]","mutagen_history":"[0]","location_rts":"[5508]","trial_type":"fractal-mutation","trial_index":157,"time_elapsed":3884718,"internal_node_id":"0.0-5.0-53.0"},{"group":"hexagon_bi","fractal_assignment":["../images/ylw_slt.png","../images/cyn_red.png","../images/gry_blk.png","../images/org_blu.png","../images/pnk_blu.png","../images/blu_wht.png"],"mutagen_generator_assignment":[1,0],"goal":2,"start":1,"action_noise":0.2,"location_history":"[1,2]","action_history":"[0]","mutagen_history":"[1]","location_rts":"[1695]","trial_type":"fractal-mutation","trial_index":158,"time_elapsed":3891028,"internal_node_id":"0.0-5.0-54.0"},{"group":"hexagon_bi","fractal_assignment":["../images/ylw_slt.png","../images/cyn_red.png","../images/gry_blk.png","../images/org_blu.png","../images/pnk_blu.png","../images/blu_wht.png"],"mutagen_generator_assignment":[1,0],"goal":5,"start":2,"action_noise":0.2,"location_history":"[2,3,4,5]","action_history":"[1,0,0]","mutagen_history":"[0,1,1]","location_rts":"[1190,931,565]","trial_type":"fractal-mutation","trial_index":159,"time_elapsed":3900501,"internal_node_id":"0.0-5.0-55.0"},{"group":"hexagon_bi","fractal_assignment":["../images/ylw_slt.png","../images/cyn_red.png","../images/gry_blk.png","../images/org_blu.png","../images/pnk_blu.png","../images/blu_wht.png"],"mutagen_generator_assignment":[1,0],"goal":4,"start":5,"action_noise":0.2,"location_history":"[5,0,1,2,3,2,1,0,5,0,1,0,5,0,5,4]","action_history":"[0,1,0,0,1,0,0,0,0,1,1,0,0,1,1]","mutagen_history":"[1,0,1,1,0,1,1,1,1,0,0,1,1,0,0]","location_rts":"[1163,1088,1638,572,1030,816,556,423,500,1047,1373,828,634,867,290]","trial_type":"fractal-mutation","trial_index":160,"time_elapsed":3933179,"internal_node_id":"0.0-5.0-56.0"},{"group":"hexagon_bi","fractal_assignment":["../images/ylw_slt.png","../images/cyn_red.png","../images/gry_blk.png","../images/org_blu.png","../images/pnk_blu.png","../images/blu_wht.png"],"mutagen_generator_assignment":[1,0],"goal":3,"start":4,"action_noise":0.2,"location_history":"[4,3]","action_history":"[0]","mutagen_history":"[1]","location_rts":"[1774]","trial_type":"fractal-mutation","trial_index":161,"time_elapsed":3939550,"internal_node_id":"0.0-5.0-57.0"},{"group":"hexagon_bi","fractal_assignment":["../images/ylw_slt.png","../images/cyn_red.png","../images/gry_blk.png","../images/org_blu.png","../images/pnk_blu.png","../images/blu_wht.png"],"mutagen_generator_assignment":[1,0],"goal":0,"start":3,"action_noise":0.2,"location_history":"[3,4,3,2,3,2,3,2,3,4,3,2,3,4,3,4,3,2,3,4,3,4,3,4,5,0]","action_history":"[1,0,1,0,0,1,0,0,0,1,1,1,0,1,0,0,1,1,0,0,0,1,0,1,0]","mutagen_history":"[0,1,0,1,1,0,1,1,1,0,0,0,1,0,1,1,0,0,1,1,1,0,1,0,1]","location_rts":"[1498,1459,892,1011,1197,1046,1066,516,590,906,792,695,1141,1737,1221,598,382,590,628,862,686,749,828,722,682]","trial_type":"fractal-mutation","trial_index":162,"time_elapsed":3992726,"internal_node_id":"0.0-5.0-58.0"},{"group":"hexagon_bi","fractal_assignment":["../images/ylw_slt.png","../images/cyn_red.png","../images/gry_blk.png","../images/org_blu.png","../images/pnk_blu.png","../images/blu_wht.png"],"mutagen_generator_assignment":[1,0],"goal":2,"start":0,"action_noise":0.2,"location_history":"[0,1,0,1,0,1,2]","action_history":"[1,0,1,1,1,0]","mutagen_history":"[0,1,0,0,0,1]","location_rts":"[1231,526,757,616,439,297]","trial_type":"fractal-mutation","trial_index":163,"time_elapsed":4006606,"internal_node_id":"0.0-5.0-59.0"},{"group":"hexagon_bi","fractal_assignment":["../images/ylw_slt.png","../images/cyn_red.png","../images/gry_blk.png","../images/org_blu.png","../images/pnk_blu.png","../images/blu_wht.png"],"mutagen_generator_assignment":[1,0],"goal":1,"start":2,"action_noise":0.2,"location_history":"[2,1]","action_history":"[1]","mutagen_history":"[0]","location_rts":"[1006]","trial_type":"fractal-mutation","trial_index":164,"time_elapsed":4012209,"internal_node_id":"0.0-5.0-60.0"},{"group":"hexagon_bi","fractal_assignment":["../images/ylw_slt.png","../images/cyn_red.png","../images/gry_blk.png","../images/org_blu.png","../images/pnk_blu.png","../images/blu_wht.png"],"mutagen_generator_assignment":[1,0],"goal":0,"start":1,"action_noise":0.2,"location_history":"[1,0]","action_history":"[0]","mutagen_history":"[1]","location_rts":"[1090]","trial_type":"fractal-mutation","trial_index":165,"time_elapsed":4017908,"internal_node_id":"0.0-5.0-61.0"},{"group":"hexagon_bi","fractal_assignment":["../images/ylw_slt.png","../images/cyn_red.png","../images/gry_blk.png","../images/org_blu.png","../images/pnk_blu.png","../images/blu_wht.png"],"mutagen_generator_assignment":[1,0],"goal":3,"start":0,"action_noise":0.2,"location_history":"[0,1,2,1,0,5,4,5,4,5,4,3]","action_history":"[1,0,0,1,1,0,0,1,1,1,1]","mutagen_history":"[0,1,1,0,0,1,1,0,0,0,0]","location_rts":"[757,534,725,766,810,827,544,421,376,355,374]","trial_type":"fractal-mutation","trial_index":166,"time_elapsed":4039890,"internal_node_id":"0.0-5.0-62.0"},{"group":"hexagon_bi","fractal_assignment":["../images/ylw_slt.png","../images/cyn_red.png","../images/gry_blk.png","../images/org_blu.png","../images/pnk_blu.png","../images/blu_wht.png"],"mutagen_generator_assignment":[1,0],"goal":5,"start":3,"action_noise":0.2,"location_history":"[3,4,5]","action_history":"[0,1]","mutagen_history":"[1,0]","location_rts":"[735,834]","trial_type":"fractal-mutation","trial_index":167,"time_elapsed":4047164,"internal_node_id":"0.0-5.0-63.0"},{"group":"hexagon_bi","fractal_assignment":["../images/ylw_slt.png","../images/cyn_red.png","../images/gry_blk.png","../images/org_blu.png","../images/pnk_blu.png","../images/blu_wht.png"],"mutagen_generator_assignment":[1,0],"goal":4,"start":5,"action_noise":0.2,"location_history":"[5,0,1,0,5,4]","action_history":"[0,1,0,0,1]","mutagen_history":"[1,0,1,1,0]","location_rts":"[812,461,518,440,776]","trial_type":"fractal-mutation","trial_index":168,"time_elapsed":4059137,"internal_node_id":"0.0-5.0-64.0"},{"group":"hexagon_bi","fractal_assignment":["../images/ylw_slt.png","../images/cyn_red.png","../images/gry_blk.png","../images/org_blu.png","../images/pnk_blu.png","../images/blu_wht.png"],"mutagen_generator_assignment":[1,0],"goal":1,"start":4,"action_noise":0.2,"location_history":"[4,3,2,1]","action_history":"[0,1,1]","mutagen_history":"[1,0,0]","location_rts":"[853,488,452]","trial_type":"fractal-mutation","trial_index":169,"time_elapsed":4067708,"internal_node_id":"0.0-5.0-65.0"},{"group":"hexagon_bi","fractal_assignment":["../images/ylw_slt.png","../images/cyn_red.png","../images/gry_blk.png","../images/org_blu.png","../images/pnk_blu.png","../images/blu_wht.png"],"mutagen_generator_assignment":[1,0],"goal":5,"start":1,"action_noise":0.2,"location_history":"[1,2,3,4,3,2,1,2,1,0,5]","action_history":"[0,1,0,0,1,0,0,0,1,0]","mutagen_history":"[1,0,1,1,0,1,1,1,0,1]","location_rts":"[2695,789,466,520,737,649,412,421,687,94]","trial_type":"fractal-mutation","trial_index":170,"time_elapsed":4089585,"internal_node_id":"0.0-5.0-66.0"},{"group":"hexagon_bi","fractal_assignment":["../images/ylw_slt.png","../images/cyn_red.png","../images/gry_blk.png","../images/org_blu.png","../images/pnk_blu.png","../images/blu_wht.png"],"mutagen_generator_assignment":[1,0],"goal":2,"start":5,"action_noise":0.2,"location_history":"[5,4,3,4,5,4,3,2]","action_history":"[1,0,1,0,0,0,1]","mutagen_history":"[0,1,0,1,1,1,0]","location_rts":"[1032,673,883,587,418,514,580]","trial_type":"fractal-mutation","trial_index":171,"time_elapsed":4105363,"internal_node_id":"0.0-5.0-67.0"},{"group":"hexagon_bi","fractal_assignment":["../images/ylw_slt.png","../images/cyn_red.png","../images/gry_blk.png","../images/org_blu.png","../images/pnk_blu.png","../images/blu_wht.png"],"mutagen_generator_assignment":[1,0],"goal":3,"start":2,"action_noise":0.2,"location_history":"[2,1,2,1,2,3]","action_history":"[1,0,1,0,1]","mutagen_history":"[0,1,0,1,0]","location_rts":"[1061,609,443,2419,627]","trial_type":"fractal-mutation","trial_index":172,"time_elapsed":4119470,"internal_node_id":"0.0-5.0-68.0"},{"group":"hexagon_bi","fractal_assignment":["../images/ylw_slt.png","../images/cyn_red.png","../images/gry_blk.png","../images/org_blu.png","../images/pnk_blu.png","../images/blu_wht.png"],"mutagen_generator_assignment":[1,0],"goal":4,"start":3,"action_noise":0.2,"location_history":"[3,4]","action_history":"[0]","mutagen_history":"[1]","location_rts":"[858]","trial_type":"fractal-mutation","trial_index":173,"time_elapsed":4124923,"internal_node_id":"0.0-5.0-69.0"},{"group":"hexagon_bi","fractal_assignment":["../images/ylw_slt.png","../images/cyn_red.png","../images/gry_blk.png","../images/org_blu.png","../images/pnk_blu.png","../images/blu_wht.png"],"mutagen_generator_assignment":[1,0],"goal":0,"start":4,"action_noise":0.2,"location_history":"[4,5,0]","action_history":"[1,0]","mutagen_history":"[0,1]","location_rts":"[725,390]","trial_type":"fractal-mutation","trial_index":174,"time_elapsed":4131719,"internal_node_id":"0.0-5.0-70.0"},{"group":"hexagon_bi","fractal_assignment":["../images/ylw_slt.png","../images/cyn_red.png","../images/gry_blk.png","../images/org_blu.png","../images/pnk_blu.png","../images/blu_wht.png"],"mutagen_generator_assignment":[1,0],"goal":5,"start":0,"action_noise":0.2,"location_history":"[0,1,2,1,2,3,4,5]","action_history":"[1,0,0,0,1,0,1]","mutagen_history":"[0,1,1,1,0,1,0]","location_rts":"[678,697,514,529,611,582,886]","trial_type":"fractal-mutation","trial_index":175,"time_elapsed":4147333,"internal_node_id":"0.0-5.0-71.0"},{"group":"hexagon_bi","fractal_assignment":["../images/ylw_slt.png","../images/cyn_red.png","../images/gry_blk.png","../images/org_blu.png","../images/pnk_blu.png","../images/blu_wht.png"],"mutagen_generator_assignment":[1,0],"goal":0,"start":5,"action_noise":0.2,"location_history":"[5,0]","action_history":"[0]","mutagen_history":"[1]","location_rts":"[876]","trial_type":"fractal-mutation","trial_index":176,"time_elapsed":4152810,"internal_node_id":"0.0-5.0-72.0"},{"group":"hexagon_bi","fractal_assignment":["../images/ylw_slt.png","../images/cyn_red.png","../images/gry_blk.png","../images/org_blu.png","../images/pnk_blu.png","../images/blu_wht.png"],"mutagen_generator_assignment":[1,0],"goal":3,"start":0,"action_noise":0.2,"location_history":"[0,1,0,5,4,3]","action_history":"[1,0,0,1,0]","mutagen_history":"[0,1,1,0,1]","location_rts":"[823,494,416,401,629]","trial_type":"fractal-mutation","trial_index":177,"time_elapsed":4164505,"internal_node_id":"0.0-5.0-73.0"},{"group":"hexagon_bi","fractal_assignment":["../images/ylw_slt.png","../images/cyn_red.png","../images/gry_blk.png","../images/org_blu.png","../images/pnk_blu.png","../images/blu_wht.png"],"mutagen_generator_assignment":[1,0],"goal":1,"start":3,"action_noise":0.2,"location_history":"[3,2,1]","action_history":"[1,0]","mutagen_history":"[0,1]","location_rts":"[7831,366]","trial_type":"fractal-mutation","trial_index":178,"time_elapsed":4178396,"internal_node_id":"0.0-5.0-74.0"},{"group":"hexagon_bi","fractal_assignment":["../images/ylw_slt.png","../images/cyn_red.png","../images/gry_blk.png","../images/org_blu.png","../images/pnk_blu.png","../images/blu_wht.png"],"mutagen_generator_assignment":[1,0],"goal":2,"start":1,"action_noise":0.2,"location_history":"[1,0,5,4,5,4,5,0,5,0,1,2]","action_history":"[0,1,1,0,0,1,1,0,0,1,0]","mutagen_history":"[1,0,0,1,1,0,0,1,1,0,1]","location_rts":"[1089,612,741,486,661,346,421,654,587,492,339]","trial_type":"fractal-mutation","trial_index":179,"time_elapsed":4200305,"internal_node_id":"0.0-5.0-75.0"},{"group":"hexagon_bi","fractal_assignment":["../images/ylw_slt.png","../images/cyn_red.png","../images/gry_blk.png","../images/org_blu.png","../images/pnk_blu.png","../images/blu_wht.png"],"mutagen_generator_assignment":[1,0],"goal":4,"start":2,"action_noise":0.2,"location_history":"[2,1,2,3,4]","action_history":"[0,1,0,0]","mutagen_history":"[1,0,1,1]","location_rts":"[1698,461,512,262]","trial_type":"fractal-mutation","trial_index":180,"time_elapsed":4211113,"internal_node_id":"0.0-5.0-76.0"},{"group":"hexagon_bi","fractal_assignment":["../images/ylw_slt.png","../images/cyn_red.png","../images/gry_blk.png","../images/org_blu.png","../images/pnk_blu.png","../images/blu_wht.png"],"mutagen_generator_assignment":[1,0],"goal":3,"start":4,"action_noise":0.2,"location_history":"[4,3]","action_history":"[1]","mutagen_history":"[0]","location_rts":"[1051]","trial_type":"fractal-mutation","trial_index":181,"time_elapsed":4216763,"internal_node_id":"0.0-5.0-77.0"},{"group":"hexagon_bi","fractal_assignment":["../images/ylw_slt.png","../images/cyn_red.png","../images/gry_blk.png","../images/org_blu.png","../images/pnk_blu.png","../images/blu_wht.png"],"mutagen_generator_assignment":[1,0],"goal":0,"start":3,"action_noise":0.2,"location_history":"[3,4,5,0]","action_history":"[0,1,0]","mutagen_history":"[1,0,1]","location_rts":"[863,630,559]","trial_type":"fractal-mutation","trial_index":182,"time_elapsed":4225592,"internal_node_id":"0.0-5.0-78.0"},{"group":"hexagon_bi","fractal_assignment":["../images/ylw_slt.png","../images/cyn_red.png","../images/gry_blk.png","../images/org_blu.png","../images/pnk_blu.png","../images/blu_wht.png"],"mutagen_generator_assignment":[1,0],"goal":4,"start":0,"action_noise":0.2,"location_history":"[0,5,4]","action_history":"[0,1]","mutagen_history":"[1,0]","location_rts":"[1052,932]","trial_type":"fractal-mutation","trial_index":183,"time_elapsed":4233260,"internal_node_id":"0.0-5.0-79.0"},{"group":"hexagon_bi","fractal_assignment":["../images/ylw_slt.png","../images/cyn_red.png","../images/gry_blk.png","../images/org_blu.png","../images/pnk_blu.png","../images/blu_wht.png"],"mutagen_generator_assignment":[1,0],"goal":5,"start":4,"action_noise":0.2,"location_history":"[4,3,2,1,0,5]","action_history":"[0,1,0,1,0]","mutagen_history":"[1,0,1,0,1]","location_rts":"[917,900,569,757,577]","trial_type":"fractal-mutation","trial_index":184,"time_elapsed":4245916,"internal_node_id":"0.0-5.0-80.0"},{"group":"hexagon_bi","fractal_assignment":["../images/ylw_slt.png","../images/cyn_red.png","../images/gry_blk.png","../images/org_blu.png","../images/pnk_blu.png","../images/blu_wht.png"],"mutagen_generator_assignment":[1,0],"goal":1,"start":5,"action_noise":0.2,"location_history":"[5,0,1]","action_history":"[1,0]","mutagen_history":"[0,1]","location_rts":"[888,411]","trial_type":"fractal-mutation","trial_index":185,"time_elapsed":4252877,"internal_node_id":"0.0-5.0-81.0"},{"group":"hexagon_bi","fractal_assignment":["../images/ylw_slt.png","../images/cyn_red.png","../images/gry_blk.png","../images/org_blu.png","../images/pnk_blu.png","../images/blu_wht.png"],"mutagen_generator_assignment":[1,0],"goal":2,"start":1,"action_noise":0.2,"location_history":"[1,2]","action_history":"[0]","mutagen_history":"[1]","location_rts":"[1130]","trial_type":"fractal-mutation","trial_index":186,"time_elapsed":4258617,"internal_node_id":"0.0-5.0-82.0"},{"group":"hexagon_bi","fractal_assignment":["../images/ylw_slt.png","../images/cyn_red.png","../images/gry_blk.png","../images/org_blu.png","../images/pnk_blu.png","../images/blu_wht.png"],"mutagen_generator_assignment":[1,0],"goal":4,"start":2,"action_noise":0.2,"location_history":"[2,1,0,5,0,1,2,1,0,5,0,5,4]","action_history":"[1,0,0,0,0,0,0,1,0,0,1,0]","mutagen_history":"[0,1,1,1,1,1,1,0,1,1,0,1]","location_rts":"[945,401,432,495,477,468,483,398,223,391,268,431]","trial_type":"fractal-mutation","trial_index":187,"time_elapsed":4280630,"internal_node_id":"0.0-5.0-83.0"},{"group":"hexagon_bi","fractal_assignment":["../images/ylw_slt.png","../images/cyn_red.png","../images/gry_blk.png","../images/org_blu.png","../images/pnk_blu.png","../images/blu_wht.png"],"mutagen_generator_assignment":[1,0],"goal":0,"start":4,"action_noise":0.2,"location_history":"[4,5,0]","action_history":"[1,0]","mutagen_history":"[0,1]","location_rts":"[849,439]","trial_type":"fractal-mutation","trial_index":188,"time_elapsed":4287616,"internal_node_id":"0.0-5.0-84.0"},{"group":"hexagon_bi","fractal_assignment":["../images/ylw_slt.png","../images/cyn_red.png","../images/gry_blk.png","../images/org_blu.png","../images/pnk_blu.png","../images/blu_wht.png"],"mutagen_generator_assignment":[1,0],"goal":5,"start":0,"action_noise":0.2,"location_history":"[0,1,0,1,2,3,4,5]","action_history":"[0,1,0,0,1,0,1]","mutagen_history":"[1,0,1,1,0,1,0]","location_rts":"[845,497,531,428,507,623,646]","trial_type":"fractal-mutation","trial_index":189,"time_elapsed":4302817,"internal_node_id":"0.0-5.0-85.0"},{"group":"hexagon_bi","fractal_assignment":["../images/ylw_slt.png","../images/cyn_red.png","../images/gry_blk.png","../images/org_blu.png","../images/pnk_blu.png","../images/blu_wht.png"],"mutagen_generator_assignment":[1,0],"goal":3,"start":5,"action_noise":0.2,"location_history":"[5,4,5,4,3]","action_history":"[0,1,1,0]","mutagen_history":"[1,0,0,1]","location_rts":"[775,548,566,397]","trial_type":"fractal-mutation","trial_index":190,"time_elapsed":4312974,"internal_node_id":"0.0-5.0-86.0"},{"group":"hexagon_bi","fractal_assignment":["../images/ylw_slt.png","../images/cyn_red.png","../images/gry_blk.png","../images/org_blu.png","../images/pnk_blu.png","../images/blu_wht.png"],"mutagen_generator_assignment":[1,0],"goal":1,"start":3,"action_noise":0.2,"location_history":"[3,2,1]","action_history":"[0,1]","mutagen_history":"[1,0]","location_rts":"[3275,515]","trial_type":"fractal-mutation","trial_index":191,"time_elapsed":4322458,"internal_node_id":"0.0-5.0-87.0"},{"group":"hexagon_bi","fractal_assignment":["../images/ylw_slt.png","../images/cyn_red.png","../images/gry_blk.png","../images/org_blu.png","../images/pnk_blu.png","../images/blu_wht.png"],"mutagen_generator_assignment":[1,0],"goal":2,"start":1,"action_noise":0.2,"location_history":"[1,0,1,2]","action_history":"[0,1,0]","mutagen_history":"[1,0,1]","location_rts":"[823,553,428]","trial_type":"fractal-mutation","trial_index":192,"time_elapsed":4331045,"internal_node_id":"0.0-5.0-88.0"},{"group":"hexagon_bi","fractal_assignment":["../images/ylw_slt.png","../images/cyn_red.png","../images/gry_blk.png","../images/org_blu.png","../images/pnk_blu.png","../images/blu_wht.png"],"mutagen_generator_assignment":[1,0],"goal":0,"start":2,"action_noise":0.2,"location_history":"[2,1,0]","action_history":"[0,1]","mutagen_history":"[1,0]","location_rts":"[844,829]","trial_type":"fractal-mutation","trial_index":193,"time_elapsed":4338400,"internal_node_id":"0.0-5.0-89.0"},{"group":"hexagon_bi","fractal_assignment":["../images/ylw_slt.png","../images/cyn_red.png","../images/gry_blk.png","../images/org_blu.png","../images/pnk_blu.png","../images/blu_wht.png"],"mutagen_generator_assignment":[1,0],"goal":5,"start":0,"action_noise":0.2,"location_history":"[0,5]","action_history":"[0]","mutagen_history":"[1]","location_rts":"[647]","trial_type":"fractal-mutation","trial_index":194,"time_elapsed":4343649,"internal_node_id":"0.0-5.0-90.0"},{"group":"hexagon_bi","fractal_assignment":["../images/ylw_slt.png","../images/cyn_red.png","../images/gry_blk.png","../images/org_blu.png","../images/pnk_blu.png","../images/blu_wht.png"],"mutagen_generator_assignment":[1,0],"goal":1,"start":5,"action_noise":0.2,"location_history":"[5,0,1]","action_history":"[0,0]","mutagen_history":"[1,1]","location_rts":"[759,480]","trial_type":"fractal-mutation","trial_index":195,"time_elapsed":4350589,"internal_node_id":"0.0-5.0-91.0"},{"group":"hexagon_bi","fractal_assignment":["../images/ylw_slt.png","../images/cyn_red.png","../images/gry_blk.png","../images/org_blu.png","../images/pnk_blu.png","../images/blu_wht.png"],"mutagen_generator_assignment":[1,0],"goal":3,"start":1,"action_noise":0.2,"location_history":"[1,2,1,2,3]","action_history":"[0,0,0,1]","mutagen_history":"[1,1,1,0]","location_rts":"[728,492,569,12]","trial_type":"fractal-mutation","trial_index":196,"time_elapsed":4360282,"internal_node_id":"0.0-5.0-92.0"},{"group":"hexagon_bi","fractal_assignment":["../images/ylw_slt.png","../images/cyn_red.png","../images/gry_blk.png","../images/org_blu.png","../images/pnk_blu.png","../images/blu_wht.png"],"mutagen_generator_assignment":[1,0],"goal":4,"start":3,"action_noise":0.2,"location_history":"[3,4]","action_history":"[0]","mutagen_history":"[1]","location_rts":"[726]","trial_type":"fractal-mutation","trial_index":197,"time_elapsed":4365616,"internal_node_id":"0.0-5.0-93.0"},{"group":"hexagon_bi","fractal_assignment":["../images/ylw_slt.png","../images/cyn_red.png","../images/gry_blk.png","../images/org_blu.png","../images/pnk_blu.png","../images/blu_wht.png"],"mutagen_generator_assignment":[1,0],"goal":2,"start":4,"action_noise":0.2,"location_history":"[4,3,2]","action_history":"[0,1]","mutagen_history":"[1,0]","location_rts":"[908,460]","trial_type":"fractal-mutation","trial_index":198,"time_elapsed":4372676,"internal_node_id":"0.0-5.0-94.0"},{"group":"hexagon_bi","fractal_assignment":["../images/ylw_slt.png","../images/cyn_red.png","../images/gry_blk.png","../images/org_blu.png","../images/pnk_blu.png","../images/blu_wht.png"],"mutagen_generator_assignment":[1,0],"goal":4,"start":2,"action_noise":0.2,"location_history":"[2,1,0,5,0,1,0,1,0,5,4]","action_history":"[0,1,0,0,1,0,1,1,0,0]","mutagen_history":"[1,0,1,1,0,1,0,0,1,1]","location_rts":"[673,491,448,480,604,512,399,566,475,476]","trial_type":"fractal-mutation","trial_index":199,"time_elapsed":4392216,"internal_node_id":"0.0-5.0-95.0"},{"group":"hexagon_bi","fractal_assignment":["../images/ylw_slt.png","../images/cyn_red.png","../images/gry_blk.png","../images/org_blu.png","../images/pnk_blu.png","../images/blu_wht.png"],"mutagen_generator_assignment":[1,0],"goal":0,"start":4,"action_noise":0.2,"location_history":"[4,5,4,5,0]","action_history":"[0,1,1,0]","mutagen_history":"[1,0,0,1]","location_rts":"[879,526,918,779]","trial_type":"fractal-mutation","trial_index":200,"time_elapsed":4403163,"internal_node_id":"0.0-5.0-96.0"},{"group":"hexagon_bi","fractal_assignment":["../images/ylw_slt.png","../images/cyn_red.png","../images/gry_blk.png","../images/org_blu.png","../images/pnk_blu.png","../images/blu_wht.png"],"mutagen_generator_assignment":[1,0],"goal":5,"start":0,"action_noise":0.2,"location_history":"[0,5]","action_history":"[0]","mutagen_history":"[1]","location_rts":"[409]","trial_type":"fractal-mutation","trial_index":201,"time_elapsed":4408181,"internal_node_id":"0.0-5.0-97.0"},{"group":"hexagon_bi","fractal_assignment":["../images/ylw_slt.png","../images/cyn_red.png","../images/gry_blk.png","../images/org_blu.png","../images/pnk_blu.png","../images/blu_wht.png"],"mutagen_generator_assignment":[1,0],"goal":1,"start":5,"action_noise":0.2,"location_history":"[5,4,3,2,1]","action_history":"[1,0,1,0]","mutagen_history":"[0,1,0,1]","location_rts":"[801,436,574,517]","trial_type":"fractal-mutation","trial_index":202,"time_elapsed":4418347,"internal_node_id":"0.0-5.0-98.0"},{"group":"hexagon_bi","fractal_assignment":["../images/ylw_slt.png","../images/cyn_red.png","../images/gry_blk.png","../images/org_blu.png","../images/pnk_blu.png","../images/blu_wht.png"],"mutagen_generator_assignment":[1,0],"goal":3,"start":1,"action_noise":0.2,"location_history":"[1,0,1,0,5,4,5,0,1,2,3]","action_history":"[0,1,1,0,1,1,0,1,0,0]","mutagen_history":"[1,0,0,1,0,0,1,0,1,1]","location_rts":"[760,389,412,500,520,430,458,545,329,374]","trial_type":"fractal-mutation","trial_index":203,"time_elapsed":4437439,"internal_node_id":"0.0-5.0-99.0"},{"view_history":"[{\"page_index\":0,\"viewing_time\":26979}]","rt":26980,"trial_type":"instructions","trial_index":204,"time_elapsed":4465424,"internal_node_id":"0.0-6.0"},{"rt":16715,"responses":"{\"Q0\":\"This took me significantly longer than 30m.\"}","trial_type":"survey-text","trial_index":205,"time_elapsed":4483152,"internal_node_id":"0.0-7.0"}]