[{"view_history":"[{\"page_index\":0,\"viewing_time\":8831},{\"page_index\":1,\"viewing_time\":9990},{\"page_index\":2,\"viewing_time\":15120},{\"page_index\":3,\"viewing_time\":5409}]","rt":39350,"trial_type":"instructions","trial_index":0,"time_elapsed":39353,"internal_node_id":"0.0-0.0"},{"view_history":"[{\"page_index\":0,\"viewing_time\":1980},{\"page_index\":1,\"viewing_time\":25192}]","rt":27173,"trial_type":"instructions","trial_index":1,"time_elapsed":67528,"internal_node_id":"0.0-1.0"},{"group":"hexagon_bi","room_assignment":["yellow","purple","red","grey","green","blue"],"door_color_assignment":["white","black"],"door_generator_assignment":[0,1],"goal":4,"start":0,"action_noise":0.2,"location_history":"[0,1,0,1,2,3,4]","action_history":"[1,1,1,0,1,1]","door_history":"[1,1,1,0,1,1]","location_rts":"[3500,1363,1835,659,2399,1291]","trial_type":"two-door-navigation","trial_index":2,"time_elapsed":88205,"internal_node_id":"0.0-2.0-0.0"},{"group":"hexagon_bi","room_assignment":["yellow","purple","red","grey","green","blue"],"door_color_assignment":["white","black"],"door_generator_assignment":[0,1],"goal":3,"start":4,"action_noise":0.2,"location_history":"[4,3]","action_history":"[0]","door_history":"[0]","location_rts":"[3072]","trial_type":"two-door-navigation","trial_index":3,"time_elapsed":95800,"internal_node_id":"0.0-2.0-1.0"},{"group":"hexagon_bi","room_assignment":["yellow","purple","red","grey","green","blue"],"door_color_assignment":["white","black"],"door_generator_assignment":[0,1],"goal":5,"start":3,"action_noise":0.2,"location_history":"[3,4,5]","action_history":"[1,1]","door_history":"[1,1]","location_rts":"[4942,431]","trial_type":"two-door-navigation","trial_index":4,"time_elapsed":106715,"internal_node_id":"0.0-2.0-2.0"},{"group":"hexagon_bi","room_assignment":["yellow","purple","red","grey","green","blue"],"door_color_assignment":["white","black"],"door_generator_assignment":[0,1],"goal":2,"start":5,"action_noise":0.2,"location_history":"[5,0,5,0,1,2]","action_history":"[0,0,0,0,0]","door_history":"[0,0,0,0,0]","location_rts":"[2034,542,616,1333,1246]","trial_type":"two-door-navigation","trial_index":5,"time_elapsed":121080,"internal_node_id":"0.0-2.0-3.0"},{"group":"hexagon_bi","room_assignment":["yellow","purple","red","grey","green","blue"],"door_color_assignment":["white","black"],"door_generator_assignment":[0,1],"goal":1,"start":2,"action_noise":0.2,"location_history":"[2,1]","action_history":"[0]","door_history":"[0]","location_rts":"[2053]","trial_type":"two-door-navigation","trial_index":6,"time_elapsed":127656,"internal_node_id":"0.0-2.0-4.0"},{"group":"hexagon_bi","room_assignment":["yellow","purple","red","grey","green","blue"],"door_color_assignment":["white","black"],"door_generator_assignment":[0,1],"goal":4,"start":1,"action_noise":0.2,"location_history":"[1,0,1,2,3,2,3,2,1,0,1,2,3,4]","action_history":"[1,1,0,1,1,1,1,0,1,1,0,1,0]","door_history":"[1,1,0,1,1,1,1,0,1,1,0,1,0]","location_rts":"[1438,1284,444,717,868,862,543,709,890,1353,355,575,613]","trial_type":"two-door-navigation","trial_index":7,"time_elapsed":155052,"internal_node_id":"0.0-2.0-5.0"},{"group":"hexagon_bi","room_assignment":["yellow","purple","red","grey","green","blue"],"door_color_assignment":["white","black"],"door_generator_assignment":[0,1],"goal":1,"start":4,"action_noise":0.2,"location_history":"[4,5,0,1]","action_history":"[1,0,1]","door_history":"[1,0,1]","location_rts":"[1027,1539,626]","trial_type":"two-door-navigation","trial_index":8,"time_elapsed":164806,"internal_node_id":"0.0-2.0-6.0"},{"group":"hexagon_bi","room_assignment":["yellow","purple","red","grey","green","blue"],"door_color_assignment":["white","black"],"door_generator_assignment":[0,1],"goal":5,"start":1,"action_noise":0.2,"location_history":"[1,0,1,0,1,2,1,2,3,2,3,2,3,2,1,2,1,2,3,4,3,4,3,2,3,2,3,4,5]","action_history":"[1,1,0,1,0,1,0,1,1,1,1,1,0,1,0,1,0,1,1,0,1,1,1,1,1,1,0,1]","door_history":"[1,1,0,1,0,1,0,1,1,1,1,1,0,1,0,1,0,1,1,0,1,1,1,1,1,1,0,1]","location_rts":"[1340,650,486,431,278,740,1028,683,917,518,489,504,461,711,1213,412,839,261,440,877,1071,386,749,551,514,1550,2753,1200]","trial_type":"two-door-navigation","trial_index":9,"time_elapsed":218863,"internal_node_id":"0.0-2.0-7.0"},{"group":"hexagon_bi","room_assignment":["yellow","purple","red","grey","green","blue"],"door_color_assignment":["white","black"],"door_generator_assignment":[0,1],"goal":0,"start":5,"action_noise":0.2,"location_history":"[5,4,5,0]","action_history":"[0,1,0]","door_history":"[0,1,0]","location_rts":"[1712,581,621]","trial_type":"two-door-navigation","trial_index":10,"time_elapsed":228335,"internal_node_id":"0.0-2.0-8.0"},{"group":"hexagon_bi","room_assignment":["yellow","purple","red","grey","green","blue"],"door_color_assignment":["white","black"],"door_generator_assignment":[0,1],"goal":2,"start":0,"action_noise":0.2,"location_history":"[0,1,2]","action_history":"[1,0]","door_history":"[1,0]","location_rts":"[3876,770]","trial_type":"two-door-navigation","trial_index":11,"time_elapsed":238518,"internal_node_id":"0.0-2.0-9.0"},{"group":"hexagon_bi","room_assignment":["yellow","purple","red","grey","green","blue"],"door_color_assignment":["white","black"],"door_generator_assignment":[0,1],"goal":3,"start":2,"action_noise":0.2,"location_history":"[2,1,2,3]","action_history":"[1,0,1]","door_history":"[1,0,1]","location_rts":"[4138,1638,346]","trial_type":"two-door-navigation","trial_index":12,"time_elapsed":251199,"internal_node_id":"0.0-2.0-10.0"},{"group":"hexagon_bi","room_assignment":["yellow","purple","red","grey","green","blue"],"door_color_assignment":["white","black"],"door_generator_assignment":[0,1],"goal":0,"start":3,"action_noise":0.2,"location_history":"[3,4,5,4,3,4,5,0]","action_history":"[0,0,0,0,0,0,0]","door_history":"[0,0,0,0,0,0,0]","location_rts":"[3748,408,518,590,480,509,713]","trial_type":"two-door-navigation","trial_index":13,"time_elapsed":268800,"internal_node_id":"0.0-2.0-11.0"},{"group":"hexagon_bi","room_assignment":["yellow","purple","red","grey","green","blue"],"door_color_assignment":["white","black"],"door_generator_assignment":[0,1],"goal":2,"start":0,"action_noise":0.2,"location_history":"[0,1,0,1,2]","action_history":"[1,0,1,0]","door_history":"[1,0,1,0]","location_rts":"[1932,408,725,438]","trial_type":"two-door-navigation","trial_index":14,"time_elapsed":279881,"internal_node_id":"0.0-2.0-12.0"},{"group":"hexagon_bi","room_assignment":["yellow","purple","red","grey","green","blue"],"door_color_assignment":["white","black"],"door_generator_assignment":[0,1],"goal":5,"start":2,"action_noise":0.2,"location_history":"[2,3,2,3,2,3,4,3,4,3,4,5]","action_history":"[1,1,1,1,1,0,1,0,0,0,1]","door_history":"[1,1,1,1,1,0,1,0,0,0,1]","location_rts":"[3175,1538,655,294,560,483,819,829,406,1000,351]","trial_type":"two-door-navigation","trial_index":15,"time_elapsed":304697,"internal_node_id":"0.0-2.0-13.0"},{"group":"hexagon_bi","room_assignment":["yellow","purple","red","grey","green","blue"],"door_color_assignment":["white","black"],"door_generator_assignment":[0,1],"goal":4,"start":5,"action_noise":0.2,"location_history":"[5,0,1,2,3,2,3,4]","action_history":"[0,1,0,1,1,1,0]","door_history":"[0,1,0,1,1,1,0]","location_rts":"[2420,901,576,861,956,1135,357]","trial_type":"two-door-navigation","trial_index":16,"time_elapsed":322533,"internal_node_id":"0.0-2.0-14.0"},{"group":"hexagon_bi","room_assignment":["yellow","purple","red","grey","green","blue"],"door_color_assignment":["white","black"],"door_generator_assignment":[0,1],"goal":3,"start":4,"action_noise":0.2,"location_history":"[4,3]","action_history":"[0]","door_history":"[0]","location_rts":"[3254]","trial_type":"two-door-navigation","trial_index":17,"time_elapsed":330309,"internal_node_id":"0.0-2.0-15.0"},{"group":"hexagon_bi","room_assignment":["yellow","purple","red","grey","green","blue"],"door_color_assignment":["white","black"],"door_generator_assignment":[0,1],"goal":1,"start":3,"action_noise":0.2,"location_history":"[3,4,3,2,3,2,1]","action_history":"[1,1,1,1,1,0]","door_history":"[1,1,1,1,1,0]","location_rts":"[1553,1955,604,582,1372,460]","trial_type":"two-door-navigation","trial_index":18,"time_elapsed":346456,"internal_node_id":"0.0-2.0-16.0"},{"group":"hexagon_bi","room_assignment":["yellow","purple","red","grey","green","blue"],"door_color_assignment":["white","black"],"door_generator_assignment":[0,1],"goal":5,"start":1,"action_noise":0.2,"location_history":"[1,0,5]","action_history":"[1,0]","door_history":"[1,0]","location_rts":"[3741,2760]","trial_type":"two-door-navigation","trial_index":19,"time_elapsed":358499,"internal_node_id":"0.0-2.0-17.0"},{"group":"hexagon_bi","room_assignment":["yellow","purple","red","grey","green","blue"],"door_color_assignment":["white","black"],"door_generator_assignment":[0,1],"goal":4,"start":5,"action_noise":0.2,"location_history":"[5,4]","action_history":"[1]","door_history":"[1]","location_rts":"[5682]","trial_type":"two-door-navigation","trial_index":20,"time_elapsed":368702,"internal_node_id":"0.0-2.0-18.0"},{"group":"hexagon_bi","room_assignment":["yellow","purple","red","grey","green","blue"],"door_color_assignment":["white","black"],"door_generator_assignment":[0,1],"goal":0,"start":4,"action_noise":0.2,"location_history":"[4,5,0]","action_history":"[1,0]","door_history":"[1,0]","location_rts":"[1312,3538]","trial_type":"two-door-navigation","trial_index":21,"time_elapsed":379096,"internal_node_id":"0.0-2.0-19.0"},{"group":"hexagon_bi","room_assignment":["yellow","purple","red","grey","green","blue"],"door_color_assignment":["white","black"],"door_generator_assignment":[0,1],"goal":1,"start":0,"action_noise":0.2,"location_history":"[0,1]","action_history":"[1]","door_history":"[1]","location_rts":"[1143]","trial_type":"two-door-navigation","trial_index":22,"time_elapsed":384761,"internal_node_id":"0.0-2.0-20.0"},{"group":"hexagon_bi","room_assignment":["yellow","purple","red","grey","green","blue"],"door_color_assignment":["white","black"],"door_generator_assignment":[0,1],"goal":3,"start":1,"action_noise":0.2,"location_history":"[1,0,5,4,3]","action_history":"[1,0,1,0]","door_history":"[1,0,1,0]","location_rts":"[1949,443,1428,2534]","trial_type":"two-door-navigation","trial_index":23,"time_elapsed":398696,"internal_node_id":"0.0-2.0-21.0"},{"group":"hexagon_bi","room_assignment":["yellow","purple","red","grey","green","blue"],"door_color_assignment":["white","black"],"door_generator_assignment":[0,1],"goal":2,"start":3,"action_noise":0.2,"location_history":"[3,4,5,0,1,2]","action_history":"[0,0,0,1,0]","door_history":"[0,0,0,1,0]","location_rts":"[2856,1809,916,526,509]","trial_type":"two-door-navigation","trial_index":24,"time_elapsed":413911,"internal_node_id":"0.0-2.0-22.0"},{"group":"hexagon_bi","room_assignment":["yellow","purple","red","grey","green","blue"],"door_color_assignment":["white","black"],"door_generator_assignment":[0,1],"goal":0,"start":2,"action_noise":0.2,"location_history":"[2,1,0]","action_history":"[0,1]","door_history":"[0,1]","location_rts":"[2102,751]","trial_type":"two-door-navigation","trial_index":25,"time_elapsed":422305,"internal_node_id":"0.0-2.0-23.0"},{"group":"hexagon_bi","room_assignment":["yellow","purple","red","grey","green","blue"],"door_color_assignment":["white","black"],"door_generator_assignment":[0,1],"goal":3,"start":0,"action_noise":0.2,"location_history":"[0,1,0,1,2,1,0,5,0,5,4,3]","action_history":"[1,0,1,1,0,1,0,0,0,1,1]","door_history":"[1,0,1,1,0,1,0,0,0,1,1]","location_rts":"[1615,703,1351,557,1543,1705,1339,538,398,274,1653]","trial_type":"two-door-navigation","trial_index":26,"time_elapsed":448678,"internal_node_id":"0.0-2.0-24.0"},{"group":"hexagon_bi","room_assignment":["yellow","purple","red","grey","green","blue"],"door_color_assignment":["white","black"],"door_generator_assignment":[0,1],"goal":1,"start":3,"action_noise":0.2,"location_history":"[3,4,3,4,5,4,3,2,1]","action_history":"[0,0,0,1,1,0,0,0]","door_history":"[0,0,0,1,1,0,0,0]","location_rts":"[2178,581,494,232,1405,661,332,2111]","trial_type":"two-door-navigation","trial_index":27,"time_elapsed":468329,"internal_node_id":"0.0-2.0-25.0"},{"group":"hexagon_bi","room_assignment":["yellow","purple","red","grey","green","blue"],"door_color_assignment":["white","black"],"door_generator_assignment":[0,1],"goal":2,"start":1,"action_noise":0.2,"location_history":"[1,2]","action_history":"[0]","door_history":"[0]","location_rts":"[3413]","trial_type":"two-door-navigation","trial_index":28,"time_elapsed":476264,"internal_node_id":"0.0-2.0-26.0"},{"group":"hexagon_bi","room_assignment":["yellow","purple","red","grey","green","blue"],"door_color_assignment":["white","black"],"door_generator_assignment":[0,1],"goal":5,"start":2,"action_noise":0.2,"location_history":"[2,1,2,3,2,3,2,1,2,1,0,5]","action_history":"[0,0,0,1,0,1,0,0,0,0,0]","door_history":"[0,0,0,1,0,1,0,0,0,0,0]","location_rts":"[1696,556,270,223,1709,420,870,1021,451,947,1039]","trial_type":"two-door-navigation","trial_index":29,"time_elapsed":500177,"internal_node_id":"0.0-2.0-27.0"},{"group":"hexagon_bi","room_assignment":["yellow","purple","red","grey","green","blue"],"door_color_assignment":["white","black"],"door_generator_assignment":[0,1],"goal":4,"start":5,"action_noise":0.2,"location_history":"[5,4]","action_history":"[1]","door_history":"[1]","location_rts":"[2727]","trial_type":"two-door-navigation","trial_index":30,"time_elapsed":507426,"internal_node_id":"0.0-2.0-28.0"},{"group":"hexagon_bi","room_assignment":["yellow","purple","red","grey","green","blue"],"door_color_assignment":["white","black"],"door_generator_assignment":[0,1],"goal":5,"start":4,"action_noise":0.2,"location_history":"[4,3,2,3,2,3,4,5]","action_history":"[1,1,1,1,0,0,0]","door_history":"[1,1,1,1,0,0,0]","location_rts":"[2724,2047,895,543,805,563,1718]","trial_type":"two-door-navigation","trial_index":31,"time_elapsed":527354,"internal_node_id":"0.0-2.0-29.0"},{"group":"hexagon_bi","room_assignment":["yellow","purple","red","grey","green","blue"],"door_color_assignment":["white","black"],"door_generator_assignment":[0,1],"goal":3,"start":5,"action_noise":0.2,"location_history":"[5,4,5,4,5,0,1,2,3]","action_history":"[1,0,1,1,1,1,0,1]","door_history":"[1,0,1,1,1,1,0,1]","location_rts":"[1629,700,708,310,684,245,951,751]","trial_type":"two-door-navigation","trial_index":32,"time_elapsed":544988,"internal_node_id":"0.0-2.0-30.0"},{"group":"hexagon_bi","room_assignment":["yellow","purple","red","grey","green","blue"],"door_color_assignment":["white","black"],"door_generator_assignment":[0,1],"goal":0,"start":3,"action_noise":0.2,"location_history":"[3,4,3,4,5,0]","action_history":"[0,0,0,1,0]","door_history":"[0,0,0,1,0]","location_rts":"[5515,1163,583,246,462]","trial_type":"two-door-navigation","trial_index":33,"time_elapsed":561554,"internal_node_id":"0.0-2.0-31.0"},{"group":"hexagon_bi","room_assignment":["yellow","purple","red","grey","green","blue"],"door_color_assignment":["white","black"],"door_generator_assignment":[0,1],"goal":4,"start":0,"action_noise":0.2,"location_history":"[0,1,2,1,2,3,2,3,2,3,2,3,4]","action_history":"[1,0,1,1,1,1,1,0,1,1,1,0]","door_history":"[1,0,1,1,1,1,1,0,1,1,1,0]","location_rts":"[1229,858,500,462,541,402,606,534,825,332,574,446]","trial_type":"two-door-navigation","trial_index":34,"time_elapsed":584593,"internal_node_id":"0.0-2.0-32.0"},{"group":"hexagon_bi","room_assignment":["yellow","purple","red","grey","green","blue"],"door_color_assignment":["white","black"],"door_generator_assignment":[0,1],"goal":1,"start":4,"action_noise":0.2,"location_history":"[4,3,4,5,0,1]","action_history":"[0,0,1,0,1]","door_history":"[0,0,1,0,1]","location_rts":"[2170,506,891,982,4089]","trial_type":"two-door-navigation","trial_index":35,"time_elapsed":601830,"internal_node_id":"0.0-2.0-33.0"},{"group":"hexagon_bi","room_assignment":["yellow","purple","red","grey","green","blue"],"door_color_assignment":["white","black"],"door_generator_assignment":[0,1],"goal":2,"start":1,"action_noise":0.2,"location_history":"[1,0,5,4,5,4,3,4,3,2]","action_history":"[1,1,1,1,1,0,0,0,1]","door_history":"[1,1,1,1,1,0,0,0,1]","location_rts":"[2354,871,941,587,883,542,561,815,257]","trial_type":"two-door-navigation","trial_index":36,"time_elapsed":622312,"internal_node_id":"0.0-2.0-34.0"},{"group":"hexagon_bi","room_assignment":["yellow","purple","red","grey","green","blue"],"door_color_assignment":["white","black"],"door_generator_assignment":[0,1],"goal":0,"start":2,"action_noise":0.2,"location_history":"[2,3,4,3,4,5,0]","action_history":"[0,1,0,1,1,1]","door_history":"[0,1,0,1,1,1]","location_rts":"[7411,1496,774,829,245,9304]","trial_type":"two-door-navigation","trial_index":37,"time_elapsed":651988,"internal_node_id":"0.0-2.0-35.0"},{"group":"hexagon_bi","room_assignment":["yellow","purple","red","grey","green","blue"],"door_color_assignment":["white","black"],"door_generator_assignment":[0,1],"goal":5,"start":0,"action_noise":0.2,"location_history":"[0,5]","action_history":"[0]","door_history":"[0]","location_rts":"[2388]","trial_type":"two-door-navigation","trial_index":38,"time_elapsed":658896,"internal_node_id":"0.0-2.0-36.0"},{"group":"hexagon_bi","room_assignment":["yellow","purple","red","grey","green","blue"],"door_color_assignment":["white","black"],"door_generator_assignment":[0,1],"goal":2,"start":5,"action_noise":0.2,"location_history":"[5,0,1,2]","action_history":"[0,1,0]","door_history":"[0,1,0]","location_rts":"[11070,886,991]","trial_type":"two-door-navigation","trial_index":39,"time_elapsed":678402,"internal_node_id":"0.0-2.0-37.0"},{"group":"hexagon_bi","room_assignment":["yellow","purple","red","grey","green","blue"],"door_color_assignment":["white","black"],"door_generator_assignment":[0,1],"goal":1,"start":2,"action_noise":0.2,"location_history":"[2,1]","action_history":"[0]","door_history":"[0]","location_rts":"[2936]","trial_type":"two-door-navigation","trial_index":40,"time_elapsed":685859,"internal_node_id":"0.0-2.0-38.0"},{"group":"hexagon_bi","room_assignment":["yellow","purple","red","grey","green","blue"],"door_color_assignment":["white","black"],"door_generator_assignment":[0,1],"goal":4,"start":1,"action_noise":0.2,"location_history":"[1,0,1,2,3,2,3,4]","action_history":"[0,1,0,1,1,1,0]","door_history":"[0,1,0,1,1,1,0]","location_rts":"[3498,914,666,1560,845,893,455]","trial_type":"two-door-navigation","trial_index":41,"time_elapsed":705319,"internal_node_id":"0.0-2.0-39.0"},{"group":"hexagon_bi","room_assignment":["yellow","purple","red","grey","green","blue"],"door_color_assignment":["white","black"],"door_generator_assignment":[0,1],"goal":3,"start":4,"action_noise":0.2,"location_history":"[4,3]","action_history":"[0]","door_history":"[0]","location_rts":"[1520]","trial_type":"two-door-navigation","trial_index":42,"time_elapsed":711361,"internal_node_id":"0.0-2.0-40.0"},{"group":"hexagon_bi","room_assignment":["yellow","purple","red","grey","green","blue"],"door_color_assignment":["white","black"],"door_generator_assignment":[0,1],"goal":5,"start":3,"action_noise":0.2,"location_history":"[3,4,5]","action_history":"[1,1]","door_history":"[1,1]","location_rts":"[1895,1444]","trial_type":"two-door-navigation","trial_index":43,"time_elapsed":720242,"internal_node_id":"0.0-2.0-41.0"},{"group":"hexagon_bi","room_assignment":["yellow","purple","red","grey","green","blue"],"door_color_assignment":["white","black"],"door_generator_assignment":[0,1],"goal":3,"start":5,"action_noise":0.2,"location_history":"[5,0,5,0,5,4,3]","action_history":"[0,0,1,0,1,1]","door_history":"[0,0,1,0,1,1]","location_rts":"[2213,653,339,1173,846,1228]","trial_type":"two-door-navigation","trial_index":44,"time_elapsed":736314,"internal_node_id":"0.0-2.0-42.0"},{"group":"hexagon_bi","room_assignment":["yellow","purple","red","grey","green","blue"],"door_color_assignment":["white","black"],"door_generator_assignment":[0,1],"goal":0,"start":3,"action_noise":0.2,"location_history":"[3,4,5,0]","action_history":"[0,1,0]","door_history":"[0,1,0]","location_rts":"[1524,3104,1666]","trial_type":"two-door-navigation","trial_index":45,"time_elapsed":749168,"internal_node_id":"0.0-2.0-43.0"},{"group":"hexagon_bi","room_assignment":["yellow","purple","red","grey","green","blue"],"door_color_assignment":["white","black"],"door_generator_assignment":[0,1],"goal":2,"start":0,"action_noise":0.2,"location_history":"[0,1,2]","action_history":"[1,0]","door_history":"[1,0]","location_rts":"[1293,540]","trial_type":"two-door-navigation","trial_index":46,"time_elapsed":756543,"internal_node_id":"0.0-2.0-44.0"},{"group":"hexagon_bi","room_assignment":["yellow","purple","red","grey","green","blue"],"door_color_assignment":["white","black"],"door_generator_assignment":[0,1],"goal":4,"start":2,"action_noise":0.2,"location_history":"[2,3,2,3,2,3,4]","action_history":"[1,1,1,0,1,0]","door_history":"[1,1,1,0,1,0]","location_rts":"[1415,829,476,285,839,271]","trial_type":"two-door-navigation","trial_index":47,"time_elapsed":770273,"internal_node_id":"0.0-2.0-45.0"},{"group":"hexagon_bi","room_assignment":["yellow","purple","red","grey","green","blue"],"door_color_assignment":["white","black"],"door_generator_assignment":[0,1],"goal":1,"start":4,"action_noise":0.2,"location_history":"[4,3,2,1]","action_history":"[0,1,0]","door_history":"[0,1,0]","location_rts":"[2726,1243,1590]","trial_type":"two-door-navigation","trial_index":48,"time_elapsed":782390,"internal_node_id":"0.0-2.0-46.0"},{"group":"hexagon_bi","room_assignment":["yellow","purple","red","grey","green","blue"],"door_color_assignment":["white","black"],"door_generator_assignment":[0,1],"goal":4,"start":1,"action_noise":0.2,"location_history":"[1,0,1,0,1,0,5,4]","action_history":"[1,0,1,0,1,0,1]","door_history":"[1,0,1,0,1,0,1]","location_rts":"[2027,874,1678,310,893,252,1486]","trial_type":"two-door-navigation","trial_index":49,"time_elapsed":800543,"internal_node_id":"0.0-2.0-47.0"},{"group":"hexagon_bi","room_assignment":["yellow","purple","red","grey","green","blue"],"door_color_assignment":["white","black"],"door_generator_assignment":[0,1],"goal":1,"start":4,"action_noise":0.2,"location_history":"[4,5,0,1]","action_history":"[1,0,1]","door_history":"[1,0,1]","location_rts":"[2729,1446,659]","trial_type":"two-door-navigation","trial_index":50,"time_elapsed":811942,"internal_node_id":"0.0-2.0-48.0"},{"group":"hexagon_bi","room_assignment":["yellow","purple","red","grey","green","blue"],"door_color_assignment":["white","black"],"door_generator_assignment":[0,1],"goal":3,"start":1,"action_noise":0.2,"location_history":"[1,0,1,2,3]","action_history":"[1,0,0,1]","door_history":"[1,0,0,1]","location_rts":"[4440,1248,1549,1635]","trial_type":"two-door-navigation","trial_index":51,"time_elapsed":828391,"internal_node_id":"0.0-2.0-49.0"},{"group":"hexagon_bi","room_assignment":["yellow","purple","red","grey","green","blue"],"door_color_assignment":["white","black"],"door_generator_assignment":[0,1],"goal":5,"start":3,"action_noise":0.2,"location_history":"[3,4,5]","action_history":"[0,1]","door_history":"[0,1]","location_rts":"[1751,1116]","trial_type":"two-door-navigation","trial_index":52,"time_elapsed":836797,"internal_node_id":"0.0-2.0-50.0"},{"group":"hexagon_bi","room_assignment":["yellow","purple","red","grey","green","blue"],"door_color_assignment":["white","black"],"door_generator_assignment":[0,1],"goal":0,"start":5,"action_noise":0.2,"location_history":"[5,4,5,4,5,0]","action_history":"[1,1,0,1,0]","door_history":"[1,1,0,1,0]","location_rts":"[1793,1029,599,2035,392]","trial_type":"two-door-navigation","trial_index":53,"time_elapsed":851242,"internal_node_id":"0.0-2.0-51.0"},{"group":"hexagon_bi","room_assignment":["yellow","purple","red","grey","green","blue"],"door_color_assignment":["white","black"],"door_generator_assignment":[0,1],"goal":2,"start":0,"action_noise":0.2,"location_history":"[0,5,4,3,2]","action_history":"[1,1,0,1]","door_history":"[1,1,0,1]","location_rts":"[2685,900,1475,1116]","trial_type":"two-door-navigation","trial_index":54,"time_elapsed":865005,"internal_node_id":"0.0-2.0-52.0"},{"group":"hexagon_bi","room_assignment":["yellow","purple","red","grey","green","blue"],"door_color_assignment":["white","black"],"door_generator_assignment":[0,1],"goal":1,"start":2,"action_noise":0.2,"location_history":"[2,1]","action_history":"[0]","door_history":"[0]","location_rts":"[2218]","trial_type":"two-door-navigation","trial_index":55,"time_elapsed":871748,"internal_node_id":"0.0-2.0-53.0"},{"group":"hexagon_bi","room_assignment":["yellow","purple","red","grey","green","blue"],"door_color_assignment":["white","black"],"door_generator_assignment":[0,1],"goal":2,"start":1,"action_noise":0.2,"location_history":"[1,0,1,2]","action_history":"[0,0,0]","door_history":"[0,0,0]","location_rts":"[1578,7215,6197]","trial_type":"two-door-navigation","trial_index":56,"time_elapsed":893296,"internal_node_id":"0.0-2.0-54.0"},{"group":"hexagon_bi","room_assignment":["yellow","purple","red","grey","green","blue"],"door_color_assignment":["white","black"],"door_generator_assignment":[0,1],"goal":5,"start":2,"action_noise":0.2,"location_history":"[2,3,4,5]","action_history":"[1,0,1]","door_history":"[1,0,1]","location_rts":"[2243,1258,1501]","trial_type":"two-door-navigation","trial_index":57,"time_elapsed":904854,"internal_node_id":"0.0-2.0-55.0"},{"group":"hexagon_bi","room_assignment":["yellow","purple","red","grey","green","blue"],"door_color_assignment":["white","black"],"door_generator_assignment":[0,1],"goal":4,"start":5,"action_noise":0.2,"location_history":"[5,0,5,4]","action_history":"[0,0,1]","door_history":"[0,0,1]","location_rts":"[1761,590,221]","trial_type":"two-door-navigation","trial_index":58,"time_elapsed":913987,"internal_node_id":"0.0-2.0-56.0"},{"group":"hexagon_bi","room_assignment":["yellow","purple","red","grey","green","blue"],"door_color_assignment":["white","black"],"door_generator_assignment":[0,1],"goal":3,"start":4,"action_noise":0.2,"location_history":"[4,3]","action_history":"[0]","door_history":"[0]","location_rts":"[3109]","trial_type":"two-door-navigation","trial_index":59,"time_elapsed":921618,"internal_node_id":"0.0-2.0-57.0"},{"group":"hexagon_bi","room_assignment":["yellow","purple","red","grey","green","blue"],"door_color_assignment":["white","black"],"door_generator_assignment":[0,1],"goal":0,"start":3,"action_noise":0.2,"location_history":"[3,4,3,4,5,0]","action_history":"[0,1,0,1,0]","door_history":"[0,1,0,1,0]","location_rts":"[2772,519,1367,326,750]","trial_type":"two-door-navigation","trial_index":60,"time_elapsed":935945,"internal_node_id":"0.0-2.0-58.0"},{"group":"hexagon_bi","room_assignment":["yellow","purple","red","grey","green","blue"],"door_color_assignment":["white","black"],"door_generator_assignment":[0,1],"goal":2,"start":0,"action_noise":0.2,"location_history":"[0,1,2]","action_history":"[1,0]","door_history":"[1,0]","location_rts":"[2597,758]","trial_type":"two-door-navigation","trial_index":61,"time_elapsed":944842,"internal_node_id":"0.0-2.0-59.0"},{"group":"hexagon_bi","room_assignment":["yellow","purple","red","grey","green","blue"],"door_color_assignment":["white","black"],"door_generator_assignment":[0,1],"goal":1,"start":2,"action_noise":0.2,"location_history":"[2,3,4,5,4,3,2,1]","action_history":"[0,0,0,1,0,1,0]","door_history":"[0,0,0,1,0,1,0]","location_rts":"[2740,3452,1234,589,2184,1214,975]","trial_type":"two-door-navigation","trial_index":62,"time_elapsed":967856,"internal_node_id":"0.0-2.0-60.0"},{"group":"hexagon_bi","room_assignment":["yellow","purple","red","grey","green","blue"],"door_color_assignment":["white","black"],"door_generator_assignment":[0,1],"goal":0,"start":1,"action_noise":0.2,"location_history":"[1,0]","action_history":"[1]","door_history":"[1]","location_rts":"[5444]","trial_type":"two-door-navigation","trial_index":63,"time_elapsed":977820,"internal_node_id":"0.0-2.0-61.0"},{"group":"hexagon_bi","room_assignment":["yellow","purple","red","grey","green","blue"],"door_color_assignment":["white","black"],"door_generator_assignment":[0,1],"goal":3,"start":0,"action_noise":0.2,"location_history":"[0,5,0,5,4,3]","action_history":"[0,1,0,1,0]","door_history":"[0,1,0,1,0]","location_rts":"[7768,1016,1085,269,670]","trial_type":"two-door-navigation","trial_index":64,"time_elapsed":997226,"internal_node_id":"0.0-2.0-62.0"},{"group":"hexagon_bi","room_assignment":["yellow","purple","red","grey","green","blue"],"door_color_assignment":["white","black"],"door_generator_assignment":[0,1],"goal":5,"start":3,"action_noise":0.2,"location_history":"[3,4,3,4,3,2,3,4,5]","action_history":"[0,0,0,1,0,1,0,1]","door_history":"[0,0,0,1,0,1,0,1]","location_rts":"[2853,2859,716,239,851,263,933,627]","trial_type":"two-door-navigation","trial_index":65,"time_elapsed":1018227,"internal_node_id":"0.0-2.0-63.0"},{"group":"hexagon_bi","room_assignment":["yellow","purple","red","grey","green","blue"],"door_color_assignment":["white","black"],"door_generator_assignment":[0,1],"goal":4,"start":5,"action_noise":0.2,"location_history":"[5,4]","action_history":"[1]","door_history":"[1]","location_rts":"[8973]","trial_type":"two-door-navigation","trial_index":66,"time_elapsed":1031722,"internal_node_id":"0.0-2.0-64.0"},{"group":"hexagon_bi","room_assignment":["yellow","purple","red","grey","green","blue"],"door_color_assignment":["white","black"],"door_generator_assignment":[0,1],"goal":1,"start":4,"action_noise":0.2,"location_history":"[4,5,4,5,0,5,0,1]","action_history":"[1,1,1,0,1,0,1]","door_history":"[1,1,1,0,1,0,1]","location_rts":"[1333,852,1062,1254,913,796,265]","trial_type":"two-door-navigation","trial_index":67,"time_elapsed":1048834,"internal_node_id":"0.0-2.0-65.0"},{"group":"hexagon_bi","room_assignment":["yellow","purple","red","grey","green","blue"],"door_color_assignment":["white","black"],"door_generator_assignment":[0,1],"goal":5,"start":1,"action_noise":0.2,"location_history":"[1,2,1,0,5]","action_history":"[0,0,1,0]","door_history":"[0,0,1,0]","location_rts":"[3374,4589,2197,399]","trial_type":"two-door-navigation","trial_index":68,"time_elapsed":1066968,"internal_node_id":"0.0-2.0-66.0"},{"group":"hexagon_bi","room_assignment":["yellow","purple","red","grey","green","blue"],"door_color_assignment":["white","black"],"door_generator_assignment":[0,1],"goal":2,"start":5,"action_noise":0.2,"location_history":"[5,0,1,2]","action_history":"[0,1,0]","door_history":"[0,1,0]","location_rts":"[6111,408,600]","trial_type":"two-door-navigation","trial_index":69,"time_elapsed":1080648,"internal_node_id":"0.0-2.0-67.0"},{"group":"hexagon_bi","room_assignment":["yellow","purple","red","grey","green","blue"],"door_color_assignment":["white","black"],"door_generator_assignment":[0,1],"goal":3,"start":2,"action_noise":0.2,"location_history":"[2,1,2,3]","action_history":"[1,1,0]","door_history":"[1,1,0]","location_rts":"[2738,1272,710]","trial_type":"two-door-navigation","trial_index":70,"time_elapsed":1091925,"internal_node_id":"0.0-2.0-68.0"},{"group":"hexagon_bi","room_assignment":["yellow","purple","red","grey","green","blue"],"door_color_assignment":["white","black"],"door_generator_assignment":[0,1],"goal":4,"start":3,"action_noise":0.2,"location_history":"[3,2,1,0,1,2,3,4]","action_history":"[1,0,1,0,0,1,0]","door_history":"[1,0,1,0,0,1,0]","location_rts":"[9357,701,695,794,1348,827,943]","trial_type":"two-door-navigation","trial_index":71,"time_elapsed":1117226,"internal_node_id":"0.0-2.0-69.0"},{"group":"hexagon_bi","room_assignment":["yellow","purple","red","grey","green","blue"],"door_color_assignment":["white","black"],"door_generator_assignment":[0,1],"goal":0,"start":4,"action_noise":0.2,"location_history":"[4,3,4,3,4,3,4,5,0]","action_history":"[1,0,0,0,0,0,1,0]","door_history":"[1,0,0,0,0,0,1,0]","location_rts":"[8675,1657,647,803,375,665,319,721]","trial_type":"two-door-navigation","trial_index":72,"time_elapsed":1142737,"internal_node_id":"0.0-2.0-70.0"},{"group":"hexagon_bi","room_assignment":["yellow","purple","red","grey","green","blue"],"door_color_assignment":["white","black"],"door_generator_assignment":[0,1],"goal":5,"start":0,"action_noise":0.2,"location_history":"[0,5]","action_history":"[0]","door_history":"[0]","location_rts":"[1181]","trial_type":"two-door-navigation","trial_index":73,"time_elapsed":1148444,"internal_node_id":"0.0-2.0-71.0"},{"group":"hexagon_bi","room_assignment":["yellow","purple","red","grey","green","blue"],"door_color_assignment":["white","black"],"door_generator_assignment":[0,1],"goal":0,"start":5,"action_noise":0.2,"location_history":"[5,0]","action_history":"[0]","door_history":"[0]","location_rts":"[1315]","trial_type":"two-door-navigation","trial_index":74,"time_elapsed":1154283,"internal_node_id":"0.0-2.0-72.0"},{"group":"hexagon_bi","room_assignment":["yellow","purple","red","grey","green","blue"],"door_color_assignment":["white","black"],"door_generator_assignment":[0,1],"goal":3,"start":0,"action_noise":0.2,"location_history":"[0,5,4,3]","action_history":"[0,1,0]","door_history":"[0,1,0]","location_rts":"[1533,487,516]","trial_type":"two-door-navigation","trial_index":75,"time_elapsed":1163381,"internal_node_id":"0.0-2.0-73.0"},{"group":"hexagon_bi","room_assignment":["yellow","purple","red","grey","green","blue"],"door_color_assignment":["white","black"],"door_generator_assignment":[0,1],"goal":1,"start":3,"action_noise":0.2,"location_history":"[3,2,1]","action_history":"[1,0]","door_history":"[1,0]","location_rts":"[1859,1286]","trial_type":"two-door-navigation","trial_index":76,"time_elapsed":1172066,"internal_node_id":"0.0-2.0-74.0"},{"group":"hexagon_bi","room_assignment":["yellow","purple","red","grey","green","blue"],"door_color_assignment":["white","black"],"door_generator_assignment":[0,1],"goal":2,"start":1,"action_noise":0.2,"location_history":"[1,2]","action_history":"[0]","door_history":"[0]","location_rts":"[1854]","trial_type":"two-door-navigation","trial_index":77,"time_elapsed":1178442,"internal_node_id":"0.0-2.0-75.0"},{"group":"hexagon_bi","room_assignment":["yellow","purple","red","grey","green","blue"],"door_color_assignment":["white","black"],"door_generator_assignment":[0,1],"goal":4,"start":2,"action_noise":0.2,"location_history":"[2,3,4]","action_history":"[1,0]","door_history":"[1,0]","location_rts":"[1805,518]","trial_type":"two-door-navigation","trial_index":78,"time_elapsed":1186303,"internal_node_id":"0.0-2.0-76.0"},{"group":"hexagon_bi","room_assignment":["yellow","purple","red","grey","green","blue"],"door_color_assignment":["white","black"],"door_generator_assignment":[0,1],"goal":3,"start":4,"action_noise":0.2,"location_history":"[4,3]","action_history":"[1]","door_history":"[1]","location_rts":"[2448]","trial_type":"two-door-navigation","trial_index":79,"time_elapsed":1193276,"internal_node_id":"0.0-2.0-77.0"},{"group":"hexagon_bi","room_assignment":["yellow","purple","red","grey","green","blue"],"door_color_assignment":["white","black"],"door_generator_assignment":[0,1],"goal":0,"start":3,"action_noise":0.2,"location_history":"[3,2,1,0]","action_history":"[1,0,1]","door_history":"[1,0,1]","location_rts":"[2617,647,1587]","trial_type":"two-door-navigation","trial_index":80,"time_elapsed":1204690,"internal_node_id":"0.0-2.0-78.0"},{"group":"hexagon_bi","room_assignment":["yellow","purple","red","grey","green","blue"],"door_color_assignment":["white","black"],"door_generator_assignment":[0,1],"goal":4,"start":0,"action_noise":0.2,"location_history":"[0,5,0,5,0,5,0,1,0,1,2,1,2,3,4]","action_history":"[0,1,0,1,0,0,0,0,1,0,1,0,1,0]","door_history":"[0,1,0,1,0,0,0,0,1,0,1,0,1,0]","location_rts":"[2399,865,874,312,661,221,702,2350,939,334,907,998,463,1888]","trial_type":"two-door-navigation","trial_index":81,"time_elapsed":1236369,"internal_node_id":"0.0-2.0-79.0"},{"group":"hexagon_bi","room_assignment":["yellow","purple","red","grey","green","blue"],"door_color_assignment":["white","black"],"door_generator_assignment":[0,1],"goal":5,"start":4,"action_noise":0.2,"location_history":"[4,5]","action_history":"[0]","door_history":"[0]","location_rts":"[5088]","trial_type":"two-door-navigation","trial_index":82,"time_elapsed":1245977,"internal_node_id":"0.0-2.0-80.0"},{"group":"hexagon_bi","room_assignment":["yellow","purple","red","grey","green","blue"],"door_color_assignment":["white","black"],"door_generator_assignment":[0,1],"goal":1,"start":5,"action_noise":0.2,"location_history":"[5,4,5,0,1]","action_history":"[1,0,0,1]","door_history":"[1,0,0,1]","location_rts":"[2367,989,1029,377]","trial_type":"two-door-navigation","trial_index":83,"time_elapsed":1258321,"internal_node_id":"0.0-2.0-81.0"},{"group":"hexagon_bi","room_assignment":["yellow","purple","red","grey","green","blue"],"door_color_assignment":["white","black"],"door_generator_assignment":[0,1],"goal":2,"start":1,"action_noise":0.2,"location_history":"[1,2]","action_history":"[0]","door_history":"[0]","location_rts":"[2566]","trial_type":"two-door-navigation","trial_index":84,"time_elapsed":1265410,"internal_node_id":"0.0-2.0-82.0"},{"group":"hexagon_bi","room_assignment":["yellow","purple","red","grey","green","blue"],"door_color_assignment":["white","black"],"door_generator_assignment":[0,1],"goal":4,"start":2,"action_noise":0.2,"location_history":"[2,1,2,1,2,3,4]","action_history":"[0,0,1,0,1,0]","door_history":"[0,0,1,0,1,0]","location_rts":"[2429,703,259,973,349,1255]","trial_type":"two-door-navigation","trial_index":85,"time_elapsed":1280994,"internal_node_id":"0.0-2.0-83.0"},{"group":"hexagon_bi","room_assignment":["yellow","purple","red","grey","green","blue"],"door_color_assignment":["white","black"],"door_generator_assignment":[0,1],"goal":0,"start":4,"action_noise":0.2,"location_history":"[4,5,0]","action_history":"[1,0]","door_history":"[1,0]","location_rts":"[1758,749]","trial_type":"two-door-navigation","trial_index":86,"time_elapsed":1289044,"internal_node_id":"0.0-2.0-84.0"},{"group":"hexagon_bi","room_assignment":["yellow","purple","red","grey","green","blue"],"door_color_assignment":["white","black"],"door_generator_assignment":[0,1],"goal":5,"start":0,"action_noise":0.2,"location_history":"[0,5]","action_history":"[0]","door_history":"[0]","location_rts":"[916]","trial_type":"two-door-navigation","trial_index":87,"time_elapsed":1294481,"internal_node_id":"0.0-2.0-85.0"},{"group":"hexagon_bi","room_assignment":["yellow","purple","red","grey","green","blue"],"door_color_assignment":["white","black"],"door_generator_assignment":[0,1],"goal":3,"start":5,"action_noise":0.2,"location_history":"[5,4,3]","action_history":"[1,0]","door_history":"[1,0]","location_rts":"[4014,510]","trial_type":"two-door-navigation","trial_index":88,"time_elapsed":1304545,"internal_node_id":"0.0-2.0-86.0"},{"group":"hexagon_bi","room_assignment":["yellow","purple","red","grey","green","blue"],"door_color_assignment":["white","black"],"door_generator_assignment":[0,1],"goal":1,"start":3,"action_noise":0.2,"location_history":"[3,4,3,4,5,0,1]","action_history":"[0,0,1,1,0,1]","door_history":"[0,0,1,1,0,1]","location_rts":"[1575,1034,224,2501,1397,536]","trial_type":"two-door-navigation","trial_index":89,"time_elapsed":1321428,"internal_node_id":"0.0-2.0-87.0"},{"group":"hexagon_bi","room_assignment":["yellow","purple","red","grey","green","blue"],"door_color_assignment":["white","black"],"door_generator_assignment":[0,1],"goal":2,"start":1,"action_noise":0.2,"location_history":"[1,2]","action_history":"[0]","door_history":"[0]","location_rts":"[4091]","trial_type":"two-door-navigation","trial_index":90,"time_elapsed":1330039,"internal_node_id":"0.0-2.0-88.0"},{"group":"hexagon_bi","room_assignment":["yellow","purple","red","grey","green","blue"],"door_color_assignment":["white","black"],"door_generator_assignment":[0,1],"goal":0,"start":2,"action_noise":0.2,"location_history":"[2,3,2,3,2,3,4,3,2,1,0]","action_history":"[0,1,0,1,1,0,0,0,1,1]","door_history":"[0,1,0,1,1,0,0,0,1,1]","location_rts":"[6424,2254,944,571,708,1326,708,765,156,2395]","trial_type":"two-door-navigation","trial_index":91,"time_elapsed":1359994,"internal_node_id":"0.0-2.0-89.0"},{"group":"hexagon_bi","room_assignment":["yellow","purple","red","grey","green","blue"],"door_color_assignment":["white","black"],"door_generator_assignment":[0,1],"goal":5,"start":0,"action_noise":0.2,"location_history":"[0,5]","action_history":"[0]","door_history":"[0]","location_rts":"[1325]","trial_type":"two-door-navigation","trial_index":92,"time_elapsed":1365843,"internal_node_id":"0.0-2.0-90.0"},{"group":"hexagon_bi","room_assignment":["yellow","purple","red","grey","green","blue"],"door_color_assignment":["white","black"],"door_generator_assignment":[0,1],"goal":1,"start":5,"action_noise":0.2,"location_history":"[5,0,1]","action_history":"[0,1]","door_history":"[0,1]","location_rts":"[7460,451]","trial_type":"two-door-navigation","trial_index":93,"time_elapsed":1379299,"internal_node_id":"0.0-2.0-91.0"},{"group":"hexagon_bi","room_assignment":["yellow","purple","red","grey","green","blue"],"door_color_assignment":["white","black"],"door_generator_assignment":[0,1],"goal":3,"start":1,"action_noise":0.2,"location_history":"[1,2,3]","action_history":"[1,0]","door_history":"[1,0]","location_rts":"[3501,495]","trial_type":"two-door-navigation","trial_index":94,"time_elapsed":1388830,"internal_node_id":"0.0-2.0-92.0"},{"group":"hexagon_bi","room_assignment":["yellow","purple","red","grey","green","blue"],"door_color_assignment":["white","black"],"door_generator_assignment":[0,1],"goal":4,"start":3,"action_noise":0.2,"location_history":"[3,2,1,2,3,2,3,4]","action_history":"[0,0,0,1,0,1,0]","door_history":"[0,0,0,1,0,1,0]","location_rts":"[2914,1023,767,155,821,1077,422]","trial_type":"two-door-navigation","trial_index":95,"time_elapsed":1406643,"internal_node_id":"0.0-2.0-93.0"},{"group":"hexagon_bi","room_assignment":["yellow","purple","red","grey","green","blue"],"door_color_assignment":["white","black"],"door_generator_assignment":[0,1],"goal":2,"start":4,"action_noise":0.2,"location_history":"[4,3,2]","action_history":"[0,1]","door_history":"[0,1]","location_rts":"[1860,517]","trial_type":"two-door-navigation","trial_index":96,"time_elapsed":1414560,"internal_node_id":"0.0-2.0-94.0"},{"group":"hexagon_bi","room_assignment":["yellow","purple","red","grey","green","blue"],"door_color_assignment":["white","black"],"door_generator_assignment":[0,1],"goal":4,"start":2,"action_noise":0.2,"location_history":"[2,1,0,1,2,3,4]","action_history":"[0,0,1,0,1,0]","door_history":"[0,0,1,0,1,0]","location_rts":"[1278,1077,71,492,1082,789]","trial_type":"two-door-navigation","trial_index":97,"time_elapsed":1428972,"internal_node_id":"0.0-2.0-95.0"},{"group":"hexagon_bi","room_assignment":["yellow","purple","red","grey","green","blue"],"door_color_assignment":["white","black"],"door_generator_assignment":[0,1],"goal":0,"start":4,"action_noise":0.2,"location_history":"[4,3,4,5,0]","action_history":"[0,0,1,0]","door_history":"[0,0,1,0]","location_rts":"[1732,787,336,469]","trial_type":"two-door-navigation","trial_index":98,"time_elapsed":1439872,"internal_node_id":"0.0-2.0-96.0"},{"group":"hexagon_bi","room_assignment":["yellow","purple","red","grey","green","blue"],"door_color_assignment":["white","black"],"door_generator_assignment":[0,1],"goal":5,"start":0,"action_noise":0.2,"location_history":"[0,5]","action_history":"[0]","door_history":"[0]","location_rts":"[1079]","trial_type":"two-door-navigation","trial_index":99,"time_elapsed":1445479,"internal_node_id":"0.0-2.0-97.0"},{"group":"hexagon_bi","room_assignment":["yellow","purple","red","grey","green","blue"],"door_color_assignment":["white","black"],"door_generator_assignment":[0,1],"goal":1,"start":5,"action_noise":0.2,"location_history":"[5,0,1]","action_history":"[0,1]","door_history":"[0,1]","location_rts":"[2232,407]","trial_type":"two-door-navigation","trial_index":100,"time_elapsed":1453656,"internal_node_id":"0.0-2.0-98.0"},{"group":"hexagon_bi","room_assignment":["yellow","purple","red","grey","green","blue"],"door_color_assignment":["white","black"],"door_generator_assignment":[0,1],"goal":3,"start":1,"action_noise":0.2,"location_history":"[1,0,5,4,3]","action_history":"[1,0,1,0]","door_history":"[1,0,1,0]","location_rts":"[1736,397,1035,1545]","trial_type":"two-door-navigation","trial_index":101,"time_elapsed":1465949,"internal_node_id":"0.0-2.0-99.0"},{"view_history":"[{\"page_index\":0,\"viewing_time\":2947}]","rt":2947,"trial_type":"instructions","trial_index":102,"time_elapsed":1469897,"internal_node_id":"0.0-3.0"},{"view_history":"[{\"page_index\":0,\"viewing_time\":2775},{\"page_index\":1,\"viewing_time\":23144}]","rt":25919,"trial_type":"instructions","trial_index":103,"time_elapsed":1496817,"internal_node_id":"0.0-4.0"},{"group":"hexagon_bi","fractal_assignment":["../images/pnk_blu.png","../images/ylw_slt.png","../images/org_blu.png","../images/gry_blk.png","../images/blu_wht.png","../images/cyn_red.png"],"mutagen_generator_assignment":[1,0],"goal":4,"start":0,"action_noise":0.2,"location_history":"[0,1,0,5,4]","action_history":"[1,1,0,1]","mutagen_history":"[0,0,1,0]","location_rts":"[8312,1343,1759,1378]","trial_type":"fractal-mutation","trial_index":104,"time_elapsed":1517274,"internal_node_id":"0.0-5.0-0.0"},{"group":"hexagon_bi","fractal_assignment":["../images/pnk_blu.png","../images/ylw_slt.png","../images/org_blu.png","../images/gry_blk.png","../images/blu_wht.png","../images/cyn_red.png"],"mutagen_generator_assignment":[1,0],"goal":3,"start":4,"action_noise":0.2,"location_history":"[4,5,0,1,2,1,2,3]","action_history":"[1,0,1,0,0,0,1]","mutagen_history":"[0,1,0,1,1,1,0]","location_rts":"[1128,951,647,809,3569,632,319]","trial_type":"fractal-mutation","trial_index":105,"time_elapsed":1536096,"internal_node_id":"0.0-5.0-1.0"},{"group":"hexagon_bi","fractal_assignment":["../images/pnk_blu.png","../images/ylw_slt.png","../images/org_blu.png","../images/gry_blk.png","../images/blu_wht.png","../images/cyn_red.png"],"mutagen_generator_assignment":[1,0],"goal":5,"start":3,"action_noise":0.2,"location_history":"[3,4,5]","action_history":"[0,1]","mutagen_history":"[1,0]","location_rts":"[2208,947]","trial_type":"fractal-mutation","trial_index":106,"time_elapsed":1544823,"internal_node_id":"0.0-5.0-2.0"},{"group":"hexagon_bi","fractal_assignment":["../images/pnk_blu.png","../images/ylw_slt.png","../images/org_blu.png","../images/gry_blk.png","../images/blu_wht.png","../images/cyn_red.png"],"mutagen_generator_assignment":[1,0],"goal":2,"start":5,"action_noise":0.2,"location_history":"[5,0,1,0,5,0,1,0,1,2]","action_history":"[0,1,0,0,1,1,1,1,0]","mutagen_history":"[1,0,1,1,0,0,0,0,1]","location_rts":"[1552,1810,1500,1133,243,954,626,1133,573]","trial_type":"fractal-mutation","trial_index":107,"time_elapsed":1567156,"internal_node_id":"0.0-5.0-3.0"},{"group":"hexagon_bi","fractal_assignment":["../images/pnk_blu.png","../images/ylw_slt.png","../images/org_blu.png","../images/gry_blk.png","../images/blu_wht.png","../images/cyn_red.png"],"mutagen_generator_assignment":[1,0],"goal":1,"start":2,"action_noise":0.2,"location_history":"[2,3,4,5,4,3,2,3,4,5,4,3,4,3,2,3,2,3,4,5,4,5,4,5,0,5,4,5,4,3,2,1]","action_history":"[1,1,1,1,0,1,1,1,1,0,0,0,0,1,0,1,1,0,1,0,1,1,1,1,0,1,1,1,1,1,1]","mutagen_history":"[0,0,0,0,1,0,0,0,0,1,1,1,1,0,1,0,0,1,0,1,0,0,0,0,1,0,0,0,0,0,0]","location_rts":"[1669,607,514,746,862,758,622,565,820,377,432,490,843,937,892,1586,450,1776,733,1248,1101,302,817,702,417,939,563,326,716,1376,1351]","trial_type":"fractal-mutation","trial_index":108,"time_elapsed":1628171,"internal_node_id":"0.0-5.0-4.0"},{"group":"hexagon_bi","fractal_assignment":["../images/pnk_blu.png","../images/ylw_slt.png","../images/org_blu.png","../images/gry_blk.png","../images/blu_wht.png","../images/cyn_red.png"],"mutagen_generator_assignment":[1,0],"goal":4,"start":1,"action_noise":0.2,"location_history":"[1,2,3,2,1,0,1,2,3,4]","action_history":"[1,1,1,0,1,1,1,1,0]","mutagen_history":"[0,0,0,1,0,0,0,0,1]","location_rts":"[3227,1100,741,886,775,498,980,4516,746]","trial_type":"fractal-mutation","trial_index":109,"time_elapsed":1654413,"internal_node_id":"0.0-5.0-5.0"},{"group":"hexagon_bi","fractal_assignment":["../images/pnk_blu.png","../images/ylw_slt.png","../images/org_blu.png","../images/gry_blk.png","../images/blu_wht.png","../images/cyn_red.png"],"mutagen_generator_assignment":[1,0],"goal":1,"start":4,"action_noise":0.2,"location_history":"[4,3,2,3,4,5,4,3,2,3,2,1]","action_history":"[1,0,1,0,0,0,0,1,0,1,1]","mutagen_history":"[0,1,0,1,1,1,1,0,1,0,0]","location_rts":"[9190,829,452,1110,263,2385,632,748,1009,736,485]","trial_type":"fractal-mutation","trial_index":110,"time_elapsed":1687114,"internal_node_id":"0.0-5.0-6.0"},{"group":"hexagon_bi","fractal_assignment":["../images/pnk_blu.png","../images/ylw_slt.png","../images/org_blu.png","../images/gry_blk.png","../images/blu_wht.png","../images/cyn_red.png"],"mutagen_generator_assignment":[1,0],"goal":5,"start":1,"action_noise":0.2,"location_history":"[1,0,5]","action_history":"[0,0]","mutagen_history":"[1,1]","location_rts":"[1717,1106]","trial_type":"fractal-mutation","trial_index":111,"time_elapsed":1695516,"internal_node_id":"0.0-5.0-7.0"},{"group":"hexagon_bi","fractal_assignment":["../images/pnk_blu.png","../images/ylw_slt.png","../images/org_blu.png","../images/gry_blk.png","../images/blu_wht.png","../images/cyn_red.png"],"mutagen_generator_assignment":[1,0],"goal":0,"start":5,"action_noise":0.2,"location_history":"[5,0]","action_history":"[1]","mutagen_history":"[0]","location_rts":"[1549]","trial_type":"fractal-mutation","trial_index":112,"time_elapsed":1701601,"internal_node_id":"0.0-5.0-8.0"},{"group":"hexagon_bi","fractal_assignment":["../images/pnk_blu.png","../images/ylw_slt.png","../images/org_blu.png","../images/gry_blk.png","../images/blu_wht.png","../images/cyn_red.png"],"mutagen_generator_assignment":[1,0],"goal":2,"start":0,"action_noise":0.2,"location_history":"[0,5,4,5,4,5,4,3,2]","action_history":"[1,1,1,1,1,1,0,1]","mutagen_history":"[0,0,0,0,0,0,1,0]","location_rts":"[1124,826,668,767,534,569,482,521]","trial_type":"fractal-mutation","trial_index":113,"time_elapsed":1718843,"internal_node_id":"0.0-5.0-9.0"},{"group":"hexagon_bi","fractal_assignment":["../images/pnk_blu.png","../images/ylw_slt.png","../images/org_blu.png","../images/gry_blk.png","../images/blu_wht.png","../images/cyn_red.png"],"mutagen_generator_assignment":[1,0],"goal":3,"start":2,"action_noise":0.2,"location_history":"[2,1,0,5,0,1,2,1,0,1,0,5,0,1,2,1,2,1,2,1,2,1,2,3]","action_history":"[0,0,0,0,1,0,1,1,1,0,0,0,1,0,1,0,0,0,0,0,0,0,1]","mutagen_history":"[1,1,1,1,0,1,0,0,0,1,1,1,0,1,0,1,1,1,1,1,1,1,0]","location_rts":"[1545,839,835,689,708,597,1219,596,577,824,570,491,399,443,310,585,441,479,467,490,691,510,512]","trial_type":"fractal-mutation","trial_index":114,"time_elapsed":1760947,"internal_node_id":"0.0-5.0-10.0"},{"group":"hexagon_bi","fractal_assignment":["../images/pnk_blu.png","../images/ylw_slt.png","../images/org_blu.png","../images/gry_blk.png","../images/blu_wht.png","../images/cyn_red.png"],"mutagen_generator_assignment":[1,0],"goal":0,"start":3,"action_noise":0.2,"location_history":"[3,4,3,4,5,4,3,2,1,2,1,2,3,2,3,2,3,2,3,4,5,4,3,2,3,4,5,4,3,4,3,4,3,4,5,0]","action_history":"[0,0,0,0,1,0,1,0,0,0,0,1,1,1,1,0,0,1,0,1,1,1,1,1,1,0,1,0,0,0,0,0,0,1,0]","mutagen_history":"[1,1,1,1,0,1,0,1,1,1,1,0,0,0,0,1,1,0,1,0,0,0,0,0,0,1,0,1,1,1,1,1,1,0,1]","location_rts":"[961,477,534,606,718,751,795,444,265,419,601,1290,560,546,1025,407,1046,537,829,924,1232,1204,662,524,948,583,1518,1057,515,518,1267,681,1051,422,418]","trial_type":"fractal-mutation","trial_index":115,"time_elapsed":1826983,"internal_node_id":"0.0-5.0-11.0"},{"group":"hexagon_bi","fractal_assignment":["../images/pnk_blu.png","../images/ylw_slt.png","../images/org_blu.png","../images/gry_blk.png","../images/blu_wht.png","../images/cyn_red.png"],"mutagen_generator_assignment":[1,0],"goal":2,"start":0,"action_noise":0.2,"location_history":"[0,1,2]","action_history":"[1,0]","mutagen_history":"[0,1]","location_rts":"[1565,650]","trial_type":"fractal-mutation","trial_index":116,"time_elapsed":1834765,"internal_node_id":"0.0-5.0-12.0"},{"group":"hexagon_bi","fractal_assignment":["../images/pnk_blu.png","../images/ylw_slt.png","../images/org_blu.png","../images/gry_blk.png","../images/blu_wht.png","../images/cyn_red.png"],"mutagen_generator_assignment":[1,0],"goal":5,"start":2,"action_noise":0.2,"location_history":"[2,3,4,5]","action_history":"[1,0,1]","mutagen_history":"[0,1,0]","location_rts":"[1581,561,731]","trial_type":"fractal-mutation","trial_index":117,"time_elapsed":1844234,"internal_node_id":"0.0-5.0-13.0"},{"group":"hexagon_bi","fractal_assignment":["../images/pnk_blu.png","../images/ylw_slt.png","../images/org_blu.png","../images/gry_blk.png","../images/blu_wht.png","../images/cyn_red.png"],"mutagen_generator_assignment":[1,0],"goal":4,"start":5,"action_noise":0.2,"location_history":"[5,4]","action_history":"[1]","mutagen_history":"[0]","location_rts":"[1379]","trial_type":"fractal-mutation","trial_index":118,"time_elapsed":1850145,"internal_node_id":"0.0-5.0-14.0"},{"group":"hexagon_bi","fractal_assignment":["../images/pnk_blu.png","../images/ylw_slt.png","../images/org_blu.png","../images/gry_blk.png","../images/blu_wht.png","../images/cyn_red.png"],"mutagen_generator_assignment":[1,0],"goal":3,"start":4,"action_noise":0.2,"location_history":"[4,3]","action_history":"[1]","mutagen_history":"[0]","location_rts":"[1004]","trial_type":"fractal-mutation","trial_index":119,"time_elapsed":1855683,"internal_node_id":"0.0-5.0-15.0"},{"group":"hexagon_bi","fractal_assignment":["../images/pnk_blu.png","../images/ylw_slt.png","../images/org_blu.png","../images/gry_blk.png","../images/blu_wht.png","../images/cyn_red.png"],"mutagen_generator_assignment":[1,0],"goal":1,"start":3,"action_noise":0.2,"location_history":"[3,4,3,2,1]","action_history":"[0,0,1,0]","mutagen_history":"[1,1,0,1]","location_rts":"[1390,754,708,837]","trial_type":"fractal-mutation","trial_index":120,"time_elapsed":1867015,"internal_node_id":"0.0-5.0-16.0"},{"group":"hexagon_bi","fractal_assignment":["../images/pnk_blu.png","../images/ylw_slt.png","../images/org_blu.png","../images/gry_blk.png","../images/blu_wht.png","../images/cyn_red.png"],"mutagen_generator_assignment":[1,0],"goal":5,"start":1,"action_noise":0.2,"location_history":"[1,2,1,2,1,0,1,0,1,2,3,2,1,2,3,4,3,4,5]","action_history":"[0,1,1,0,0,1,1,0,0,1,1,0,0,1,1,0,0,1]","mutagen_history":"[1,0,0,1,1,0,0,1,1,0,0,1,1,0,0,1,1,0]","location_rts":"[1364,1413,799,333,494,957,1463,274,862,413,485,511,513,642,497,989,804,342]","trial_type":"fractal-mutation","trial_index":121,"time_elapsed":1902280,"internal_node_id":"0.0-5.0-17.0"},{"group":"hexagon_bi","fractal_assignment":["../images/pnk_blu.png","../images/ylw_slt.png","../images/org_blu.png","../images/gry_blk.png","../images/blu_wht.png","../images/cyn_red.png"],"mutagen_generator_assignment":[1,0],"goal":4,"start":5,"action_noise":0.2,"location_history":"[5,4]","action_history":"[1]","mutagen_history":"[0]","location_rts":"[1504]","trial_type":"fractal-mutation","trial_index":122,"time_elapsed":1908320,"internal_node_id":"0.0-5.0-18.0"},{"group":"hexagon_bi","fractal_assignment":["../images/pnk_blu.png","../images/ylw_slt.png","../images/org_blu.png","../images/gry_blk.png","../images/blu_wht.png","../images/cyn_red.png"],"mutagen_generator_assignment":[1,0],"goal":0,"start":4,"action_noise":0.2,"location_history":"[4,3,4,5,4,3,4,5,4,3,4,5,0]","action_history":"[0,0,1,1,1,0,1,1,0,0,1,0]","mutagen_history":"[1,1,0,0,0,1,0,0,1,1,0,1]","location_rts":"[1482,544,326,316,428,292,711,812,546,546,417,383]","trial_type":"fractal-mutation","trial_index":123,"time_elapsed":1931028,"internal_node_id":"0.0-5.0-19.0"},{"group":"hexagon_bi","fractal_assignment":["../images/pnk_blu.png","../images/ylw_slt.png","../images/org_blu.png","../images/gry_blk.png","../images/blu_wht.png","../images/cyn_red.png"],"mutagen_generator_assignment":[1,0],"goal":1,"start":0,"action_noise":0.2,"location_history":"[0,1]","action_history":"[1]","mutagen_history":"[0]","location_rts":"[1940]","trial_type":"fractal-mutation","trial_index":124,"time_elapsed":1937505,"internal_node_id":"0.0-5.0-20.0"},{"group":"hexagon_bi","fractal_assignment":["../images/pnk_blu.png","../images/ylw_slt.png","../images/org_blu.png","../images/gry_blk.png","../images/blu_wht.png","../images/cyn_red.png"],"mutagen_generator_assignment":[1,0],"goal":3,"start":1,"action_noise":0.2,"location_history":"[1,0,5,4,5,0,1,2,1,0,5,4,5,0,5,4,3]","action_history":"[1,1,1,1,0,1,0,1,1,1,0,0,0,1,1,0]","mutagen_history":"[0,0,0,0,1,0,1,0,0,0,1,1,1,0,0,1]","location_rts":"[866,489,497,514,431,259,1272,804,769,572,301,423,358,552,459,386]","trial_type":"fractal-mutation","trial_index":125,"time_elapsed":1966491,"internal_node_id":"0.0-5.0-21.0"},{"group":"hexagon_bi","fractal_assignment":["../images/pnk_blu.png","../images/ylw_slt.png","../images/org_blu.png","../images/gry_blk.png","../images/blu_wht.png","../images/cyn_red.png"],"mutagen_generator_assignment":[1,0],"goal":2,"start":3,"action_noise":0.2,"location_history":"[3,2]","action_history":"[1]","mutagen_history":"[0]","location_rts":"[946]","trial_type":"fractal-mutation","trial_index":126,"time_elapsed":1971971,"internal_node_id":"0.0-5.0-22.0"},{"group":"hexagon_bi","fractal_assignment":["../images/pnk_blu.png","../images/ylw_slt.png","../images/org_blu.png","../images/gry_blk.png","../images/blu_wht.png","../images/cyn_red.png"],"mutagen_generator_assignment":[1,0],"goal":0,"start":2,"action_noise":0.2,"location_history":"[2,1,0]","action_history":"[0,1]","mutagen_history":"[1,0]","location_rts":"[1341,595]","trial_type":"fractal-mutation","trial_index":127,"time_elapsed":1979480,"internal_node_id":"0.0-5.0-23.0"},{"group":"hexagon_bi","fractal_assignment":["../images/pnk_blu.png","../images/ylw_slt.png","../images/org_blu.png","../images/gry_blk.png","../images/blu_wht.png","../images/cyn_red.png"],"mutagen_generator_assignment":[1,0],"goal":3,"start":0,"action_noise":0.2,"location_history":"[0,5,0,1,0,5,4,5,4,3]","action_history":"[0,0,1,1,1,1,1,1,0]","mutagen_history":"[1,1,0,0,0,0,0,0,1]","location_rts":"[1168,586,568,614,553,559,690,876,512]","trial_type":"fractal-mutation","trial_index":128,"time_elapsed":1998402,"internal_node_id":"0.0-5.0-24.0"},{"group":"hexagon_bi","fractal_assignment":["../images/pnk_blu.png","../images/ylw_slt.png","../images/org_blu.png","../images/gry_blk.png","../images/blu_wht.png","../images/cyn_red.png"],"mutagen_generator_assignment":[1,0],"goal":1,"start":3,"action_noise":0.2,"location_history":"[3,2,3,2,1]","action_history":"[1,0,1,1]","mutagen_history":"[0,1,0,0]","location_rts":"[1172,973,699,465]","trial_type":"fractal-mutation","trial_index":129,"time_elapsed":2009346,"internal_node_id":"0.0-5.0-25.0"},{"group":"hexagon_bi","fractal_assignment":["../images/pnk_blu.png","../images/ylw_slt.png","../images/org_blu.png","../images/gry_blk.png","../images/blu_wht.png","../images/cyn_red.png"],"mutagen_generator_assignment":[1,0],"goal":2,"start":1,"action_noise":0.2,"location_history":"[1,0,1,2]","action_history":"[1,1,1]","mutagen_history":"[0,0,0]","location_rts":"[890,437,455]","trial_type":"fractal-mutation","trial_index":130,"time_elapsed":2017728,"internal_node_id":"0.0-5.0-26.0"},{"group":"hexagon_bi","fractal_assignment":["../images/pnk_blu.png","../images/ylw_slt.png","../images/org_blu.png","../images/gry_blk.png","../images/blu_wht.png","../images/cyn_red.png"],"mutagen_generator_assignment":[1,0],"goal":5,"start":2,"action_noise":0.2,"location_history":"[2,3,4,5]","action_history":"[1,1,0]","mutagen_history":"[0,0,1]","location_rts":"[809,633,562]","trial_type":"fractal-mutation","trial_index":131,"time_elapsed":2026339,"internal_node_id":"0.0-5.0-27.0"},{"group":"hexagon_bi","fractal_assignment":["../images/pnk_blu.png","../images/ylw_slt.png","../images/org_blu.png","../images/gry_blk.png","../images/blu_wht.png","../images/cyn_red.png"],"mutagen_generator_assignment":[1,0],"goal":4,"start":5,"action_noise":0.2,"location_history":"[5,0,5,4]","action_history":"[0,0,1]","mutagen_history":"[1,1,0]","location_rts":"[1618,384,331]","trial_type":"fractal-mutation","trial_index":132,"time_elapsed":2035284,"internal_node_id":"0.0-5.0-28.0"},{"group":"hexagon_bi","fractal_assignment":["../images/pnk_blu.png","../images/ylw_slt.png","../images/org_blu.png","../images/gry_blk.png","../images/blu_wht.png","../images/cyn_red.png"],"mutagen_generator_assignment":[1,0],"goal":5,"start":4,"action_noise":0.2,"location_history":"[4,3,4,5]","action_history":"[0,0,1]","mutagen_history":"[1,1,0]","location_rts":"[960,639,347]","trial_type":"fractal-mutation","trial_index":133,"time_elapsed":2043840,"internal_node_id":"0.0-5.0-29.0"},{"group":"hexagon_bi","fractal_assignment":["../images/pnk_blu.png","../images/ylw_slt.png","../images/org_blu.png","../images/gry_blk.png","../images/blu_wht.png","../images/cyn_red.png"],"mutagen_generator_assignment":[1,0],"goal":3,"start":5,"action_noise":0.2,"location_history":"[5,0,5,0,5,0,5,0,5,0,5,0,1,2,1,2,3]","action_history":"[0,1,1,0,0,0,0,0,1,0,0,1,0,0,1,1]","mutagen_history":"[1,0,0,1,1,1,1,1,0,1,1,0,1,1,0,0]","location_rts":"[899,501,380,781,558,413,495,539,471,587,236,236,1002,725,383,718]","trial_type":"fractal-mutation","trial_index":134,"time_elapsed":2072821,"internal_node_id":"0.0-5.0-30.0"},{"group":"hexagon_bi","fractal_assignment":["../images/pnk_blu.png","../images/ylw_slt.png","../images/org_blu.png","../images/gry_blk.png","../images/blu_wht.png","../images/cyn_red.png"],"mutagen_generator_assignment":[1,0],"goal":0,"start":3,"action_noise":0.2,"location_history":"[3,2,3,2,1,0]","action_history":"[1,1,1,0,1]","mutagen_history":"[0,0,0,1,0]","location_rts":"[1628,432,487,166,721]","trial_type":"fractal-mutation","trial_index":135,"time_elapsed":2084902,"internal_node_id":"0.0-5.0-31.0"},{"group":"hexagon_bi","fractal_assignment":["../images/pnk_blu.png","../images/ylw_slt.png","../images/org_blu.png","../images/gry_blk.png","../images/blu_wht.png","../images/cyn_red.png"],"mutagen_generator_assignment":[1,0],"goal":4,"start":0,"action_noise":0.2,"location_history":"[0,1,2,1,0,5,4]","action_history":"[1,0,0,1,0,1]","mutagen_history":"[0,1,1,0,1,0]","location_rts":"[1235,519,641,147,762,317]","trial_type":"fractal-mutation","trial_index":136,"time_elapsed":2098223,"internal_node_id":"0.0-5.0-32.0"},{"group":"hexagon_bi","fractal_assignment":["../images/pnk_blu.png","../images/ylw_slt.png","../images/org_blu.png","../images/gry_blk.png","../images/blu_wht.png","../images/cyn_red.png"],"mutagen_generator_assignment":[1,0],"goal":1,"start":4,"action_noise":0.2,"location_history":"[4,5,4,5,0,1]","action_history":"[1,1,0,1,0]","mutagen_history":"[0,0,1,0,1]","location_rts":"[853,576,394,1159,925]","trial_type":"fractal-mutation","trial_index":137,"time_elapsed":2110808,"internal_node_id":"0.0-5.0-33.0"},{"group":"hexagon_bi","fractal_assignment":["../images/pnk_blu.png","../images/ylw_slt.png","../images/org_blu.png","../images/gry_blk.png","../images/blu_wht.png","../images/cyn_red.png"],"mutagen_generator_assignment":[1,0],"goal":2,"start":1,"action_noise":0.2,"location_history":"[1,2]","action_history":"[0]","mutagen_history":"[1]","location_rts":"[1541]","trial_type":"fractal-mutation","trial_index":138,"time_elapsed":2116890,"internal_node_id":"0.0-5.0-34.0"},{"group":"hexagon_bi","fractal_assignment":["../images/pnk_blu.png","../images/ylw_slt.png","../images/org_blu.png","../images/gry_blk.png","../images/blu_wht.png","../images/cyn_red.png"],"mutagen_generator_assignment":[1,0],"goal":0,"start":2,"action_noise":0.2,"location_history":"[2,1,0]","action_history":"[1,1]","mutagen_history":"[0,0]","location_rts":"[1064,681]","trial_type":"fractal-mutation","trial_index":139,"time_elapsed":2124204,"internal_node_id":"0.0-5.0-35.0"},{"group":"hexagon_bi","fractal_assignment":["../images/pnk_blu.png","../images/ylw_slt.png","../images/org_blu.png","../images/gry_blk.png","../images/blu_wht.png","../images/cyn_red.png"],"mutagen_generator_assignment":[1,0],"goal":5,"start":0,"action_noise":0.2,"location_history":"[0,5]","action_history":"[0]","mutagen_history":"[1]","location_rts":"[1603]","trial_type":"fractal-mutation","trial_index":140,"time_elapsed":2130350,"internal_node_id":"0.0-5.0-36.0"},{"group":"hexagon_bi","fractal_assignment":["../images/pnk_blu.png","../images/ylw_slt.png","../images/org_blu.png","../images/gry_blk.png","../images/blu_wht.png","../images/cyn_red.png"],"mutagen_generator_assignment":[1,0],"goal":2,"start":5,"action_noise":0.2,"location_history":"[5,4,3,4,3,2]","action_history":"[1,1,0,1,1]","mutagen_history":"[0,0,1,0,0]","location_rts":"[1064,549,678,690,499]","trial_type":"fractal-mutation","trial_index":141,"time_elapsed":2142502,"internal_node_id":"0.0-5.0-37.0"},{"group":"hexagon_bi","fractal_assignment":["../images/pnk_blu.png","../images/ylw_slt.png","../images/org_blu.png","../images/gry_blk.png","../images/blu_wht.png","../images/cyn_red.png"],"mutagen_generator_assignment":[1,0],"goal":1,"start":2,"action_noise":0.2,"location_history":"[2,3,4,3,2,1]","action_history":"[1,0,0,1,1]","mutagen_history":"[0,1,1,0,0]","location_rts":"[1054,751,495,319,703]","trial_type":"fractal-mutation","trial_index":142,"time_elapsed":2154494,"internal_node_id":"0.0-5.0-38.0"},{"group":"hexagon_bi","fractal_assignment":["../images/pnk_blu.png","../images/ylw_slt.png","../images/org_blu.png","../images/gry_blk.png","../images/blu_wht.png","../images/cyn_red.png"],"mutagen_generator_assignment":[1,0],"goal":4,"start":1,"action_noise":0.2,"location_history":"[1,0,5,4]","action_history":"[1,0,1]","mutagen_history":"[0,1,0]","location_rts":"[1271,455,831]","trial_type":"fractal-mutation","trial_index":143,"time_elapsed":2163657,"internal_node_id":"0.0-5.0-39.0"},{"group":"hexagon_bi","fractal_assignment":["../images/pnk_blu.png","../images/ylw_slt.png","../images/org_blu.png","../images/gry_blk.png","../images/blu_wht.png","../images/cyn_red.png"],"mutagen_generator_assignment":[1,0],"goal":3,"start":4,"action_noise":0.2,"location_history":"[4,5,0,5,4,5,4,3]","action_history":"[1,0,0,0,1,1,1]","mutagen_history":"[0,1,1,1,0,0,0]","location_rts":"[811,1238,452,385,151,663,405]","trial_type":"fractal-mutation","trial_index":144,"time_elapsed":2178485,"internal_node_id":"0.0-5.0-40.0"},{"group":"hexagon_bi","fractal_assignment":["../images/pnk_blu.png","../images/ylw_slt.png","../images/org_blu.png","../images/gry_blk.png","../images/blu_wht.png","../images/cyn_red.png"],"mutagen_generator_assignment":[1,0],"goal":5,"start":3,"action_noise":0.2,"location_history":"[3,4,5]","action_history":"[1,1]","mutagen_history":"[0,0]","location_rts":"[867,382]","trial_type":"fractal-mutation","trial_index":145,"time_elapsed":2185298,"internal_node_id":"0.0-5.0-41.0"},{"group":"hexagon_bi","fractal_assignment":["../images/pnk_blu.png","../images/ylw_slt.png","../images/org_blu.png","../images/gry_blk.png","../images/blu_wht.png","../images/cyn_red.png"],"mutagen_generator_assignment":[1,0],"goal":3,"start":5,"action_noise":0.2,"location_history":"[5,4,5,0,1,0,1,2,3]","action_history":"[1,1,1,1,1,1,0,1]","mutagen_history":"[0,0,0,0,0,0,1,0]","location_rts":"[566,279,401,269,469,412,450,476]","trial_type":"fractal-mutation","trial_index":146,"time_elapsed":2200377,"internal_node_id":"0.0-5.0-42.0"},{"group":"hexagon_bi","fractal_assignment":["../images/pnk_blu.png","../images/ylw_slt.png","../images/org_blu.png","../images/gry_blk.png","../images/blu_wht.png","../images/cyn_red.png"],"mutagen_generator_assignment":[1,0],"goal":0,"start":3,"action_noise":0.2,"location_history":"[3,2,1,0]","action_history":"[1,1,1]","mutagen_history":"[0,0,0]","location_rts":"[1424,396,549]","trial_type":"fractal-mutation","trial_index":147,"time_elapsed":2209338,"internal_node_id":"0.0-5.0-43.0"},{"group":"hexagon_bi","fractal_assignment":["../images/pnk_blu.png","../images/ylw_slt.png","../images/org_blu.png","../images/gry_blk.png","../images/blu_wht.png","../images/cyn_red.png"],"mutagen_generator_assignment":[1,0],"goal":2,"start":0,"action_noise":0.2,"location_history":"[0,5,4,5,4,5,4,3,2]","action_history":"[1,1,1,1,1,0,0,1]","mutagen_history":"[0,0,0,0,0,1,1,0]","location_rts":"[593,389,280,377,425,492,221,789]","trial_type":"fractal-mutation","trial_index":148,"time_elapsed":2224675,"internal_node_id":"0.0-5.0-44.0"},{"group":"hexagon_bi","fractal_assignment":["../images/pnk_blu.png","../images/ylw_slt.png","../images/org_blu.png","../images/gry_blk.png","../images/blu_wht.png","../images/cyn_red.png"],"mutagen_generator_assignment":[1,0],"goal":4,"start":2,"action_noise":0.2,"location_history":"[2,1,0,1,0,5,0,5,0,5,0,1,0,1,2,1,0,1,2,1,0,5,4]","action_history":"[0,1,1,1,0,1,0,0,0,1,1,1,1,0,0,0,1,0,0,1,0,1]","mutagen_history":"[1,0,0,0,1,0,1,1,1,0,0,0,0,1,1,1,0,1,1,0,1,0]","location_rts":"[1119,619,618,515,786,391,920,397,578,426,451,292,514,248,407,510,178,384,399,436,784,895]","trial_type":"fractal-mutation","trial_index":149,"time_elapsed":2262790,"internal_node_id":"0.0-5.0-45.0"},{"group":"hexagon_bi","fractal_assignment":["../images/pnk_blu.png","../images/ylw_slt.png","../images/org_blu.png","../images/gry_blk.png","../images/blu_wht.png","../images/cyn_red.png"],"mutagen_generator_assignment":[1,0],"goal":1,"start":4,"action_noise":0.2,"location_history":"[4,5,4,3,4,5,4,5,4,5,0,1]","action_history":"[1,1,1,0,1,1,1,1,1,0,1]","mutagen_history":"[0,0,0,1,0,0,0,0,0,1,0]","location_rts":"[1047,383,348,944,208,252,186,265,379,415,247]","trial_type":"fractal-mutation","trial_index":150,"time_elapsed":2282307,"internal_node_id":"0.0-5.0-46.0"},{"group":"hexagon_bi","fractal_assignment":["../images/pnk_blu.png","../images/ylw_slt.png","../images/org_blu.png","../images/gry_blk.png","../images/blu_wht.png","../images/cyn_red.png"],"mutagen_generator_assignment":[1,0],"goal":4,"start":1,"action_noise":0.2,"location_history":"[1,2,3,4]","action_history":"[0,1,1]","mutagen_history":"[1,0,0]","location_rts":"[541,315,713]","trial_type":"fractal-mutation","trial_index":151,"time_elapsed":2290758,"internal_node_id":"0.0-5.0-47.0"},{"group":"hexagon_bi","fractal_assignment":["../images/pnk_blu.png","../images/ylw_slt.png","../images/org_blu.png","../images/gry_blk.png","../images/blu_wht.png","../images/cyn_red.png"],"mutagen_generator_assignment":[1,0],"goal":1,"start":4,"action_noise":0.2,"location_history":"[4,3,4,5,4,3,4,3,2,1]","action_history":"[0,0,0,0,0,0,0,1,0]","mutagen_history":"[1,1,1,1,1,1,1,0,1]","location_rts":"[4030,482,394,437,439,369,360,464,723]","trial_type":"fractal-mutation","trial_index":152,"time_elapsed":2312292,"internal_node_id":"0.0-5.0-48.0"},{"group":"hexagon_bi","fractal_assignment":["../images/pnk_blu.png","../images/ylw_slt.png","../images/org_blu.png","../images/gry_blk.png","../images/blu_wht.png","../images/cyn_red.png"],"mutagen_generator_assignment":[1,0],"goal":3,"start":1,"action_noise":0.2,"location_history":"[1,0,1,0,5,0,1,0,5,4,5,4,5,4,3]","action_history":"[1,0,1,0,0,1,1,1,1,1,1,1,1,0]","mutagen_history":"[0,1,0,1,1,0,0,0,0,0,0,0,0,1]","location_rts":"[946,451,1148,318,309,607,1368,445,525,477,507,429,327,436]","trial_type":"fractal-mutation","trial_index":153,"time_elapsed":2338534,"internal_node_id":"0.0-5.0-49.0"},{"group":"hexagon_bi","fractal_assignment":["../images/pnk_blu.png","../images/ylw_slt.png","../images/org_blu.png","../images/gry_blk.png","../images/blu_wht.png","../images/cyn_red.png"],"mutagen_generator_assignment":[1,0],"goal":5,"start":3,"action_noise":0.2,"location_history":"[3,2,3,4,3,2,3,4,3,4,3,4,5]","action_history":"[1,1,0,1,1,1,0,0,0,0,0,1]","mutagen_history":"[0,0,1,0,0,0,1,1,1,1,1,0]","location_rts":"[1368,446,555,827,480,785,365,234,698,355,411,335]","trial_type":"fractal-mutation","trial_index":154,"time_elapsed":2361306,"internal_node_id":"0.0-5.0-50.0"},{"group":"hexagon_bi","fractal_assignment":["../images/pnk_blu.png","../images/ylw_slt.png","../images/org_blu.png","../images/gry_blk.png","../images/blu_wht.png","../images/cyn_red.png"],"mutagen_generator_assignment":[1,0],"goal":0,"start":5,"action_noise":0.2,"location_history":"[5,0]","action_history":"[0]","mutagen_history":"[1]","location_rts":"[1054]","trial_type":"fractal-mutation","trial_index":155,"time_elapsed":2366897,"internal_node_id":"0.0-5.0-51.0"},{"group":"hexagon_bi","fractal_assignment":["../images/pnk_blu.png","../images/ylw_slt.png","../images/org_blu.png","../images/gry_blk.png","../images/blu_wht.png","../images/cyn_red.png"],"mutagen_generator_assignment":[1,0],"goal":2,"start":0,"action_noise":0.2,"location_history":"[0,5,0,1,2]","action_history":"[1,1,1,0]","mutagen_history":"[0,0,0,1]","location_rts":"[943,389,382,783]","trial_type":"fractal-mutation","trial_index":156,"time_elapsed":2377020,"internal_node_id":"0.0-5.0-52.0"},{"group":"hexagon_bi","fractal_assignment":["../images/pnk_blu.png","../images/ylw_slt.png","../images/org_blu.png","../images/gry_blk.png","../images/blu_wht.png","../images/cyn_red.png"],"mutagen_generator_assignment":[1,0],"goal":1,"start":2,"action_noise":0.2,"location_history":"[2,1]","action_history":"[0]","mutagen_history":"[1]","location_rts":"[3252]","trial_type":"fractal-mutation","trial_index":157,"time_elapsed":2384812,"internal_node_id":"0.0-5.0-53.0"},{"group":"hexagon_bi","fractal_assignment":["../images/pnk_blu.png","../images/ylw_slt.png","../images/org_blu.png","../images/gry_blk.png","../images/blu_wht.png","../images/cyn_red.png"],"mutagen_generator_assignment":[1,0],"goal":2,"start":1,"action_noise":0.2,"location_history":"[1,0,1,2]","action_history":"[1,1,0]","mutagen_history":"[0,0,1]","location_rts":"[13539,463,527]","trial_type":"fractal-mutation","trial_index":158,"time_elapsed":2405948,"internal_node_id":"0.0-5.0-54.0"},{"group":"hexagon_bi","fractal_assignment":["../images/pnk_blu.png","../images/ylw_slt.png","../images/org_blu.png","../images/gry_blk.png","../images/blu_wht.png","../images/cyn_red.png"],"mutagen_generator_assignment":[1,0],"goal":5,"start":2,"action_noise":0.2,"location_history":"[2,1,0,1,0,1,2,1,2,1,0,1,0,1,0,5]","action_history":"[1,1,1,1,1,1,0,0,0,0,0,1,1,1,0]","mutagen_history":"[0,0,0,0,0,0,1,1,1,1,1,0,0,0,1]","location_rts":"[860,418,523,376,400,424,485,428,460,395,450,643,652,656,317]","trial_type":"fractal-mutation","trial_index":159,"time_elapsed":2432413,"internal_node_id":"0.0-5.0-55.0"},{"group":"hexagon_bi","fractal_assignment":["../images/pnk_blu.png","../images/ylw_slt.png","../images/org_blu.png","../images/gry_blk.png","../images/blu_wht.png","../images/cyn_red.png"],"mutagen_generator_assignment":[1,0],"goal":4,"start":5,"action_noise":0.2,"location_history":"[5,4]","action_history":"[1]","mutagen_history":"[0]","location_rts":"[814]","trial_type":"fractal-mutation","trial_index":160,"time_elapsed":2437759,"internal_node_id":"0.0-5.0-56.0"},{"group":"hexagon_bi","fractal_assignment":["../images/pnk_blu.png","../images/ylw_slt.png","../images/org_blu.png","../images/gry_blk.png","../images/blu_wht.png","../images/cyn_red.png"],"mutagen_generator_assignment":[1,0],"goal":3,"start":4,"action_noise":0.2,"location_history":"[4,3]","action_history":"[0]","mutagen_history":"[1]","location_rts":"[1089]","trial_type":"fractal-mutation","trial_index":161,"time_elapsed":2443390,"internal_node_id":"0.0-5.0-57.0"},{"group":"hexagon_bi","fractal_assignment":["../images/pnk_blu.png","../images/ylw_slt.png","../images/org_blu.png","../images/gry_blk.png","../images/blu_wht.png","../images/cyn_red.png"],"mutagen_generator_assignment":[1,0],"goal":0,"start":3,"action_noise":0.2,"location_history":"[3,2,3,2,3,2,3,2,1,0]","action_history":"[0,1,1,1,1,1,1,0,0]","mutagen_history":"[1,0,0,0,0,0,0,1,1]","location_rts":"[1483,322,471,455,481,382,365,304,571]","trial_type":"fractal-mutation","trial_index":162,"time_elapsed":2461034,"internal_node_id":"0.0-5.0-58.0"},{"group":"hexagon_bi","fractal_assignment":["../images/pnk_blu.png","../images/ylw_slt.png","../images/org_blu.png","../images/gry_blk.png","../images/blu_wht.png","../images/cyn_red.png"],"mutagen_generator_assignment":[1,0],"goal":2,"start":0,"action_noise":0.2,"location_history":"[0,5,4,3,4,5,4,3,2]","action_history":"[0,0,0,1,1,1,0,1]","mutagen_history":"[1,1,1,0,0,0,1,0]","location_rts":"[1333,461,486,271,420,274,1034,392]","trial_type":"fractal-mutation","trial_index":163,"time_elapsed":2477482,"internal_node_id":"0.0-5.0-59.0"},{"group":"hexagon_bi","fractal_assignment":["../images/pnk_blu.png","../images/ylw_slt.png","../images/org_blu.png","../images/gry_blk.png","../images/blu_wht.png","../images/cyn_red.png"],"mutagen_generator_assignment":[1,0],"goal":1,"start":2,"action_noise":0.2,"location_history":"[2,3,2,1]","action_history":"[1,1,0]","mutagen_history":"[0,0,1]","location_rts":"[1466,490,450]","trial_type":"fractal-mutation","trial_index":164,"time_elapsed":2486493,"internal_node_id":"0.0-5.0-60.0"},{"group":"hexagon_bi","fractal_assignment":["../images/pnk_blu.png","../images/ylw_slt.png","../images/org_blu.png","../images/gry_blk.png","../images/blu_wht.png","../images/cyn_red.png"],"mutagen_generator_assignment":[1,0],"goal":0,"start":1,"action_noise":0.2,"location_history":"[1,2,1,0]","action_history":"[0,0,1]","mutagen_history":"[1,1,0]","location_rts":"[806,443,306]","trial_type":"fractal-mutation","trial_index":165,"time_elapsed":2494657,"internal_node_id":"0.0-5.0-61.0"},{"group":"hexagon_bi","fractal_assignment":["../images/pnk_blu.png","../images/ylw_slt.png","../images/org_blu.png","../images/gry_blk.png","../images/blu_wht.png","../images/cyn_red.png"],"mutagen_generator_assignment":[1,0],"goal":3,"start":0,"action_noise":0.2,"location_history":"[0,1,2,3]","action_history":"[1,0,1]","mutagen_history":"[0,1,0]","location_rts":"[1053,546,481]","trial_type":"fractal-mutation","trial_index":166,"time_elapsed":2503351,"internal_node_id":"0.0-5.0-62.0"},{"group":"hexagon_bi","fractal_assignment":["../images/pnk_blu.png","../images/ylw_slt.png","../images/org_blu.png","../images/gry_blk.png","../images/blu_wht.png","../images/cyn_red.png"],"mutagen_generator_assignment":[1,0],"goal":5,"start":3,"action_noise":0.2,"location_history":"[3,4,3,4,3,4,5]","action_history":"[0,1,0,0,0,1]","mutagen_history":"[1,0,1,1,1,0]","location_rts":"[1109,770,537,60,600,205]","trial_type":"fractal-mutation","trial_index":167,"time_elapsed":2516351,"internal_node_id":"0.0-5.0-63.0"},{"group":"hexagon_bi","fractal_assignment":["../images/pnk_blu.png","../images/ylw_slt.png","../images/org_blu.png","../images/gry_blk.png","../images/blu_wht.png","../images/cyn_red.png"],"mutagen_generator_assignment":[1,0],"goal":4,"start":5,"action_noise":0.2,"location_history":"[5,4]","action_history":"[0]","mutagen_history":"[1]","location_rts":"[721]","trial_type":"fractal-mutation","trial_index":168,"time_elapsed":2521613,"internal_node_id":"0.0-5.0-64.0"},{"group":"hexagon_bi","fractal_assignment":["../images/pnk_blu.png","../images/ylw_slt.png","../images/org_blu.png","../images/gry_blk.png","../images/blu_wht.png","../images/cyn_red.png"],"mutagen_generator_assignment":[1,0],"goal":1,"start":4,"action_noise":0.2,"location_history":"[4,3,2,1]","action_history":"[0,1,0]","mutagen_history":"[1,0,1]","location_rts":"[682,388,270]","trial_type":"fractal-mutation","trial_index":169,"time_elapsed":2529560,"internal_node_id":"0.0-5.0-65.0"},{"group":"hexagon_bi","fractal_assignment":["../images/pnk_blu.png","../images/ylw_slt.png","../images/org_blu.png","../images/gry_blk.png","../images/blu_wht.png","../images/cyn_red.png"],"mutagen_generator_assignment":[1,0],"goal":5,"start":1,"action_noise":0.2,"location_history":"[1,0,1,0,1,0,5]","action_history":"[1,0,1,1,1,0]","mutagen_history":"[0,1,0,0,0,1]","location_rts":"[1489,249,816,162,569,100]","trial_type":"fractal-mutation","trial_index":170,"time_elapsed":2542636,"internal_node_id":"0.0-5.0-66.0"},{"group":"hexagon_bi","fractal_assignment":["../images/pnk_blu.png","../images/ylw_slt.png","../images/org_blu.png","../images/gry_blk.png","../images/blu_wht.png","../images/cyn_red.png"],"mutagen_generator_assignment":[1,0],"goal":2,"start":5,"action_noise":0.2,"location_history":"[5,4,3,2]","action_history":"[0,0,1]","mutagen_history":"[1,1,0]","location_rts":"[1404,552,124]","trial_type":"fractal-mutation","trial_index":171,"time_elapsed":2551324,"internal_node_id":"0.0-5.0-67.0"},{"group":"hexagon_bi","fractal_assignment":["../images/pnk_blu.png","../images/ylw_slt.png","../images/org_blu.png","../images/gry_blk.png","../images/blu_wht.png","../images/cyn_red.png"],"mutagen_generator_assignment":[1,0],"goal":3,"start":2,"action_noise":0.2,"location_history":"[2,1,0,5,4,3]","action_history":"[1,1,0,1,0]","mutagen_history":"[0,0,1,0,1]","location_rts":"[1265,535,289,676,229]","trial_type":"fractal-mutation","trial_index":172,"time_elapsed":2562993,"internal_node_id":"0.0-5.0-68.0"},{"group":"hexagon_bi","fractal_assignment":["../images/pnk_blu.png","../images/ylw_slt.png","../images/org_blu.png","../images/gry_blk.png","../images/blu_wht.png","../images/cyn_red.png"],"mutagen_generator_assignment":[1,0],"goal":4,"start":3,"action_noise":0.2,"location_history":"[3,4]","action_history":"[0]","mutagen_history":"[1]","location_rts":"[999]","trial_type":"fractal-mutation","trial_index":173,"time_elapsed":2568529,"internal_node_id":"0.0-5.0-69.0"},{"group":"hexagon_bi","fractal_assignment":["../images/pnk_blu.png","../images/ylw_slt.png","../images/org_blu.png","../images/gry_blk.png","../images/blu_wht.png","../images/cyn_red.png"],"mutagen_generator_assignment":[1,0],"goal":0,"start":4,"action_noise":0.2,"location_history":"[4,3,2,3,2,1,0]","action_history":"[0,1,1,1,0,1]","mutagen_history":"[1,0,0,0,1,0]","location_rts":"[1217,634,430,450,328,729]","trial_type":"fractal-mutation","trial_index":174,"time_elapsed":2582001,"internal_node_id":"0.0-5.0-70.0"},{"group":"hexagon_bi","fractal_assignment":["../images/pnk_blu.png","../images/ylw_slt.png","../images/org_blu.png","../images/gry_blk.png","../images/blu_wht.png","../images/cyn_red.png"],"mutagen_generator_assignment":[1,0],"goal":5,"start":0,"action_noise":0.2,"location_history":"[0,5]","action_history":"[0]","mutagen_history":"[1]","location_rts":"[1679]","trial_type":"fractal-mutation","trial_index":175,"time_elapsed":2588222,"internal_node_id":"0.0-5.0-71.0"},{"group":"hexagon_bi","fractal_assignment":["../images/pnk_blu.png","../images/ylw_slt.png","../images/org_blu.png","../images/gry_blk.png","../images/blu_wht.png","../images/cyn_red.png"],"mutagen_generator_assignment":[1,0],"goal":0,"start":5,"action_noise":0.2,"location_history":"[5,0]","action_history":"[0]","mutagen_history":"[1]","location_rts":"[1075]","trial_type":"fractal-mutation","trial_index":176,"time_elapsed":2593837,"internal_node_id":"0.0-5.0-72.0"},{"group":"hexagon_bi","fractal_assignment":["../images/pnk_blu.png","../images/ylw_slt.png","../images/org_blu.png","../images/gry_blk.png","../images/blu_wht.png","../images/cyn_red.png"],"mutagen_generator_assignment":[1,0],"goal":3,"start":0,"action_noise":0.2,"location_history":"[0,1,0,1,0,1,2,3]","action_history":"[1,0,0,1,1,0,1]","mutagen_history":"[0,1,1,0,0,1,0]","location_rts":"[1175,723,688,437,469,469,733]","trial_type":"fractal-mutation","trial_index":177,"time_elapsed":2609273,"internal_node_id":"0.0-5.0-73.0"},{"group":"hexagon_bi","fractal_assignment":["../images/pnk_blu.png","../images/ylw_slt.png","../images/org_blu.png","../images/gry_blk.png","../images/blu_wht.png","../images/cyn_red.png"],"mutagen_generator_assignment":[1,0],"goal":1,"start":3,"action_noise":0.2,"location_history":"[3,4,3,2,1]","action_history":"[0,0,1,0]","mutagen_history":"[1,1,0,1]","location_rts":"[1013,838,428,332]","trial_type":"fractal-mutation","trial_index":178,"time_elapsed":2619533,"internal_node_id":"0.0-5.0-74.0"},{"group":"hexagon_bi","fractal_assignment":["../images/pnk_blu.png","../images/ylw_slt.png","../images/org_blu.png","../images/gry_blk.png","../images/blu_wht.png","../images/cyn_red.png"],"mutagen_generator_assignment":[1,0],"goal":2,"start":1,"action_noise":0.2,"location_history":"[1,2]","action_history":"[0]","mutagen_history":"[1]","location_rts":"[1395]","trial_type":"fractal-mutation","trial_index":179,"time_elapsed":2625470,"internal_node_id":"0.0-5.0-75.0"},{"group":"hexagon_bi","fractal_assignment":["../images/pnk_blu.png","../images/ylw_slt.png","../images/org_blu.png","../images/gry_blk.png","../images/blu_wht.png","../images/cyn_red.png"],"mutagen_generator_assignment":[1,0],"goal":4,"start":2,"action_noise":0.2,"location_history":"[2,1,0,1,2,1,2,3,4]","action_history":"[0,1,1,1,0,0,1,0]","mutagen_history":"[1,0,0,0,1,1,0,1]","location_rts":"[1346,506,449,344,100,489,309,673]","trial_type":"fractal-mutation","trial_index":180,"time_elapsed":2641470,"internal_node_id":"0.0-5.0-76.0"},{"group":"hexagon_bi","fractal_assignment":["../images/pnk_blu.png","../images/ylw_slt.png","../images/org_blu.png","../images/gry_blk.png","../images/blu_wht.png","../images/cyn_red.png"],"mutagen_generator_assignment":[1,0],"goal":3,"start":4,"action_noise":0.2,"location_history":"[4,3]","action_history":"[0]","mutagen_history":"[1]","location_rts":"[1494]","trial_type":"fractal-mutation","trial_index":181,"time_elapsed":2647506,"internal_node_id":"0.0-5.0-77.0"},{"group":"hexagon_bi","fractal_assignment":["../images/pnk_blu.png","../images/ylw_slt.png","../images/org_blu.png","../images/gry_blk.png","../images/blu_wht.png","../images/cyn_red.png"],"mutagen_generator_assignment":[1,0],"goal":0,"start":3,"action_noise":0.2,"location_history":"[3,2,1,0]","action_history":"[1,0,1]","mutagen_history":"[0,1,0]","location_rts":"[1016,324,386]","trial_type":"fractal-mutation","trial_index":182,"time_elapsed":2655829,"internal_node_id":"0.0-5.0-78.0"},{"group":"hexagon_bi","fractal_assignment":["../images/pnk_blu.png","../images/ylw_slt.png","../images/org_blu.png","../images/gry_blk.png","../images/blu_wht.png","../images/cyn_red.png"],"mutagen_generator_assignment":[1,0],"goal":4,"start":0,"action_noise":0.2,"location_history":"[0,5,4]","action_history":"[0,1]","mutagen_history":"[1,0]","location_rts":"[1374,814]","trial_type":"fractal-mutation","trial_index":183,"time_elapsed":2663590,"internal_node_id":"0.0-5.0-79.0"},{"group":"hexagon_bi","fractal_assignment":["../images/pnk_blu.png","../images/ylw_slt.png","../images/org_blu.png","../images/gry_blk.png","../images/blu_wht.png","../images/cyn_red.png"],"mutagen_generator_assignment":[1,0],"goal":5,"start":4,"action_noise":0.2,"location_history":"[4,3,4,5]","action_history":"[0,0,1]","mutagen_history":"[1,1,0]","location_rts":"[843,637,139]","trial_type":"fractal-mutation","trial_index":184,"time_elapsed":2671811,"internal_node_id":"0.0-5.0-80.0"},{"group":"hexagon_bi","fractal_assignment":["../images/pnk_blu.png","../images/ylw_slt.png","../images/org_blu.png","../images/gry_blk.png","../images/blu_wht.png","../images/cyn_red.png"],"mutagen_generator_assignment":[1,0],"goal":1,"start":5,"action_noise":0.2,"location_history":"[5,0,1]","action_history":"[0,1]","mutagen_history":"[1,0]","location_rts":"[744,676]","trial_type":"fractal-mutation","trial_index":185,"time_elapsed":2678803,"internal_node_id":"0.0-5.0-81.0"},{"group":"hexagon_bi","fractal_assignment":["../images/pnk_blu.png","../images/ylw_slt.png","../images/org_blu.png","../images/gry_blk.png","../images/blu_wht.png","../images/cyn_red.png"],"mutagen_generator_assignment":[1,0],"goal":2,"start":1,"action_noise":0.2,"location_history":"[1,2]","action_history":"[1]","mutagen_history":"[0]","location_rts":"[1366]","trial_type":"fractal-mutation","trial_index":186,"time_elapsed":2684705,"internal_node_id":"0.0-5.0-82.0"},{"group":"hexagon_bi","fractal_assignment":["../images/pnk_blu.png","../images/ylw_slt.png","../images/org_blu.png","../images/gry_blk.png","../images/blu_wht.png","../images/cyn_red.png"],"mutagen_generator_assignment":[1,0],"goal":4,"start":2,"action_noise":0.2,"location_history":"[2,1,2,3,2,3,4]","action_history":"[0,1,1,0,1,0]","mutagen_history":"[1,0,0,1,0,1]","location_rts":"[1008,548,750,462,783,216]","trial_type":"fractal-mutation","trial_index":187,"time_elapsed":2698187,"internal_node_id":"0.0-5.0-83.0"},{"group":"hexagon_bi","fractal_assignment":["../images/pnk_blu.png","../images/ylw_slt.png","../images/org_blu.png","../images/gry_blk.png","../images/blu_wht.png","../images/cyn_red.png"],"mutagen_generator_assignment":[1,0],"goal":0,"start":4,"action_noise":0.2,"location_history":"[4,3,4,5,0]","action_history":"[0,0,1,0]","mutagen_history":"[1,1,0,1]","location_rts":"[1138,627,322,746]","trial_type":"fractal-mutation","trial_index":188,"time_elapsed":2708663,"internal_node_id":"0.0-5.0-84.0"},{"group":"hexagon_bi","fractal_assignment":["../images/pnk_blu.png","../images/ylw_slt.png","../images/org_blu.png","../images/gry_blk.png","../images/blu_wht.png","../images/cyn_red.png"],"mutagen_generator_assignment":[1,0],"goal":5,"start":0,"action_noise":0.2,"location_history":"[0,5]","action_history":"[1]","mutagen_history":"[0]","location_rts":"[1593]","trial_type":"fractal-mutation","trial_index":189,"time_elapsed":2714792,"internal_node_id":"0.0-5.0-85.0"},{"group":"hexagon_bi","fractal_assignment":["../images/pnk_blu.png","../images/ylw_slt.png","../images/org_blu.png","../images/gry_blk.png","../images/blu_wht.png","../images/cyn_red.png"],"mutagen_generator_assignment":[1,0],"goal":3,"start":5,"action_noise":0.2,"location_history":"[5,4,3]","action_history":"[1,0]","mutagen_history":"[0,1]","location_rts":"[909,685]","trial_type":"fractal-mutation","trial_index":190,"time_elapsed":2721959,"internal_node_id":"0.0-5.0-86.0"},{"group":"hexagon_bi","fractal_assignment":["../images/pnk_blu.png","../images/ylw_slt.png","../images/org_blu.png","../images/gry_blk.png","../images/blu_wht.png","../images/cyn_red.png"],"mutagen_generator_assignment":[1,0],"goal":1,"start":3,"action_noise":0.2,"location_history":"[3,2,3,4,5,4,3,4,3,4,5,4,3,2,1]","action_history":"[1,0,0,1,1,0,0,0,1,1,1,0,1,0]","mutagen_history":"[0,1,1,0,0,1,1,1,0,0,0,1,0,1]","location_rts":"[705,499,762,207,348,496,533,357,258,607,557,313,196,184]","trial_type":"fractal-mutation","trial_index":191,"time_elapsed":2745960,"internal_node_id":"0.0-5.0-87.0"},{"group":"hexagon_bi","fractal_assignment":["../images/pnk_blu.png","../images/ylw_slt.png","../images/org_blu.png","../images/gry_blk.png","../images/blu_wht.png","../images/cyn_red.png"],"mutagen_generator_assignment":[1,0],"goal":2,"start":1,"action_noise":0.2,"location_history":"[1,0,1,2]","action_history":"[1,1,0]","mutagen_history":"[0,0,1]","location_rts":"[750,750,148]","trial_type":"fractal-mutation","trial_index":192,"time_elapsed":2754208,"internal_node_id":"0.0-5.0-88.0"},{"group":"hexagon_bi","fractal_assignment":["../images/pnk_blu.png","../images/ylw_slt.png","../images/org_blu.png","../images/gry_blk.png","../images/blu_wht.png","../images/cyn_red.png"],"mutagen_generator_assignment":[1,0],"goal":0,"start":2,"action_noise":0.2,"location_history":"[2,3,4,5,4,5,0]","action_history":"[1,0,1,0,1,0]","mutagen_history":"[0,1,0,1,0,1]","location_rts":"[927,275,372,250,520,639]","trial_type":"fractal-mutation","trial_index":193,"time_elapsed":2766898,"internal_node_id":"0.0-5.0-89.0"},{"group":"hexagon_bi","fractal_assignment":["../images/pnk_blu.png","../images/ylw_slt.png","../images/org_blu.png","../images/gry_blk.png","../images/blu_wht.png","../images/cyn_red.png"],"mutagen_generator_assignment":[1,0],"goal":5,"start":0,"action_noise":0.2,"location_history":"[0,5]","action_history":"[1]","mutagen_history":"[0]","location_rts":"[771]","trial_type":"fractal-mutation","trial_index":194,"time_elapsed":2772201,"internal_node_id":"0.0-5.0-90.0"},{"group":"hexagon_bi","fractal_assignment":["../images/pnk_blu.png","../images/ylw_slt.png","../images/org_blu.png","../images/gry_blk.png","../images/blu_wht.png","../images/cyn_red.png"],"mutagen_generator_assignment":[1,0],"goal":1,"start":5,"action_noise":0.2,"location_history":"[5,0,5,4,3,4,5,4,3,4,5,4,3,2,1]","action_history":"[1,0,1,0,0,1,1,0,0,0,1,0,1,0]","mutagen_history":"[0,1,0,1,1,0,0,1,1,1,0,1,0,1]","location_rts":"[1002,673,539,685,402,659,389,284,475,359,99,398,311,598]","trial_type":"fractal-mutation","trial_index":195,"time_elapsed":2797061,"internal_node_id":"0.0-5.0-91.0"},{"group":"hexagon_bi","fractal_assignment":["../images/pnk_blu.png","../images/ylw_slt.png","../images/org_blu.png","../images/gry_blk.png","../images/blu_wht.png","../images/cyn_red.png"],"mutagen_generator_assignment":[1,0],"goal":3,"start":1,"action_noise":0.2,"location_history":"[1,0,5,4,3]","action_history":"[1,0,1,0]","mutagen_history":"[0,1,0,1]","location_rts":"[1411,671,283,181]","trial_type":"fractal-mutation","trial_index":196,"time_elapsed":2807245,"internal_node_id":"0.0-5.0-92.0"},{"group":"hexagon_bi","fractal_assignment":["../images/pnk_blu.png","../images/ylw_slt.png","../images/org_blu.png","../images/gry_blk.png","../images/blu_wht.png","../images/cyn_red.png"],"mutagen_generator_assignment":[1,0],"goal":4,"start":3,"action_noise":0.2,"location_history":"[3,2,3,2,3,2,3,4]","action_history":"[0,0,1,1,0,1,0]","mutagen_history":"[1,1,0,0,1,0,1]","location_rts":"[1275,1073,32,576,551,854,513]","trial_type":"fractal-mutation","trial_index":197,"time_elapsed":2822861,"internal_node_id":"0.0-5.0-93.0"},{"group":"hexagon_bi","fractal_assignment":["../images/pnk_blu.png","../images/ylw_slt.png","../images/org_blu.png","../images/gry_blk.png","../images/blu_wht.png","../images/cyn_red.png"],"mutagen_generator_assignment":[1,0],"goal":2,"start":4,"action_noise":0.2,"location_history":"[4,5,0,5,0,1,0,1,0,1,2]","action_history":"[1,0,1,0,1,1,1,0,1,0]","mutagen_history":"[0,1,0,1,0,0,0,1,0,1]","location_rts":"[1345,206,518,208,417,192,407,96,477,587]","trial_type":"fractal-mutation","trial_index":198,"time_elapsed":2841141,"internal_node_id":"0.0-5.0-94.0"},{"group":"hexagon_bi","fractal_assignment":["../images/pnk_blu.png","../images/ylw_slt.png","../images/org_blu.png","../images/gry_blk.png","../images/blu_wht.png","../images/cyn_red.png"],"mutagen_generator_assignment":[1,0],"goal":4,"start":2,"action_noise":0.2,"location_history":"[2,1,0,5,0,5,0,5,4]","action_history":"[0,1,0,1,1,0,1,1]","mutagen_history":"[1,0,1,0,0,1,0,0]","location_rts":"[1166,704,499,564,812,166,532,356]","trial_type":"fractal-mutation","trial_index":199,"time_elapsed":2857704,"internal_node_id":"0.0-5.0-95.0"},{"group":"hexagon_bi","fractal_assignment":["../images/pnk_blu.png","../images/ylw_slt.png","../images/org_blu.png","../images/gry_blk.png","../images/blu_wht.png","../images/cyn_red.png"],"mutagen_generator_assignment":[1,0],"goal":0,"start":4,"action_noise":0.2,"location_history":"[4,3,2,1,2,3,4,3,4,5,0]","action_history":"[0,1,1,0,1,0,0,0,1,0]","mutagen_history":"[1,0,0,1,0,1,1,1,0,1]","location_rts":"[1199,680,490,119,428,405,1652,477,90,877]","trial_type":"fractal-mutation","trial_index":200,"time_elapsed":2877952,"internal_node_id":"0.0-5.0-96.0"},{"group":"hexagon_bi","fractal_assignment":["../images/pnk_blu.png","../images/ylw_slt.png","../images/org_blu.png","../images/gry_blk.png","../images/blu_wht.png","../images/cyn_red.png"],"mutagen_generator_assignment":[1,0],"goal":5,"start":0,"action_noise":0.2,"location_history":"[0,1,0,5]","action_history":"[1,1,0]","mutagen_history":"[0,0,1]","location_rts":"[3168,1084,1029]","trial_type":"fractal-mutation","trial_index":201,"time_elapsed":2889829,"internal_node_id":"0.0-5.0-97.0"},{"group":"hexagon_bi","fractal_assignment":["../images/pnk_blu.png","../images/ylw_slt.png","../images/org_blu.png","../images/gry_blk.png","../images/blu_wht.png","../images/cyn_red.png"],"mutagen_generator_assignment":[1,0],"goal":1,"start":5,"action_noise":0.2,"location_history":"[5,0,1]","action_history":"[0,1]","mutagen_history":"[1,0]","location_rts":"[12451,473]","trial_type":"fractal-mutation","trial_index":202,"time_elapsed":2908328,"internal_node_id":"0.0-5.0-98.0"},{"group":"hexagon_bi","fractal_assignment":["../images/pnk_blu.png","../images/ylw_slt.png","../images/org_blu.png","../images/gry_blk.png","../images/blu_wht.png","../images/cyn_red.png"],"mutagen_generator_assignment":[1,0],"goal":3,"start":1,"action_noise":0.2,"location_history":"[1,0,5,0,5,0,5,4,3]","action_history":"[1,0,0,0,1,1,0,0]","mutagen_history":"[0,1,1,1,0,0,1,1]","location_rts":"[763,472,401,501,391,513,433,389]","trial_type":"fractal-mutation","trial_index":203,"time_elapsed":2923972,"internal_node_id":"0.0-5.0-99.0"},{"view_history":"[{\"page_index\":0,\"viewing_time\":7550}]","rt":7550,"trial_type":"instructions","trial_index":204,"time_elapsed":2932522,"internal_node_id":"0.0-6.0"},{"rt":2220,"responses":"{\"Q0\":\"\"}","trial_type":"survey-text","trial_index":205,"time_elapsed":2935751,"internal_node_id":"0.0-7.0"}]