[{"view_history":"[{\"page_index\":0,\"viewing_time\":568554},{\"page_index\":1,\"viewing_time\":17172},{\"page_index\":2,\"viewing_time\":23845},{\"page_index\":3,\"viewing_time\":11127}]","rt":620699,"trial_type":"instructions","trial_index":0,"time_elapsed":620700,"internal_node_id":"0.0-0.0"},{"view_history":"[{\"page_index\":0,\"viewing_time\":4432},{\"page_index\":1,\"viewing_time\":36675}]","rt":41108,"trial_type":"instructions","trial_index":1,"time_elapsed":662809,"internal_node_id":"0.0-1.0"},{"group":"hexagon_tri","room_assignment":["red","grey","yellow","green","purple","blue"],"door_color_assignment":["black","white"],"door_generator_assignment":[1,0],"goal":4,"start":0,"action_noise":0.2,"location_history":"[0,5,0,5,0,1,3,2,1,5,4]","action_history":"[0,0,0,1,1,0,0,0,1,1]","door_history":"[1,1,1,0,0,1,1,1,0,0]","location_rts":"[5040,7501,10656,3835,3651,2269,1821,3709,2131,1888]","trial_type":"two-door-navigation","trial_index":2,"time_elapsed":718918,"internal_node_id":"0.0-2.0-0.0"},{"group":"hexagon_tri","room_assignment":["red","grey","yellow","green","purple","blue"],"door_color_assignment":["black","white"],"door_generator_assignment":[1,0],"goal":3,"start":4,"action_noise":0.2,"location_history":"[4,2,3]","action_history":"[1,0]","door_history":"[0,1]","location_rts":"[4483,1314]","trial_type":"two-door-navigation","trial_index":3,"time_elapsed":730234,"internal_node_id":"0.0-2.0-1.0"},{"group":"hexagon_tri","room_assignment":["red","grey","yellow","green","purple","blue"],"door_color_assignment":["black","white"],"door_generator_assignment":[1,0],"goal":5,"start":3,"action_noise":0.2,"location_history":"[3,4,2,3,4,0,1,5]","action_history":"[1,1,1,0,0,1,1]","door_history":"[0,0,0,1,1,0,0]","location_rts":"[5267,1157,1649,2017,1788,1306,1592]","trial_type":"two-door-navigation","trial_index":4,"time_elapsed":755574,"internal_node_id":"0.0-2.0-2.0"},{"group":"hexagon_tri","room_assignment":["red","grey","yellow","green","purple","blue"],"door_color_assignment":["black","white"],"door_generator_assignment":[1,0],"goal":2,"start":5,"action_noise":0.2,"location_history":"[5,0,5,0,1,3,2]","action_history":"[1,0,1,1,0,0]","door_history":"[0,1,0,0,1,1]","location_rts":"[3137,1562,2447,1495,1823,1913]","trial_type":"two-door-navigation","trial_index":5,"time_elapsed":777514,"internal_node_id":"0.0-2.0-3.0"},{"group":"hexagon_tri","room_assignment":["red","grey","yellow","green","purple","blue"],"door_color_assignment":["black","white"],"door_generator_assignment":[1,0],"goal":1,"start":2,"action_noise":0.2,"location_history":"[2,3,4,2,1]","action_history":"[1,1,1,0]","door_history":"[0,0,0,1]","location_rts":"[2358,955,2214,1823]","trial_type":"two-door-navigation","trial_index":6,"time_elapsed":792403,"internal_node_id":"0.0-2.0-4.0"},{"group":"hexagon_tri","room_assignment":["red","grey","yellow","green","purple","blue"],"door_color_assignment":["black","white"],"door_generator_assignment":[1,0],"goal":4,"start":1,"action_noise":0.2,"location_history":"[1,5,0,5,0,1,3,4]","action_history":"[0,1,0,1,1,0,1]","door_history":"[1,0,1,0,0,1,0]","location_rts":"[3660,1619,2826,1608,875,1557,1577]","trial_type":"two-door-navigation","trial_index":7,"time_elapsed":816691,"internal_node_id":"0.0-2.0-5.0"},{"group":"hexagon_tri","room_assignment":["red","grey","yellow","green","purple","blue"],"door_color_assignment":["black","white"],"door_generator_assignment":[1,0],"goal":1,"start":4,"action_noise":0.2,"location_history":"[4,2,1]","action_history":"[1,0]","door_history":"[0,1]","location_rts":"[2297,1126]","trial_type":"two-door-navigation","trial_index":8,"time_elapsed":825633,"internal_node_id":"0.0-2.0-6.0"},{"group":"hexagon_tri","room_assignment":["red","grey","yellow","green","purple","blue"],"door_color_assignment":["black","white"],"door_generator_assignment":[1,0],"goal":5,"start":1,"action_noise":0.2,"location_history":"[1,5]","action_history":"[1]","door_history":"[0]","location_rts":"[2977]","trial_type":"two-door-navigation","trial_index":9,"time_elapsed":833122,"internal_node_id":"0.0-2.0-7.0"},{"group":"hexagon_tri","room_assignment":["red","grey","yellow","green","purple","blue"],"door_color_assignment":["black","white"],"door_generator_assignment":[1,0],"goal":0,"start":5,"action_noise":0.2,"location_history":"[5,4,0]","action_history":"[0,1]","door_history":"[1,0]","location_rts":"[4854,1446]","trial_type":"two-door-navigation","trial_index":10,"time_elapsed":844937,"internal_node_id":"0.0-2.0-8.0"},{"group":"hexagon_tri","room_assignment":["red","grey","yellow","green","purple","blue"],"door_color_assignment":["black","white"],"door_generator_assignment":[1,0],"goal":2,"start":0,"action_noise":0.2,"location_history":"[0,1,3,4,2]","action_history":"[1,0,0,1]","door_history":"[0,1,1,0]","location_rts":"[1923,1068,2060,1343]","trial_type":"two-door-navigation","trial_index":11,"time_elapsed":858874,"internal_node_id":"0.0-2.0-9.0"},{"group":"hexagon_tri","room_assignment":["red","grey","yellow","green","purple","blue"],"door_color_assignment":["black","white"],"door_generator_assignment":[1,0],"goal":3,"start":2,"action_noise":0.2,"location_history":"[2,1,3]","action_history":"[1,0]","door_history":"[0,1]","location_rts":"[1964,2139]","trial_type":"two-door-navigation","trial_index":12,"time_elapsed":868503,"internal_node_id":"0.0-2.0-10.0"},{"group":"hexagon_tri","room_assignment":["red","grey","yellow","green","purple","blue"],"door_color_assignment":["black","white"],"door_generator_assignment":[1,0],"goal":0,"start":3,"action_noise":0.2,"location_history":"[3,2,1,3,2,1,3,4,2,3,4,0]","action_history":"[1,0,1,1,0,0,1,1,1,1,0]","door_history":"[0,1,0,0,1,1,0,0,0,0,1]","location_rts":"[2388,1362,1815,875,1493,1812,2190,1275,2152,1660,1581]","trial_type":"two-door-navigation","trial_index":13,"time_elapsed":901714,"internal_node_id":"0.0-2.0-11.0"},{"group":"hexagon_tri","room_assignment":["red","grey","yellow","green","purple","blue"],"door_color_assignment":["black","white"],"door_generator_assignment":[1,0],"goal":2,"start":0,"action_noise":0.2,"location_history":"[0,5,4,0,5,4,0,1,3,2]","action_history":"[0,0,0,0,1,0,1,0,0]","door_history":"[1,1,1,1,0,1,0,1,1]","location_rts":"[2924,2063,1228,1710,931,1382,2811,1478,1396]","trial_type":"two-door-navigation","trial_index":14,"time_elapsed":930220,"internal_node_id":"0.0-2.0-12.0"},{"group":"hexagon_tri","room_assignment":["red","grey","yellow","green","purple","blue"],"door_color_assignment":["black","white"],"door_generator_assignment":[1,0],"goal":5,"start":2,"action_noise":0.2,"location_history":"[2,1,5]","action_history":"[0,1]","door_history":"[1,0]","location_rts":"[3189,1027]","trial_type":"two-door-navigation","trial_index":15,"time_elapsed":939961,"internal_node_id":"0.0-2.0-13.0"},{"group":"hexagon_tri","room_assignment":["red","grey","yellow","green","purple","blue"],"door_color_assignment":["black","white"],"door_generator_assignment":[1,0],"goal":4,"start":5,"action_noise":0.2,"location_history":"[5,0,5,0,5,0,1,3,4]","action_history":"[1,0,1,1,0,1,0,1]","door_history":"[0,1,0,0,1,0,1,0]","location_rts":"[5046,1719,1634,1266,1728,1547,1944,1568]","trial_type":"two-door-navigation","trial_index":16,"time_elapsed":967978,"internal_node_id":"0.0-2.0-14.0"},{"group":"hexagon_tri","room_assignment":["red","grey","yellow","green","purple","blue"],"door_color_assignment":["black","white"],"door_generator_assignment":[1,0],"goal":3,"start":4,"action_noise":0.2,"location_history":"[4,0,1,5,4,0,5,4,2,1,5,0,1,3]","action_history":"[0,0,1,0,0,0,1,0,0,1,1,1,1]","door_history":"[1,1,0,1,1,1,0,1,1,0,0,0,0]","location_rts":"[3936,2299,1537,1393,1326,1471,1304,3293,1949,1058,1621,1736,1462]","trial_type":"two-door-navigation","trial_index":17,"time_elapsed":1008965,"internal_node_id":"0.0-2.0-15.0"},{"group":"hexagon_tri","room_assignment":["red","grey","yellow","green","purple","blue"],"door_color_assignment":["black","white"],"door_generator_assignment":[1,0],"goal":1,"start":3,"action_noise":0.2,"location_history":"[3,2,3,4,0,1]","action_history":"[0,1,1,0,1]","door_history":"[1,0,0,1,0]","location_rts":"[2895,1556,1600,1368,1478]","trial_type":"two-door-navigation","trial_index":18,"time_elapsed":1026416,"internal_node_id":"0.0-2.0-16.0"},{"group":"hexagon_tri","room_assignment":["red","grey","yellow","green","purple","blue"],"door_color_assignment":["black","white"],"door_generator_assignment":[1,0],"goal":5,"start":1,"action_noise":0.2,"location_history":"[1,3,4,2,3,2,3,4,0,1,5]","action_history":"[0,1,1,1,0,1,1,0,1,1]","door_history":"[1,0,0,0,1,0,0,1,0,0]","location_rts":"[5477,1196,1194,2774,1258,1901,754,1464,1209,3889]","trial_type":"two-door-navigation","trial_index":19,"time_elapsed":1061111,"internal_node_id":"0.0-2.0-17.0"},{"group":"hexagon_tri","room_assignment":["red","grey","yellow","green","purple","blue"],"door_color_assignment":["black","white"],"door_generator_assignment":[1,0],"goal":4,"start":5,"action_noise":0.2,"location_history":"[5,0,1,3,4]","action_history":"[1,1,0,1]","door_history":"[0,0,1,0]","location_rts":"[2688,1342,1254,1339]","trial_type":"two-door-navigation","trial_index":20,"time_elapsed":1075270,"internal_node_id":"0.0-2.0-18.0"},{"group":"hexagon_tri","room_assignment":["red","grey","yellow","green","purple","blue"],"door_color_assignment":["black","white"],"door_generator_assignment":[1,0],"goal":0,"start":4,"action_noise":0.2,"location_history":"[4,0]","action_history":"[0]","door_history":"[1]","location_rts":"[3019]","trial_type":"two-door-navigation","trial_index":21,"time_elapsed":1082798,"internal_node_id":"0.0-2.0-19.0"},{"group":"hexagon_tri","room_assignment":["red","grey","yellow","green","purple","blue"],"door_color_assignment":["black","white"],"door_generator_assignment":[1,0],"goal":1,"start":0,"action_noise":0.2,"location_history":"[0,5,4,0,1]","action_history":"[0,1,0,1]","door_history":"[1,0,1,0]","location_rts":"[2248,1596,2234,1946]","trial_type":"two-door-navigation","trial_index":22,"time_elapsed":1098359,"internal_node_id":"0.0-2.0-20.0"},{"group":"hexagon_tri","room_assignment":["red","grey","yellow","green","purple","blue"],"door_color_assignment":["black","white"],"door_generator_assignment":[1,0],"goal":3,"start":1,"action_noise":0.2,"location_history":"[1,3]","action_history":"[0]","door_history":"[1]","location_rts":"[2310]","trial_type":"two-door-navigation","trial_index":23,"time_elapsed":1105180,"internal_node_id":"0.0-2.0-21.0"},{"group":"hexagon_tri","room_assignment":["red","grey","yellow","green","purple","blue"],"door_color_assignment":["black","white"],"door_generator_assignment":[1,0],"goal":2,"start":3,"action_noise":0.2,"location_history":"[3,4,2]","action_history":"[1,0]","door_history":"[0,1]","location_rts":"[1882,1193]","trial_type":"two-door-navigation","trial_index":24,"time_elapsed":1113773,"internal_node_id":"0.0-2.0-22.0"},{"group":"hexagon_tri","room_assignment":["red","grey","yellow","green","purple","blue"],"door_color_assignment":["black","white"],"door_generator_assignment":[1,0],"goal":0,"start":2,"action_noise":0.2,"location_history":"[2,3,2,1,3,4,2,1,3,4,0]","action_history":"[1,1,1,0,0,1,1,0,0,1]","door_history":"[0,0,0,1,1,0,0,1,1,0]","location_rts":"[1838,1028,1270,799,2242,1260,2242,2265,1476,1299]","trial_type":"two-door-navigation","trial_index":25,"time_elapsed":1143080,"internal_node_id":"0.0-2.0-23.0"},{"group":"hexagon_tri","room_assignment":["red","grey","yellow","green","purple","blue"],"door_color_assignment":["black","white"],"door_generator_assignment":[1,0],"goal":3,"start":0,"action_noise":0.2,"location_history":"[0,1,3]","action_history":"[0,0]","door_history":"[1,1]","location_rts":"[2994,2056]","trial_type":"two-door-navigation","trial_index":26,"time_elapsed":1153647,"internal_node_id":"0.0-2.0-24.0"},{"group":"hexagon_tri","room_assignment":["red","grey","yellow","green","purple","blue"],"door_color_assignment":["black","white"],"door_generator_assignment":[1,0],"goal":1,"start":3,"action_noise":0.2,"location_history":"[3,2,3,2,1]","action_history":"[1,1,0,0]","door_history":"[0,0,1,1]","location_rts":"[2193,1218,1428,1762]","trial_type":"two-door-navigation","trial_index":27,"time_elapsed":1167786,"internal_node_id":"0.0-2.0-25.0"},{"group":"hexagon_tri","room_assignment":["red","grey","yellow","green","purple","blue"],"door_color_assignment":["black","white"],"door_generator_assignment":[1,0],"goal":2,"start":1,"action_noise":0.2,"location_history":"[1,5,4,0,5,0,5,4,2]","action_history":"[1,0,0,1,1,0,0,1]","door_history":"[0,1,1,0,0,1,1,0]","location_rts":"[2181,1425,1596,1314,1919,2116,2595,2342]","trial_type":"two-door-navigation","trial_index":28,"time_elapsed":1194835,"internal_node_id":"0.0-2.0-26.0"},{"group":"hexagon_tri","room_assignment":["red","grey","yellow","green","purple","blue"],"door_color_assignment":["black","white"],"door_generator_assignment":[1,0],"goal":5,"start":2,"action_noise":0.2,"location_history":"[2,1,5]","action_history":"[0,1]","door_history":"[1,0]","location_rts":"[4006,1693]","trial_type":"two-door-navigation","trial_index":29,"time_elapsed":1206046,"internal_node_id":"0.0-2.0-27.0"},{"group":"hexagon_tri","room_assignment":["red","grey","yellow","green","purple","blue"],"door_color_assignment":["black","white"],"door_generator_assignment":[1,0],"goal":4,"start":5,"action_noise":0.2,"location_history":"[5,0,1,3,2,3,2,1,3,4]","action_history":"[1,1,0,1,1,0,1,0,1]","door_history":"[0,0,1,0,0,1,0,1,0]","location_rts":"[3310,1278,1342,1701,2242,3750,1704,2103,2583]","trial_type":"two-door-navigation","trial_index":30,"time_elapsed":1238635,"internal_node_id":"0.0-2.0-28.0"},{"group":"hexagon_tri","room_assignment":["red","grey","yellow","green","purple","blue"],"door_color_assignment":["black","white"],"door_generator_assignment":[1,0],"goal":5,"start":4,"action_noise":0.2,"location_history":"[4,2,3,2,1,5]","action_history":"[1,1,0,0,1]","door_history":"[0,0,1,1,0]","location_rts":"[2927,2090,1617,3551,1557]","trial_type":"two-door-navigation","trial_index":31,"time_elapsed":1258919,"internal_node_id":"0.0-2.0-29.0"},{"group":"hexagon_tri","room_assignment":["red","grey","yellow","green","purple","blue"],"door_color_assignment":["black","white"],"door_generator_assignment":[1,0],"goal":3,"start":5,"action_noise":0.2,"location_history":"[5,4,2,3]","action_history":"[0,1,1]","door_history":"[1,0,0]","location_rts":"[2402,1740,2220]","trial_type":"two-door-navigation","trial_index":32,"time_elapsed":1271811,"internal_node_id":"0.0-2.0-30.0"},{"group":"hexagon_tri","room_assignment":["red","grey","yellow","green","purple","blue"],"door_color_assignment":["black","white"],"door_generator_assignment":[1,0],"goal":0,"start":3,"action_noise":0.2,"location_history":"[3,2,1,5,0]","action_history":"[0,1,1,0]","door_history":"[1,0,0,1]","location_rts":"[3465,1316,1939,1623]","trial_type":"two-door-navigation","trial_index":33,"time_elapsed":1287687,"internal_node_id":"0.0-2.0-31.0"},{"group":"hexagon_tri","room_assignment":["red","grey","yellow","green","purple","blue"],"door_color_assignment":["black","white"],"door_generator_assignment":[1,0],"goal":4,"start":0,"action_noise":0.2,"location_history":"[0,5,4]","action_history":"[1,1]","door_history":"[0,0]","location_rts":"[2636,1561]","trial_type":"two-door-navigation","trial_index":34,"time_elapsed":1297401,"internal_node_id":"0.0-2.0-32.0"},{"group":"hexagon_tri","room_assignment":["red","grey","yellow","green","purple","blue"],"door_color_assignment":["black","white"],"door_generator_assignment":[1,0],"goal":1,"start":4,"action_noise":0.2,"location_history":"[4,0,1]","action_history":"[0,1]","door_history":"[1,0]","location_rts":"[2611,1984]","trial_type":"two-door-navigation","trial_index":35,"time_elapsed":1307514,"internal_node_id":"0.0-2.0-33.0"},{"group":"hexagon_tri","room_assignment":["red","grey","yellow","green","purple","blue"],"door_color_assignment":["black","white"],"door_generator_assignment":[1,0],"goal":2,"start":1,"action_noise":0.2,"location_history":"[1,5,0,5,0,1,5,4,0,1,3,2]","action_history":"[0,1,0,1,1,0,1,0,1,1,0]","door_history":"[1,0,1,0,0,1,0,1,0,0,1]","location_rts":"[2047,2294,1343,1696,865,1771,1664,1750,1571,1548,1567]","trial_type":"two-door-navigation","trial_index":36,"time_elapsed":1340219,"internal_node_id":"0.0-2.0-34.0"},{"group":"hexagon_tri","room_assignment":["red","grey","yellow","green","purple","blue"],"door_color_assignment":["black","white"],"door_generator_assignment":[1,0],"goal":0,"start":2,"action_noise":0.2,"location_history":"[2,3,2,1,3,2,3,4,2,3,4,2,1,3,4,2,1,5,4,2,1,5,0]","action_history":"[1,0,1,1,0,1,1,0,1,1,1,0,0,1,1,0,1,0,1,1,1,1]","door_history":"[0,1,0,0,1,0,0,1,0,0,0,1,1,0,0,1,0,1,0,0,0,0]","location_rts":"[4036,6235,1623,2357,2995,2519,933,1753,2186,1162,1019,1970,2200,1641,1111,3009,2241,1655,1181,1394,2293,2056]","trial_type":"two-door-navigation","trial_index":37,"time_elapsed":1413482,"internal_node_id":"0.0-2.0-35.0"},{"group":"hexagon_tri","room_assignment":["red","grey","yellow","green","purple","blue"],"door_color_assignment":["black","white"],"door_generator_assignment":[1,0],"goal":5,"start":0,"action_noise":0.2,"location_history":"[0,5]","action_history":"[0]","door_history":"[1]","location_rts":"[2198]","trial_type":"two-door-navigation","trial_index":38,"time_elapsed":1420198,"internal_node_id":"0.0-2.0-36.0"},{"group":"hexagon_tri","room_assignment":["red","grey","yellow","green","purple","blue"],"door_color_assignment":["black","white"],"door_generator_assignment":[1,0],"goal":2,"start":5,"action_noise":0.2,"location_history":"[5,4,0,5,0,1,3,2]","action_history":"[0,1,0,1,1,0,1]","door_history":"[1,0,1,0,0,1,0]","location_rts":"[2587,1278,3484,1741,876,1401,1083]","trial_type":"two-door-navigation","trial_index":39,"time_elapsed":1443221,"internal_node_id":"0.0-2.0-37.0"},{"group":"hexagon_tri","room_assignment":["red","grey","yellow","green","purple","blue"],"door_color_assignment":["black","white"],"door_generator_assignment":[1,0],"goal":1,"start":2,"action_noise":0.2,"location_history":"[2,3,2,3,4,0,1]","action_history":"[1,0,1,1,0,1]","door_history":"[0,1,0,0,1,0]","location_rts":"[2452,1459,1705,769,1382,1304]","trial_type":"two-door-navigation","trial_index":40,"time_elapsed":1461865,"internal_node_id":"0.0-2.0-38.0"},{"group":"hexagon_tri","room_assignment":["red","grey","yellow","green","purple","blue"],"door_color_assignment":["black","white"],"door_generator_assignment":[1,0],"goal":4,"start":1,"action_noise":0.2,"location_history":"[1,5,0,5,0,5,0,5,0,1,3,4]","action_history":"[1,1,0,0,1,0,0,1,1,0,1]","door_history":"[0,0,1,1,0,1,1,0,0,1,0]","location_rts":"[2143,2003,1075,1498,1272,1404,642,1880,1588,1668,1275]","trial_type":"two-door-navigation","trial_index":41,"time_elapsed":1492925,"internal_node_id":"0.0-2.0-39.0"},{"group":"hexagon_tri","room_assignment":["red","grey","yellow","green","purple","blue"],"door_color_assignment":["black","white"],"door_generator_assignment":[1,0],"goal":3,"start":4,"action_noise":0.2,"location_history":"[4,2,1,5,0,1,3]","action_history":"[1,0,0,1,1,0]","door_history":"[0,1,1,0,0,1]","location_rts":"[2418,1452,3283,2121,1351,2511]","trial_type":"two-door-navigation","trial_index":42,"time_elapsed":1515628,"internal_node_id":"0.0-2.0-40.0"},{"group":"hexagon_tri","room_assignment":["red","grey","yellow","green","purple","blue"],"door_color_assignment":["black","white"],"door_generator_assignment":[1,0],"goal":5,"start":3,"action_noise":0.2,"location_history":"[3,2,3,2,1,5]","action_history":"[0,1,1,0,1]","door_history":"[1,0,0,1,0]","location_rts":"[2874,1359,1427,2247,1678]","trial_type":"two-door-navigation","trial_index":43,"time_elapsed":1533770,"internal_node_id":"0.0-2.0-41.0"},{"group":"hexagon_tri","room_assignment":["red","grey","yellow","green","purple","blue"],"door_color_assignment":["black","white"],"door_generator_assignment":[1,0],"goal":3,"start":5,"action_noise":0.2,"location_history":"[5,0,1,5,0,5,4,2,3]","action_history":"[0,1,1,1,0,0,1,0]","door_history":"[1,0,0,0,1,1,0,1]","location_rts":"[2518,1289,1347,1760,1809,1176,1389,1395]","trial_type":"two-door-navigation","trial_index":44,"time_elapsed":1558040,"internal_node_id":"0.0-2.0-42.0"},{"group":"hexagon_tri","room_assignment":["red","grey","yellow","green","purple","blue"],"door_color_assignment":["black","white"],"door_generator_assignment":[1,0],"goal":0,"start":3,"action_noise":0.2,"location_history":"[3,2,1,5,4,0]","action_history":"[0,1,1,0,1]","door_history":"[1,0,0,1,0]","location_rts":"[2874,1586,1418,1465,1824]","trial_type":"two-door-navigation","trial_index":45,"time_elapsed":1575766,"internal_node_id":"0.0-2.0-43.0"},{"group":"hexagon_tri","room_assignment":["red","grey","yellow","green","purple","blue"],"door_color_assignment":["black","white"],"door_generator_assignment":[1,0],"goal":2,"start":0,"action_noise":0.2,"location_history":"[0,5,0,1,3,2]","action_history":"[0,1,1,0,1]","door_history":"[1,0,0,1,0]","location_rts":"[2368,1286,1496,1380,1642]","trial_type":"two-door-navigation","trial_index":46,"time_elapsed":1592486,"internal_node_id":"0.0-2.0-44.0"},{"group":"hexagon_tri","room_assignment":["red","grey","yellow","green","purple","blue"],"door_color_assignment":["black","white"],"door_generator_assignment":[1,0],"goal":4,"start":2,"action_noise":0.2,"location_history":"[2,1,5,0,5,4]","action_history":"[0,1,1,1,0]","door_history":"[1,0,0,0,1]","location_rts":"[2607,1186,1594,1990,1296]","trial_type":"two-door-navigation","trial_index":47,"time_elapsed":1609709,"internal_node_id":"0.0-2.0-45.0"},{"group":"hexagon_tri","room_assignment":["red","grey","yellow","green","purple","blue"],"door_color_assignment":["black","white"],"door_generator_assignment":[1,0],"goal":1,"start":4,"action_noise":0.2,"location_history":"[4,0,1]","action_history":"[1,1]","door_history":"[0,0]","location_rts":"[3137,1448]","trial_type":"two-door-navigation","trial_index":48,"time_elapsed":1619808,"internal_node_id":"0.0-2.0-46.0"},{"group":"hexagon_tri","room_assignment":["red","grey","yellow","green","purple","blue"],"door_color_assignment":["black","white"],"door_generator_assignment":[1,0],"goal":4,"start":1,"action_noise":0.2,"location_history":"[1,3,2,1,3,4]","action_history":"[0,1,0,0,1]","door_history":"[1,0,1,1,0]","location_rts":"[3918,1163,1762,1901,1314]","trial_type":"two-door-navigation","trial_index":49,"time_elapsed":1638410,"internal_node_id":"0.0-2.0-47.0"},{"group":"hexagon_tri","room_assignment":["red","grey","yellow","green","purple","blue"],"door_color_assignment":["black","white"],"door_generator_assignment":[1,0],"goal":1,"start":4,"action_noise":0.2,"location_history":"[4,2,1]","action_history":"[1,1]","door_history":"[0,0]","location_rts":"[2853,1577]","trial_type":"two-door-navigation","trial_index":50,"time_elapsed":1648359,"internal_node_id":"0.0-2.0-48.0"},{"group":"hexagon_tri","room_assignment":["red","grey","yellow","green","purple","blue"],"door_color_assignment":["black","white"],"door_generator_assignment":[1,0],"goal":3,"start":1,"action_noise":0.2,"location_history":"[1,5,4,0,5,4,2,1,5,4,0,5,4,0,1,3]","action_history":"[1,0,0,1,0,0,1,1,0,0,0,0,1,1,0]","door_history":"[0,1,1,0,1,1,0,0,1,1,1,1,0,0,1]","location_rts":"[3457,1229,2070,1475,2476,4455,1781,1820,1939,1465,1473,2715,1827,2632,1610]","trial_type":"two-door-navigation","trial_index":51,"time_elapsed":1699417,"internal_node_id":"0.0-2.0-49.0"},{"group":"hexagon_tri","room_assignment":["red","grey","yellow","green","purple","blue"],"door_color_assignment":["black","white"],"door_generator_assignment":[1,0],"goal":5,"start":3,"action_noise":0.2,"location_history":"[3,2,3,4,0,1,3,2,3,2,1,3,4,2,3,2,1,3,4,2,1,5]","action_history":"[0,1,1,0,0,0,1,1,0,0,0,1,1,1,0,0,0,1,1,1,1]","door_history":"[1,0,0,1,1,1,0,0,1,1,1,0,0,0,1,1,1,0,0,0,0]","location_rts":"[2840,1372,1514,1385,1458,1879,2058,1325,3089,1351,2249,1793,4148,2488,1301,2438,1775,1812,1696,1675,1913]","trial_type":"two-door-navigation","trial_index":52,"time_elapsed":1765642,"internal_node_id":"0.0-2.0-50.0"},{"group":"hexagon_tri","room_assignment":["red","grey","yellow","green","purple","blue"],"door_color_assignment":["black","white"],"door_generator_assignment":[1,0],"goal":0,"start":5,"action_noise":0.2,"location_history":"[5,4,2,3,2,1,3,2,1,5,4,2,3,2,3,4,0]","action_history":"[0,1,1,0,0,0,1,1,1,0,1,1,0,1,0,0]","door_history":"[1,0,0,1,1,1,0,0,0,1,0,0,1,0,1,1]","location_rts":"[5131,1358,1887,3211,1543,1798,1610,1811,2420,2484,2036,1322,2633,1345,4141,2179]","trial_type":"two-door-navigation","trial_index":53,"time_elapsed":1822183,"internal_node_id":"0.0-2.0-51.0"},{"group":"hexagon_tri","room_assignment":["red","grey","yellow","green","purple","blue"],"door_color_assignment":["black","white"],"door_generator_assignment":[1,0],"goal":2,"start":0,"action_noise":0.2,"location_history":"[0,1,5,0,1,5,4,0,1,5,0,5,4,0,1,5,0,1,3,2]","action_history":"[1,0,1,1,1,0,0,1,1,1,0,0,0,1,1,1,1,0,0]","door_history":"[0,1,0,0,0,1,1,0,0,0,1,1,1,0,0,0,0,1,1]","location_rts":"[2079,1454,1398,1417,1224,1528,2618,1720,1866,1753,2185,2686,2008,1844,1929,1609,2363,1704,1677]","trial_type":"two-door-navigation","trial_index":54,"time_elapsed":1879894,"internal_node_id":"0.0-2.0-52.0"},{"group":"hexagon_tri","room_assignment":["red","grey","yellow","green","purple","blue"],"door_color_assignment":["black","white"],"door_generator_assignment":[1,0],"goal":1,"start":2,"action_noise":0.2,"location_history":"[2,3,4,0,5,0,1]","action_history":"[1,1,0,0,1,1]","door_history":"[0,0,1,1,0,0]","location_rts":"[8509,2124,2208,1543,1352,4203]","trial_type":"two-door-navigation","trial_index":55,"time_elapsed":1909382,"internal_node_id":"0.0-2.0-53.0"},{"group":"hexagon_tri","room_assignment":["red","grey","yellow","green","purple","blue"],"door_color_assignment":["black","white"],"door_generator_assignment":[1,0],"goal":2,"start":1,"action_noise":0.2,"location_history":"[1,3,4,2]","action_history":"[0,0,1]","door_history":"[1,1,0]","location_rts":"[2132,1465,1468]","trial_type":"two-door-navigation","trial_index":56,"time_elapsed":1920969,"internal_node_id":"0.0-2.0-54.0"},{"group":"hexagon_tri","room_assignment":["red","grey","yellow","green","purple","blue"],"door_color_assignment":["black","white"],"door_generator_assignment":[1,0],"goal":5,"start":2,"action_noise":0.2,"location_history":"[2,3,2,1,5]","action_history":"[1,0,0,1]","door_history":"[0,1,1,0]","location_rts":"[2432,2075,2189,1392]","trial_type":"two-door-navigation","trial_index":57,"time_elapsed":1936589,"internal_node_id":"0.0-2.0-55.0"},{"group":"hexagon_tri","room_assignment":["red","grey","yellow","green","purple","blue"],"door_color_assignment":["black","white"],"door_generator_assignment":[1,0],"goal":4,"start":5,"action_noise":0.2,"location_history":"[5,4]","action_history":"[0]","door_history":"[1]","location_rts":"[2671]","trial_type":"two-door-navigation","trial_index":58,"time_elapsed":1943771,"internal_node_id":"0.0-2.0-56.0"},{"group":"hexagon_tri","room_assignment":["red","grey","yellow","green","purple","blue"],"door_color_assignment":["black","white"],"door_generator_assignment":[1,0],"goal":3,"start":4,"action_noise":0.2,"location_history":"[4,0,1,5,4,0,1,5,0,1,3]","action_history":"[0,1,1,0,0,1,1,1,1,0]","door_history":"[1,0,0,1,1,0,0,0,0,1]","location_rts":"[4037,1292,2676,1489,1748,1463,1762,1782,2061,3001]","trial_type":"two-door-navigation","trial_index":59,"time_elapsed":1978680,"internal_node_id":"0.0-2.0-57.0"},{"group":"hexagon_tri","room_assignment":["red","grey","yellow","green","purple","blue"],"door_color_assignment":["black","white"],"door_generator_assignment":[1,0],"goal":0,"start":3,"action_noise":0.2,"location_history":"[3,2,3,4,0]","action_history":"[1,1,0,0]","door_history":"[0,0,1,1]","location_rts":"[4440,3183,1288,2170]","trial_type":"two-door-navigation","trial_index":60,"time_elapsed":1997290,"internal_node_id":"0.0-2.0-58.0"},{"group":"hexagon_tri","room_assignment":["red","grey","yellow","green","purple","blue"],"door_color_assignment":["black","white"],"door_generator_assignment":[1,0],"goal":2,"start":0,"action_noise":0.2,"location_history":"[0,5,0,1,5,4,0,1,5,4,2]","action_history":"[1,1,1,0,0,0,1,1,0,1]","door_history":"[0,0,0,1,1,1,0,0,1,0]","location_rts":"[2236,1926,1426,2564,2151,1415,2244,1487,1998,2153]","trial_type":"two-door-navigation","trial_index":61,"time_elapsed":2030469,"internal_node_id":"0.0-2.0-59.0"},{"group":"hexagon_tri","room_assignment":["red","grey","yellow","green","purple","blue"],"door_color_assignment":["black","white"],"door_generator_assignment":[1,0],"goal":1,"start":2,"action_noise":0.2,"location_history":"[2,1]","action_history":"[0]","door_history":"[1]","location_rts":"[4318]","trial_type":"two-door-navigation","trial_index":62,"time_elapsed":2039296,"internal_node_id":"0.0-2.0-60.0"},{"group":"hexagon_tri","room_assignment":["red","grey","yellow","green","purple","blue"],"door_color_assignment":["black","white"],"door_generator_assignment":[1,0],"goal":0,"start":1,"action_noise":0.2,"location_history":"[1,5,0]","action_history":"[1,1]","door_history":"[0,0]","location_rts":"[2590,1397]","trial_type":"two-door-navigation","trial_index":63,"time_elapsed":2048802,"internal_node_id":"0.0-2.0-61.0"},{"group":"hexagon_tri","room_assignment":["red","grey","yellow","green","purple","blue"],"door_color_assignment":["black","white"],"door_generator_assignment":[1,0],"goal":3,"start":0,"action_noise":0.2,"location_history":"[0,1,3]","action_history":"[1,0]","door_history":"[0,1]","location_rts":"[2662,2003]","trial_type":"two-door-navigation","trial_index":64,"time_elapsed":2058992,"internal_node_id":"0.0-2.0-62.0"},{"group":"hexagon_tri","room_assignment":["red","grey","yellow","green","purple","blue"],"door_color_assignment":["black","white"],"door_generator_assignment":[1,0],"goal":5,"start":3,"action_noise":0.2,"location_history":"[3,2,3,2,1,5]","action_history":"[1,1,0,0,1]","door_history":"[0,0,1,1,0]","location_rts":"[2141,1350,1575,2281,1448]","trial_type":"two-door-navigation","trial_index":65,"time_elapsed":2076335,"internal_node_id":"0.0-2.0-63.0"},{"group":"hexagon_tri","room_assignment":["red","grey","yellow","green","purple","blue"],"door_color_assignment":["black","white"],"door_generator_assignment":[1,0],"goal":4,"start":5,"action_noise":0.2,"location_history":"[5,0,1,3,2,3,4]","action_history":"[1,0,0,0,1,1]","door_history":"[0,1,1,1,0,0]","location_rts":"[2883,1712,1473,1645,1425,2413]","trial_type":"two-door-navigation","trial_index":66,"time_elapsed":2097433,"internal_node_id":"0.0-2.0-64.0"},{"group":"hexagon_tri","room_assignment":["red","grey","yellow","green","purple","blue"],"door_color_assignment":["black","white"],"door_generator_assignment":[1,0],"goal":1,"start":4,"action_noise":0.2,"location_history":"[4,2,1]","action_history":"[0,0]","door_history":"[1,1]","location_rts":"[3065,1490]","trial_type":"two-door-navigation","trial_index":67,"time_elapsed":2107505,"internal_node_id":"0.0-2.0-65.0"},{"group":"hexagon_tri","room_assignment":["red","grey","yellow","green","purple","blue"],"door_color_assignment":["black","white"],"door_generator_assignment":[1,0],"goal":5,"start":1,"action_noise":0.2,"location_history":"[1,5]","action_history":"[1]","door_history":"[0]","location_rts":"[2588]","trial_type":"two-door-navigation","trial_index":68,"time_elapsed":2114604,"internal_node_id":"0.0-2.0-66.0"},{"group":"hexagon_tri","room_assignment":["red","grey","yellow","green","purple","blue"],"door_color_assignment":["black","white"],"door_generator_assignment":[1,0],"goal":2,"start":5,"action_noise":0.2,"location_history":"[5,4,0,5,4,2]","action_history":"[0,1,0,0,1]","door_history":"[1,0,1,1,0]","location_rts":"[2245,1480,1465,1752,1415]","trial_type":"two-door-navigation","trial_index":69,"time_elapsed":2131509,"internal_node_id":"0.0-2.0-67.0"},{"group":"hexagon_tri","room_assignment":["red","grey","yellow","green","purple","blue"],"door_color_assignment":["black","white"],"door_generator_assignment":[1,0],"goal":3,"start":2,"action_noise":0.2,"location_history":"[2,3]","action_history":"[1]","door_history":"[0]","location_rts":"[1791]","trial_type":"two-door-navigation","trial_index":70,"time_elapsed":2137812,"internal_node_id":"0.0-2.0-68.0"},{"group":"hexagon_tri","room_assignment":["red","grey","yellow","green","purple","blue"],"door_color_assignment":["black","white"],"door_generator_assignment":[1,0],"goal":4,"start":3,"action_noise":0.2,"location_history":"[3,4]","action_history":"[1]","door_history":"[0]","location_rts":"[1865]","trial_type":"two-door-navigation","trial_index":71,"time_elapsed":2144195,"internal_node_id":"0.0-2.0-69.0"},{"group":"hexagon_tri","room_assignment":["red","grey","yellow","green","purple","blue"],"door_color_assignment":["black","white"],"door_generator_assignment":[1,0],"goal":0,"start":4,"action_noise":0.2,"location_history":"[4,0]","action_history":"[0]","door_history":"[1]","location_rts":"[2003]","trial_type":"two-door-navigation","trial_index":72,"time_elapsed":2150709,"internal_node_id":"0.0-2.0-70.0"},{"group":"hexagon_tri","room_assignment":["red","grey","yellow","green","purple","blue"],"door_color_assignment":["black","white"],"door_generator_assignment":[1,0],"goal":5,"start":0,"action_noise":0.2,"location_history":"[0,1,5]","action_history":"[1,1]","door_history":"[0,0]","location_rts":"[2051,1574]","trial_type":"two-door-navigation","trial_index":73,"time_elapsed":2159848,"internal_node_id":"0.0-2.0-71.0"},{"group":"hexagon_tri","room_assignment":["red","grey","yellow","green","purple","blue"],"door_color_assignment":["black","white"],"door_generator_assignment":[1,0],"goal":0,"start":5,"action_noise":0.2,"location_history":"[5,4,2,1,3,4,2,3,4,0]","action_history":"[0,1,0,0,1,1,1,0,0]","door_history":"[1,0,1,1,0,0,0,1,1]","location_rts":"[2418,1572,1757,1896,1996,1597,2358,2465,1229]","trial_type":"two-door-navigation","trial_index":74,"time_elapsed":2189704,"internal_node_id":"0.0-2.0-72.0"},{"group":"hexagon_tri","room_assignment":["red","grey","yellow","green","purple","blue"],"door_color_assignment":["black","white"],"door_generator_assignment":[1,0],"goal":3,"start":0,"action_noise":0.2,"location_history":"[0,5,0,1,3]","action_history":"[0,1,1,0]","door_history":"[1,0,0,1]","location_rts":"[4224,2569,1506,1399]","trial_type":"two-door-navigation","trial_index":75,"time_elapsed":2206935,"internal_node_id":"0.0-2.0-73.0"},{"group":"hexagon_tri","room_assignment":["red","grey","yellow","green","purple","blue"],"door_color_assignment":["black","white"],"door_generator_assignment":[1,0],"goal":1,"start":3,"action_noise":0.2,"location_history":"[3,4,0,5,0,5,0,5,4,2,1]","action_history":"[1,0,0,1,1,0,0,0,1,0]","door_history":"[0,1,1,0,0,1,1,1,0,1]","location_rts":"[1773,1440,1310,2182,1426,1389,1437,1775,2003,1906]","trial_type":"two-door-navigation","trial_index":76,"time_elapsed":2237157,"internal_node_id":"0.0-2.0-74.0"},{"group":"hexagon_tri","room_assignment":["red","grey","yellow","green","purple","blue"],"door_color_assignment":["black","white"],"door_generator_assignment":[1,0],"goal":2,"start":1,"action_noise":0.2,"location_history":"[1,3,2]","action_history":"[1,0]","door_history":"[0,1]","location_rts":"[1623,1400]","trial_type":"two-door-navigation","trial_index":77,"time_elapsed":2245696,"internal_node_id":"0.0-2.0-75.0"},{"group":"hexagon_tri","room_assignment":["red","grey","yellow","green","purple","blue"],"door_color_assignment":["black","white"],"door_generator_assignment":[1,0],"goal":4,"start":2,"action_noise":0.2,"location_history":"[2,3,4]","action_history":"[1,1]","door_history":"[0,0]","location_rts":"[2079,1539]","trial_type":"two-door-navigation","trial_index":78,"time_elapsed":2254836,"internal_node_id":"0.0-2.0-76.0"},{"group":"hexagon_tri","room_assignment":["red","grey","yellow","green","purple","blue"],"door_color_assignment":["black","white"],"door_generator_assignment":[1,0],"goal":3,"start":4,"action_noise":0.2,"location_history":"[4,0,5,0,1,3]","action_history":"[0,0,1,1,0]","door_history":"[1,1,0,0,1]","location_rts":"[4829,1335,1196,1408,1358]","trial_type":"two-door-navigation","trial_index":79,"time_elapsed":2273500,"internal_node_id":"0.0-2.0-77.0"},{"group":"hexagon_tri","room_assignment":["red","grey","yellow","green","purple","blue"],"door_color_assignment":["black","white"],"door_generator_assignment":[1,0],"goal":0,"start":3,"action_noise":0.2,"location_history":"[3,4,2,3,2,3,2,1,5,0]","action_history":"[1,0,1,0,0,0,0,1,0]","door_history":"[0,1,0,1,1,1,1,0,1]","location_rts":"[1806,1151,1327,1252,1020,1537,1621,1824,1261]","trial_type":"two-door-navigation","trial_index":80,"time_elapsed":2298874,"internal_node_id":"0.0-2.0-78.0"},{"group":"hexagon_tri","room_assignment":["red","grey","yellow","green","purple","blue"],"door_color_assignment":["black","white"],"door_generator_assignment":[1,0],"goal":4,"start":0,"action_noise":0.2,"location_history":"[0,5,0,1,5,4]","action_history":"[0,1,1,1,0]","door_history":"[1,0,0,0,1]","location_rts":"[2770,1239,1478,1703,1283]","trial_type":"two-door-navigation","trial_index":81,"time_elapsed":2315899,"internal_node_id":"0.0-2.0-79.0"},{"group":"hexagon_tri","room_assignment":["red","grey","yellow","green","purple","blue"],"door_color_assignment":["black","white"],"door_generator_assignment":[1,0],"goal":5,"start":4,"action_noise":0.2,"location_history":"[4,0,1,5]","action_history":"[0,1,1]","door_history":"[1,0,0]","location_rts":"[1656,1052,1140]","trial_type":"two-door-navigation","trial_index":82,"time_elapsed":2326282,"internal_node_id":"0.0-2.0-80.0"},{"group":"hexagon_tri","room_assignment":["red","grey","yellow","green","purple","blue"],"door_color_assignment":["black","white"],"door_generator_assignment":[1,0],"goal":1,"start":5,"action_noise":0.2,"location_history":"[5,4,2,3,4,0,1]","action_history":"[1,0,1,1,0,0]","door_history":"[0,1,0,0,1,1]","location_rts":"[2551,1210,1980,1619,2508,1558]","trial_type":"two-door-navigation","trial_index":83,"time_elapsed":2347269,"internal_node_id":"0.0-2.0-81.0"},{"group":"hexagon_tri","room_assignment":["red","grey","yellow","green","purple","blue"],"door_color_assignment":["black","white"],"door_generator_assignment":[1,0],"goal":2,"start":1,"action_noise":0.2,"location_history":"[1,3,4,2]","action_history":"[0,1,1]","door_history":"[1,0,0]","location_rts":"[3632,1144,1294]","trial_type":"two-door-navigation","trial_index":84,"time_elapsed":2359885,"internal_node_id":"0.0-2.0-82.0"},{"group":"hexagon_tri","room_assignment":["red","grey","yellow","green","purple","blue"],"door_color_assignment":["black","white"],"door_generator_assignment":[1,0],"goal":4,"start":2,"action_noise":0.2,"location_history":"[2,3,4]","action_history":"[1,1]","door_history":"[0,0]","location_rts":"[3948,1375]","trial_type":"two-door-navigation","trial_index":85,"time_elapsed":2370735,"internal_node_id":"0.0-2.0-83.0"},{"group":"hexagon_tri","room_assignment":["red","grey","yellow","green","purple","blue"],"door_color_assignment":["black","white"],"door_generator_assignment":[1,0],"goal":0,"start":4,"action_noise":0.2,"location_history":"[4,2,1,5,0]","action_history":"[1,0,0,0]","door_history":"[0,1,1,1]","location_rts":"[3123,1209,1299,1375]","trial_type":"two-door-navigation","trial_index":86,"time_elapsed":2385285,"internal_node_id":"0.0-2.0-84.0"},{"group":"hexagon_tri","room_assignment":["red","grey","yellow","green","purple","blue"],"door_color_assignment":["black","white"],"door_generator_assignment":[1,0],"goal":5,"start":0,"action_noise":0.2,"location_history":"[0,1,5]","action_history":"[1,1]","door_history":"[0,0]","location_rts":"[2403,1944]","trial_type":"two-door-navigation","trial_index":87,"time_elapsed":2395154,"internal_node_id":"0.0-2.0-85.0"},{"group":"hexagon_tri","room_assignment":["red","grey","yellow","green","purple","blue"],"door_color_assignment":["black","white"],"door_generator_assignment":[1,0],"goal":3,"start":5,"action_noise":0.2,"location_history":"[5,4,0,1,5,0,1,5,0,5,0,5,4,2,3]","action_history":"[0,0,1,0,1,1,1,1,0,0,0,0,1,1]","door_history":"[1,1,0,1,0,0,0,0,1,1,1,1,0,0]","location_rts":"[3542,1225,1218,1221,1982,1350,1968,1687,2200,1420,1659,2850,1277,1457]","trial_type":"two-door-navigation","trial_index":88,"time_elapsed":2437847,"internal_node_id":"0.0-2.0-86.0"},{"group":"hexagon_tri","room_assignment":["red","grey","yellow","green","purple","blue"],"door_color_assignment":["black","white"],"door_generator_assignment":[1,0],"goal":1,"start":3,"action_noise":0.2,"location_history":"[3,4,2,3,4,0,1]","action_history":"[1,0,1,1,0,1]","door_history":"[0,1,0,0,1,0]","location_rts":"[2870,1536,1255,1209,1760,1253]","trial_type":"two-door-navigation","trial_index":89,"time_elapsed":2457291,"internal_node_id":"0.0-2.0-87.0"},{"group":"hexagon_tri","room_assignment":["red","grey","yellow","green","purple","blue"],"door_color_assignment":["black","white"],"door_generator_assignment":[1,0],"goal":2,"start":1,"action_noise":0.2,"location_history":"[1,3,2]","action_history":"[0,0]","door_history":"[1,1]","location_rts":"[2517,1419]","trial_type":"two-door-navigation","trial_index":90,"time_elapsed":2466749,"internal_node_id":"0.0-2.0-88.0"},{"group":"hexagon_tri","room_assignment":["red","grey","yellow","green","purple","blue"],"door_color_assignment":["black","white"],"door_generator_assignment":[1,0],"goal":0,"start":2,"action_noise":0.2,"location_history":"[2,1,5,0]","action_history":"[0,1,1]","door_history":"[1,0,0]","location_rts":"[2110,1102,2094]","trial_type":"two-door-navigation","trial_index":91,"time_elapsed":2478596,"internal_node_id":"0.0-2.0-89.0"},{"group":"hexagon_tri","room_assignment":["red","grey","yellow","green","purple","blue"],"door_color_assignment":["black","white"],"door_generator_assignment":[1,0],"goal":5,"start":0,"action_noise":0.2,"location_history":"[0,5]","action_history":"[0]","door_history":"[1]","location_rts":"[3234]","trial_type":"two-door-navigation","trial_index":92,"time_elapsed":2486358,"internal_node_id":"0.0-2.0-90.0"},{"group":"hexagon_tri","room_assignment":["red","grey","yellow","green","purple","blue"],"door_color_assignment":["black","white"],"door_generator_assignment":[1,0],"goal":1,"start":5,"action_noise":0.2,"location_history":"[5,4,0,1]","action_history":"[0,1,1]","door_history":"[1,0,0]","location_rts":"[1947,1138,1278]","trial_type":"two-door-navigation","trial_index":93,"time_elapsed":2497249,"internal_node_id":"0.0-2.0-91.0"},{"group":"hexagon_tri","room_assignment":["red","grey","yellow","green","purple","blue"],"door_color_assignment":["black","white"],"door_generator_assignment":[1,0],"goal":3,"start":1,"action_noise":0.2,"location_history":"[1,5,0,1,5,0,5,4,0,1,3]","action_history":"[1,0,0,1,1,0,0,0,0,1]","door_history":"[0,1,1,0,0,1,1,1,1,0]","location_rts":"[2744,1232,1101,2086,2913,2199,1049,1784,1472,1694]","trial_type":"two-door-navigation","trial_index":94,"time_elapsed":2529090,"internal_node_id":"0.0-2.0-92.0"},{"group":"hexagon_tri","room_assignment":["red","grey","yellow","green","purple","blue"],"door_color_assignment":["black","white"],"door_generator_assignment":[1,0],"goal":4,"start":3,"action_noise":0.2,"location_history":"[3,2,3,4]","action_history":"[0,1,1]","door_history":"[1,0,0]","location_rts":"[2596,1241,1834]","trial_type":"two-door-navigation","trial_index":95,"time_elapsed":2541292,"internal_node_id":"0.0-2.0-93.0"},{"group":"hexagon_tri","room_assignment":["red","grey","yellow","green","purple","blue"],"door_color_assignment":["black","white"],"door_generator_assignment":[1,0],"goal":2,"start":4,"action_noise":0.2,"location_history":"[4,0,5,0,1,3,2]","action_history":"[0,0,1,1,0,0]","door_history":"[1,1,0,0,1,1]","location_rts":"[1685,1341,2080,1372,1359,1358]","trial_type":"two-door-navigation","trial_index":96,"time_elapsed":2560029,"internal_node_id":"0.0-2.0-94.0"},{"group":"hexagon_tri","room_assignment":["red","grey","yellow","green","purple","blue"],"door_color_assignment":["black","white"],"door_generator_assignment":[1,0],"goal":4,"start":2,"action_noise":0.2,"location_history":"[2,1,5,4]","action_history":"[1,1,0]","door_history":"[0,0,1]","location_rts":"[2190,1122,1585]","trial_type":"two-door-navigation","trial_index":97,"time_elapsed":2571456,"internal_node_id":"0.0-2.0-95.0"},{"group":"hexagon_tri","room_assignment":["red","grey","yellow","green","purple","blue"],"door_color_assignment":["black","white"],"door_generator_assignment":[1,0],"goal":0,"start":4,"action_noise":0.2,"location_history":"[4,0]","action_history":"[1]","door_history":"[0]","location_rts":"[2286]","trial_type":"two-door-navigation","trial_index":98,"time_elapsed":2578250,"internal_node_id":"0.0-2.0-96.0"},{"group":"hexagon_tri","room_assignment":["red","grey","yellow","green","purple","blue"],"door_color_assignment":["black","white"],"door_generator_assignment":[1,0],"goal":5,"start":0,"action_noise":0.2,"location_history":"[0,1,5]","action_history":"[1,0]","door_history":"[0,1]","location_rts":"[1865,1294]","trial_type":"two-door-navigation","trial_index":99,"time_elapsed":2586931,"internal_node_id":"0.0-2.0-97.0"},{"group":"hexagon_tri","room_assignment":["red","grey","yellow","green","purple","blue"],"door_color_assignment":["black","white"],"door_generator_assignment":[1,0],"goal":1,"start":5,"action_noise":0.2,"location_history":"[5,4,2,1]","action_history":"[1,1,0]","door_history":"[0,0,1]","location_rts":"[1531,1164,1184]","trial_type":"two-door-navigation","trial_index":100,"time_elapsed":2597343,"internal_node_id":"0.0-2.0-98.0"},{"group":"hexagon_tri","room_assignment":["red","grey","yellow","green","purple","blue"],"door_color_assignment":["black","white"],"door_generator_assignment":[1,0],"goal":3,"start":1,"action_noise":0.2,"location_history":"[1,3]","action_history":"[0]","door_history":"[1]","location_rts":"[2180]","trial_type":"two-door-navigation","trial_index":101,"time_elapsed":2604033,"internal_node_id":"0.0-2.0-99.0"},{"view_history":"[{\"page_index\":0,\"viewing_time\":4355}]","rt":4357,"trial_type":"instructions","trial_index":102,"time_elapsed":2609391,"internal_node_id":"0.0-3.0"},{"view_history":"[{\"page_index\":0,\"viewing_time\":4418},{\"page_index\":1,\"viewing_time\":39858}]","rt":44276,"trial_type":"instructions","trial_index":103,"time_elapsed":2654667,"internal_node_id":"0.0-4.0"},{"group":"hexagon_bi","fractal_assignment":["../images/ylw_slt.png","../images/pnk_blu.png","../images/cyn_red.png","../images/blu_wht.png","../images/gry_blk.png","../images/org_blu.png"],"mutagen_generator_assignment":[0,1],"goal":4,"start":0,"action_noise":0.2,"location_history":"[0,1,2,1,2,1,2,1,2,1,0,5,4]","action_history":"[1,0,0,1,1,0,0,0,1,1,0,1]","mutagen_history":"[1,0,0,1,1,0,0,0,1,1,0,1]","location_rts":"[13130,5290,1835,2892,1287,2159,1218,3152,1932,1329,2775,3431]","trial_type":"fractal-mutation","trial_index":104,"time_elapsed":2712900,"internal_node_id":"0.0-5.0-0.0"},{"group":"hexagon_bi","fractal_assignment":["../images/ylw_slt.png","../images/pnk_blu.png","../images/cyn_red.png","../images/blu_wht.png","../images/gry_blk.png","../images/org_blu.png"],"mutagen_generator_assignment":[0,1],"goal":3,"start":4,"action_noise":0.2,"location_history":"[4,5,4,3]","action_history":"[1,1,1]","mutagen_history":"[1,1,1]","location_rts":"[3499,1430,1009]","trial_type":"fractal-mutation","trial_index":105,"time_elapsed":2725879,"internal_node_id":"0.0-5.0-1.0"},{"group":"hexagon_bi","fractal_assignment":["../images/ylw_slt.png","../images/pnk_blu.png","../images/cyn_red.png","../images/blu_wht.png","../images/gry_blk.png","../images/org_blu.png"],"mutagen_generator_assignment":[0,1],"goal":5,"start":3,"action_noise":0.2,"location_history":"[3,4,3,2,3,2,3,4,5]","action_history":"[1,1,0,0,1,0,0,1]","mutagen_history":"[1,1,0,0,1,0,0,1]","location_rts":"[2109,1166,998,883,952,1722,2282,1423]","trial_type":"fractal-mutation","trial_index":106,"time_elapsed":2750007,"internal_node_id":"0.0-5.0-2.0"},{"group":"hexagon_bi","fractal_assignment":["../images/ylw_slt.png","../images/pnk_blu.png","../images/cyn_red.png","../images/blu_wht.png","../images/gry_blk.png","../images/org_blu.png"],"mutagen_generator_assignment":[0,1],"goal":2,"start":5,"action_noise":0.2,"location_history":"[5,0,1,2]","action_history":"[1,1,0]","mutagen_history":"[1,1,0]","location_rts":"[2252,1200,1339]","trial_type":"fractal-mutation","trial_index":107,"time_elapsed":2761743,"internal_node_id":"0.0-5.0-3.0"},{"group":"hexagon_bi","fractal_assignment":["../images/ylw_slt.png","../images/pnk_blu.png","../images/cyn_red.png","../images/blu_wht.png","../images/gry_blk.png","../images/org_blu.png"],"mutagen_generator_assignment":[0,1],"goal":1,"start":2,"action_noise":0.2,"location_history":"[2,3,2,1]","action_history":"[1,1,0]","mutagen_history":"[1,1,0]","location_rts":"[1996,584,1254]","trial_type":"fractal-mutation","trial_index":108,"time_elapsed":2772529,"internal_node_id":"0.0-5.0-4.0"},{"group":"hexagon_bi","fractal_assignment":["../images/ylw_slt.png","../images/pnk_blu.png","../images/cyn_red.png","../images/blu_wht.png","../images/gry_blk.png","../images/org_blu.png"],"mutagen_generator_assignment":[0,1],"goal":4,"start":1,"action_noise":0.2,"location_history":"[1,2,1,0,1,2,1,2,3,4]","action_history":"[0,1,0,0,0,0,0,1,0]","mutagen_history":"[0,1,0,0,0,0,0,1,0]","location_rts":"[1972,572,1443,682,1411,1551,1128,368,1169]","trial_type":"fractal-mutation","trial_index":109,"time_elapsed":2796346,"internal_node_id":"0.0-5.0-5.0"},{"group":"hexagon_bi","fractal_assignment":["../images/ylw_slt.png","../images/pnk_blu.png","../images/cyn_red.png","../images/blu_wht.png","../images/gry_blk.png","../images/org_blu.png"],"mutagen_generator_assignment":[0,1],"goal":1,"start":4,"action_noise":0.2,"location_history":"[4,5,4,5,0,1]","action_history":"[1,1,1,0,1]","mutagen_history":"[1,1,1,0,1]","location_rts":"[2911,750,1922,1298,853]","trial_type":"fractal-mutation","trial_index":110,"time_elapsed":2813382,"internal_node_id":"0.0-5.0-6.0"},{"group":"hexagon_bi","fractal_assignment":["../images/ylw_slt.png","../images/pnk_blu.png","../images/cyn_red.png","../images/blu_wht.png","../images/gry_blk.png","../images/org_blu.png"],"mutagen_generator_assignment":[0,1],"goal":5,"start":1,"action_noise":0.2,"location_history":"[1,0,1,2,1,0,5]","action_history":"[1,1,0,1,1,0]","mutagen_history":"[1,1,0,1,1,0]","location_rts":"[3587,812,1024,852,2207,970]","trial_type":"fractal-mutation","trial_index":111,"time_elapsed":2833225,"internal_node_id":"0.0-5.0-7.0"},{"group":"hexagon_bi","fractal_assignment":["../images/ylw_slt.png","../images/pnk_blu.png","../images/cyn_red.png","../images/blu_wht.png","../images/gry_blk.png","../images/org_blu.png"],"mutagen_generator_assignment":[0,1],"goal":0,"start":5,"action_noise":0.2,"location_history":"[5,0]","action_history":"[1]","mutagen_history":"[1]","location_rts":"[2238]","trial_type":"fractal-mutation","trial_index":112,"time_elapsed":2840143,"internal_node_id":"0.0-5.0-8.0"},{"group":"hexagon_bi","fractal_assignment":["../images/ylw_slt.png","../images/pnk_blu.png","../images/cyn_red.png","../images/blu_wht.png","../images/gry_blk.png","../images/org_blu.png"],"mutagen_generator_assignment":[0,1],"goal":2,"start":0,"action_noise":0.2,"location_history":"[0,5,4,3,2]","action_history":"[0,0,0,0]","mutagen_history":"[0,0,0,0]","location_rts":"[2140,774,947,811]","trial_type":"fractal-mutation","trial_index":113,"time_elapsed":2852696,"internal_node_id":"0.0-5.0-9.0"},{"group":"hexagon_bi","fractal_assignment":["../images/ylw_slt.png","../images/pnk_blu.png","../images/cyn_red.png","../images/blu_wht.png","../images/gry_blk.png","../images/org_blu.png"],"mutagen_generator_assignment":[0,1],"goal":3,"start":2,"action_noise":0.2,"location_history":"[2,1,0,1,2,3]","action_history":"[0,1,1,0,1]","mutagen_history":"[0,1,1,0,1]","location_rts":"[3059,932,1017,1871,609]","trial_type":"fractal-mutation","trial_index":114,"time_elapsed":2869386,"internal_node_id":"0.0-5.0-10.0"},{"group":"hexagon_bi","fractal_assignment":["../images/ylw_slt.png","../images/pnk_blu.png","../images/cyn_red.png","../images/blu_wht.png","../images/gry_blk.png","../images/org_blu.png"],"mutagen_generator_assignment":[0,1],"goal":0,"start":3,"action_noise":0.2,"location_history":"[3,4,5,4,5,0]","action_history":"[0,0,1,1,0]","mutagen_history":"[0,0,1,1,0]","location_rts":"[1363,735,1276,924,1479]","trial_type":"fractal-mutation","trial_index":115,"time_elapsed":2884295,"internal_node_id":"0.0-5.0-11.0"},{"group":"hexagon_bi","fractal_assignment":["../images/ylw_slt.png","../images/pnk_blu.png","../images/cyn_red.png","../images/blu_wht.png","../images/gry_blk.png","../images/org_blu.png"],"mutagen_generator_assignment":[0,1],"goal":2,"start":0,"action_noise":0.2,"location_history":"[0,5,0,1,2]","action_history":"[0,0,1,0]","mutagen_history":"[0,0,1,0]","location_rts":"[1592,657,1058,541]","trial_type":"fractal-mutation","trial_index":116,"time_elapsed":2896109,"internal_node_id":"0.0-5.0-12.0"},{"group":"hexagon_bi","fractal_assignment":["../images/ylw_slt.png","../images/pnk_blu.png","../images/cyn_red.png","../images/blu_wht.png","../images/gry_blk.png","../images/org_blu.png"],"mutagen_generator_assignment":[0,1],"goal":5,"start":2,"action_noise":0.2,"location_history":"[2,3,2,1,0,1,2,1,0,1,0,5]","action_history":"[1,1,0,1,1,0,0,0,1,0,0]","mutagen_history":"[1,1,0,1,1,0,0,0,1,0,0]","location_rts":"[2180,796,919,718,715,1022,643,1079,715,961,566]","trial_type":"fractal-mutation","trial_index":117,"time_elapsed":2922366,"internal_node_id":"0.0-5.0-13.0"},{"group":"hexagon_bi","fractal_assignment":["../images/ylw_slt.png","../images/pnk_blu.png","../images/cyn_red.png","../images/blu_wht.png","../images/gry_blk.png","../images/org_blu.png"],"mutagen_generator_assignment":[0,1],"goal":4,"start":5,"action_noise":0.2,"location_history":"[5,4]","action_history":"[1]","mutagen_history":"[1]","location_rts":"[1829]","trial_type":"fractal-mutation","trial_index":118,"time_elapsed":2928869,"internal_node_id":"0.0-5.0-14.0"},{"group":"hexagon_bi","fractal_assignment":["../images/ylw_slt.png","../images/pnk_blu.png","../images/cyn_red.png","../images/blu_wht.png","../images/gry_blk.png","../images/org_blu.png"],"mutagen_generator_assignment":[0,1],"goal":3,"start":4,"action_noise":0.2,"location_history":"[4,3]","action_history":"[0]","mutagen_history":"[0]","location_rts":"[2383]","trial_type":"fractal-mutation","trial_index":119,"time_elapsed":2935852,"internal_node_id":"0.0-5.0-15.0"},{"group":"hexagon_bi","fractal_assignment":["../images/ylw_slt.png","../images/pnk_blu.png","../images/cyn_red.png","../images/blu_wht.png","../images/gry_blk.png","../images/org_blu.png"],"mutagen_generator_assignment":[0,1],"goal":1,"start":3,"action_noise":0.2,"location_history":"[3,4,5,4,5,4,5,0,5,4,3,4,3,4,3,2,1]","action_history":"[0,1,1,1,0,0,1,0,0,1,0,0,1,1,1,0]","mutagen_history":"[0,1,1,1,0,0,1,0,0,1,0,0,1,1,1,0]","location_rts":"[1370,815,879,1329,679,840,1144,1265,1688,835,1035,1312,1739,664,990,1337]","trial_type":"fractal-mutation","trial_index":120,"time_elapsed":2975432,"internal_node_id":"0.0-5.0-16.0"},{"group":"hexagon_bi","fractal_assignment":["../images/ylw_slt.png","../images/pnk_blu.png","../images/cyn_red.png","../images/blu_wht.png","../images/gry_blk.png","../images/org_blu.png"],"mutagen_generator_assignment":[0,1],"goal":5,"start":1,"action_noise":0.2,"location_history":"[1,2,3,4,3,4,3,4,3,4,3,2,1,2,1,0,5]","action_history":"[0,1,1,1,0,0,0,0,1,0,1,0,0,1,1,0]","mutagen_history":"[0,1,1,1,0,0,0,0,1,0,1,0,0,1,1,0]","location_rts":"[1914,562,878,1415,897,896,1154,707,348,1190,1252,956,1411,745,1949,869]","trial_type":"fractal-mutation","trial_index":121,"time_elapsed":3014128,"internal_node_id":"0.0-5.0-17.0"},{"group":"hexagon_bi","fractal_assignment":["../images/ylw_slt.png","../images/pnk_blu.png","../images/cyn_red.png","../images/blu_wht.png","../images/gry_blk.png","../images/org_blu.png"],"mutagen_generator_assignment":[0,1],"goal":4,"start":5,"action_noise":0.2,"location_history":"[5,4]","action_history":"[1]","mutagen_history":"[1]","location_rts":"[2816]","trial_type":"fractal-mutation","trial_index":122,"time_elapsed":3021612,"internal_node_id":"0.0-5.0-18.0"},{"group":"hexagon_bi","fractal_assignment":["../images/ylw_slt.png","../images/pnk_blu.png","../images/cyn_red.png","../images/blu_wht.png","../images/gry_blk.png","../images/org_blu.png"],"mutagen_generator_assignment":[0,1],"goal":0,"start":4,"action_noise":0.2,"location_history":"[4,5,0]","action_history":"[0,0]","mutagen_history":"[0,0]","location_rts":"[1365,895]","trial_type":"fractal-mutation","trial_index":123,"time_elapsed":3029565,"internal_node_id":"0.0-5.0-19.0"},{"group":"hexagon_bi","fractal_assignment":["../images/ylw_slt.png","../images/pnk_blu.png","../images/cyn_red.png","../images/blu_wht.png","../images/gry_blk.png","../images/org_blu.png"],"mutagen_generator_assignment":[0,1],"goal":1,"start":0,"action_noise":0.2,"location_history":"[0,1]","action_history":"[0]","mutagen_history":"[0]","location_rts":"[1464]","trial_type":"fractal-mutation","trial_index":124,"time_elapsed":3035635,"internal_node_id":"0.0-5.0-20.0"},{"group":"hexagon_bi","fractal_assignment":["../images/ylw_slt.png","../images/pnk_blu.png","../images/cyn_red.png","../images/blu_wht.png","../images/gry_blk.png","../images/org_blu.png"],"mutagen_generator_assignment":[0,1],"goal":3,"start":1,"action_noise":0.2,"location_history":"[1,2,3]","action_history":"[0,1]","mutagen_history":"[0,1]","location_rts":"[2546,492]","trial_type":"fractal-mutation","trial_index":125,"time_elapsed":3044447,"internal_node_id":"0.0-5.0-21.0"},{"group":"hexagon_bi","fractal_assignment":["../images/ylw_slt.png","../images/pnk_blu.png","../images/cyn_red.png","../images/blu_wht.png","../images/gry_blk.png","../images/org_blu.png"],"mutagen_generator_assignment":[0,1],"goal":2,"start":3,"action_noise":0.2,"location_history":"[3,4,3,2]","action_history":"[0,1,1]","mutagen_history":"[0,1,1]","location_rts":"[2479,695,951]","trial_type":"fractal-mutation","trial_index":126,"time_elapsed":3055530,"internal_node_id":"0.0-5.0-22.0"},{"group":"hexagon_bi","fractal_assignment":["../images/ylw_slt.png","../images/pnk_blu.png","../images/cyn_red.png","../images/blu_wht.png","../images/gry_blk.png","../images/org_blu.png"],"mutagen_generator_assignment":[0,1],"goal":0,"start":2,"action_noise":0.2,"location_history":"[2,3,2,3,4,5,0]","action_history":"[1,1,0,1,1,0]","mutagen_history":"[1,1,0,1,1,0]","location_rts":"[1774,979,962,757,1107,1045]","trial_type":"fractal-mutation","trial_index":127,"time_elapsed":3072536,"internal_node_id":"0.0-5.0-23.0"},{"group":"hexagon_bi","fractal_assignment":["../images/ylw_slt.png","../images/pnk_blu.png","../images/cyn_red.png","../images/blu_wht.png","../images/gry_blk.png","../images/org_blu.png"],"mutagen_generator_assignment":[0,1],"goal":3,"start":0,"action_noise":0.2,"location_history":"[0,1,2,1,2,3]","action_history":"[1,0,0,1,1]","mutagen_history":"[1,0,0,1,1]","location_rts":"[2825,1106,1179,1036,681]","trial_type":"fractal-mutation","trial_index":128,"time_elapsed":3088560,"internal_node_id":"0.0-5.0-24.0"},{"group":"hexagon_bi","fractal_assignment":["../images/ylw_slt.png","../images/pnk_blu.png","../images/cyn_red.png","../images/blu_wht.png","../images/gry_blk.png","../images/org_blu.png"],"mutagen_generator_assignment":[0,1],"goal":1,"start":3,"action_noise":0.2,"location_history":"[3,2,3,4,3,2,1]","action_history":"[0,0,0,0,1,0]","mutagen_history":"[0,0,0,0,1,0]","location_rts":"[1506,728,1037,843,707,913]","trial_type":"fractal-mutation","trial_index":129,"time_elapsed":3104450,"internal_node_id":"0.0-5.0-25.0"},{"group":"hexagon_bi","fractal_assignment":["../images/ylw_slt.png","../images/pnk_blu.png","../images/cyn_red.png","../images/blu_wht.png","../images/gry_blk.png","../images/org_blu.png"],"mutagen_generator_assignment":[0,1],"goal":2,"start":1,"action_noise":0.2,"location_history":"[1,0,1,0,5,4,5,4,5,4,3,2]","action_history":"[1,1,1,0,0,0,1,1,1,0,1]","mutagen_history":"[1,1,1,0,0,0,1,1,1,0,1]","location_rts":"[2472,875,1153,301,813,670,783,1010,1103,388,1000]","trial_type":"fractal-mutation","trial_index":130,"time_elapsed":3131099,"internal_node_id":"0.0-5.0-26.0"},{"group":"hexagon_bi","fractal_assignment":["../images/ylw_slt.png","../images/pnk_blu.png","../images/cyn_red.png","../images/blu_wht.png","../images/gry_blk.png","../images/org_blu.png"],"mutagen_generator_assignment":[0,1],"goal":5,"start":2,"action_noise":0.2,"location_history":"[2,3,4,3,2,1,0,1,2,1,2,1,0,5]","action_history":"[0,0,1,1,0,0,1,0,0,0,1,1,0]","mutagen_history":"[0,0,1,1,0,0,1,0,0,0,1,1,0]","location_rts":"[3814,842,1033,767,1156,1283,1134,880,462,1017,273,947,1152]","trial_type":"fractal-mutation","trial_index":131,"time_elapsed":3163995,"internal_node_id":"0.0-5.0-27.0"},{"group":"hexagon_bi","fractal_assignment":["../images/ylw_slt.png","../images/pnk_blu.png","../images/cyn_red.png","../images/blu_wht.png","../images/gry_blk.png","../images/org_blu.png"],"mutagen_generator_assignment":[0,1],"goal":4,"start":5,"action_noise":0.2,"location_history":"[5,0,1,0,5,4]","action_history":"[0,1,1,0,1]","mutagen_history":"[0,1,1,0,1]","location_rts":"[1521,1121,952,938,1379]","trial_type":"fractal-mutation","trial_index":132,"time_elapsed":3179099,"internal_node_id":"0.0-5.0-28.0"},{"group":"hexagon_bi","fractal_assignment":["../images/ylw_slt.png","../images/pnk_blu.png","../images/cyn_red.png","../images/blu_wht.png","../images/gry_blk.png","../images/org_blu.png"],"mutagen_generator_assignment":[0,1],"goal":5,"start":4,"action_noise":0.2,"location_history":"[4,5]","action_history":"[1]","mutagen_history":"[1]","location_rts":"[1462]","trial_type":"fractal-mutation","trial_index":133,"time_elapsed":3185237,"internal_node_id":"0.0-5.0-29.0"},{"group":"hexagon_bi","fractal_assignment":["../images/ylw_slt.png","../images/pnk_blu.png","../images/cyn_red.png","../images/blu_wht.png","../images/gry_blk.png","../images/org_blu.png"],"mutagen_generator_assignment":[0,1],"goal":3,"start":5,"action_noise":0.2,"location_history":"[5,4,5,0,5,0,1,0,5,0,1,0,1,2,1,2,1,2,3]","action_history":"[1,1,1,0,0,1,1,0,0,1,1,0,0,0,1,0,1,1]","mutagen_history":"[1,1,1,0,0,1,1,0,0,1,1,0,0,0,1,0,1,1]","location_rts":"[1415,1249,886,1280,1203,1078,2039,1027,866,659,1115,793,873,3721,980,915,435,329]","trial_type":"fractal-mutation","trial_index":134,"time_elapsed":3230095,"internal_node_id":"0.0-5.0-30.0"},{"group":"hexagon_bi","fractal_assignment":["../images/ylw_slt.png","../images/pnk_blu.png","../images/cyn_red.png","../images/blu_wht.png","../images/gry_blk.png","../images/org_blu.png"],"mutagen_generator_assignment":[0,1],"goal":0,"start":3,"action_noise":0.2,"location_history":"[3,4,5,0]","action_history":"[0,0,0]","mutagen_history":"[0,0,0]","location_rts":"[2120,992,978]","trial_type":"fractal-mutation","trial_index":135,"time_elapsed":3240972,"internal_node_id":"0.0-5.0-31.0"},{"group":"hexagon_bi","fractal_assignment":["../images/ylw_slt.png","../images/pnk_blu.png","../images/cyn_red.png","../images/blu_wht.png","../images/gry_blk.png","../images/org_blu.png"],"mutagen_generator_assignment":[0,1],"goal":4,"start":0,"action_noise":0.2,"location_history":"[0,1,0,5,0,5,4]","action_history":"[1,1,0,0,0,1]","mutagen_history":"[1,1,0,0,0,1]","location_rts":"[2452,1542,1175,1251,1704,460]","trial_type":"fractal-mutation","trial_index":136,"time_elapsed":3259857,"internal_node_id":"0.0-5.0-32.0"},{"group":"hexagon_bi","fractal_assignment":["../images/ylw_slt.png","../images/pnk_blu.png","../images/cyn_red.png","../images/blu_wht.png","../images/gry_blk.png","../images/org_blu.png"],"mutagen_generator_assignment":[0,1],"goal":1,"start":4,"action_noise":0.2,"location_history":"[4,3,4,3,4,3,4,5,0,5,0,1]","action_history":"[0,0,1,0,0,1,1,0,0,0,1]","mutagen_history":"[0,0,1,0,0,1,1,0,0,0,1]","location_rts":"[1342,731,998,757,913,1228,1002,908,769,706,877]","trial_type":"fractal-mutation","trial_index":137,"time_elapsed":3285935,"internal_node_id":"0.0-5.0-33.0"},{"group":"hexagon_bi","fractal_assignment":["../images/ylw_slt.png","../images/pnk_blu.png","../images/cyn_red.png","../images/blu_wht.png","../images/gry_blk.png","../images/org_blu.png"],"mutagen_generator_assignment":[0,1],"goal":2,"start":1,"action_noise":0.2,"location_history":"[1,0,1,0,5,4,3,2]","action_history":"[1,1,1,0,1,1,1]","mutagen_history":"[1,1,1,0,1,1,1]","location_rts":"[1904,756,944,329,1075,763,1385]","trial_type":"fractal-mutation","trial_index":138,"time_elapsed":3304698,"internal_node_id":"0.0-5.0-34.0"},{"group":"hexagon_bi","fractal_assignment":["../images/ylw_slt.png","../images/pnk_blu.png","../images/cyn_red.png","../images/blu_wht.png","../images/gry_blk.png","../images/org_blu.png"],"mutagen_generator_assignment":[0,1],"goal":0,"start":2,"action_noise":0.2,"location_history":"[2,1,2,3,2,1,2,3,2,3,2,1,0]","action_history":"[0,0,1,1,0,0,1,0,1,1,1,1]","mutagen_history":"[0,0,1,1,0,0,1,0,1,1,1,1]","location_rts":"[1295,1588,895,706,613,1653,611,973,1147,482,1265,1462]","trial_type":"fractal-mutation","trial_index":139,"time_elapsed":3334572,"internal_node_id":"0.0-5.0-35.0"},{"group":"hexagon_bi","fractal_assignment":["../images/ylw_slt.png","../images/pnk_blu.png","../images/cyn_red.png","../images/blu_wht.png","../images/gry_blk.png","../images/org_blu.png"],"mutagen_generator_assignment":[0,1],"goal":5,"start":0,"action_noise":0.2,"location_history":"[0,5]","action_history":"[0]","mutagen_history":"[0]","location_rts":"[1698]","trial_type":"fractal-mutation","trial_index":140,"time_elapsed":3340869,"internal_node_id":"0.0-5.0-36.0"},{"group":"hexagon_bi","fractal_assignment":["../images/ylw_slt.png","../images/pnk_blu.png","../images/cyn_red.png","../images/blu_wht.png","../images/gry_blk.png","../images/org_blu.png"],"mutagen_generator_assignment":[0,1],"goal":2,"start":5,"action_noise":0.2,"location_history":"[5,0,5,4,5,0,5,0,1,0,5,4,3,4,3,2]","action_history":"[0,0,1,0,0,1,1,1,1,0,1,0,0,0,1]","mutagen_history":"[0,0,1,0,0,1,1,1,1,0,1,0,0,0,1]","location_rts":"[3208,864,1077,945,1194,738,621,812,1750,747,809,1090,1097,1576,396]","trial_type":"fractal-mutation","trial_index":141,"time_elapsed":3378261,"internal_node_id":"0.0-5.0-37.0"},{"group":"hexagon_bi","fractal_assignment":["../images/ylw_slt.png","../images/pnk_blu.png","../images/cyn_red.png","../images/blu_wht.png","../images/gry_blk.png","../images/org_blu.png"],"mutagen_generator_assignment":[0,1],"goal":1,"start":2,"action_noise":0.2,"location_history":"[2,1]","action_history":"[0]","mutagen_history":"[0]","location_rts":"[1934]","trial_type":"fractal-mutation","trial_index":142,"time_elapsed":3384792,"internal_node_id":"0.0-5.0-38.0"},{"group":"hexagon_bi","fractal_assignment":["../images/ylw_slt.png","../images/pnk_blu.png","../images/cyn_red.png","../images/blu_wht.png","../images/gry_blk.png","../images/org_blu.png"],"mutagen_generator_assignment":[0,1],"goal":4,"start":1,"action_noise":0.2,"location_history":"[1,2,3,2,3,4]","action_history":"[0,0,1,1,0]","mutagen_history":"[0,0,1,1,0]","location_rts":"[1799,967,837,791,1209]","trial_type":"fractal-mutation","trial_index":143,"time_elapsed":3399514,"internal_node_id":"0.0-5.0-39.0"},{"group":"hexagon_bi","fractal_assignment":["../images/ylw_slt.png","../images/pnk_blu.png","../images/cyn_red.png","../images/blu_wht.png","../images/gry_blk.png","../images/org_blu.png"],"mutagen_generator_assignment":[0,1],"goal":3,"start":4,"action_noise":0.2,"location_history":"[4,5,4,5,0,1,0,1,2,3]","action_history":"[1,1,1,0,1,1,1,0,1]","mutagen_history":"[1,1,1,0,1,1,1,0,1]","location_rts":"[3022,950,988,271,1026,1296,1083,588,916]","trial_type":"fractal-mutation","trial_index":144,"time_elapsed":3423550,"internal_node_id":"0.0-5.0-40.0"},{"group":"hexagon_bi","fractal_assignment":["../images/ylw_slt.png","../images/pnk_blu.png","../images/cyn_red.png","../images/blu_wht.png","../images/gry_blk.png","../images/org_blu.png"],"mutagen_generator_assignment":[0,1],"goal":5,"start":3,"action_noise":0.2,"location_history":"[3,4,3,2,1,2,3,2,1,2,1,2,1,0,5]","action_history":"[0,1,1,0,0,1,1,0,1,0,0,0,1,0]","mutagen_history":"[0,1,1,0,0,1,1,0,1,0,0,0,1,0]","location_rts":"[2033,900,979,1028,853,1015,843,1179,1495,1283,1663,1093,1448,1164]","trial_type":"fractal-mutation","trial_index":145,"time_elapsed":3459818,"internal_node_id":"0.0-5.0-41.0"},{"group":"hexagon_bi","fractal_assignment":["../images/ylw_slt.png","../images/pnk_blu.png","../images/cyn_red.png","../images/blu_wht.png","../images/gry_blk.png","../images/org_blu.png"],"mutagen_generator_assignment":[0,1],"goal":3,"start":5,"action_noise":0.2,"location_history":"[5,0,5,0,5,4,5,0,5,0,1,0,1,0,1,0,1,2,3]","action_history":"[0,0,1,0,1,1,0,0,0,1,1,1,1,1,0,1,0,1]","mutagen_history":"[0,0,1,0,1,1,0,0,0,1,1,1,1,1,0,1,0,1]","location_rts":"[5304,1463,712,848,1041,1461,1082,1103,948,1177,1333,1054,1383,1185,330,1625,1142,1090]","trial_type":"fractal-mutation","trial_index":146,"time_elapsed":3508094,"internal_node_id":"0.0-5.0-42.0"},{"group":"hexagon_bi","fractal_assignment":["../images/ylw_slt.png","../images/pnk_blu.png","../images/cyn_red.png","../images/blu_wht.png","../images/gry_blk.png","../images/org_blu.png"],"mutagen_generator_assignment":[0,1],"goal":0,"start":3,"action_noise":0.2,"location_history":"[3,4,3,4,3,2,1,0]","action_history":"[0,0,1,1,1,0,0]","mutagen_history":"[0,0,1,1,1,0,0]","location_rts":"[3210,1905,1056,1055,944,1180,1254]","trial_type":"fractal-mutation","trial_index":147,"time_elapsed":3530104,"internal_node_id":"0.0-5.0-43.0"},{"group":"hexagon_bi","fractal_assignment":["../images/ylw_slt.png","../images/pnk_blu.png","../images/cyn_red.png","../images/blu_wht.png","../images/gry_blk.png","../images/org_blu.png"],"mutagen_generator_assignment":[0,1],"goal":2,"start":0,"action_noise":0.2,"location_history":"[0,1,2]","action_history":"[1,0]","mutagen_history":"[1,0]","location_rts":"[1647,1541]","trial_type":"fractal-mutation","trial_index":148,"time_elapsed":3539062,"internal_node_id":"0.0-5.0-44.0"},{"group":"hexagon_bi","fractal_assignment":["../images/ylw_slt.png","../images/pnk_blu.png","../images/cyn_red.png","../images/blu_wht.png","../images/gry_blk.png","../images/org_blu.png"],"mutagen_generator_assignment":[0,1],"goal":4,"start":2,"action_noise":0.2,"location_history":"[2,1,0,5,4]","action_history":"[0,1,0,1]","mutagen_history":"[0,1,0,1]","location_rts":"[1882,577,1135,887]","trial_type":"fractal-mutation","trial_index":149,"time_elapsed":3551579,"internal_node_id":"0.0-5.0-45.0"},{"group":"hexagon_bi","fractal_assignment":["../images/ylw_slt.png","../images/pnk_blu.png","../images/cyn_red.png","../images/blu_wht.png","../images/gry_blk.png","../images/org_blu.png"],"mutagen_generator_assignment":[0,1],"goal":1,"start":4,"action_noise":0.2,"location_history":"[4,3,2,3,2,1]","action_history":"[0,0,0,1,0]","mutagen_history":"[0,0,0,1,0]","location_rts":"[1307,772,881,960,893]","trial_type":"fractal-mutation","trial_index":150,"time_elapsed":3565447,"internal_node_id":"0.0-5.0-46.0"},{"group":"hexagon_bi","fractal_assignment":["../images/ylw_slt.png","../images/pnk_blu.png","../images/cyn_red.png","../images/blu_wht.png","../images/gry_blk.png","../images/org_blu.png"],"mutagen_generator_assignment":[0,1],"goal":4,"start":1,"action_noise":0.2,"location_history":"[1,2,3,2,1,0,5,4]","action_history":"[0,1,1,0,0,1,1]","mutagen_history":"[0,1,1,0,0,1,1]","location_rts":"[1833,866,864,807,1048,1292,1052]","trial_type":"fractal-mutation","trial_index":151,"time_elapsed":3584677,"internal_node_id":"0.0-5.0-47.0"},{"group":"hexagon_bi","fractal_assignment":["../images/ylw_slt.png","../images/pnk_blu.png","../images/cyn_red.png","../images/blu_wht.png","../images/gry_blk.png","../images/org_blu.png"],"mutagen_generator_assignment":[0,1],"goal":1,"start":4,"action_noise":0.2,"location_history":"[4,5,4,3,4,5,0,5,4,3,4,5,4,5,0,1]","action_history":"[0,0,1,0,0,1,0,0,0,1,1,1,1,0,1]","mutagen_history":"[0,0,1,0,0,1,0,0,0,1,1,1,1,0,1]","location_rts":"[1294,803,612,955,978,636,927,1155,961,887,815,1216,1507,342,952]","trial_type":"fractal-mutation","trial_index":152,"time_elapsed":3619212,"internal_node_id":"0.0-5.0-48.0"},{"group":"hexagon_bi","fractal_assignment":["../images/ylw_slt.png","../images/pnk_blu.png","../images/cyn_red.png","../images/blu_wht.png","../images/gry_blk.png","../images/org_blu.png"],"mutagen_generator_assignment":[0,1],"goal":3,"start":1,"action_noise":0.2,"location_history":"[1,0,5,4,3]","action_history":"[1,0,1,0]","mutagen_history":"[1,0,1,0]","location_rts":"[2235,801,930,914]","trial_type":"fractal-mutation","trial_index":153,"time_elapsed":3632149,"internal_node_id":"0.0-5.0-49.0"},{"group":"hexagon_bi","fractal_assignment":["../images/ylw_slt.png","../images/pnk_blu.png","../images/cyn_red.png","../images/blu_wht.png","../images/gry_blk.png","../images/org_blu.png"],"mutagen_generator_assignment":[0,1],"goal":5,"start":3,"action_noise":0.2,"location_history":"[3,4,5]","action_history":"[0,1]","mutagen_history":"[0,1]","location_rts":"[1869,1096]","trial_type":"fractal-mutation","trial_index":154,"time_elapsed":3640899,"internal_node_id":"0.0-5.0-50.0"},{"group":"hexagon_bi","fractal_assignment":["../images/ylw_slt.png","../images/pnk_blu.png","../images/cyn_red.png","../images/blu_wht.png","../images/gry_blk.png","../images/org_blu.png"],"mutagen_generator_assignment":[0,1],"goal":0,"start":5,"action_noise":0.2,"location_history":"[5,4,3,2,3,2,1,2,3,2,3,4,3,4,5,0]","action_history":"[1,0,1,1,1,0,0,1,1,1,0,0,0,1,0]","mutagen_history":"[1,0,1,1,1,0,0,1,1,1,0,0,0,1,0]","location_rts":"[1610,797,926,1171,1568,353,1201,635,783,1014,359,2795,1181,445,1336]","trial_type":"fractal-mutation","trial_index":155,"time_elapsed":3677670,"internal_node_id":"0.0-5.0-51.0"},{"group":"hexagon_bi","fractal_assignment":["../images/ylw_slt.png","../images/pnk_blu.png","../images/cyn_red.png","../images/blu_wht.png","../images/gry_blk.png","../images/org_blu.png"],"mutagen_generator_assignment":[0,1],"goal":2,"start":0,"action_noise":0.2,"location_history":"[0,5,4,3,4,3,2]","action_history":"[0,1,0,0,0,1]","mutagen_history":"[0,1,0,0,0,1]","location_rts":"[1192,915,742,984,1046,487]","trial_type":"fractal-mutation","trial_index":156,"time_elapsed":3693272,"internal_node_id":"0.0-5.0-52.0"},{"group":"hexagon_bi","fractal_assignment":["../images/ylw_slt.png","../images/pnk_blu.png","../images/cyn_red.png","../images/blu_wht.png","../images/gry_blk.png","../images/org_blu.png"],"mutagen_generator_assignment":[0,1],"goal":1,"start":2,"action_noise":0.2,"location_history":"[2,1]","action_history":"[0]","mutagen_history":"[0]","location_rts":"[1527]","trial_type":"fractal-mutation","trial_index":157,"time_elapsed":3699408,"internal_node_id":"0.0-5.0-53.0"},{"group":"hexagon_bi","fractal_assignment":["../images/ylw_slt.png","../images/pnk_blu.png","../images/cyn_red.png","../images/blu_wht.png","../images/gry_blk.png","../images/org_blu.png"],"mutagen_generator_assignment":[0,1],"goal":2,"start":1,"action_noise":0.2,"location_history":"[1,0,1,2]","action_history":"[1,0,0]","mutagen_history":"[1,0,0]","location_rts":"[1490,648,746]","trial_type":"fractal-mutation","trial_index":158,"time_elapsed":3709158,"internal_node_id":"0.0-5.0-54.0"},{"group":"hexagon_bi","fractal_assignment":["../images/ylw_slt.png","../images/pnk_blu.png","../images/cyn_red.png","../images/blu_wht.png","../images/gry_blk.png","../images/org_blu.png"],"mutagen_generator_assignment":[0,1],"goal":5,"start":2,"action_noise":0.2,"location_history":"[2,1,2,3,4,5]","action_history":"[0,0,1,0,1]","mutagen_history":"[0,0,1,0,1]","location_rts":"[1894,756,448,744,500]","trial_type":"fractal-mutation","trial_index":159,"time_elapsed":3722633,"internal_node_id":"0.0-5.0-55.0"},{"group":"hexagon_bi","fractal_assignment":["../images/ylw_slt.png","../images/pnk_blu.png","../images/cyn_red.png","../images/blu_wht.png","../images/gry_blk.png","../images/org_blu.png"],"mutagen_generator_assignment":[0,1],"goal":4,"start":5,"action_noise":0.2,"location_history":"[5,4]","action_history":"[1]","mutagen_history":"[1]","location_rts":"[3084]","trial_type":"fractal-mutation","trial_index":160,"time_elapsed":3730393,"internal_node_id":"0.0-5.0-56.0"},{"group":"hexagon_bi","fractal_assignment":["../images/ylw_slt.png","../images/pnk_blu.png","../images/cyn_red.png","../images/blu_wht.png","../images/gry_blk.png","../images/org_blu.png"],"mutagen_generator_assignment":[0,1],"goal":3,"start":4,"action_noise":0.2,"location_history":"[4,5,4,3]","action_history":"[1,1,0]","mutagen_history":"[1,1,0]","location_rts":"[1801,1139,746]","trial_type":"fractal-mutation","trial_index":161,"time_elapsed":3741023,"internal_node_id":"0.0-5.0-57.0"},{"group":"hexagon_bi","fractal_assignment":["../images/ylw_slt.png","../images/pnk_blu.png","../images/cyn_red.png","../images/blu_wht.png","../images/gry_blk.png","../images/org_blu.png"],"mutagen_generator_assignment":[0,1],"goal":0,"start":3,"action_noise":0.2,"location_history":"[3,2,3,4,3,2,3,2,1,0]","action_history":"[1,1,0,0,1,1,1,0,1]","mutagen_history":"[1,1,0,0,1,1,1,0,1]","location_rts":"[1702,929,942,889,1125,1102,859,301,1871]","trial_type":"fractal-mutation","trial_index":162,"time_elapsed":3764572,"internal_node_id":"0.0-5.0-58.0"},{"group":"hexagon_bi","fractal_assignment":["../images/ylw_slt.png","../images/pnk_blu.png","../images/cyn_red.png","../images/blu_wht.png","../images/gry_blk.png","../images/org_blu.png"],"mutagen_generator_assignment":[0,1],"goal":2,"start":0,"action_noise":0.2,"location_history":"[0,5,4,5,0,5,4,5,0,1,2]","action_history":"[0,1,1,0,0,1,0,0,1,0]","mutagen_history":"[0,1,1,0,0,1,0,0,1,0]","location_rts":"[1944,855,1694,1114,1092,705,1069,964,943,1171]","trial_type":"fractal-mutation","trial_index":163,"time_elapsed":3790886,"internal_node_id":"0.0-5.0-59.0"},{"group":"hexagon_bi","fractal_assignment":["../images/ylw_slt.png","../images/pnk_blu.png","../images/cyn_red.png","../images/blu_wht.png","../images/gry_blk.png","../images/org_blu.png"],"mutagen_generator_assignment":[0,1],"goal":1,"start":2,"action_noise":0.2,"location_history":"[2,1]","action_history":"[0]","mutagen_history":"[0]","location_rts":"[1392]","trial_type":"fractal-mutation","trial_index":164,"time_elapsed":3796876,"internal_node_id":"0.0-5.0-60.0"},{"group":"hexagon_bi","fractal_assignment":["../images/ylw_slt.png","../images/pnk_blu.png","../images/cyn_red.png","../images/blu_wht.png","../images/gry_blk.png","../images/org_blu.png"],"mutagen_generator_assignment":[0,1],"goal":0,"start":1,"action_noise":0.2,"location_history":"[1,0]","action_history":"[1]","mutagen_history":"[1]","location_rts":"[2280]","trial_type":"fractal-mutation","trial_index":165,"time_elapsed":3803825,"internal_node_id":"0.0-5.0-61.0"},{"group":"hexagon_bi","fractal_assignment":["../images/ylw_slt.png","../images/pnk_blu.png","../images/cyn_red.png","../images/blu_wht.png","../images/gry_blk.png","../images/org_blu.png"],"mutagen_generator_assignment":[0,1],"goal":3,"start":0,"action_noise":0.2,"location_history":"[0,5,0,5,0,5,4,3]","action_history":"[1,0,0,0,0,1,0]","mutagen_history":"[1,0,0,0,0,1,0]","location_rts":"[1989,964,756,1299,1084,291,2235]","trial_type":"fractal-mutation","trial_index":166,"time_elapsed":3823769,"internal_node_id":"0.0-5.0-62.0"},{"group":"hexagon_bi","fractal_assignment":["../images/ylw_slt.png","../images/pnk_blu.png","../images/cyn_red.png","../images/blu_wht.png","../images/gry_blk.png","../images/org_blu.png"],"mutagen_generator_assignment":[0,1],"goal":5,"start":3,"action_noise":0.2,"location_history":"[3,4,3,4,5]","action_history":"[0,1,0,0]","mutagen_history":"[0,1,0,0]","location_rts":"[1541,780,1048,275]","trial_type":"fractal-mutation","trial_index":167,"time_elapsed":3835379,"internal_node_id":"0.0-5.0-63.0"},{"group":"hexagon_bi","fractal_assignment":["../images/ylw_slt.png","../images/pnk_blu.png","../images/cyn_red.png","../images/blu_wht.png","../images/gry_blk.png","../images/org_blu.png"],"mutagen_generator_assignment":[0,1],"goal":4,"start":5,"action_noise":0.2,"location_history":"[5,4]","action_history":"[1]","mutagen_history":"[1]","location_rts":"[2138]","trial_type":"fractal-mutation","trial_index":168,"time_elapsed":3842219,"internal_node_id":"0.0-5.0-64.0"},{"group":"hexagon_bi","fractal_assignment":["../images/ylw_slt.png","../images/pnk_blu.png","../images/cyn_red.png","../images/blu_wht.png","../images/gry_blk.png","../images/org_blu.png"],"mutagen_generator_assignment":[0,1],"goal":1,"start":4,"action_noise":0.2,"location_history":"[4,3,4,5,0,1]","action_history":"[0,1,1,0,1]","mutagen_history":"[0,1,1,0,1]","location_rts":"[1364,800,1525,978,1021]","trial_type":"fractal-mutation","trial_index":169,"time_elapsed":3857115,"internal_node_id":"0.0-5.0-65.0"},{"group":"hexagon_bi","fractal_assignment":["../images/ylw_slt.png","../images/pnk_blu.png","../images/cyn_red.png","../images/blu_wht.png","../images/gry_blk.png","../images/org_blu.png"],"mutagen_generator_assignment":[0,1],"goal":5,"start":1,"action_noise":0.2,"location_history":"[1,0,1,2,3,2,3,2,1,0,5]","action_history":"[0,1,0,0,1,1,1,0,1,0]","mutagen_history":"[0,1,0,0,1,1,1,0,1,0]","location_rts":"[2198,615,785,266,1090,913,1496,249,1314,996]","trial_type":"fractal-mutation","trial_index":170,"time_elapsed":3881873,"internal_node_id":"0.0-5.0-66.0"},{"group":"hexagon_bi","fractal_assignment":["../images/ylw_slt.png","../images/pnk_blu.png","../images/cyn_red.png","../images/blu_wht.png","../images/gry_blk.png","../images/org_blu.png"],"mutagen_generator_assignment":[0,1],"goal":2,"start":5,"action_noise":0.2,"location_history":"[5,0,1,0,1,0,1,0,1,2]","action_history":"[0,1,0,1,0,0,0,1,1]","mutagen_history":"[0,1,0,1,0,0,0,1,1]","location_rts":"[2232,586,945,1697,445,1313,1030,733,518]","trial_type":"fractal-mutation","trial_index":171,"time_elapsed":3905051,"internal_node_id":"0.0-5.0-67.0"},{"group":"hexagon_bi","fractal_assignment":["../images/ylw_slt.png","../images/pnk_blu.png","../images/cyn_red.png","../images/blu_wht.png","../images/gry_blk.png","../images/org_blu.png"],"mutagen_generator_assignment":[0,1],"goal":3,"start":2,"action_noise":0.2,"location_history":"[2,1,2,3]","action_history":"[1,1,1]","mutagen_history":"[1,1,1]","location_rts":"[1785,1194,751]","trial_type":"fractal-mutation","trial_index":172,"time_elapsed":3915813,"internal_node_id":"0.0-5.0-68.0"},{"group":"hexagon_bi","fractal_assignment":["../images/ylw_slt.png","../images/pnk_blu.png","../images/cyn_red.png","../images/blu_wht.png","../images/gry_blk.png","../images/org_blu.png"],"mutagen_generator_assignment":[0,1],"goal":4,"start":3,"action_noise":0.2,"location_history":"[3,4]","action_history":"[0]","mutagen_history":"[0]","location_rts":"[1602]","trial_type":"fractal-mutation","trial_index":173,"time_elapsed":3922015,"internal_node_id":"0.0-5.0-69.0"},{"group":"hexagon_bi","fractal_assignment":["../images/ylw_slt.png","../images/pnk_blu.png","../images/cyn_red.png","../images/blu_wht.png","../images/gry_blk.png","../images/org_blu.png"],"mutagen_generator_assignment":[0,1],"goal":0,"start":4,"action_noise":0.2,"location_history":"[4,3,2,3,4,5,4,5,4,3,2,3,4,3,2,1,2,1,0]","action_history":"[0,1,1,0,0,1,1,0,0,1,0,0,1,1,0,1,0,0]","mutagen_history":"[0,1,1,0,0,1,1,0,0,1,0,0,1,1,0,1,0,0]","location_rts":"[3551,888,1196,1014,929,1092,752,1325,858,818,1012,888,980,875,1144,2046,1117,501]","trial_type":"fractal-mutation","trial_index":174,"time_elapsed":3966837,"internal_node_id":"0.0-5.0-70.0"},{"group":"hexagon_bi","fractal_assignment":["../images/ylw_slt.png","../images/pnk_blu.png","../images/cyn_red.png","../images/blu_wht.png","../images/gry_blk.png","../images/org_blu.png"],"mutagen_generator_assignment":[0,1],"goal":5,"start":0,"action_noise":0.2,"location_history":"[0,5]","action_history":"[0]","mutagen_history":"[0]","location_rts":"[2136]","trial_type":"fractal-mutation","trial_index":175,"time_elapsed":3973565,"internal_node_id":"0.0-5.0-71.0"},{"group":"hexagon_bi","fractal_assignment":["../images/ylw_slt.png","../images/pnk_blu.png","../images/cyn_red.png","../images/blu_wht.png","../images/gry_blk.png","../images/org_blu.png"],"mutagen_generator_assignment":[0,1],"goal":0,"start":5,"action_noise":0.2,"location_history":"[5,0]","action_history":"[0]","mutagen_history":"[0]","location_rts":"[1206]","trial_type":"fractal-mutation","trial_index":176,"time_elapsed":3979368,"internal_node_id":"0.0-5.0-72.0"},{"group":"hexagon_bi","fractal_assignment":["../images/ylw_slt.png","../images/pnk_blu.png","../images/cyn_red.png","../images/blu_wht.png","../images/gry_blk.png","../images/org_blu.png"],"mutagen_generator_assignment":[0,1],"goal":3,"start":0,"action_noise":0.2,"location_history":"[0,1,0,1,2,3]","action_history":"[1,1,1,0,1]","mutagen_history":"[1,1,1,0,1]","location_rts":"[1572,2535,867,849,815]","trial_type":"fractal-mutation","trial_index":177,"time_elapsed":3995294,"internal_node_id":"0.0-5.0-73.0"},{"group":"hexagon_bi","fractal_assignment":["../images/ylw_slt.png","../images/pnk_blu.png","../images/cyn_red.png","../images/blu_wht.png","../images/gry_blk.png","../images/org_blu.png"],"mutagen_generator_assignment":[0,1],"goal":1,"start":3,"action_noise":0.2,"location_history":"[3,2,1]","action_history":"[0,0]","mutagen_history":"[0,0]","location_rts":"[1132,930]","trial_type":"fractal-mutation","trial_index":178,"time_elapsed":4003047,"internal_node_id":"0.0-5.0-74.0"},{"group":"hexagon_bi","fractal_assignment":["../images/ylw_slt.png","../images/pnk_blu.png","../images/cyn_red.png","../images/blu_wht.png","../images/gry_blk.png","../images/org_blu.png"],"mutagen_generator_assignment":[0,1],"goal":2,"start":1,"action_noise":0.2,"location_history":"[1,2]","action_history":"[0]","mutagen_history":"[0]","location_rts":"[1824]","trial_type":"fractal-mutation","trial_index":179,"time_elapsed":4009477,"internal_node_id":"0.0-5.0-75.0"},{"group":"hexagon_bi","fractal_assignment":["../images/ylw_slt.png","../images/pnk_blu.png","../images/cyn_red.png","../images/blu_wht.png","../images/gry_blk.png","../images/org_blu.png"],"mutagen_generator_assignment":[0,1],"goal":4,"start":2,"action_noise":0.2,"location_history":"[2,1,2,1,0,5,4]","action_history":"[0,0,1,1,0,1]","mutagen_history":"[0,0,1,1,0,1]","location_rts":"[1473,651,960,766,863,1223]","trial_type":"fractal-mutation","trial_index":180,"time_elapsed":4025709,"internal_node_id":"0.0-5.0-76.0"},{"group":"hexagon_bi","fractal_assignment":["../images/ylw_slt.png","../images/pnk_blu.png","../images/cyn_red.png","../images/blu_wht.png","../images/gry_blk.png","../images/org_blu.png"],"mutagen_generator_assignment":[0,1],"goal":3,"start":4,"action_noise":0.2,"location_history":"[4,3]","action_history":"[1]","mutagen_history":"[1]","location_rts":"[1309]","trial_type":"fractal-mutation","trial_index":181,"time_elapsed":4031700,"internal_node_id":"0.0-5.0-77.0"},{"group":"hexagon_bi","fractal_assignment":["../images/ylw_slt.png","../images/pnk_blu.png","../images/cyn_red.png","../images/blu_wht.png","../images/gry_blk.png","../images/org_blu.png"],"mutagen_generator_assignment":[0,1],"goal":0,"start":3,"action_noise":0.2,"location_history":"[3,2,3,4,5,0]","action_history":"[0,1,1,1,0]","mutagen_history":"[0,1,1,1,0]","location_rts":"[1462,630,853,2090,830]","trial_type":"fractal-mutation","trial_index":182,"time_elapsed":4046779,"internal_node_id":"0.0-5.0-78.0"},{"group":"hexagon_bi","fractal_assignment":["../images/ylw_slt.png","../images/pnk_blu.png","../images/cyn_red.png","../images/blu_wht.png","../images/gry_blk.png","../images/org_blu.png"],"mutagen_generator_assignment":[0,1],"goal":4,"start":0,"action_noise":0.2,"location_history":"[0,5,4]","action_history":"[0,1]","mutagen_history":"[0,1]","location_rts":"[1856,694]","trial_type":"fractal-mutation","trial_index":183,"time_elapsed":4055098,"internal_node_id":"0.0-5.0-79.0"},{"group":"hexagon_bi","fractal_assignment":["../images/ylw_slt.png","../images/pnk_blu.png","../images/cyn_red.png","../images/blu_wht.png","../images/gry_blk.png","../images/org_blu.png"],"mutagen_generator_assignment":[0,1],"goal":5,"start":4,"action_noise":0.2,"location_history":"[4,3,4,3,2,1,0,5]","action_history":"[0,0,0,1,0,0,0]","mutagen_history":"[0,0,0,1,0,0,0]","location_rts":"[1863,916,530,283,1437,1327,1306]","trial_type":"fractal-mutation","trial_index":184,"time_elapsed":4074000,"internal_node_id":"0.0-5.0-80.0"},{"group":"hexagon_bi","fractal_assignment":["../images/ylw_slt.png","../images/pnk_blu.png","../images/cyn_red.png","../images/blu_wht.png","../images/gry_blk.png","../images/org_blu.png"],"mutagen_generator_assignment":[0,1],"goal":1,"start":5,"action_noise":0.2,"location_history":"[5,0,1]","action_history":"[0,1]","mutagen_history":"[0,1]","location_rts":"[1282,847]","trial_type":"fractal-mutation","trial_index":185,"time_elapsed":4081896,"internal_node_id":"0.0-5.0-81.0"},{"group":"hexagon_bi","fractal_assignment":["../images/ylw_slt.png","../images/pnk_blu.png","../images/cyn_red.png","../images/blu_wht.png","../images/gry_blk.png","../images/org_blu.png"],"mutagen_generator_assignment":[0,1],"goal":2,"start":1,"action_noise":0.2,"location_history":"[1,2]","action_history":"[0]","mutagen_history":"[0]","location_rts":"[1178]","trial_type":"fractal-mutation","trial_index":186,"time_elapsed":4087675,"internal_node_id":"0.0-5.0-82.0"},{"group":"hexagon_bi","fractal_assignment":["../images/ylw_slt.png","../images/pnk_blu.png","../images/cyn_red.png","../images/blu_wht.png","../images/gry_blk.png","../images/org_blu.png"],"mutagen_generator_assignment":[0,1],"goal":4,"start":2,"action_noise":0.2,"location_history":"[2,1,0,5,0,1,2,3,4]","action_history":"[0,0,1,1,1,0,0,1]","mutagen_history":"[0,0,1,1,1,0,0,1]","location_rts":"[1897,946,810,1077,971,827,822,837]","trial_type":"fractal-mutation","trial_index":187,"time_elapsed":4108436,"internal_node_id":"0.0-5.0-83.0"},{"group":"hexagon_bi","fractal_assignment":["../images/ylw_slt.png","../images/pnk_blu.png","../images/cyn_red.png","../images/blu_wht.png","../images/gry_blk.png","../images/org_blu.png"],"mutagen_generator_assignment":[0,1],"goal":0,"start":4,"action_noise":0.2,"location_history":"[4,5,4,3,2,3,4,5,4,3,4,5,0]","action_history":"[1,0,0,1,0,0,1,1,0,0,0,1]","mutagen_history":"[1,0,0,1,0,0,1,1,0,0,0,1]","location_rts":"[4735,868,791,566,1021,1172,1416,796,1302,934,1265,1240]","trial_type":"fractal-mutation","trial_index":188,"time_elapsed":4141576,"internal_node_id":"0.0-5.0-84.0"},{"group":"hexagon_bi","fractal_assignment":["../images/ylw_slt.png","../images/pnk_blu.png","../images/cyn_red.png","../images/blu_wht.png","../images/gry_blk.png","../images/org_blu.png"],"mutagen_generator_assignment":[0,1],"goal":5,"start":0,"action_noise":0.2,"location_history":"[0,5]","action_history":"[0]","mutagen_history":"[0]","location_rts":"[1586]","trial_type":"fractal-mutation","trial_index":189,"time_elapsed":4147757,"internal_node_id":"0.0-5.0-85.0"},{"group":"hexagon_bi","fractal_assignment":["../images/ylw_slt.png","../images/pnk_blu.png","../images/cyn_red.png","../images/blu_wht.png","../images/gry_blk.png","../images/org_blu.png"],"mutagen_generator_assignment":[0,1],"goal":3,"start":5,"action_noise":0.2,"location_history":"[5,4,5,0,1,2,1,0,1,0,5,0,5,0,1,2,3]","action_history":"[1,1,0,1,1,0,1,1,1,0,0,0,1,1,0,1]","mutagen_history":"[1,1,0,1,1,0,1,1,1,0,0,0,1,1,0,1]","location_rts":"[3437,416,909,781,1174,920,935,269,683,302,1454,1540,652,1658,1541,1409]","trial_type":"fractal-mutation","trial_index":190,"time_elapsed":4187639,"internal_node_id":"0.0-5.0-86.0"},{"group":"hexagon_bi","fractal_assignment":["../images/ylw_slt.png","../images/pnk_blu.png","../images/cyn_red.png","../images/blu_wht.png","../images/gry_blk.png","../images/org_blu.png"],"mutagen_generator_assignment":[0,1],"goal":1,"start":3,"action_noise":0.2,"location_history":"[3,4,5,4,3,4,3,2,1]","action_history":"[0,1,0,0,0,1,1,0]","mutagen_history":"[0,1,0,0,0,1,1,0]","location_rts":"[1356,807,852,751,1106,943,732,849]","trial_type":"fractal-mutation","trial_index":191,"time_elapsed":4207542,"internal_node_id":"0.0-5.0-87.0"},{"group":"hexagon_bi","fractal_assignment":["../images/ylw_slt.png","../images/pnk_blu.png","../images/cyn_red.png","../images/blu_wht.png","../images/gry_blk.png","../images/org_blu.png"],"mutagen_generator_assignment":[0,1],"goal":2,"start":1,"action_noise":0.2,"location_history":"[1,2]","action_history":"[0]","mutagen_history":"[0]","location_rts":"[1958]","trial_type":"fractal-mutation","trial_index":192,"time_elapsed":4214104,"internal_node_id":"0.0-5.0-88.0"},{"group":"hexagon_bi","fractal_assignment":["../images/ylw_slt.png","../images/pnk_blu.png","../images/cyn_red.png","../images/blu_wht.png","../images/gry_blk.png","../images/org_blu.png"],"mutagen_generator_assignment":[0,1],"goal":0,"start":2,"action_noise":0.2,"location_history":"[2,3,4,5,0]","action_history":"[1,1,0,0]","mutagen_history":"[1,1,0,0]","location_rts":"[1943,805,894,758]","trial_type":"fractal-mutation","trial_index":193,"time_elapsed":4226558,"internal_node_id":"0.0-5.0-89.0"},{"group":"hexagon_bi","fractal_assignment":["../images/ylw_slt.png","../images/pnk_blu.png","../images/cyn_red.png","../images/blu_wht.png","../images/gry_blk.png","../images/org_blu.png"],"mutagen_generator_assignment":[0,1],"goal":5,"start":0,"action_noise":0.2,"location_history":"[0,5]","action_history":"[0]","mutagen_history":"[0]","location_rts":"[1813]","trial_type":"fractal-mutation","trial_index":194,"time_elapsed":4232973,"internal_node_id":"0.0-5.0-90.0"},{"group":"hexagon_bi","fractal_assignment":["../images/ylw_slt.png","../images/pnk_blu.png","../images/cyn_red.png","../images/blu_wht.png","../images/gry_blk.png","../images/org_blu.png"],"mutagen_generator_assignment":[0,1],"goal":1,"start":5,"action_noise":0.2,"location_history":"[5,4,5,4,5,4,3,2,3,2,1]","action_history":"[0,1,1,1,1,0,1,0,1,0]","mutagen_history":"[0,1,1,1,1,0,1,0,1,0]","location_rts":"[1200,548,662,923,605,221,922,889,1190,365]","trial_type":"fractal-mutation","trial_index":195,"time_elapsed":4255440,"internal_node_id":"0.0-5.0-91.0"},{"group":"hexagon_bi","fractal_assignment":["../images/ylw_slt.png","../images/pnk_blu.png","../images/cyn_red.png","../images/blu_wht.png","../images/gry_blk.png","../images/org_blu.png"],"mutagen_generator_assignment":[0,1],"goal":3,"start":1,"action_noise":0.2,"location_history":"[1,0,5,4,3]","action_history":"[1,0,1,0]","mutagen_history":"[1,0,1,0]","location_rts":"[1142,652,1239,525]","trial_type":"fractal-mutation","trial_index":196,"time_elapsed":4267041,"internal_node_id":"0.0-5.0-92.0"},{"group":"hexagon_bi","fractal_assignment":["../images/ylw_slt.png","../images/pnk_blu.png","../images/cyn_red.png","../images/blu_wht.png","../images/gry_blk.png","../images/org_blu.png"],"mutagen_generator_assignment":[0,1],"goal":4,"start":3,"action_noise":0.2,"location_history":"[3,4]","action_history":"[0]","mutagen_history":"[0]","location_rts":"[1422]","trial_type":"fractal-mutation","trial_index":197,"time_elapsed":4273059,"internal_node_id":"0.0-5.0-93.0"},{"group":"hexagon_bi","fractal_assignment":["../images/ylw_slt.png","../images/pnk_blu.png","../images/cyn_red.png","../images/blu_wht.png","../images/gry_blk.png","../images/org_blu.png"],"mutagen_generator_assignment":[0,1],"goal":2,"start":4,"action_noise":0.2,"location_history":"[4,3,2]","action_history":"[0,1]","mutagen_history":"[0,1]","location_rts":"[1375,752]","trial_type":"fractal-mutation","trial_index":198,"time_elapsed":4280959,"internal_node_id":"0.0-5.0-94.0"},{"group":"hexagon_bi","fractal_assignment":["../images/ylw_slt.png","../images/pnk_blu.png","../images/cyn_red.png","../images/blu_wht.png","../images/gry_blk.png","../images/org_blu.png"],"mutagen_generator_assignment":[0,1],"goal":4,"start":2,"action_noise":0.2,"location_history":"[2,3,4]","action_history":"[1,0]","mutagen_history":"[1,0]","location_rts":"[2059,964]","trial_type":"fractal-mutation","trial_index":199,"time_elapsed":4289746,"internal_node_id":"0.0-5.0-95.0"},{"group":"hexagon_bi","fractal_assignment":["../images/ylw_slt.png","../images/pnk_blu.png","../images/cyn_red.png","../images/blu_wht.png","../images/gry_blk.png","../images/org_blu.png"],"mutagen_generator_assignment":[0,1],"goal":0,"start":4,"action_noise":0.2,"location_history":"[4,5,0]","action_history":"[1,0]","mutagen_history":"[1,0]","location_rts":"[1456,803]","trial_type":"fractal-mutation","trial_index":200,"time_elapsed":4297784,"internal_node_id":"0.0-5.0-96.0"},{"group":"hexagon_bi","fractal_assignment":["../images/ylw_slt.png","../images/pnk_blu.png","../images/cyn_red.png","../images/blu_wht.png","../images/gry_blk.png","../images/org_blu.png"],"mutagen_generator_assignment":[0,1],"goal":5,"start":0,"action_noise":0.2,"location_history":"[0,5]","action_history":"[1]","mutagen_history":"[1]","location_rts":"[1482]","trial_type":"fractal-mutation","trial_index":201,"time_elapsed":4303942,"internal_node_id":"0.0-5.0-97.0"},{"group":"hexagon_bi","fractal_assignment":["../images/ylw_slt.png","../images/pnk_blu.png","../images/cyn_red.png","../images/blu_wht.png","../images/gry_blk.png","../images/org_blu.png"],"mutagen_generator_assignment":[0,1],"goal":1,"start":5,"action_noise":0.2,"location_history":"[5,0,1]","action_history":"[0,1]","mutagen_history":"[0,1]","location_rts":"[1503,793]","trial_type":"fractal-mutation","trial_index":202,"time_elapsed":4312002,"internal_node_id":"0.0-5.0-98.0"},{"group":"hexagon_bi","fractal_assignment":["../images/ylw_slt.png","../images/pnk_blu.png","../images/cyn_red.png","../images/blu_wht.png","../images/gry_blk.png","../images/org_blu.png"],"mutagen_generator_assignment":[0,1],"goal":3,"start":1,"action_noise":0.2,"location_history":"[1,0,5,0,1,2,1,2,1,2,1,2,1,0,1,0,5,4,3]","action_history":"[1,0,0,1,0,0,0,1,1,1,0,0,1,1,1,0,1,0]","mutagen_history":"[1,0,0,1,0,0,0,1,1,1,0,0,1,1,1,0,1,0]","location_rts":"[1280,1268,952,944,1219,2014,863,303,928,1026,1322,929,1159,1329,943,383,1141,412]","trial_type":"fractal-mutation","trial_index":203,"time_elapsed":4354372,"internal_node_id":"0.0-5.0-99.0"},{"view_history":"[{\"page_index\":0,\"viewing_time\":12845}]","rt":12845,"trial_type":"instructions","trial_index":204,"time_elapsed":4368219,"internal_node_id":"0.0-6.0"},{"rt":7609,"responses":"{\"Q0\":\"Thank you.\"}","trial_type":"survey-text","trial_index":205,"time_elapsed":4376833,"internal_node_id":"0.0-7.0"}]