[{"view_history":"[{\"page_index\":0,\"viewing_time\":12876},{\"page_index\":1,\"viewing_time\":8422},{\"page_index\":2,\"viewing_time\":9976},{\"page_index\":3,\"viewing_time\":4465}]","rt":35739,"trial_type":"instructions","trial_index":0,"time_elapsed":35740,"internal_node_id":"0.0-0.0"},{"view_history":"[{\"page_index\":0,\"viewing_time\":1253},{\"page_index\":1,\"viewing_time\":20608}]","rt":21861,"trial_type":"instructions","trial_index":1,"time_elapsed":58602,"internal_node_id":"0.0-1.0"},{"group":"hexagon_tri","room_assignment":["purple","grey","yellow","red","green","blue"],"door_color_assignment":["white","black"],"door_generator_assignment":[1,0],"goal":4,"start":0,"action_noise":0.2,"location_history":"[0,1,5,0,1,5,4]","action_history":"[1,1,1,1,1,1]","door_history":"[0,0,0,0,0,0]","location_rts":"[3546,1971,1125,664,1413,1282]","trial_type":"two-door-navigation","trial_index":2,"time_elapsed":78175,"internal_node_id":"0.0-2.0-0.0"},{"group":"hexagon_tri","room_assignment":["purple","grey","yellow","red","green","blue"],"door_color_assignment":["white","black"],"door_generator_assignment":[1,0],"goal":3,"start":4,"action_noise":0.2,"location_history":"[4,2,3]","action_history":"[1,1]","door_history":"[0,0]","location_rts":"[1730,544]","trial_type":"two-door-navigation","trial_index":3,"time_elapsed":85978,"internal_node_id":"0.0-2.0-1.0"},{"group":"hexagon_tri","room_assignment":["purple","grey","yellow","red","green","blue"],"door_color_assignment":["white","black"],"door_generator_assignment":[1,0],"goal":5,"start":3,"action_noise":0.2,"location_history":"[3,4,0,1,5]","action_history":"[1,1,1,1]","door_history":"[0,0,0,0]","location_rts":"[1088,712,400,389]","trial_type":"two-door-navigation","trial_index":4,"time_elapsed":96106,"internal_node_id":"0.0-2.0-2.0"},{"group":"hexagon_tri","room_assignment":["purple","grey","yellow","red","green","blue"],"door_color_assignment":["white","black"],"door_generator_assignment":[1,0],"goal":2,"start":5,"action_noise":0.2,"location_history":"[5,0,5,0,5,4,2]","action_history":"[1,1,1,1,0,0]","door_history":"[0,0,0,0,1,1]","location_rts":"[1026,317,334,376,1812,653]","trial_type":"two-door-navigation","trial_index":5,"time_elapsed":110181,"internal_node_id":"0.0-2.0-3.0"},{"group":"hexagon_tri","room_assignment":["purple","grey","yellow","red","green","blue"],"door_color_assignment":["white","black"],"door_generator_assignment":[1,0],"goal":1,"start":2,"action_noise":0.2,"location_history":"[2,1]","action_history":"[1]","door_history":"[0]","location_rts":"[1314]","trial_type":"two-door-navigation","trial_index":6,"time_elapsed":116009,"internal_node_id":"0.0-2.0-4.0"},{"group":"hexagon_tri","room_assignment":["purple","grey","yellow","red","green","blue"],"door_color_assignment":["white","black"],"door_generator_assignment":[1,0],"goal":4,"start":1,"action_noise":0.2,"location_history":"[1,3,4]","action_history":"[1,1]","door_history":"[0,0]","location_rts":"[1441,479]","trial_type":"two-door-navigation","trial_index":7,"time_elapsed":123450,"internal_node_id":"0.0-2.0-5.0"},{"group":"hexagon_tri","room_assignment":["purple","grey","yellow","red","green","blue"],"door_color_assignment":["white","black"],"door_generator_assignment":[1,0],"goal":1,"start":4,"action_noise":0.2,"location_history":"[4,2,3,4,2,3,2,1]","action_history":"[1,1,1,1,1,0,0]","door_history":"[0,0,0,0,0,1,1]","location_rts":"[1415,398,385,459,812,716,450]","trial_type":"two-door-navigation","trial_index":8,"time_elapsed":138647,"internal_node_id":"0.0-2.0-6.0"},{"group":"hexagon_tri","room_assignment":["purple","grey","yellow","red","green","blue"],"door_color_assignment":["white","black"],"door_generator_assignment":[1,0],"goal":5,"start":1,"action_noise":0.2,"location_history":"[1,5]","action_history":"[1]","door_history":"[0]","location_rts":"[1108]","trial_type":"two-door-navigation","trial_index":9,"time_elapsed":144268,"internal_node_id":"0.0-2.0-7.0"},{"group":"hexagon_tri","room_assignment":["purple","grey","yellow","red","green","blue"],"door_color_assignment":["white","black"],"door_generator_assignment":[1,0],"goal":0,"start":5,"action_noise":0.2,"location_history":"[5,4,2,3,2,3,2,1,3,2,3,4,2,1,5,0]","action_history":"[1,1,1,0,0,0,0,0,1,1,1,1,1,1,1]","door_history":"[0,0,0,1,1,1,1,1,0,0,0,0,0,0,0]","location_rts":"[1180,451,343,412,392,359,441,462,845,430,836,653,505,741,1103]","trial_type":"two-door-navigation","trial_index":10,"time_elapsed":172064,"internal_node_id":"0.0-2.0-8.0"},{"group":"hexagon_tri","room_assignment":["purple","grey","yellow","red","green","blue"],"door_color_assignment":["white","black"],"door_generator_assignment":[1,0],"goal":2,"start":0,"action_noise":0.2,"location_history":"[0,1,5,0,1,5,0,5,4,0,5,4,0,5,4,0,1,3,4,2]","action_history":"[1,1,1,1,1,1,0,0,0,0,0,0,0,0,1,1,1,1,1]","door_history":"[0,0,0,0,0,0,1,1,1,1,1,1,1,1,0,0,0,0,0]","location_rts":"[1626,452,6877,731,423,302,562,442,403,374,341,406,375,496,346,368,376,354,299]","trial_type":"two-door-navigation","trial_index":11,"time_elapsed":210298,"internal_node_id":"0.0-2.0-9.0"},{"group":"hexagon_tri","room_assignment":["purple","grey","yellow","red","green","blue"],"door_color_assignment":["white","black"],"door_generator_assignment":[1,0],"goal":3,"start":2,"action_noise":0.2,"location_history":"[2,3]","action_history":"[1]","door_history":"[0]","location_rts":"[2352]","trial_type":"two-door-navigation","trial_index":12,"time_elapsed":217160,"internal_node_id":"0.0-2.0-10.0"},{"group":"hexagon_tri","room_assignment":["purple","grey","yellow","red","green","blue"],"door_color_assignment":["white","black"],"door_generator_assignment":[1,0],"goal":0,"start":3,"action_noise":0.2,"location_history":"[3,4,2,3,2,3,2,1,3,2,1,3,2,1,5,0]","action_history":"[1,1,1,1,1,0,0,0,0,0,0,0,0,0,1]","door_history":"[0,0,0,0,0,1,1,1,1,1,1,1,1,1,0]","location_rts":"[2290,512,423,808,461,1049,1491,587,393,451,464,838,425,364,2026]","trial_type":"two-door-navigation","trial_index":13,"time_elapsed":248378,"internal_node_id":"0.0-2.0-11.0"},{"group":"hexagon_tri","room_assignment":["purple","grey","yellow","red","green","blue"],"door_color_assignment":["white","black"],"door_generator_assignment":[1,0],"goal":2,"start":0,"action_noise":0.2,"location_history":"[0,1,5,4,2]","action_history":"[1,1,1,1]","door_history":"[0,0,0,0]","location_rts":"[1064,654,826,484]","trial_type":"two-door-navigation","trial_index":14,"time_elapsed":258945,"internal_node_id":"0.0-2.0-12.0"},{"group":"hexagon_tri","room_assignment":["purple","grey","yellow","red","green","blue"],"door_color_assignment":["white","black"],"door_generator_assignment":[1,0],"goal":5,"start":2,"action_noise":0.2,"location_history":"[2,3,4,2,3,2,1,3,2,1,5]","action_history":"[1,1,1,1,0,0,0,0,0,1]","door_history":"[0,0,0,0,1,1,1,1,1,0]","location_rts":"[1826,464,518,424,1009,539,417,391,405,1276]","trial_type":"two-door-navigation","trial_index":15,"time_elapsed":279803,"internal_node_id":"0.0-2.0-13.0"},{"group":"hexagon_tri","room_assignment":["purple","grey","yellow","red","green","blue"],"door_color_assignment":["white","black"],"door_generator_assignment":[1,0],"goal":4,"start":5,"action_noise":0.2,"location_history":"[5,0,1,5,0,1,5,4]","action_history":"[1,1,1,1,1,1,0]","door_history":"[0,0,0,0,0,0,1]","location_rts":"[2098,29251,535,380,448,684,826]","trial_type":"two-door-navigation","trial_index":16,"time_elapsed":324578,"internal_node_id":"0.0-2.0-14.0"},{"group":"hexagon_tri","room_assignment":["purple","grey","yellow","red","green","blue"],"door_color_assignment":["white","black"],"door_generator_assignment":[1,0],"goal":3,"start":4,"action_noise":0.2,"location_history":"[4,2,3]","action_history":"[1,1]","door_history":"[0,0]","location_rts":"[2376,454]","trial_type":"two-door-navigation","trial_index":17,"time_elapsed":332931,"internal_node_id":"0.0-2.0-15.0"},{"group":"hexagon_tri","room_assignment":["purple","grey","yellow","red","green","blue"],"door_color_assignment":["white","black"],"door_generator_assignment":[1,0],"goal":1,"start":3,"action_noise":0.2,"location_history":"[3,2,1]","action_history":"[1,1]","door_history":"[0,0]","location_rts":"[1214,573]","trial_type":"two-door-navigation","trial_index":18,"time_elapsed":340240,"internal_node_id":"0.0-2.0-16.0"},{"group":"hexagon_tri","room_assignment":["purple","grey","yellow","red","green","blue"],"door_color_assignment":["white","black"],"door_generator_assignment":[1,0],"goal":5,"start":1,"action_noise":0.2,"location_history":"[1,5]","action_history":"[1]","door_history":"[0]","location_rts":"[1953]","trial_type":"two-door-navigation","trial_index":19,"time_elapsed":346711,"internal_node_id":"0.0-2.0-17.0"},{"group":"hexagon_tri","room_assignment":["purple","grey","yellow","red","green","blue"],"door_color_assignment":["white","black"],"door_generator_assignment":[1,0],"goal":4,"start":5,"action_noise":0.2,"location_history":"[5,0,5,4]","action_history":"[0,0,0]","door_history":"[1,1,1]","location_rts":"[9683,675,713]","trial_type":"two-door-navigation","trial_index":20,"time_elapsed":364318,"internal_node_id":"0.0-2.0-18.0"},{"group":"hexagon_tri","room_assignment":["purple","grey","yellow","red","green","blue"],"door_color_assignment":["white","black"],"door_generator_assignment":[1,0],"goal":0,"start":4,"action_noise":0.2,"location_history":"[4,0]","action_history":"[0]","door_history":"[1]","location_rts":"[3268]","trial_type":"two-door-navigation","trial_index":21,"time_elapsed":372103,"internal_node_id":"0.0-2.0-19.0"},{"group":"hexagon_tri","room_assignment":["purple","grey","yellow","red","green","blue"],"door_color_assignment":["white","black"],"door_generator_assignment":[1,0],"goal":1,"start":0,"action_noise":0.2,"location_history":"[0,1]","action_history":"[1]","door_history":"[0]","location_rts":"[1986]","trial_type":"two-door-navigation","trial_index":22,"time_elapsed":378604,"internal_node_id":"0.0-2.0-20.0"},{"group":"hexagon_tri","room_assignment":["purple","grey","yellow","red","green","blue"],"door_color_assignment":["white","black"],"door_generator_assignment":[1,0],"goal":3,"start":1,"action_noise":0.2,"location_history":"[1,5,4,2,3]","action_history":"[1,1,1,1]","door_history":"[0,0,0,0]","location_rts":"[1613,683,440,585]","trial_type":"two-door-navigation","trial_index":23,"time_elapsed":389456,"internal_node_id":"0.0-2.0-21.0"},{"group":"hexagon_tri","room_assignment":["purple","grey","yellow","red","green","blue"],"door_color_assignment":["white","black"],"door_generator_assignment":[1,0],"goal":2,"start":3,"action_noise":0.2,"location_history":"[3,2]","action_history":"[1]","door_history":"[0]","location_rts":"[1033]","trial_type":"two-door-navigation","trial_index":24,"time_elapsed":395000,"internal_node_id":"0.0-2.0-22.0"},{"group":"hexagon_tri","room_assignment":["purple","grey","yellow","red","green","blue"],"door_color_assignment":["white","black"],"door_generator_assignment":[1,0],"goal":0,"start":2,"action_noise":0.2,"location_history":"[2,3,2,1,3,4,2,3,4,2,1,5,0]","action_history":"[0,0,0,0,1,1,1,1,1,1,1,1]","door_history":"[1,1,1,1,0,0,0,0,0,0,0,0]","location_rts":"[2232,506,453,574,664,420,535,524,432,355,456,553]","trial_type":"two-door-navigation","trial_index":25,"time_elapsed":418306,"internal_node_id":"0.0-2.0-23.0"},{"group":"hexagon_tri","room_assignment":["purple","grey","yellow","red","green","blue"],"door_color_assignment":["white","black"],"door_generator_assignment":[1,0],"goal":3,"start":0,"action_noise":0.2,"location_history":"[0,1,5,4,2,1,5,0,1,3]","action_history":"[1,1,1,1,1,1,1,1,1]","door_history":"[0,0,0,0,0,0,0,0,0]","location_rts":"[880,311,400,249,242,280,346,431,474]","trial_type":"two-door-navigation","trial_index":26,"time_elapsed":434505,"internal_node_id":"0.0-2.0-24.0"},{"group":"hexagon_tri","room_assignment":["purple","grey","yellow","red","green","blue"],"door_color_assignment":["white","black"],"door_generator_assignment":[1,0],"goal":1,"start":3,"action_noise":0.2,"location_history":"[3,4,0,1]","action_history":"[1,1,1]","door_history":"[0,0,0]","location_rts":"[927,384,391]","trial_type":"two-door-navigation","trial_index":27,"time_elapsed":442738,"internal_node_id":"0.0-2.0-25.0"},{"group":"hexagon_tri","room_assignment":["purple","grey","yellow","red","green","blue"],"door_color_assignment":["white","black"],"door_generator_assignment":[1,0],"goal":2,"start":1,"action_noise":0.2,"location_history":"[1,5,0,1,5,0,1,5,0,1,5,4,2]","action_history":"[1,1,1,1,1,1,1,1,1,1,0,1]","door_history":"[0,0,0,0,0,0,0,0,0,0,1,0]","location_rts":"[961,437,494,358,471,421,478,556,360,590,511,1083]","trial_type":"two-door-navigation","trial_index":28,"time_elapsed":465071,"internal_node_id":"0.0-2.0-26.0"},{"group":"hexagon_tri","room_assignment":["purple","grey","yellow","red","green","blue"],"door_color_assignment":["white","black"],"door_generator_assignment":[1,0],"goal":5,"start":2,"action_noise":0.2,"location_history":"[2,1,5]","action_history":"[1,1]","door_history":"[0,0]","location_rts":"[1154,480]","trial_type":"two-door-navigation","trial_index":29,"time_elapsed":472231,"internal_node_id":"0.0-2.0-27.0"},{"group":"hexagon_tri","room_assignment":["purple","grey","yellow","red","green","blue"],"door_color_assignment":["white","black"],"door_generator_assignment":[1,0],"goal":4,"start":5,"action_noise":0.2,"location_history":"[5,0,1,5,4]","action_history":"[1,1,1,0]","door_history":"[0,0,0,1]","location_rts":"[732,404,509,1773]","trial_type":"two-door-navigation","trial_index":30,"time_elapsed":483195,"internal_node_id":"0.0-2.0-28.0"},{"group":"hexagon_tri","room_assignment":["purple","grey","yellow","red","green","blue"],"door_color_assignment":["white","black"],"door_generator_assignment":[1,0],"goal":5,"start":4,"action_noise":0.2,"location_history":"[4,2,3,4,2,3,2,1,5]","action_history":"[1,1,1,1,1,1,0,1]","door_history":"[0,0,0,0,0,0,1,0]","location_rts":"[1030,440,448,376,427,364,581,1231]","trial_type":"two-door-navigation","trial_index":31,"time_elapsed":499664,"internal_node_id":"0.0-2.0-29.0"},{"group":"hexagon_tri","room_assignment":["purple","grey","yellow","red","green","blue"],"door_color_assignment":["white","black"],"door_generator_assignment":[1,0],"goal":3,"start":5,"action_noise":0.2,"location_history":"[5,0,1,5,4,2,3]","action_history":"[1,1,1,0,1,1]","door_history":"[0,0,0,1,0,0]","location_rts":"[1049,543,980,867,392,393]","trial_type":"two-door-navigation","trial_index":32,"time_elapsed":513441,"internal_node_id":"0.0-2.0-30.0"},{"group":"hexagon_tri","room_assignment":["purple","grey","yellow","red","green","blue"],"door_color_assignment":["white","black"],"door_generator_assignment":[1,0],"goal":0,"start":3,"action_noise":0.2,"location_history":"[3,2,3,2,1,3,2,1,3,4,2,3,2,3,2,1,3,4,2,3,4,0]","action_history":"[1,1,0,0,0,0,0,0,1,1,1,1,1,0,0,0,1,1,1,1,1]","door_history":"[0,0,1,1,1,1,1,1,0,0,0,0,0,1,1,1,0,0,0,0,0]","location_rts":"[907,927,571,865,513,427,438,558,340,554,549,386,446,764,845,560,583,494,431,434,465]","trial_type":"two-door-navigation","trial_index":33,"time_elapsed":550174,"internal_node_id":"0.0-2.0-31.0"},{"group":"hexagon_tri","room_assignment":["purple","grey","yellow","red","green","blue"],"door_color_assignment":["white","black"],"door_generator_assignment":[1,0],"goal":4,"start":0,"action_noise":0.2,"location_history":"[0,1,5,0,1,5,4]","action_history":"[1,1,1,1,1,1]","door_history":"[0,0,0,0,0,0]","location_rts":"[765,458,374,336,368,264]","trial_type":"two-door-navigation","trial_index":34,"time_elapsed":562290,"internal_node_id":"0.0-2.0-32.0"},{"group":"hexagon_tri","room_assignment":["purple","grey","yellow","red","green","blue"],"door_color_assignment":["white","black"],"door_generator_assignment":[1,0],"goal":1,"start":4,"action_noise":0.2,"location_history":"[4,2,1]","action_history":"[1,1]","door_history":"[0,0]","location_rts":"[874,384]","trial_type":"two-door-navigation","trial_index":35,"time_elapsed":569069,"internal_node_id":"0.0-2.0-33.0"},{"group":"hexagon_tri","room_assignment":["purple","grey","yellow","red","green","blue"],"door_color_assignment":["white","black"],"door_generator_assignment":[1,0],"goal":2,"start":1,"action_noise":0.2,"location_history":"[1,5,0,5,0,5,0,5,4,0,5,0,1,5,0,1,3,4,2]","action_history":"[1,1,1,0,0,0,0,0,0,0,1,1,1,1,1,1,1,1]","door_history":"[0,0,0,1,1,1,1,1,1,1,0,0,0,0,0,0,0,0]","location_rts":"[692,331,233,824,571,399,424,503,1088,1015,599,416,393,360,282,353,396,378]","trial_type":"two-door-navigation","trial_index":36,"time_elapsed":600001,"internal_node_id":"0.0-2.0-34.0"},{"group":"hexagon_tri","room_assignment":["purple","grey","yellow","red","green","blue"],"door_color_assignment":["white","black"],"door_generator_assignment":[1,0],"goal":0,"start":2,"action_noise":0.2,"location_history":"[2,1,5,4,0]","action_history":"[1,1,0,0]","door_history":"[0,0,1,1]","location_rts":"[775,531,813,685]","trial_type":"two-door-navigation","trial_index":37,"time_elapsed":610345,"internal_node_id":"0.0-2.0-35.0"},{"group":"hexagon_tri","room_assignment":["purple","grey","yellow","red","green","blue"],"door_color_assignment":["white","black"],"door_generator_assignment":[1,0],"goal":5,"start":0,"action_noise":0.2,"location_history":"[0,1,5]","action_history":"[1,1]","door_history":"[0,0]","location_rts":"[1175,415]","trial_type":"two-door-navigation","trial_index":38,"time_elapsed":617457,"internal_node_id":"0.0-2.0-36.0"},{"group":"hexagon_tri","room_assignment":["purple","grey","yellow","red","green","blue"],"door_color_assignment":["white","black"],"door_generator_assignment":[1,0],"goal":2,"start":5,"action_noise":0.2,"location_history":"[5,0,5,0,1,3,4,0,5,0,5,0,5,0,5,4,0,1,3,2]","action_history":"[1,0,1,1,1,1,1,1,1,1,1,0,0,0,0,0,0,0,0]","door_history":"[0,1,0,0,0,0,0,0,0,0,0,1,1,1,1,1,1,1,1]","location_rts":"[825,817,395,398,440,419,420,453,241,274,338,460,228,307,264,267,328,364,626]","trial_type":"two-door-navigation","trial_index":39,"time_elapsed":647996,"internal_node_id":"0.0-2.0-37.0"},{"group":"hexagon_tri","room_assignment":["purple","grey","yellow","red","green","blue"],"door_color_assignment":["white","black"],"door_generator_assignment":[1,0],"goal":1,"start":2,"action_noise":0.2,"location_history":"[2,3,4,2,3,4,0,1]","action_history":"[1,1,1,1,1,1,1]","door_history":"[0,0,0,0,0,0,0]","location_rts":"[1661,373,438,456,303,359,646]","trial_type":"two-door-navigation","trial_index":40,"time_elapsed":662801,"internal_node_id":"0.0-2.0-38.0"},{"group":"hexagon_tri","room_assignment":["purple","grey","yellow","red","green","blue"],"door_color_assignment":["white","black"],"door_generator_assignment":[1,0],"goal":4,"start":1,"action_noise":0.2,"location_history":"[1,5,0,1,3,4]","action_history":"[1,1,1,1,1]","door_history":"[0,0,0,0,0]","location_rts":"[1433,431,408,356,362]","trial_type":"two-door-navigation","trial_index":41,"time_elapsed":674338,"internal_node_id":"0.0-2.0-39.0"},{"group":"hexagon_tri","room_assignment":["purple","grey","yellow","red","green","blue"],"door_color_assignment":["white","black"],"door_generator_assignment":[1,0],"goal":3,"start":4,"action_noise":0.2,"location_history":"[4,2,3]","action_history":"[1,1]","door_history":"[0,0]","location_rts":"[947,360]","trial_type":"two-door-navigation","trial_index":42,"time_elapsed":681165,"internal_node_id":"0.0-2.0-40.0"},{"group":"hexagon_tri","room_assignment":["purple","grey","yellow","red","green","blue"],"door_color_assignment":["white","black"],"door_generator_assignment":[1,0],"goal":5,"start":3,"action_noise":0.2,"location_history":"[3,4,2,1,3,4,0,5]","action_history":"[1,1,1,1,1,1,1]","door_history":"[0,0,0,0,0,0,0]","location_rts":"[1646,452,299,293,313,372,434]","trial_type":"two-door-navigation","trial_index":43,"time_elapsed":695540,"internal_node_id":"0.0-2.0-41.0"},{"group":"hexagon_tri","room_assignment":["purple","grey","yellow","red","green","blue"],"door_color_assignment":["white","black"],"door_generator_assignment":[1,0],"goal":3,"start":5,"action_noise":0.2,"location_history":"[5,0,5,0,1,5,4,0,1,3]","action_history":"[1,1,1,1,1,1,1,1,1]","door_history":"[0,0,0,0,0,0,0,0,0]","location_rts":"[662,581,303,292,224,312,395,236,238]","trial_type":"two-door-navigation","trial_index":44,"time_elapsed":711370,"internal_node_id":"0.0-2.0-42.0"},{"group":"hexagon_tri","room_assignment":["purple","grey","yellow","red","green","blue"],"door_color_assignment":["white","black"],"door_generator_assignment":[1,0],"goal":0,"start":3,"action_noise":0.2,"location_history":"[3,4,0]","action_history":"[0,0]","door_history":"[1,1]","location_rts":"[1432,660]","trial_type":"two-door-navigation","trial_index":45,"time_elapsed":718986,"internal_node_id":"0.0-2.0-43.0"},{"group":"hexagon_tri","room_assignment":["purple","grey","yellow","red","green","blue"],"door_color_assignment":["white","black"],"door_generator_assignment":[1,0],"goal":2,"start":0,"action_noise":0.2,"location_history":"[0,1,5,0,1,5,4,2]","action_history":"[1,1,1,1,1,1,1]","door_history":"[0,0,0,0,0,0,0]","location_rts":"[16616,350,216,242,230,281,246]","trial_type":"two-door-navigation","trial_index":46,"time_elapsed":747730,"internal_node_id":"0.0-2.0-44.0"},{"group":"hexagon_tri","room_assignment":["purple","grey","yellow","red","green","blue"],"door_color_assignment":["white","black"],"door_generator_assignment":[1,0],"goal":4,"start":2,"action_noise":0.2,"location_history":"[2,3,4]","action_history":"[1,1]","door_history":"[0,0]","location_rts":"[1480,628]","trial_type":"two-door-navigation","trial_index":47,"time_elapsed":755358,"internal_node_id":"0.0-2.0-45.0"},{"group":"hexagon_tri","room_assignment":["purple","grey","yellow","red","green","blue"],"door_color_assignment":["white","black"],"door_generator_assignment":[1,0],"goal":1,"start":4,"action_noise":0.2,"location_history":"[4,0,1]","action_history":"[1,1]","door_history":"[0,0]","location_rts":"[2588,533]","trial_type":"two-door-navigation","trial_index":48,"time_elapsed":764000,"internal_node_id":"0.0-2.0-46.0"},{"group":"hexagon_tri","room_assignment":["purple","grey","yellow","red","green","blue"],"door_color_assignment":["white","black"],"door_generator_assignment":[1,0],"goal":4,"start":1,"action_noise":0.2,"location_history":"[1,5,4]","action_history":"[1,0]","door_history":"[0,1]","location_rts":"[1178,965]","trial_type":"two-door-navigation","trial_index":49,"time_elapsed":771665,"internal_node_id":"0.0-2.0-47.0"},{"group":"hexagon_tri","room_assignment":["purple","grey","yellow","red","green","blue"],"door_color_assignment":["white","black"],"door_generator_assignment":[1,0],"goal":1,"start":4,"action_noise":0.2,"location_history":"[4,2,3,2,3,4,0,1]","action_history":"[1,1,1,1,1,1,1]","door_history":"[0,0,0,0,0,0,0]","location_rts":"[2136,763,511,546,415,447,392]","trial_type":"two-door-navigation","trial_index":50,"time_elapsed":787444,"internal_node_id":"0.0-2.0-48.0"},{"group":"hexagon_tri","room_assignment":["purple","grey","yellow","red","green","blue"],"door_color_assignment":["white","black"],"door_generator_assignment":[1,0],"goal":3,"start":1,"action_noise":0.2,"location_history":"[1,5,0,1,5,0,1,5,0,1,5,0,5,0,1,5,0,5,4,0,5,4,2,1,5,0,1,5,4,2,1,3]","action_history":"[1,1,1,1,1,1,1,1,1,1,1,1,1,1,0,0,0,0,0,0,0,1,1,1,1,1,1,0,0,0,0]","door_history":"[0,0,0,0,0,0,0,0,0,0,0,0,0,0,1,1,1,1,1,1,1,0,0,0,0,0,0,1,1,1,1]","location_rts":"[1190,420,400,376,258,220,260,252,129,261,286,253,314,620,5837,950,644,686,614,624,474,1299,466,624,403,290,361,987,481,401,353]","trial_type":"two-door-navigation","trial_index":51,"time_elapsed":842954,"internal_node_id":"0.0-2.0-49.0"},{"group":"hexagon_tri","room_assignment":["purple","grey","yellow","red","green","blue"],"door_color_assignment":["white","black"],"door_generator_assignment":[1,0],"goal":5,"start":3,"action_noise":0.2,"location_history":"[3,4,2,3,2,3,4,0,5]","action_history":"[1,1,1,0,1,1,0,1]","door_history":"[0,0,0,1,0,0,1,0]","location_rts":"[1233,599,695,936,772,458,754,1354]","trial_type":"two-door-navigation","trial_index":52,"time_elapsed":861330,"internal_node_id":"0.0-2.0-50.0"},{"group":"hexagon_tri","room_assignment":["purple","grey","yellow","red","green","blue"],"door_color_assignment":["white","black"],"door_generator_assignment":[1,0],"goal":0,"start":5,"action_noise":0.2,"location_history":"[5,0]","action_history":"[1]","door_history":"[0]","location_rts":"[1359]","trial_type":"two-door-navigation","trial_index":53,"time_elapsed":867208,"internal_node_id":"0.0-2.0-51.0"},{"group":"hexagon_tri","room_assignment":["purple","grey","yellow","red","green","blue"],"door_color_assignment":["white","black"],"door_generator_assignment":[1,0],"goal":2,"start":0,"action_noise":0.2,"location_history":"[0,5,4,0,1,3,4,0,5,4,2]","action_history":"[0,0,0,0,0,0,0,0,0,1]","door_history":"[1,1,1,1,1,1,1,1,1,0]","location_rts":"[1810,1004,427,368,401,568,609,494,476,963]","trial_type":"two-door-navigation","trial_index":54,"time_elapsed":887914,"internal_node_id":"0.0-2.0-52.0"},{"group":"hexagon_tri","room_assignment":["purple","grey","yellow","red","green","blue"],"door_color_assignment":["white","black"],"door_generator_assignment":[1,0],"goal":1,"start":2,"action_noise":0.2,"location_history":"[2,1]","action_history":"[1]","door_history":"[0]","location_rts":"[1097]","trial_type":"two-door-navigation","trial_index":55,"time_elapsed":893520,"internal_node_id":"0.0-2.0-53.0"},{"group":"hexagon_tri","room_assignment":["purple","grey","yellow","red","green","blue"],"door_color_assignment":["white","black"],"door_generator_assignment":[1,0],"goal":2,"start":1,"action_noise":0.2,"location_history":"[1,3,4,2]","action_history":"[1,1,1]","door_history":"[0,0,0]","location_rts":"[1347,360,474]","trial_type":"two-door-navigation","trial_index":56,"time_elapsed":902242,"internal_node_id":"0.0-2.0-54.0"},{"group":"hexagon_tri","room_assignment":["purple","grey","yellow","red","green","blue"],"door_color_assignment":["white","black"],"door_generator_assignment":[1,0],"goal":5,"start":2,"action_noise":0.2,"location_history":"[2,3,2,1,5]","action_history":"[1,1,0,1]","door_history":"[0,0,1,0]","location_rts":"[840,365,383,418]","trial_type":"two-door-navigation","trial_index":57,"time_elapsed":911789,"internal_node_id":"0.0-2.0-55.0"},{"group":"hexagon_tri","room_assignment":["purple","grey","yellow","red","green","blue"],"door_color_assignment":["white","black"],"door_generator_assignment":[1,0],"goal":4,"start":5,"action_noise":0.2,"location_history":"[5,0,5,0,5,4]","action_history":"[0,0,0,0,0]","door_history":"[1,1,1,1,1]","location_rts":"[1621,295,392,378,293]","trial_type":"two-door-navigation","trial_index":58,"time_elapsed":923325,"internal_node_id":"0.0-2.0-56.0"},{"group":"hexagon_tri","room_assignment":["purple","grey","yellow","red","green","blue"],"door_color_assignment":["white","black"],"door_generator_assignment":[1,0],"goal":3,"start":4,"action_noise":0.2,"location_history":"[4,0,5,0,5,0,1,5,4,2,1,5,4,0,5,4,2,1,3]","action_history":"[0,0,1,1,1,0,1,0,1,1,0,0,0,0,0,0,0,0]","door_history":"[1,1,0,0,0,1,0,1,0,0,1,1,1,1,1,1,1,1]","location_rts":"[1380,409,977,587,398,265,1394,870,1150,426,7445,687,311,371,80,27,494,391]","trial_type":"two-door-navigation","trial_index":59,"time_elapsed":962669,"internal_node_id":"0.0-2.0-57.0"},{"group":"hexagon_tri","room_assignment":["purple","grey","yellow","red","green","blue"],"door_color_assignment":["white","black"],"door_generator_assignment":[1,0],"goal":0,"start":3,"action_noise":0.2,"location_history":"[3,2,3,4,2,3,2,3,2,3,4,2,1,5,0]","action_history":"[0,1,1,1,1,0,1,0,1,0,1,0,1,1]","door_history":"[1,0,0,0,0,1,0,1,0,1,0,1,0,0]","location_rts":"[1416,342,419,529,389,586,360,460,278,463,303,337,316,440]","trial_type":"two-door-navigation","trial_index":60,"time_elapsed":986935,"internal_node_id":"0.0-2.0-58.0"},{"group":"hexagon_tri","room_assignment":["purple","grey","yellow","red","green","blue"],"door_color_assignment":["white","black"],"door_generator_assignment":[1,0],"goal":2,"start":0,"action_noise":0.2,"location_history":"[0,5,0,1,5,4,2]","action_history":"[0,1,1,1,1,1]","door_history":"[1,0,0,0,0,0]","location_rts":"[3829,342,346,291,159,217]","trial_type":"two-door-navigation","trial_index":61,"time_elapsed":1001667,"internal_node_id":"0.0-2.0-59.0"},{"group":"hexagon_tri","room_assignment":["purple","grey","yellow","red","green","blue"],"door_color_assignment":["white","black"],"door_generator_assignment":[1,0],"goal":1,"start":2,"action_noise":0.2,"location_history":"[2,3,4,2,3,4,2,3,4,2,3,4,0,1]","action_history":"[1,1,1,1,1,1,1,1,1,1,1,1,1]","door_history":"[0,0,0,0,0,0,0,0,0,0,0,0,0]","location_rts":"[1110,375,328,312,227,94,353,134,203,286,164,183,305]","trial_type":"two-door-navigation","trial_index":62,"time_elapsed":1022358,"internal_node_id":"0.0-2.0-60.0"},{"group":"hexagon_tri","room_assignment":["purple","grey","yellow","red","green","blue"],"door_color_assignment":["white","black"],"door_generator_assignment":[1,0],"goal":0,"start":1,"action_noise":0.2,"location_history":"[1,5,0]","action_history":"[1,1]","door_history":"[0,0]","location_rts":"[901,255]","trial_type":"two-door-navigation","trial_index":63,"time_elapsed":1029036,"internal_node_id":"0.0-2.0-61.0"},{"group":"hexagon_tri","room_assignment":["purple","grey","yellow","red","green","blue"],"door_color_assignment":["white","black"],"door_generator_assignment":[1,0],"goal":3,"start":0,"action_noise":0.2,"location_history":"[0,5,4,2,3]","action_history":"[0,0,1,1]","door_history":"[1,1,0,0]","location_rts":"[1670,1157,1454,489]","trial_type":"two-door-navigation","trial_index":64,"time_elapsed":1041358,"internal_node_id":"0.0-2.0-62.0"},{"group":"hexagon_tri","room_assignment":["purple","grey","yellow","red","green","blue"],"door_color_assignment":["white","black"],"door_generator_assignment":[1,0],"goal":5,"start":3,"action_noise":0.2,"location_history":"[3,2,1,3,4,2,3,4,2,1,3,2,1,5]","action_history":"[0,0,1,1,1,1,1,1,0,1,0,0,1]","door_history":"[1,1,0,0,0,0,0,0,1,0,1,1,0]","location_rts":"[1477,1498,549,518,421,364,408,530,358,423,1048,381,689]","trial_type":"two-door-navigation","trial_index":65,"time_elapsed":1066643,"internal_node_id":"0.0-2.0-63.0"},{"group":"hexagon_tri","room_assignment":["purple","grey","yellow","red","green","blue"],"door_color_assignment":["white","black"],"door_generator_assignment":[1,0],"goal":4,"start":5,"action_noise":0.2,"location_history":"[5,4]","action_history":"[0]","door_history":"[1]","location_rts":"[38081]","trial_type":"two-door-navigation","trial_index":66,"time_elapsed":1109234,"internal_node_id":"0.0-2.0-64.0"},{"group":"hexagon_tri","room_assignment":["purple","grey","yellow","red","green","blue"],"door_color_assignment":["white","black"],"door_generator_assignment":[1,0],"goal":1,"start":4,"action_noise":0.2,"location_history":"[4,2,3,4,2,1]","action_history":"[1,1,1,1,0]","door_history":"[0,0,0,0,1]","location_rts":"[3649,469,3700,603,361]","trial_type":"two-door-navigation","trial_index":67,"time_elapsed":1126568,"internal_node_id":"0.0-2.0-65.0"},{"group":"hexagon_tri","room_assignment":["purple","grey","yellow","red","green","blue"],"door_color_assignment":["white","black"],"door_generator_assignment":[1,0],"goal":5,"start":1,"action_noise":0.2,"location_history":"[1,5]","action_history":"[1]","door_history":"[0]","location_rts":"[1507]","trial_type":"two-door-navigation","trial_index":68,"time_elapsed":1132590,"internal_node_id":"0.0-2.0-66.0"},{"group":"hexagon_tri","room_assignment":["purple","grey","yellow","red","green","blue"],"door_color_assignment":["white","black"],"door_generator_assignment":[1,0],"goal":2,"start":5,"action_noise":0.2,"location_history":"[5,4,0,5,4,0,5,0,1,3,4,0,5,0,5,0,1,3,4,2]","action_history":"[0,0,0,0,0,0,1,1,0,0,0,0,1,1,1,1,0,1,1]","door_history":"[1,1,1,1,1,1,0,0,1,1,1,1,0,0,0,0,1,0,0]","location_rts":"[2572,1024,512,420,465,656,669,771,1166,463,466,617,415,341,171,360,380,947,394]","trial_type":"two-door-navigation","trial_index":69,"time_elapsed":1168081,"internal_node_id":"0.0-2.0-67.0"},{"group":"hexagon_tri","room_assignment":["purple","grey","yellow","red","green","blue"],"door_color_assignment":["white","black"],"door_generator_assignment":[1,0],"goal":3,"start":2,"action_noise":0.2,"location_history":"[2,1,5,0,1,5,0,1,5,0,1,3]","action_history":"[1,1,1,1,1,1,1,1,1,1,0]","door_history":"[0,0,0,0,0,0,0,0,0,0,1]","location_rts":"[2315,851,425,314,199,83,75,480,337,1013,141]","trial_type":"two-door-navigation","trial_index":70,"time_elapsed":1188906,"internal_node_id":"0.0-2.0-68.0"},{"group":"hexagon_tri","room_assignment":["purple","grey","yellow","red","green","blue"],"door_color_assignment":["white","black"],"door_generator_assignment":[1,0],"goal":4,"start":3,"action_noise":0.2,"location_history":"[3,2,1,5,0,1,3,4]","action_history":"[0,0,0,0,0,0,0]","door_history":"[1,1,1,1,1,1,1]","location_rts":"[1480,311,343,431,176,512,365]","trial_type":"two-door-navigation","trial_index":71,"time_elapsed":1203091,"internal_node_id":"0.0-2.0-69.0"},{"group":"hexagon_tri","room_assignment":["purple","grey","yellow","red","green","blue"],"door_color_assignment":["white","black"],"door_generator_assignment":[1,0],"goal":0,"start":4,"action_noise":0.2,"location_history":"[4,0]","action_history":"[0]","door_history":"[1]","location_rts":"[1041]","trial_type":"two-door-navigation","trial_index":72,"time_elapsed":1208646,"internal_node_id":"0.0-2.0-70.0"},{"group":"hexagon_tri","room_assignment":["purple","grey","yellow","red","green","blue"],"door_color_assignment":["white","black"],"door_generator_assignment":[1,0],"goal":5,"start":0,"action_noise":0.2,"location_history":"[0,1,3,4,2,3,4,2,3,4,2,3,2,3,4,2,3,4,2,3,4,2,1,5]","action_history":"[1,1,1,1,1,1,1,1,1,1,1,1,1,1,1,1,1,1,1,1,1,0,1]","door_history":"[0,0,0,0,0,0,0,0,0,0,0,0,0,0,0,0,0,0,0,0,0,1,0]","location_rts":"[1492,469,534,427,301,332,241,160,70,406,36,59,78,154,55,135,143,122,113,87,76,904,664]","trial_type":"two-door-navigation","trial_index":73,"time_elapsed":1242406,"internal_node_id":"0.0-2.0-71.0"},{"group":"hexagon_tri","room_assignment":["purple","grey","yellow","red","green","blue"],"door_color_assignment":["white","black"],"door_generator_assignment":[1,0],"goal":0,"start":5,"action_noise":0.2,"location_history":"[5,0]","action_history":"[1]","door_history":"[0]","location_rts":"[1157]","trial_type":"two-door-navigation","trial_index":74,"time_elapsed":1248075,"internal_node_id":"0.0-2.0-72.0"},{"group":"hexagon_tri","room_assignment":["purple","grey","yellow","red","green","blue"],"door_color_assignment":["white","black"],"door_generator_assignment":[1,0],"goal":3,"start":0,"action_noise":0.2,"location_history":"[0,5,4,2,3]","action_history":"[0,0,0,1]","door_history":"[1,1,1,0]","location_rts":"[1941,1729,741,941]","trial_type":"two-door-navigation","trial_index":75,"time_elapsed":1260969,"internal_node_id":"0.0-2.0-73.0"},{"group":"hexagon_tri","room_assignment":["purple","grey","yellow","red","green","blue"],"door_color_assignment":["white","black"],"door_generator_assignment":[1,0],"goal":1,"start":3,"action_noise":0.2,"location_history":"[3,2,1]","action_history":"[0,0]","door_history":"[1,1]","location_rts":"[1770,634]","trial_type":"two-door-navigation","trial_index":76,"time_elapsed":1268895,"internal_node_id":"0.0-2.0-74.0"},{"group":"hexagon_tri","room_assignment":["purple","grey","yellow","red","green","blue"],"door_color_assignment":["white","black"],"door_generator_assignment":[1,0],"goal":2,"start":1,"action_noise":0.2,"location_history":"[1,5,0,1,5,4,2]","action_history":"[1,1,1,0,0,1]","door_history":"[0,0,0,1,1,0]","location_rts":"[2178,1192,698,247,726,1074]","trial_type":"two-door-navigation","trial_index":77,"time_elapsed":1284559,"internal_node_id":"0.0-2.0-75.0"},{"group":"hexagon_tri","room_assignment":["purple","grey","yellow","red","green","blue"],"door_color_assignment":["white","black"],"door_generator_assignment":[1,0],"goal":4,"start":2,"action_noise":0.2,"location_history":"[2,1,3,2,1,5,4]","action_history":"[0,0,0,0,0,0]","door_history":"[1,1,1,1,1,1]","location_rts":"[1412,560,545,746,1344,691]","trial_type":"two-door-navigation","trial_index":78,"time_elapsed":1299421,"internal_node_id":"0.0-2.0-76.0"},{"group":"hexagon_tri","room_assignment":["purple","grey","yellow","red","green","blue"],"door_color_assignment":["white","black"],"door_generator_assignment":[1,0],"goal":3,"start":4,"action_noise":0.2,"location_history":"[4,2,1,5,0,1,5,4,2,3]","action_history":"[1,1,1,1,1,1,0,1,1]","door_history":"[0,0,0,0,0,0,1,0,0]","location_rts":"[2063,856,589,705,525,609,566,1136,646]","trial_type":"two-door-navigation","trial_index":79,"time_elapsed":1319710,"internal_node_id":"0.0-2.0-77.0"},{"group":"hexagon_tri","room_assignment":["purple","grey","yellow","red","green","blue"],"door_color_assignment":["white","black"],"door_generator_assignment":[1,0],"goal":0,"start":3,"action_noise":0.2,"location_history":"[3,2,1,5,0]","action_history":"[0,0,1,1]","door_history":"[1,1,0,0]","location_rts":"[2765,1026,743,414]","trial_type":"two-door-navigation","trial_index":80,"time_elapsed":1332192,"internal_node_id":"0.0-2.0-78.0"},{"group":"hexagon_tri","room_assignment":["purple","grey","yellow","red","green","blue"],"door_color_assignment":["white","black"],"door_generator_assignment":[1,0],"goal":4,"start":0,"action_noise":0.2,"location_history":"[0,5,4]","action_history":"[0,0]","door_history":"[1,1]","location_rts":"[2339,875]","trial_type":"two-door-navigation","trial_index":81,"time_elapsed":1340928,"internal_node_id":"0.0-2.0-79.0"},{"group":"hexagon_tri","room_assignment":["purple","grey","yellow","red","green","blue"],"door_color_assignment":["white","black"],"door_generator_assignment":[1,0],"goal":5,"start":4,"action_noise":0.2,"location_history":"[4,0,5]","action_history":"[0,0]","door_history":"[1,1]","location_rts":"[1355,688]","trial_type":"two-door-navigation","trial_index":82,"time_elapsed":1348484,"internal_node_id":"0.0-2.0-80.0"},{"group":"hexagon_tri","room_assignment":["purple","grey","yellow","red","green","blue"],"door_color_assignment":["white","black"],"door_generator_assignment":[1,0],"goal":1,"start":5,"action_noise":0.2,"location_history":"[5,0,1]","action_history":"[1,1]","door_history":"[0,0]","location_rts":"[1231,462]","trial_type":"two-door-navigation","trial_index":83,"time_elapsed":1355698,"internal_node_id":"0.0-2.0-81.0"},{"group":"hexagon_tri","room_assignment":["purple","grey","yellow","red","green","blue"],"door_color_assignment":["white","black"],"door_generator_assignment":[1,0],"goal":2,"start":1,"action_noise":0.2,"location_history":"[1,5,4,0,5,4,2]","action_history":"[1,0,0,0,0,1]","door_history":"[0,1,1,1,1,0]","location_rts":"[2065,1065,1409,683,680,937]","trial_type":"two-door-navigation","trial_index":84,"time_elapsed":1372096,"internal_node_id":"0.0-2.0-82.0"},{"group":"hexagon_tri","room_assignment":["purple","grey","yellow","red","green","blue"],"door_color_assignment":["white","black"],"door_generator_assignment":[1,0],"goal":4,"start":2,"action_noise":0.2,"location_history":"[2,1,3,2,1,3,4]","action_history":"[0,0,0,0,0,1]","door_history":"[1,1,1,1,1,0]","location_rts":"[1541,817,1161,576,479,973]","trial_type":"two-door-navigation","trial_index":85,"time_elapsed":1387198,"internal_node_id":"0.0-2.0-83.0"},{"group":"hexagon_tri","room_assignment":["purple","grey","yellow","red","green","blue"],"door_color_assignment":["white","black"],"door_generator_assignment":[1,0],"goal":0,"start":4,"action_noise":0.2,"location_history":"[4,0]","action_history":"[0]","door_history":"[1]","location_rts":"[4270]","trial_type":"two-door-navigation","trial_index":86,"time_elapsed":1395979,"internal_node_id":"0.0-2.0-84.0"},{"group":"hexagon_tri","room_assignment":["purple","grey","yellow","red","green","blue"],"door_color_assignment":["white","black"],"door_generator_assignment":[1,0],"goal":5,"start":0,"action_noise":0.2,"location_history":"[0,1,5]","action_history":"[1,1]","door_history":"[0,0]","location_rts":"[2056,743]","trial_type":"two-door-navigation","trial_index":87,"time_elapsed":1404297,"internal_node_id":"0.0-2.0-85.0"},{"group":"hexagon_tri","room_assignment":["purple","grey","yellow","red","green","blue"],"door_color_assignment":["white","black"],"door_generator_assignment":[1,0],"goal":3,"start":5,"action_noise":0.2,"location_history":"[5,0,5,4,0,5,4,2,3]","action_history":"[0,0,0,0,0,0,1,1]","door_history":"[1,1,1,1,1,1,0,0]","location_rts":"[1459,2101,985,1755,696,520,724,534]","trial_type":"two-door-navigation","trial_index":88,"time_elapsed":1424645,"internal_node_id":"0.0-2.0-86.0"},{"group":"hexagon_tri","room_assignment":["purple","grey","yellow","red","green","blue"],"door_color_assignment":["white","black"],"door_generator_assignment":[1,0],"goal":1,"start":3,"action_noise":0.2,"location_history":"[3,4,2,3,4,0,5,0,5,0,1]","action_history":"[0,1,1,0,0,1,1,1,1,1]","door_history":"[1,0,0,1,1,0,0,0,0,0]","location_rts":"[2062,1641,583,751,1322,688,469,511,495,377]","trial_type":"two-door-navigation","trial_index":89,"time_elapsed":1447128,"internal_node_id":"0.0-2.0-87.0"},{"group":"hexagon_tri","room_assignment":["purple","grey","yellow","red","green","blue"],"door_color_assignment":["white","black"],"door_generator_assignment":[1,0],"goal":2,"start":1,"action_noise":0.2,"location_history":"[1,3,4,0,1,5,0,5,4,2]","action_history":"[0,1,1,1,1,1,0,0,1]","door_history":"[1,0,0,0,0,0,1,1,0]","location_rts":"[1532,730,429,456,398,426,1476,727,771]","trial_type":"two-door-navigation","trial_index":90,"time_elapsed":1466650,"internal_node_id":"0.0-2.0-88.0"},{"group":"hexagon_tri","room_assignment":["purple","grey","yellow","red","green","blue"],"door_color_assignment":["white","black"],"door_generator_assignment":[1,0],"goal":0,"start":2,"action_noise":0.2,"location_history":"[2,3,2,1,5,0]","action_history":"[0,0,0,1,1]","door_history":"[1,1,1,0,0]","location_rts":"[1424,1177,753,776,463]","trial_type":"two-door-navigation","trial_index":91,"time_elapsed":1479791,"internal_node_id":"0.0-2.0-89.0"},{"group":"hexagon_tri","room_assignment":["purple","grey","yellow","red","green","blue"],"door_color_assignment":["white","black"],"door_generator_assignment":[1,0],"goal":5,"start":0,"action_noise":0.2,"location_history":"[0,5]","action_history":"[0]","door_history":"[1]","location_rts":"[1339]","trial_type":"two-door-navigation","trial_index":92,"time_elapsed":1485638,"internal_node_id":"0.0-2.0-90.0"},{"group":"hexagon_tri","room_assignment":["purple","grey","yellow","red","green","blue"],"door_color_assignment":["white","black"],"door_generator_assignment":[1,0],"goal":1,"start":5,"action_noise":0.2,"location_history":"[5,0,5,4,2,3,4,2,3,4,0,1]","action_history":"[1,1,1,1,1,1,1,1,1,0,1]","door_history":"[0,0,0,0,0,0,0,0,0,1,0]","location_rts":"[1326,857,382,384,418,385,407,313,332,639,207]","trial_type":"two-door-navigation","trial_index":93,"time_elapsed":1505894,"internal_node_id":"0.0-2.0-91.0"},{"group":"hexagon_tri","room_assignment":["purple","grey","yellow","red","green","blue"],"door_color_assignment":["white","black"],"door_generator_assignment":[1,0],"goal":3,"start":1,"action_noise":0.2,"location_history":"[1,3]","action_history":"[0]","door_history":"[1]","location_rts":"[1357]","trial_type":"two-door-navigation","trial_index":94,"time_elapsed":1511762,"internal_node_id":"0.0-2.0-92.0"},{"group":"hexagon_tri","room_assignment":["purple","grey","yellow","red","green","blue"],"door_color_assignment":["white","black"],"door_generator_assignment":[1,0],"goal":4,"start":3,"action_noise":0.2,"location_history":"[3,2,1,3,2,3,4]","action_history":"[0,0,0,0,1,1]","door_history":"[1,1,1,1,0,0]","location_rts":"[1786,507,827,432,609,733]","trial_type":"two-door-navigation","trial_index":95,"time_elapsed":1526210,"internal_node_id":"0.0-2.0-93.0"},{"group":"hexagon_tri","room_assignment":["purple","grey","yellow","red","green","blue"],"door_color_assignment":["white","black"],"door_generator_assignment":[1,0],"goal":2,"start":4,"action_noise":0.2,"location_history":"[4,0,1,5,4,0,5,4,0,5,0,5,4,2]","action_history":"[0,0,0,0,1,0,1,0,1,1,0,0,0]","door_history":"[1,1,1,1,0,1,0,1,0,0,1,1,1]","location_rts":"[1818,819,625,668,1184,996,970,805,793,605,383,469,1279]","trial_type":"two-door-navigation","trial_index":96,"time_elapsed":1554238,"internal_node_id":"0.0-2.0-94.0"},{"group":"hexagon_tri","room_assignment":["purple","grey","yellow","red","green","blue"],"door_color_assignment":["white","black"],"door_generator_assignment":[1,0],"goal":4,"start":2,"action_noise":0.2,"location_history":"[2,1,3,4]","action_history":"[0,0,1]","door_history":"[1,1,0]","location_rts":"[1335,692,1507]","trial_type":"two-door-navigation","trial_index":97,"time_elapsed":1564308,"internal_node_id":"0.0-2.0-95.0"},{"group":"hexagon_tri","room_assignment":["purple","grey","yellow","red","green","blue"],"door_color_assignment":["white","black"],"door_generator_assignment":[1,0],"goal":0,"start":4,"action_noise":0.2,"location_history":"[4,0]","action_history":"[0]","door_history":"[1]","location_rts":"[1496]","trial_type":"two-door-navigation","trial_index":98,"time_elapsed":1570318,"internal_node_id":"0.0-2.0-96.0"},{"group":"hexagon_tri","room_assignment":["purple","grey","yellow","red","green","blue"],"door_color_assignment":["white","black"],"door_generator_assignment":[1,0],"goal":5,"start":0,"action_noise":0.2,"location_history":"[0,1,3,2,1,5]","action_history":"[1,1,0,0,1]","door_history":"[0,0,1,1,0]","location_rts":"[1581,564,1542,483,505]","trial_type":"two-door-navigation","trial_index":99,"time_elapsed":1583531,"internal_node_id":"0.0-2.0-97.0"},{"group":"hexagon_tri","room_assignment":["purple","grey","yellow","red","green","blue"],"door_color_assignment":["white","black"],"door_generator_assignment":[1,0],"goal":1,"start":5,"action_noise":0.2,"location_history":"[5,4,2,3,4,2,3,4,2,1]","action_history":"[1,1,1,1,1,1,1,0,0]","door_history":"[0,0,0,0,0,0,0,1,1]","location_rts":"[1544,457,510,627,681,982,624,618,435]","trial_type":"two-door-navigation","trial_index":100,"time_elapsed":1602581,"internal_node_id":"0.0-2.0-98.0"},{"group":"hexagon_tri","room_assignment":["purple","grey","yellow","red","green","blue"],"door_color_assignment":["white","black"],"door_generator_assignment":[1,0],"goal":3,"start":1,"action_noise":0.2,"location_history":"[1,3]","action_history":"[0]","door_history":"[1]","location_rts":"[1294]","trial_type":"two-door-navigation","trial_index":101,"time_elapsed":1608388,"internal_node_id":"0.0-2.0-99.0"},{"view_history":"[{\"page_index\":0,\"viewing_time\":2584}]","rt":2584,"trial_type":"instructions","trial_index":102,"time_elapsed":1611972,"internal_node_id":"0.0-3.0"},{"view_history":"[{\"page_index\":0,\"viewing_time\":1792},{\"page_index\":1,\"viewing_time\":15639}]","rt":17432,"trial_type":"instructions","trial_index":103,"time_elapsed":1630404,"internal_node_id":"0.0-4.0"},{"group":"hexagon_tri","fractal_assignment":["../images/blu_wht.png","../images/org_blu.png","../images/ylw_slt.png","../images/cyn_red.png","../images/pnk_blu.png","../images/gry_blk.png"],"mutagen_generator_assignment":[1,0],"goal":4,"start":0,"action_noise":0.2,"location_history":"[0,1,3,2,1,3,2,1,5,0,1,5,0,1,3,2,3,4]","action_history":"[1,0,0,0,0,0,0,0,1,1,1,1,1,0,0,1,1]","mutagen_history":"[0,1,1,1,1,1,1,1,0,0,0,0,0,1,1,0,0]","location_rts":"[10877,2522,1554,1239,1360,822,556,593,480,1978,787,705,1062,793,661,408,2015]","trial_type":"fractal-mutation","trial_index":104,"time_elapsed":1679854,"internal_node_id":"0.0-5.0-0.0"},{"group":"hexagon_tri","fractal_assignment":["../images/blu_wht.png","../images/org_blu.png","../images/ylw_slt.png","../images/cyn_red.png","../images/pnk_blu.png","../images/gry_blk.png"],"mutagen_generator_assignment":[1,0],"goal":3,"start":4,"action_noise":0.2,"location_history":"[4,2,3]","action_history":"[1,0]","mutagen_history":"[0,1]","location_rts":"[3872,2788]","trial_type":"fractal-mutation","trial_index":105,"time_elapsed":1692077,"internal_node_id":"0.0-5.0-1.0"},{"group":"hexagon_tri","fractal_assignment":["../images/blu_wht.png","../images/org_blu.png","../images/ylw_slt.png","../images/cyn_red.png","../images/pnk_blu.png","../images/gry_blk.png"],"mutagen_generator_assignment":[1,0],"goal":5,"start":3,"action_noise":0.2,"location_history":"[3,4,0,1,3,4,0,5]","action_history":"[1,1,1,0,1,1,1]","mutagen_history":"[0,0,0,1,0,0,0]","location_rts":"[4035,1031,1645,654,526,852,649]","trial_type":"fractal-mutation","trial_index":106,"time_elapsed":1712133,"internal_node_id":"0.0-5.0-2.0"},{"group":"hexagon_tri","fractal_assignment":["../images/blu_wht.png","../images/org_blu.png","../images/ylw_slt.png","../images/cyn_red.png","../images/pnk_blu.png","../images/gry_blk.png"],"mutagen_generator_assignment":[1,0],"goal":2,"start":5,"action_noise":0.2,"location_history":"[5,0,5,4,0,5,4,2]","action_history":"[1,0,0,0,0,1,1]","mutagen_history":"[0,1,1,1,1,0,0]","location_rts":"[1676,1028,772,781,654,1068,520]","trial_type":"fractal-mutation","trial_index":107,"time_elapsed":1729318,"internal_node_id":"0.0-5.0-3.0"},{"group":"hexagon_tri","fractal_assignment":["../images/blu_wht.png","../images/org_blu.png","../images/ylw_slt.png","../images/cyn_red.png","../images/pnk_blu.png","../images/gry_blk.png"],"mutagen_generator_assignment":[1,0],"goal":1,"start":2,"action_noise":0.2,"location_history":"[2,1]","action_history":"[1]","mutagen_history":"[0]","location_rts":"[1634]","trial_type":"fractal-mutation","trial_index":108,"time_elapsed":1735468,"internal_node_id":"0.0-5.0-4.0"},{"group":"hexagon_tri","fractal_assignment":["../images/blu_wht.png","../images/org_blu.png","../images/ylw_slt.png","../images/cyn_red.png","../images/pnk_blu.png","../images/gry_blk.png"],"mutagen_generator_assignment":[1,0],"goal":4,"start":1,"action_noise":0.2,"location_history":"[1,5,4]","action_history":"[1,0]","mutagen_history":"[0,1]","location_rts":"[2155,975]","trial_type":"fractal-mutation","trial_index":109,"time_elapsed":1744139,"internal_node_id":"0.0-5.0-5.0"},{"group":"hexagon_tri","fractal_assignment":["../images/blu_wht.png","../images/org_blu.png","../images/ylw_slt.png","../images/cyn_red.png","../images/pnk_blu.png","../images/gry_blk.png"],"mutagen_generator_assignment":[1,0],"goal":1,"start":4,"action_noise":0.2,"location_history":"[4,0,1]","action_history":"[0,1]","mutagen_history":"[1,0]","location_rts":"[2397,1552]","trial_type":"fractal-mutation","trial_index":110,"time_elapsed":1753638,"internal_node_id":"0.0-5.0-6.0"},{"group":"hexagon_tri","fractal_assignment":["../images/blu_wht.png","../images/org_blu.png","../images/ylw_slt.png","../images/cyn_red.png","../images/pnk_blu.png","../images/gry_blk.png"],"mutagen_generator_assignment":[1,0],"goal":5,"start":1,"action_noise":0.2,"location_history":"[1,5]","action_history":"[1]","mutagen_history":"[0]","location_rts":"[2803]","trial_type":"fractal-mutation","trial_index":111,"time_elapsed":1760972,"internal_node_id":"0.0-5.0-7.0"},{"group":"hexagon_tri","fractal_assignment":["../images/blu_wht.png","../images/org_blu.png","../images/ylw_slt.png","../images/cyn_red.png","../images/pnk_blu.png","../images/gry_blk.png"],"mutagen_generator_assignment":[1,0],"goal":0,"start":5,"action_noise":0.2,"location_history":"[5,0]","action_history":"[1]","mutagen_history":"[0]","location_rts":"[2652]","trial_type":"fractal-mutation","trial_index":112,"time_elapsed":1768158,"internal_node_id":"0.0-5.0-8.0"},{"group":"hexagon_tri","fractal_assignment":["../images/blu_wht.png","../images/org_blu.png","../images/ylw_slt.png","../images/cyn_red.png","../images/pnk_blu.png","../images/gry_blk.png"],"mutagen_generator_assignment":[1,0],"goal":2,"start":0,"action_noise":0.2,"location_history":"[0,1,3,2]","action_history":"[1,0,0]","mutagen_history":"[0,1,1]","location_rts":"[2273,1466,509]","trial_type":"fractal-mutation","trial_index":113,"time_elapsed":1778990,"internal_node_id":"0.0-5.0-9.0"},{"group":"hexagon_tri","fractal_assignment":["../images/blu_wht.png","../images/org_blu.png","../images/ylw_slt.png","../images/cyn_red.png","../images/pnk_blu.png","../images/gry_blk.png"],"mutagen_generator_assignment":[1,0],"goal":3,"start":2,"action_noise":0.2,"location_history":"[2,3]","action_history":"[0]","mutagen_history":"[1]","location_rts":"[2456]","trial_type":"fractal-mutation","trial_index":114,"time_elapsed":1785993,"internal_node_id":"0.0-5.0-10.0"},{"group":"hexagon_tri","fractal_assignment":["../images/blu_wht.png","../images/org_blu.png","../images/ylw_slt.png","../images/cyn_red.png","../images/pnk_blu.png","../images/gry_blk.png"],"mutagen_generator_assignment":[1,0],"goal":0,"start":3,"action_noise":0.2,"location_history":"[3,2,1,3,2,1,3,2,3,4,2,1,3,4,0]","action_history":"[1,1,1,0,0,0,1,1,1,1,0,1,1,0]","mutagen_history":"[0,0,0,1,1,1,0,0,0,0,1,0,0,1]","location_rts":"[1342,2420,2042,1153,731,697,584,899,859,1541,1646,763,1092,1994]","trial_type":"fractal-mutation","trial_index":115,"time_elapsed":1821641,"internal_node_id":"0.0-5.0-11.0"},{"group":"hexagon_tri","fractal_assignment":["../images/blu_wht.png","../images/org_blu.png","../images/ylw_slt.png","../images/cyn_red.png","../images/pnk_blu.png","../images/gry_blk.png"],"mutagen_generator_assignment":[1,0],"goal":2,"start":0,"action_noise":0.2,"location_history":"[0,1,3,2]","action_history":"[1,0,0]","mutagen_history":"[0,1,1]","location_rts":"[1791,880,362]","trial_type":"fractal-mutation","trial_index":116,"time_elapsed":1831273,"internal_node_id":"0.0-5.0-12.0"},{"group":"hexagon_tri","fractal_assignment":["../images/blu_wht.png","../images/org_blu.png","../images/ylw_slt.png","../images/cyn_red.png","../images/pnk_blu.png","../images/gry_blk.png"],"mutagen_generator_assignment":[1,0],"goal":5,"start":2,"action_noise":0.2,"location_history":"[2,3,4,2,3,2,3,2,1,5]","action_history":"[1,1,1,1,1,0,0,0,1]","mutagen_history":"[0,0,0,0,0,1,1,1,0]","location_rts":"[1430,937,697,968,1092,1040,686,890,1127]","trial_type":"fractal-mutation","trial_index":117,"time_elapsed":1852878,"internal_node_id":"0.0-5.0-13.0"},{"group":"hexagon_tri","fractal_assignment":["../images/blu_wht.png","../images/org_blu.png","../images/ylw_slt.png","../images/cyn_red.png","../images/pnk_blu.png","../images/gry_blk.png"],"mutagen_generator_assignment":[1,0],"goal":4,"start":5,"action_noise":0.2,"location_history":"[5,4]","action_history":"[0]","mutagen_history":"[1]","location_rts":"[1898]","trial_type":"fractal-mutation","trial_index":118,"time_elapsed":1859313,"internal_node_id":"0.0-5.0-14.0"},{"group":"hexagon_tri","fractal_assignment":["../images/blu_wht.png","../images/org_blu.png","../images/ylw_slt.png","../images/cyn_red.png","../images/pnk_blu.png","../images/gry_blk.png"],"mutagen_generator_assignment":[1,0],"goal":3,"start":4,"action_noise":0.2,"location_history":"[4,2,3]","action_history":"[1,1]","mutagen_history":"[0,0]","location_rts":"[1375,2161]","trial_type":"fractal-mutation","trial_index":119,"time_elapsed":1868409,"internal_node_id":"0.0-5.0-15.0"},{"group":"hexagon_tri","fractal_assignment":["../images/blu_wht.png","../images/org_blu.png","../images/ylw_slt.png","../images/cyn_red.png","../images/pnk_blu.png","../images/gry_blk.png"],"mutagen_generator_assignment":[1,0],"goal":1,"start":3,"action_noise":0.2,"location_history":"[3,4,0,1]","action_history":"[1,0,0]","mutagen_history":"[0,1,1]","location_rts":"[1757,2183,1218]","trial_type":"fractal-mutation","trial_index":120,"time_elapsed":1880160,"internal_node_id":"0.0-5.0-16.0"},{"group":"hexagon_tri","fractal_assignment":["../images/blu_wht.png","../images/org_blu.png","../images/ylw_slt.png","../images/cyn_red.png","../images/pnk_blu.png","../images/gry_blk.png"],"mutagen_generator_assignment":[1,0],"goal":5,"start":1,"action_noise":0.2,"location_history":"[1,3,4,0,1,5]","action_history":"[1,1,0,1,1]","mutagen_history":"[0,0,1,0,0]","location_rts":"[1544,1425,2223,848,787]","trial_type":"fractal-mutation","trial_index":121,"time_elapsed":1895638,"internal_node_id":"0.0-5.0-17.0"},{"group":"hexagon_tri","fractal_assignment":["../images/blu_wht.png","../images/org_blu.png","../images/ylw_slt.png","../images/cyn_red.png","../images/pnk_blu.png","../images/gry_blk.png"],"mutagen_generator_assignment":[1,0],"goal":4,"start":5,"action_noise":0.2,"location_history":"[5,0,5,4]","action_history":"[0,0,1]","mutagen_history":"[1,1,0]","location_rts":"[1978,993,1772]","trial_type":"fractal-mutation","trial_index":122,"time_elapsed":1906948,"internal_node_id":"0.0-5.0-18.0"},{"group":"hexagon_tri","fractal_assignment":["../images/blu_wht.png","../images/org_blu.png","../images/ylw_slt.png","../images/cyn_red.png","../images/pnk_blu.png","../images/gry_blk.png"],"mutagen_generator_assignment":[1,0],"goal":0,"start":4,"action_noise":0.2,"location_history":"[4,0]","action_history":"[0]","mutagen_history":"[1]","location_rts":"[1829]","trial_type":"fractal-mutation","trial_index":123,"time_elapsed":1913304,"internal_node_id":"0.0-5.0-19.0"},{"group":"hexagon_tri","fractal_assignment":["../images/blu_wht.png","../images/org_blu.png","../images/ylw_slt.png","../images/cyn_red.png","../images/pnk_blu.png","../images/gry_blk.png"],"mutagen_generator_assignment":[1,0],"goal":1,"start":0,"action_noise":0.2,"location_history":"[0,1]","action_history":"[0]","mutagen_history":"[1]","location_rts":"[1960]","trial_type":"fractal-mutation","trial_index":124,"time_elapsed":1919808,"internal_node_id":"0.0-5.0-20.0"},{"group":"hexagon_tri","fractal_assignment":["../images/blu_wht.png","../images/org_blu.png","../images/ylw_slt.png","../images/cyn_red.png","../images/pnk_blu.png","../images/gry_blk.png"],"mutagen_generator_assignment":[1,0],"goal":3,"start":1,"action_noise":0.2,"location_history":"[1,3]","action_history":"[1]","mutagen_history":"[0]","location_rts":"[1658]","trial_type":"fractal-mutation","trial_index":125,"time_elapsed":1925992,"internal_node_id":"0.0-5.0-21.0"},{"group":"hexagon_tri","fractal_assignment":["../images/blu_wht.png","../images/org_blu.png","../images/ylw_slt.png","../images/cyn_red.png","../images/pnk_blu.png","../images/gry_blk.png"],"mutagen_generator_assignment":[1,0],"goal":2,"start":3,"action_noise":0.2,"location_history":"[3,2]","action_history":"[0]","mutagen_history":"[1]","location_rts":"[31256]","trial_type":"fractal-mutation","trial_index":126,"time_elapsed":1961792,"internal_node_id":"0.0-5.0-22.0"},{"group":"hexagon_tri","fractal_assignment":["../images/blu_wht.png","../images/org_blu.png","../images/ylw_slt.png","../images/cyn_red.png","../images/pnk_blu.png","../images/gry_blk.png"],"mutagen_generator_assignment":[1,0],"goal":0,"start":2,"action_noise":0.2,"location_history":"[2,1,3,4,0]","action_history":"[1,0,0,0]","mutagen_history":"[0,1,1,1]","location_rts":"[2832,1523,704,2099]","trial_type":"fractal-mutation","trial_index":127,"time_elapsed":1976552,"internal_node_id":"0.0-5.0-23.0"},{"group":"hexagon_tri","fractal_assignment":["../images/blu_wht.png","../images/org_blu.png","../images/ylw_slt.png","../images/cyn_red.png","../images/pnk_blu.png","../images/gry_blk.png"],"mutagen_generator_assignment":[1,0],"goal":3,"start":0,"action_noise":0.2,"location_history":"[0,1,5,4,0,5,4,0,5,0,5,0,1,3]","action_history":"[1,1,1,1,0,0,0,0,1,1,1,1,0]","mutagen_history":"[0,0,0,0,1,1,1,1,0,0,0,0,1]","location_rts":"[1408,948,757,845,728,753,740,1655,1291,810,635,655,1417]","trial_type":"fractal-mutation","trial_index":128,"time_elapsed":2006037,"internal_node_id":"0.0-5.0-24.0"},{"group":"hexagon_tri","fractal_assignment":["../images/blu_wht.png","../images/org_blu.png","../images/ylw_slt.png","../images/cyn_red.png","../images/pnk_blu.png","../images/gry_blk.png"],"mutagen_generator_assignment":[1,0],"goal":1,"start":3,"action_noise":0.2,"location_history":"[3,4,2,3,4,0,5,4,2,3,4,2,3,4,2,3,2,3,2,1]","action_history":"[1,1,1,0,0,0,0,0,1,1,1,1,1,0,0,0,0,0,0]","mutagen_history":"[0,0,0,1,1,1,1,1,0,0,0,0,0,1,1,1,1,1,1]","location_rts":"[2394,1029,697,852,462,486,382,670,397,953,816,679,1493,1124,584,729,770,932,756]","trial_type":"fractal-mutation","trial_index":129,"time_elapsed":2045204,"internal_node_id":"0.0-5.0-25.0"},{"group":"hexagon_tri","fractal_assignment":["../images/blu_wht.png","../images/org_blu.png","../images/ylw_slt.png","../images/cyn_red.png","../images/pnk_blu.png","../images/gry_blk.png"],"mutagen_generator_assignment":[1,0],"goal":2,"start":1,"action_noise":0.2,"location_history":"[1,5,4,0,5,4,0,1,3,4,0,5,4,2]","action_history":"[0,0,0,0,0,0,1,0,0,0,0,1,1]","mutagen_history":"[1,1,1,1,1,1,0,1,1,1,1,0,0]","location_rts":"[1620,714,598,543,867,524,343,777,620,1153,704,1108,1332]","trial_type":"fractal-mutation","trial_index":130,"time_elapsed":2072983,"internal_node_id":"0.0-5.0-26.0"},{"group":"hexagon_tri","fractal_assignment":["../images/blu_wht.png","../images/org_blu.png","../images/ylw_slt.png","../images/cyn_red.png","../images/pnk_blu.png","../images/gry_blk.png"],"mutagen_generator_assignment":[1,0],"goal":5,"start":2,"action_noise":0.2,"location_history":"[2,3,2,3,4,2,3,4,2,3,4,2,3,4,0,1,3,4,0,5]","action_history":"[1,1,1,1,0,1,1,1,1,1,1,1,1,1,1,1,0,0,0]","mutagen_history":"[0,0,0,0,1,0,0,0,0,0,0,0,0,0,0,0,1,1,1]","location_rts":"[1762,598,588,484,502,549,568,494,461,342,323,270,315,247,169,149,1046,481,328]","trial_type":"fractal-mutation","trial_index":131,"time_elapsed":2105536,"internal_node_id":"0.0-5.0-27.0"},{"group":"hexagon_tri","fractal_assignment":["../images/blu_wht.png","../images/org_blu.png","../images/ylw_slt.png","../images/cyn_red.png","../images/pnk_blu.png","../images/gry_blk.png"],"mutagen_generator_assignment":[1,0],"goal":4,"start":5,"action_noise":0.2,"location_history":"[5,4]","action_history":"[1]","mutagen_history":"[0]","location_rts":"[4359]","trial_type":"fractal-mutation","trial_index":132,"time_elapsed":2114418,"internal_node_id":"0.0-5.0-28.0"},{"group":"hexagon_tri","fractal_assignment":["../images/blu_wht.png","../images/org_blu.png","../images/ylw_slt.png","../images/cyn_red.png","../images/pnk_blu.png","../images/gry_blk.png"],"mutagen_generator_assignment":[1,0],"goal":5,"start":4,"action_noise":0.2,"location_history":"[4,0,5]","action_history":"[0,0]","mutagen_history":"[1,1]","location_rts":"[3462,1140]","trial_type":"fractal-mutation","trial_index":133,"time_elapsed":2124583,"internal_node_id":"0.0-5.0-29.0"},{"group":"hexagon_tri","fractal_assignment":["../images/blu_wht.png","../images/org_blu.png","../images/ylw_slt.png","../images/cyn_red.png","../images/pnk_blu.png","../images/gry_blk.png"],"mutagen_generator_assignment":[1,0],"goal":3,"start":5,"action_noise":0.2,"location_history":"[5,0,1,5,0,1,3]","action_history":"[1,1,1,1,1,0]","mutagen_history":"[0,0,0,0,0,1]","location_rts":"[2002,722,708,859,582,212]","trial_type":"fractal-mutation","trial_index":134,"time_elapsed":2139293,"internal_node_id":"0.0-5.0-30.0"},{"group":"hexagon_tri","fractal_assignment":["../images/blu_wht.png","../images/org_blu.png","../images/ylw_slt.png","../images/cyn_red.png","../images/pnk_blu.png","../images/gry_blk.png"],"mutagen_generator_assignment":[1,0],"goal":0,"start":3,"action_noise":0.2,"location_history":"[3,4,0]","action_history":"[1,0]","mutagen_history":"[0,1]","location_rts":"[1941,901]","trial_type":"fractal-mutation","trial_index":135,"time_elapsed":2147673,"internal_node_id":"0.0-5.0-31.0"},{"group":"hexagon_tri","fractal_assignment":["../images/blu_wht.png","../images/org_blu.png","../images/ylw_slt.png","../images/cyn_red.png","../images/pnk_blu.png","../images/gry_blk.png"],"mutagen_generator_assignment":[1,0],"goal":4,"start":0,"action_noise":0.2,"location_history":"[0,1,5,0,1,3,2,1,3,2,3,4]","action_history":"[1,1,1,0,0,0,0,1,0,0,0]","mutagen_history":"[0,0,0,1,1,1,1,0,1,1,1]","location_rts":"[1392,811,639,740,625,772,821,919,1402,769,1234]","trial_type":"fractal-mutation","trial_index":136,"time_elapsed":2172629,"internal_node_id":"0.0-5.0-32.0"},{"group":"hexagon_tri","fractal_assignment":["../images/blu_wht.png","../images/org_blu.png","../images/ylw_slt.png","../images/cyn_red.png","../images/pnk_blu.png","../images/gry_blk.png"],"mutagen_generator_assignment":[1,0],"goal":1,"start":4,"action_noise":0.2,"location_history":"[4,0,5,0,5,0,1]","action_history":"[0,0,1,1,1,1]","mutagen_history":"[1,1,0,0,0,0]","location_rts":"[1756,1090,1524,727,711,812]","trial_type":"fractal-mutation","trial_index":137,"time_elapsed":2188903,"internal_node_id":"0.0-5.0-33.0"},{"group":"hexagon_tri","fractal_assignment":["../images/blu_wht.png","../images/org_blu.png","../images/ylw_slt.png","../images/cyn_red.png","../images/pnk_blu.png","../images/gry_blk.png"],"mutagen_generator_assignment":[1,0],"goal":2,"start":1,"action_noise":0.2,"location_history":"[1,3,2]","action_history":"[0,0]","mutagen_history":"[1,1]","location_rts":"[1322,337]","trial_type":"fractal-mutation","trial_index":138,"time_elapsed":2196129,"internal_node_id":"0.0-5.0-34.0"},{"group":"hexagon_tri","fractal_assignment":["../images/blu_wht.png","../images/org_blu.png","../images/ylw_slt.png","../images/cyn_red.png","../images/pnk_blu.png","../images/gry_blk.png"],"mutagen_generator_assignment":[1,0],"goal":0,"start":2,"action_noise":0.2,"location_history":"[2,1,3,2,1,5,4,0]","action_history":"[1,0,0,0,0,0,0]","mutagen_history":"[0,1,1,1,1,1,1]","location_rts":"[1489,1561,597,607,869,362,837]","trial_type":"fractal-mutation","trial_index":139,"time_elapsed":2213163,"internal_node_id":"0.0-5.0-35.0"},{"group":"hexagon_tri","fractal_assignment":["../images/blu_wht.png","../images/org_blu.png","../images/ylw_slt.png","../images/cyn_red.png","../images/pnk_blu.png","../images/gry_blk.png"],"mutagen_generator_assignment":[1,0],"goal":5,"start":0,"action_noise":0.2,"location_history":"[0,5]","action_history":"[0]","mutagen_history":"[1]","location_rts":"[2364]","trial_type":"fractal-mutation","trial_index":140,"time_elapsed":2220065,"internal_node_id":"0.0-5.0-36.0"},{"group":"hexagon_tri","fractal_assignment":["../images/blu_wht.png","../images/org_blu.png","../images/ylw_slt.png","../images/cyn_red.png","../images/pnk_blu.png","../images/gry_blk.png"],"mutagen_generator_assignment":[1,0],"goal":2,"start":5,"action_noise":0.2,"location_history":"[5,0,1,3,2]","action_history":"[1,1,0,0]","mutagen_history":"[0,0,1,1]","location_rts":"[3128,1804,1068,350]","trial_type":"fractal-mutation","trial_index":141,"time_elapsed":2234011,"internal_node_id":"0.0-5.0-37.0"},{"group":"hexagon_tri","fractal_assignment":["../images/blu_wht.png","../images/org_blu.png","../images/ylw_slt.png","../images/cyn_red.png","../images/pnk_blu.png","../images/gry_blk.png"],"mutagen_generator_assignment":[1,0],"goal":1,"start":2,"action_noise":0.2,"location_history":"[2,3,4,0,5,4,2,3,4,2,3,2,3,2,1]","action_history":"[0,1,0,0,0,1,1,1,1,1,0,0,0,0]","mutagen_history":"[1,0,1,1,1,0,0,0,0,0,1,1,1,1]","location_rts":"[3911,1334,1539,941,585,1317,934,632,577,726,637,447,669,528]","trial_type":"fractal-mutation","trial_index":142,"time_elapsed":2266689,"internal_node_id":"0.0-5.0-38.0"},{"group":"hexagon_tri","fractal_assignment":["../images/blu_wht.png","../images/org_blu.png","../images/ylw_slt.png","../images/cyn_red.png","../images/pnk_blu.png","../images/gry_blk.png"],"mutagen_generator_assignment":[1,0],"goal":4,"start":1,"action_noise":0.2,"location_history":"[1,5,4]","action_history":"[1,0]","mutagen_history":"[0,1]","location_rts":"[2440,326]","trial_type":"fractal-mutation","trial_index":143,"time_elapsed":2275017,"internal_node_id":"0.0-5.0-39.0"},{"group":"hexagon_tri","fractal_assignment":["../images/blu_wht.png","../images/org_blu.png","../images/ylw_slt.png","../images/cyn_red.png","../images/pnk_blu.png","../images/gry_blk.png"],"mutagen_generator_assignment":[1,0],"goal":3,"start":4,"action_noise":0.2,"location_history":"[4,2,3]","action_history":"[1,1]","mutagen_history":"[0,0]","location_rts":"[2359,1677]","trial_type":"fractal-mutation","trial_index":144,"time_elapsed":2284619,"internal_node_id":"0.0-5.0-40.0"},{"group":"hexagon_tri","fractal_assignment":["../images/blu_wht.png","../images/org_blu.png","../images/ylw_slt.png","../images/cyn_red.png","../images/pnk_blu.png","../images/gry_blk.png"],"mutagen_generator_assignment":[1,0],"goal":5,"start":3,"action_noise":0.2,"location_history":"[3,2,1,5]","action_history":"[0,0,1]","mutagen_history":"[1,1,0]","location_rts":"[2316,1809,2228]","trial_type":"fractal-mutation","trial_index":145,"time_elapsed":2297545,"internal_node_id":"0.0-5.0-41.0"},{"group":"hexagon_tri","fractal_assignment":["../images/blu_wht.png","../images/org_blu.png","../images/ylw_slt.png","../images/cyn_red.png","../images/pnk_blu.png","../images/gry_blk.png"],"mutagen_generator_assignment":[1,0],"goal":3,"start":5,"action_noise":0.2,"location_history":"[5,0,1,3]","action_history":"[1,1,0]","mutagen_history":"[0,0,1]","location_rts":"[2485,1377,1793]","trial_type":"fractal-mutation","trial_index":146,"time_elapsed":2309787,"internal_node_id":"0.0-5.0-42.0"},{"group":"hexagon_tri","fractal_assignment":["../images/blu_wht.png","../images/org_blu.png","../images/ylw_slt.png","../images/cyn_red.png","../images/pnk_blu.png","../images/gry_blk.png"],"mutagen_generator_assignment":[1,0],"goal":0,"start":3,"action_noise":0.2,"location_history":"[3,2,3,2,1,3,4,2,3,2,1,3,2,3,2,3,2,3,4,2,3,4,0]","action_history":"[0,0,0,0,0,1,1,1,1,0,0,0,0,1,1,1,1,1,1,1,1,0]","mutagen_history":"[1,1,1,1,1,0,0,0,0,1,1,1,1,0,0,0,0,0,0,0,0,1]","location_rts":"[2220,978,1487,1158,1993,1279,1740,1512,1387,1266,1373,1078,987,1269,1099,943,1105,1256,1414,1224,961,1311]","trial_type":"fractal-mutation","trial_index":147,"time_elapsed":2364849,"internal_node_id":"0.0-5.0-43.0"},{"group":"hexagon_tri","fractal_assignment":["../images/blu_wht.png","../images/org_blu.png","../images/ylw_slt.png","../images/cyn_red.png","../images/pnk_blu.png","../images/gry_blk.png"],"mutagen_generator_assignment":[1,0],"goal":2,"start":0,"action_noise":0.2,"location_history":"[0,1,3,4,2]","action_history":"[1,0,0,0]","mutagen_history":"[0,1,1,1]","location_rts":"[2104,1575,412,2291]","trial_type":"fractal-mutation","trial_index":148,"time_elapsed":2378855,"internal_node_id":"0.0-5.0-44.0"},{"group":"hexagon_tri","fractal_assignment":["../images/blu_wht.png","../images/org_blu.png","../images/ylw_slt.png","../images/cyn_red.png","../images/pnk_blu.png","../images/gry_blk.png"],"mutagen_generator_assignment":[1,0],"goal":4,"start":2,"action_noise":0.2,"location_history":"[2,3,2,1,3,2,1,3,2,3,4]","action_history":"[0,0,0,0,0,0,1,0,1,1]","mutagen_history":"[1,1,1,1,1,1,0,1,0,0]","location_rts":"[2090,1352,1060,1080,853,2528,1132,1150,1511,1023]","trial_type":"fractal-mutation","trial_index":149,"time_elapsed":2406403,"internal_node_id":"0.0-5.0-45.0"},{"group":"hexagon_tri","fractal_assignment":["../images/blu_wht.png","../images/org_blu.png","../images/ylw_slt.png","../images/cyn_red.png","../images/pnk_blu.png","../images/gry_blk.png"],"mutagen_generator_assignment":[1,0],"goal":1,"start":4,"action_noise":0.2,"location_history":"[4,0,1]","action_history":"[0,1]","mutagen_history":"[1,0]","location_rts":"[3456,1678]","trial_type":"fractal-mutation","trial_index":150,"time_elapsed":2417094,"internal_node_id":"0.0-5.0-46.0"},{"group":"hexagon_tri","fractal_assignment":["../images/blu_wht.png","../images/org_blu.png","../images/ylw_slt.png","../images/cyn_red.png","../images/pnk_blu.png","../images/gry_blk.png"],"mutagen_generator_assignment":[1,0],"goal":4,"start":1,"action_noise":0.2,"location_history":"[1,5,4]","action_history":"[1,0]","mutagen_history":"[0,1]","location_rts":"[3740,1108]","trial_type":"fractal-mutation","trial_index":151,"time_elapsed":2427488,"internal_node_id":"0.0-5.0-47.0"},{"group":"hexagon_tri","fractal_assignment":["../images/blu_wht.png","../images/org_blu.png","../images/ylw_slt.png","../images/cyn_red.png","../images/pnk_blu.png","../images/gry_blk.png"],"mutagen_generator_assignment":[1,0],"goal":1,"start":4,"action_noise":0.2,"location_history":"[4,0,1]","action_history":"[1,1]","mutagen_history":"[0,0]","location_rts":"[5682,1209]","trial_type":"fractal-mutation","trial_index":152,"time_elapsed":2439931,"internal_node_id":"0.0-5.0-48.0"},{"group":"hexagon_tri","fractal_assignment":["../images/blu_wht.png","../images/org_blu.png","../images/ylw_slt.png","../images/cyn_red.png","../images/pnk_blu.png","../images/gry_blk.png"],"mutagen_generator_assignment":[1,0],"goal":3,"start":1,"action_noise":0.2,"location_history":"[1,5,0,1,3]","action_history":"[1,1,1,1]","mutagen_history":"[0,0,0,0]","location_rts":"[1652,775,543,664]","trial_type":"fractal-mutation","trial_index":153,"time_elapsed":2451156,"internal_node_id":"0.0-5.0-49.0"},{"group":"hexagon_tri","fractal_assignment":["../images/blu_wht.png","../images/org_blu.png","../images/ylw_slt.png","../images/cyn_red.png","../images/pnk_blu.png","../images/gry_blk.png"],"mutagen_generator_assignment":[1,0],"goal":5,"start":3,"action_noise":0.2,"location_history":"[3,4,2,1,5]","action_history":"[1,1,1,1]","mutagen_history":"[0,0,0,0]","location_rts":"[1892,516,469,488]","trial_type":"fractal-mutation","trial_index":154,"time_elapsed":2462119,"internal_node_id":"0.0-5.0-50.0"},{"group":"hexagon_tri","fractal_assignment":["../images/blu_wht.png","../images/org_blu.png","../images/ylw_slt.png","../images/cyn_red.png","../images/pnk_blu.png","../images/gry_blk.png"],"mutagen_generator_assignment":[1,0],"goal":0,"start":5,"action_noise":0.2,"location_history":"[5,4,0]","action_history":"[0,0]","mutagen_history":"[1,1]","location_rts":"[3851,951]","trial_type":"fractal-mutation","trial_index":155,"time_elapsed":2472478,"internal_node_id":"0.0-5.0-51.0"},{"group":"hexagon_tri","fractal_assignment":["../images/blu_wht.png","../images/org_blu.png","../images/ylw_slt.png","../images/cyn_red.png","../images/pnk_blu.png","../images/gry_blk.png"],"mutagen_generator_assignment":[1,0],"goal":2,"start":0,"action_noise":0.2,"location_history":"[0,1,3,2]","action_history":"[1,0,0]","mutagen_history":"[0,1,1]","location_rts":"[3209,1771,640]","trial_type":"fractal-mutation","trial_index":156,"time_elapsed":2484682,"internal_node_id":"0.0-5.0-52.0"},{"group":"hexagon_tri","fractal_assignment":["../images/blu_wht.png","../images/org_blu.png","../images/ylw_slt.png","../images/cyn_red.png","../images/pnk_blu.png","../images/gry_blk.png"],"mutagen_generator_assignment":[1,0],"goal":1,"start":2,"action_noise":0.2,"location_history":"[2,1]","action_history":"[0]","mutagen_history":"[1]","location_rts":"[3380]","trial_type":"fractal-mutation","trial_index":157,"time_elapsed":2492593,"internal_node_id":"0.0-5.0-53.0"},{"group":"hexagon_tri","fractal_assignment":["../images/blu_wht.png","../images/org_blu.png","../images/ylw_slt.png","../images/cyn_red.png","../images/pnk_blu.png","../images/gry_blk.png"],"mutagen_generator_assignment":[1,0],"goal":2,"start":1,"action_noise":0.2,"location_history":"[1,3,2]","action_history":"[0,0]","mutagen_history":"[1,1]","location_rts":"[2176,420]","trial_type":"fractal-mutation","trial_index":158,"time_elapsed":2500754,"internal_node_id":"0.0-5.0-54.0"},{"group":"hexagon_tri","fractal_assignment":["../images/blu_wht.png","../images/org_blu.png","../images/ylw_slt.png","../images/cyn_red.png","../images/pnk_blu.png","../images/gry_blk.png"],"mutagen_generator_assignment":[1,0],"goal":5,"start":2,"action_noise":0.2,"location_history":"[2,1,5]","action_history":"[0,1]","mutagen_history":"[1,0]","location_rts":"[3059,463]","trial_type":"fractal-mutation","trial_index":159,"time_elapsed":2509840,"internal_node_id":"0.0-5.0-55.0"},{"group":"hexagon_tri","fractal_assignment":["../images/blu_wht.png","../images/org_blu.png","../images/ylw_slt.png","../images/cyn_red.png","../images/pnk_blu.png","../images/gry_blk.png"],"mutagen_generator_assignment":[1,0],"goal":4,"start":5,"action_noise":0.2,"location_history":"[5,4]","action_history":"[0]","mutagen_history":"[1]","location_rts":"[3882]","trial_type":"fractal-mutation","trial_index":160,"time_elapsed":2518254,"internal_node_id":"0.0-5.0-56.0"},{"group":"hexagon_tri","fractal_assignment":["../images/blu_wht.png","../images/org_blu.png","../images/ylw_slt.png","../images/cyn_red.png","../images/pnk_blu.png","../images/gry_blk.png"],"mutagen_generator_assignment":[1,0],"goal":3,"start":4,"action_noise":0.2,"location_history":"[4,2,3]","action_history":"[0,1]","mutagen_history":"[1,0]","location_rts":"[4363,1716]","trial_type":"fractal-mutation","trial_index":161,"time_elapsed":2529911,"internal_node_id":"0.0-5.0-57.0"},{"group":"hexagon_tri","fractal_assignment":["../images/blu_wht.png","../images/org_blu.png","../images/ylw_slt.png","../images/cyn_red.png","../images/pnk_blu.png","../images/gry_blk.png"],"mutagen_generator_assignment":[1,0],"goal":0,"start":3,"action_noise":0.2,"location_history":"[3,2,3,4,0]","action_history":"[0,0,1,0]","mutagen_history":"[1,1,0,1]","location_rts":"[2578,550,1084,1292]","trial_type":"fractal-mutation","trial_index":162,"time_elapsed":2543082,"internal_node_id":"0.0-5.0-58.0"},{"group":"hexagon_tri","fractal_assignment":["../images/blu_wht.png","../images/org_blu.png","../images/ylw_slt.png","../images/cyn_red.png","../images/pnk_blu.png","../images/gry_blk.png"],"mutagen_generator_assignment":[1,0],"goal":2,"start":0,"action_noise":0.2,"location_history":"[0,1,3,2]","action_history":"[0,0,0]","mutagen_history":"[1,1,1]","location_rts":"[2159,1991,528]","trial_type":"fractal-mutation","trial_index":163,"time_elapsed":2554352,"internal_node_id":"0.0-5.0-59.0"},{"group":"hexagon_tri","fractal_assignment":["../images/blu_wht.png","../images/org_blu.png","../images/ylw_slt.png","../images/cyn_red.png","../images/pnk_blu.png","../images/gry_blk.png"],"mutagen_generator_assignment":[1,0],"goal":1,"start":2,"action_noise":0.2,"location_history":"[2,1]","action_history":"[0]","mutagen_history":"[1]","location_rts":"[3202]","trial_type":"fractal-mutation","trial_index":164,"time_elapsed":2562097,"internal_node_id":"0.0-5.0-60.0"},{"group":"hexagon_tri","fractal_assignment":["../images/blu_wht.png","../images/org_blu.png","../images/ylw_slt.png","../images/cyn_red.png","../images/pnk_blu.png","../images/gry_blk.png"],"mutagen_generator_assignment":[1,0],"goal":0,"start":1,"action_noise":0.2,"location_history":"[1,3,4,0]","action_history":"[1,0,0]","mutagen_history":"[0,1,1]","location_rts":"[2496,464,1262]","trial_type":"fractal-mutation","trial_index":165,"time_elapsed":2572879,"internal_node_id":"0.0-5.0-61.0"},{"group":"hexagon_tri","fractal_assignment":["../images/blu_wht.png","../images/org_blu.png","../images/ylw_slt.png","../images/cyn_red.png","../images/pnk_blu.png","../images/gry_blk.png"],"mutagen_generator_assignment":[1,0],"goal":3,"start":0,"action_noise":0.2,"location_history":"[0,1,5,4,2,3]","action_history":"[1,1,1,1,1]","mutagen_history":"[0,0,0,0,0]","location_rts":"[2218,963,603,347,299]","trial_type":"fractal-mutation","trial_index":166,"time_elapsed":2585911,"internal_node_id":"0.0-5.0-62.0"},{"group":"hexagon_tri","fractal_assignment":["../images/blu_wht.png","../images/org_blu.png","../images/ylw_slt.png","../images/cyn_red.png","../images/pnk_blu.png","../images/gry_blk.png"],"mutagen_generator_assignment":[1,0],"goal":5,"start":3,"action_noise":0.2,"location_history":"[3,4,2,1,3,4,2,3,4,0,5]","action_history":"[1,1,1,1,1,1,1,1,1,1]","mutagen_history":"[0,0,0,0,0,0,0,0,0,0]","location_rts":"[1969,300,330,259,1299,211,491,325,335,356]","trial_type":"fractal-mutation","trial_index":167,"time_elapsed":2605501,"internal_node_id":"0.0-5.0-63.0"},{"group":"hexagon_tri","fractal_assignment":["../images/blu_wht.png","../images/org_blu.png","../images/ylw_slt.png","../images/cyn_red.png","../images/pnk_blu.png","../images/gry_blk.png"],"mutagen_generator_assignment":[1,0],"goal":4,"start":5,"action_noise":0.2,"location_history":"[5,0,5,4]","action_history":"[0,0,0]","mutagen_history":"[1,1,1]","location_rts":"[2700,4300,672]","trial_type":"fractal-mutation","trial_index":168,"time_elapsed":2619773,"internal_node_id":"0.0-5.0-64.0"},{"group":"hexagon_tri","fractal_assignment":["../images/blu_wht.png","../images/org_blu.png","../images/ylw_slt.png","../images/cyn_red.png","../images/pnk_blu.png","../images/gry_blk.png"],"mutagen_generator_assignment":[1,0],"goal":1,"start":4,"action_noise":0.2,"location_history":"[4,2,3,4,2,3,4,2,1]","action_history":"[1,1,1,1,1,1,1,1]","mutagen_history":"[0,0,0,0,0,0,0,0]","location_rts":"[2651,763,639,368,375,149,423,404]","trial_type":"fractal-mutation","trial_index":169,"time_elapsed":2637242,"internal_node_id":"0.0-5.0-65.0"},{"group":"hexagon_tri","fractal_assignment":["../images/blu_wht.png","../images/org_blu.png","../images/ylw_slt.png","../images/cyn_red.png","../images/pnk_blu.png","../images/gry_blk.png"],"mutagen_generator_assignment":[1,0],"goal":5,"start":1,"action_noise":0.2,"location_history":"[1,3,4,2,3,2,3,4,2,3,4,2,3,2,3,2,1,5]","action_history":"[1,1,1,1,1,1,1,1,1,1,1,1,1,1,1,1,1]","mutagen_history":"[0,0,0,0,0,0,0,0,0,0,0,0,0,0,0,0,0]","location_rts":"[1918,1717,312,238,147,153,183,215,191,119,181,132,129,82,165,138,97]","trial_type":"fractal-mutation","trial_index":170,"time_elapsed":2664227,"internal_node_id":"0.0-5.0-66.0"},{"group":"hexagon_tri","fractal_assignment":["../images/blu_wht.png","../images/org_blu.png","../images/ylw_slt.png","../images/cyn_red.png","../images/pnk_blu.png","../images/gry_blk.png"],"mutagen_generator_assignment":[1,0],"goal":2,"start":5,"action_noise":0.2,"location_history":"[5,0,1,5,4,0,5,4,0,1,3,2]","action_history":"[1,1,0,0,0,0,0,1,1,0,0]","mutagen_history":"[0,0,1,1,1,1,1,0,0,1,1]","location_rts":"[2766,1377,549,290,308,565,556,861,864,1671,719]","trial_type":"fractal-mutation","trial_index":171,"time_elapsed":2689575,"internal_node_id":"0.0-5.0-67.0"},{"group":"hexagon_tri","fractal_assignment":["../images/blu_wht.png","../images/org_blu.png","../images/ylw_slt.png","../images/cyn_red.png","../images/pnk_blu.png","../images/gry_blk.png"],"mutagen_generator_assignment":[1,0],"goal":3,"start":2,"action_noise":0.2,"location_history":"[2,1,5,4,0,5,0,1,3]","action_history":"[0,0,0,0,0,1,1,1]","mutagen_history":"[1,1,1,1,1,0,0,0]","location_rts":"[4202,633,1285,1867,1549,1120,587,398]","trial_type":"fractal-mutation","trial_index":172,"time_elapsed":2712897,"internal_node_id":"0.0-5.0-68.0"},{"group":"hexagon_tri","fractal_assignment":["../images/blu_wht.png","../images/org_blu.png","../images/ylw_slt.png","../images/cyn_red.png","../images/pnk_blu.png","../images/gry_blk.png"],"mutagen_generator_assignment":[1,0],"goal":4,"start":3,"action_noise":0.2,"location_history":"[3,4]","action_history":"[1]","mutagen_history":"[0]","location_rts":"[2616]","trial_type":"fractal-mutation","trial_index":173,"time_elapsed":2720040,"internal_node_id":"0.0-5.0-69.0"},{"group":"hexagon_tri","fractal_assignment":["../images/blu_wht.png","../images/org_blu.png","../images/ylw_slt.png","../images/cyn_red.png","../images/pnk_blu.png","../images/gry_blk.png"],"mutagen_generator_assignment":[1,0],"goal":0,"start":4,"action_noise":0.2,"location_history":"[4,0]","action_history":"[0]","mutagen_history":"[1]","location_rts":"[1313]","trial_type":"fractal-mutation","trial_index":174,"time_elapsed":2725889,"internal_node_id":"0.0-5.0-70.0"},{"group":"hexagon_tri","fractal_assignment":["../images/blu_wht.png","../images/org_blu.png","../images/ylw_slt.png","../images/cyn_red.png","../images/pnk_blu.png","../images/gry_blk.png"],"mutagen_generator_assignment":[1,0],"goal":5,"start":0,"action_noise":0.2,"location_history":"[0,1,5]","action_history":"[1,1]","mutagen_history":"[0,0]","location_rts":"[1681,1978]","trial_type":"fractal-mutation","trial_index":175,"time_elapsed":2735112,"internal_node_id":"0.0-5.0-71.0"},{"group":"hexagon_tri","fractal_assignment":["../images/blu_wht.png","../images/org_blu.png","../images/ylw_slt.png","../images/cyn_red.png","../images/pnk_blu.png","../images/gry_blk.png"],"mutagen_generator_assignment":[1,0],"goal":0,"start":5,"action_noise":0.2,"location_history":"[5,4,2,1,3,2,1,5,0]","action_history":"[0,0,0,0,0,0,1,1]","mutagen_history":"[1,1,1,1,1,1,0,0]","location_rts":"[2169,666,912,487,450,332,458,1047]","trial_type":"fractal-mutation","trial_index":176,"time_elapsed":2753368,"internal_node_id":"0.0-5.0-72.0"},{"group":"hexagon_tri","fractal_assignment":["../images/blu_wht.png","../images/org_blu.png","../images/ylw_slt.png","../images/cyn_red.png","../images/pnk_blu.png","../images/gry_blk.png"],"mutagen_generator_assignment":[1,0],"goal":3,"start":0,"action_noise":0.2,"location_history":"[0,5,0,1,3]","action_history":"[1,1,1,0]","mutagen_history":"[0,0,0,1]","location_rts":"[1289,1270,617,1416]","trial_type":"fractal-mutation","trial_index":177,"time_elapsed":2765569,"internal_node_id":"0.0-5.0-73.0"},{"group":"hexagon_tri","fractal_assignment":["../images/blu_wht.png","../images/org_blu.png","../images/ylw_slt.png","../images/cyn_red.png","../images/pnk_blu.png","../images/gry_blk.png"],"mutagen_generator_assignment":[1,0],"goal":1,"start":3,"action_noise":0.2,"location_history":"[3,4,0,1]","action_history":"[1,1,1]","mutagen_history":"[0,0,0]","location_rts":"[1610,513,365]","trial_type":"fractal-mutation","trial_index":178,"time_elapsed":2774646,"internal_node_id":"0.0-5.0-74.0"},{"group":"hexagon_tri","fractal_assignment":["../images/blu_wht.png","../images/org_blu.png","../images/ylw_slt.png","../images/cyn_red.png","../images/pnk_blu.png","../images/gry_blk.png"],"mutagen_generator_assignment":[1,0],"goal":2,"start":1,"action_noise":0.2,"location_history":"[1,3,2]","action_history":"[0,0]","mutagen_history":"[1,1]","location_rts":"[1155,479]","trial_type":"fractal-mutation","trial_index":179,"time_elapsed":2781860,"internal_node_id":"0.0-5.0-75.0"},{"group":"hexagon_tri","fractal_assignment":["../images/blu_wht.png","../images/org_blu.png","../images/ylw_slt.png","../images/cyn_red.png","../images/pnk_blu.png","../images/gry_blk.png"],"mutagen_generator_assignment":[1,0],"goal":4,"start":2,"action_noise":0.2,"location_history":"[2,1,3,2,3,2,3,4]","action_history":"[0,1,1,1,1,1,1]","mutagen_history":"[1,0,0,0,0,0,0]","location_rts":"[1894,981,751,572,484,157,235]","trial_type":"fractal-mutation","trial_index":180,"time_elapsed":2797584,"internal_node_id":"0.0-5.0-76.0"},{"group":"hexagon_tri","fractal_assignment":["../images/blu_wht.png","../images/org_blu.png","../images/ylw_slt.png","../images/cyn_red.png","../images/pnk_blu.png","../images/gry_blk.png"],"mutagen_generator_assignment":[1,0],"goal":3,"start":4,"action_noise":0.2,"location_history":"[4,2,1,3]","action_history":"[1,0,0]","mutagen_history":"[0,1,1]","location_rts":"[1272,1279,1318]","trial_type":"fractal-mutation","trial_index":181,"time_elapsed":2808046,"internal_node_id":"0.0-5.0-77.0"},{"group":"hexagon_tri","fractal_assignment":["../images/blu_wht.png","../images/org_blu.png","../images/ylw_slt.png","../images/cyn_red.png","../images/pnk_blu.png","../images/gry_blk.png"],"mutagen_generator_assignment":[1,0],"goal":0,"start":3,"action_noise":0.2,"location_history":"[3,2,1,5,4,0]","action_history":"[0,0,1,0,0]","mutagen_history":"[1,1,0,1,1]","location_rts":"[1570,1043,329,417,1393]","trial_type":"fractal-mutation","trial_index":182,"time_elapsed":2821446,"internal_node_id":"0.0-5.0-78.0"},{"group":"hexagon_tri","fractal_assignment":["../images/blu_wht.png","../images/org_blu.png","../images/ylw_slt.png","../images/cyn_red.png","../images/pnk_blu.png","../images/gry_blk.png"],"mutagen_generator_assignment":[1,0],"goal":4,"start":0,"action_noise":0.2,"location_history":"[0,5,4]","action_history":"[0,0]","mutagen_history":"[1,1]","location_rts":"[1322,543]","trial_type":"fractal-mutation","trial_index":183,"time_elapsed":2828883,"internal_node_id":"0.0-5.0-79.0"},{"group":"hexagon_tri","fractal_assignment":["../images/blu_wht.png","../images/org_blu.png","../images/ylw_slt.png","../images/cyn_red.png","../images/pnk_blu.png","../images/gry_blk.png"],"mutagen_generator_assignment":[1,0],"goal":5,"start":4,"action_noise":0.2,"location_history":"[4,0,5]","action_history":"[0,0]","mutagen_history":"[1,1]","location_rts":"[3470,734]","trial_type":"fractal-mutation","trial_index":184,"time_elapsed":2838651,"internal_node_id":"0.0-5.0-80.0"},{"group":"hexagon_tri","fractal_assignment":["../images/blu_wht.png","../images/org_blu.png","../images/ylw_slt.png","../images/cyn_red.png","../images/pnk_blu.png","../images/gry_blk.png"],"mutagen_generator_assignment":[1,0],"goal":1,"start":5,"action_noise":0.2,"location_history":"[5,0,1]","action_history":"[1,1]","mutagen_history":"[0,0]","location_rts":"[1566,326]","trial_type":"fractal-mutation","trial_index":185,"time_elapsed":2846098,"internal_node_id":"0.0-5.0-81.0"},{"group":"hexagon_tri","fractal_assignment":["../images/blu_wht.png","../images/org_blu.png","../images/ylw_slt.png","../images/cyn_red.png","../images/pnk_blu.png","../images/gry_blk.png"],"mutagen_generator_assignment":[1,0],"goal":2,"start":1,"action_noise":0.2,"location_history":"[1,5,4,0,5,4,0,1,3,2]","action_history":"[0,0,0,0,0,0,1,0,0]","mutagen_history":"[1,1,1,1,1,1,0,1,1]","location_rts":"[1104,331,350,480,435,220,464,350,518]","trial_type":"fractal-mutation","trial_index":186,"time_elapsed":2863149,"internal_node_id":"0.0-5.0-82.0"},{"group":"hexagon_tri","fractal_assignment":["../images/blu_wht.png","../images/org_blu.png","../images/ylw_slt.png","../images/cyn_red.png","../images/pnk_blu.png","../images/gry_blk.png"],"mutagen_generator_assignment":[1,0],"goal":4,"start":2,"action_noise":0.2,"location_history":"[2,1,5,0,5,4]","action_history":"[0,1,0,0,0]","mutagen_history":"[1,0,1,1,1]","location_rts":"[1747,609,331,1122,768]","trial_type":"fractal-mutation","trial_index":187,"time_elapsed":2876381,"internal_node_id":"0.0-5.0-83.0"},{"group":"hexagon_tri","fractal_assignment":["../images/blu_wht.png","../images/org_blu.png","../images/ylw_slt.png","../images/cyn_red.png","../images/pnk_blu.png","../images/gry_blk.png"],"mutagen_generator_assignment":[1,0],"goal":0,"start":4,"action_noise":0.2,"location_history":"[4,0]","action_history":"[0]","mutagen_history":"[1]","location_rts":"[1564]","trial_type":"fractal-mutation","trial_index":188,"time_elapsed":2882481,"internal_node_id":"0.0-5.0-84.0"},{"group":"hexagon_tri","fractal_assignment":["../images/blu_wht.png","../images/org_blu.png","../images/ylw_slt.png","../images/cyn_red.png","../images/pnk_blu.png","../images/gry_blk.png"],"mutagen_generator_assignment":[1,0],"goal":5,"start":0,"action_noise":0.2,"location_history":"[0,1,3,4,2,1,5]","action_history":"[1,1,1,1,1,1]","mutagen_history":"[0,0,0,0,0,0]","location_rts":"[1937,816,493,210,182,620]","trial_type":"fractal-mutation","trial_index":189,"time_elapsed":2896367,"internal_node_id":"0.0-5.0-85.0"},{"group":"hexagon_tri","fractal_assignment":["../images/blu_wht.png","../images/org_blu.png","../images/ylw_slt.png","../images/cyn_red.png","../images/pnk_blu.png","../images/gry_blk.png"],"mutagen_generator_assignment":[1,0],"goal":3,"start":5,"action_noise":0.2,"location_history":"[5,0,1,5,0,5,4,2,3]","action_history":"[1,1,1,1,1,1,1,1]","mutagen_history":"[0,0,0,0,0,0,0,0]","location_rts":"[1233,386,299,737,251,409,555,403]","trial_type":"fractal-mutation","trial_index":190,"time_elapsed":2912361,"internal_node_id":"0.0-5.0-86.0"},{"group":"hexagon_tri","fractal_assignment":["../images/blu_wht.png","../images/org_blu.png","../images/ylw_slt.png","../images/cyn_red.png","../images/pnk_blu.png","../images/gry_blk.png"],"mutagen_generator_assignment":[1,0],"goal":1,"start":3,"action_noise":0.2,"location_history":"[3,4,2,3,4,0,5,0,1]","action_history":"[1,1,1,1,1,1,1,1]","mutagen_history":"[0,0,0,0,0,0,0,0]","location_rts":"[1046,395,205,175,337,140,97,399]","trial_type":"fractal-mutation","trial_index":191,"time_elapsed":2926827,"internal_node_id":"0.0-5.0-87.0"},{"group":"hexagon_tri","fractal_assignment":["../images/blu_wht.png","../images/org_blu.png","../images/ylw_slt.png","../images/cyn_red.png","../images/pnk_blu.png","../images/gry_blk.png"],"mutagen_generator_assignment":[1,0],"goal":2,"start":1,"action_noise":0.2,"location_history":"[1,3,2]","action_history":"[0,0]","mutagen_history":"[1,1]","location_rts":"[1125,487]","trial_type":"fractal-mutation","trial_index":192,"time_elapsed":2934004,"internal_node_id":"0.0-5.0-88.0"},{"group":"hexagon_tri","fractal_assignment":["../images/blu_wht.png","../images/org_blu.png","../images/ylw_slt.png","../images/cyn_red.png","../images/pnk_blu.png","../images/gry_blk.png"],"mutagen_generator_assignment":[1,0],"goal":0,"start":2,"action_noise":0.2,"location_history":"[2,1,3,2,3,2,3,2,3,2,3,2,3,2,1,5,4,0]","action_history":"[0,1,0,1,0,1,0,1,0,1,0,1,1,0,1,0,0]","mutagen_history":"[1,0,1,0,1,0,1,0,1,0,1,0,0,1,0,1,1]","location_rts":"[2220,434,346,635,504,323,269,320,378,222,271,206,418,413,1300,458,960]","trial_type":"fractal-mutation","trial_index":193,"time_elapsed":2964667,"internal_node_id":"0.0-5.0-89.0"},{"group":"hexagon_tri","fractal_assignment":["../images/blu_wht.png","../images/org_blu.png","../images/ylw_slt.png","../images/cyn_red.png","../images/pnk_blu.png","../images/gry_blk.png"],"mutagen_generator_assignment":[1,0],"goal":5,"start":0,"action_noise":0.2,"location_history":"[0,1,5]","action_history":"[1,1]","mutagen_history":"[0,0]","location_rts":"[2125,1057]","trial_type":"fractal-mutation","trial_index":194,"time_elapsed":2973414,"internal_node_id":"0.0-5.0-90.0"},{"group":"hexagon_tri","fractal_assignment":["../images/blu_wht.png","../images/org_blu.png","../images/ylw_slt.png","../images/cyn_red.png","../images/pnk_blu.png","../images/gry_blk.png"],"mutagen_generator_assignment":[1,0],"goal":1,"start":5,"action_noise":0.2,"location_history":"[5,0,1]","action_history":"[1,1]","mutagen_history":"[0,0]","location_rts":"[1051,279]","trial_type":"fractal-mutation","trial_index":195,"time_elapsed":2980293,"internal_node_id":"0.0-5.0-91.0"},{"group":"hexagon_tri","fractal_assignment":["../images/blu_wht.png","../images/org_blu.png","../images/ylw_slt.png","../images/cyn_red.png","../images/pnk_blu.png","../images/gry_blk.png"],"mutagen_generator_assignment":[1,0],"goal":3,"start":1,"action_noise":0.2,"location_history":"[1,5,4,0,5,0,1,3]","action_history":"[0,0,0,0,1,1,0]","mutagen_history":"[1,1,1,1,0,0,1]","location_rts":"[2267,969,494,482,885,539,682]","trial_type":"fractal-mutation","trial_index":196,"time_elapsed":2997330,"internal_node_id":"0.0-5.0-92.0"},{"group":"hexagon_tri","fractal_assignment":["../images/blu_wht.png","../images/org_blu.png","../images/ylw_slt.png","../images/cyn_red.png","../images/pnk_blu.png","../images/gry_blk.png"],"mutagen_generator_assignment":[1,0],"goal":4,"start":3,"action_noise":0.2,"location_history":"[3,2,1,3,2,3,2,3,4]","action_history":"[0,0,1,1,1,1,1,1]","mutagen_history":"[1,1,0,0,0,0,0,0]","location_rts":"[2311,703,206,1244,488,583,381,228]","trial_type":"fractal-mutation","trial_index":197,"time_elapsed":3015169,"internal_node_id":"0.0-5.0-93.0"},{"group":"hexagon_tri","fractal_assignment":["../images/blu_wht.png","../images/org_blu.png","../images/ylw_slt.png","../images/cyn_red.png","../images/pnk_blu.png","../images/gry_blk.png"],"mutagen_generator_assignment":[1,0],"goal":2,"start":4,"action_noise":0.2,"location_history":"[4,0,1,3,2]","action_history":"[1,1,0,0]","mutagen_history":"[0,0,1,1]","location_rts":"[816,635,1624,774]","trial_type":"fractal-mutation","trial_index":198,"time_elapsed":3026619,"internal_node_id":"0.0-5.0-94.0"},{"group":"hexagon_tri","fractal_assignment":["../images/blu_wht.png","../images/org_blu.png","../images/ylw_slt.png","../images/cyn_red.png","../images/pnk_blu.png","../images/gry_blk.png"],"mutagen_generator_assignment":[1,0],"goal":4,"start":2,"action_noise":0.2,"location_history":"[2,1,5,0,5,4]","action_history":"[0,1,0,0,0]","mutagen_history":"[1,0,1,1,1]","location_rts":"[1550,667,396,688,424]","trial_type":"fractal-mutation","trial_index":199,"time_elapsed":3038974,"internal_node_id":"0.0-5.0-95.0"},{"group":"hexagon_tri","fractal_assignment":["../images/blu_wht.png","../images/org_blu.png","../images/ylw_slt.png","../images/cyn_red.png","../images/pnk_blu.png","../images/gry_blk.png"],"mutagen_generator_assignment":[1,0],"goal":0,"start":4,"action_noise":0.2,"location_history":"[4,0]","action_history":"[0]","mutagen_history":"[1]","location_rts":"[1411]","trial_type":"fractal-mutation","trial_index":200,"time_elapsed":3044916,"internal_node_id":"0.0-5.0-96.0"},{"group":"hexagon_tri","fractal_assignment":["../images/blu_wht.png","../images/org_blu.png","../images/ylw_slt.png","../images/cyn_red.png","../images/pnk_blu.png","../images/gry_blk.png"],"mutagen_generator_assignment":[1,0],"goal":5,"start":0,"action_noise":0.2,"location_history":"[0,5]","action_history":"[0]","mutagen_history":"[1]","location_rts":"[1637]","trial_type":"fractal-mutation","trial_index":201,"time_elapsed":3051094,"internal_node_id":"0.0-5.0-97.0"},{"group":"hexagon_tri","fractal_assignment":["../images/blu_wht.png","../images/org_blu.png","../images/ylw_slt.png","../images/cyn_red.png","../images/pnk_blu.png","../images/gry_blk.png"],"mutagen_generator_assignment":[1,0],"goal":1,"start":5,"action_noise":0.2,"location_history":"[5,4,2,1]","action_history":"[1,1,1]","mutagen_history":"[0,0,0]","location_rts":"[1313,291,423]","trial_type":"fractal-mutation","trial_index":202,"time_elapsed":3059691,"internal_node_id":"0.0-5.0-98.0"},{"group":"hexagon_tri","fractal_assignment":["../images/blu_wht.png","../images/org_blu.png","../images/ylw_slt.png","../images/cyn_red.png","../images/pnk_blu.png","../images/gry_blk.png"],"mutagen_generator_assignment":[1,0],"goal":3,"start":1,"action_noise":0.2,"location_history":"[1,3]","action_history":"[0]","mutagen_history":"[1]","location_rts":"[2503]","trial_type":"fractal-mutation","trial_index":203,"time_elapsed":3066737,"internal_node_id":"0.0-5.0-99.0"},{"view_history":"[{\"page_index\":0,\"viewing_time\":7292}]","rt":7293,"trial_type":"instructions","trial_index":204,"time_elapsed":3075030,"internal_node_id":"0.0-6.0"},{"rt":5947,"responses":"{\"Q0\":\"Nope\"}","trial_type":"survey-text","trial_index":205,"time_elapsed":3081983,"internal_node_id":"0.0-7.0"}]