[{"view_history":"[{\"page_index\":0,\"viewing_time\":92871},{\"page_index\":1,\"viewing_time\":17074},{\"page_index\":2,\"viewing_time\":18132},{\"page_index\":3,\"viewing_time\":8746}]","rt":136824,"trial_type":"instructions","trial_index":0,"time_elapsed":136825,"internal_node_id":"0.0-0.0"},{"view_history":"[{\"page_index\":0,\"viewing_time\":14015},{\"page_index\":1,\"viewing_time\":26038}]","rt":40053,"trial_type":"instructions","trial_index":1,"time_elapsed":177881,"internal_node_id":"0.0-1.0"},{"group":"hexagon_tri","room_assignment":["grey","yellow","red","green","purple","blue"],"door_color_assignment":["black","white"],"door_generator_assignment":[0,1],"goal":4,"start":0,"action_noise":0.2,"location_history":"[0,5,4]","action_history":"[0,0]","door_history":"[0,0]","location_rts":"[15779,9769]","trial_type":"two-door-navigation","trial_index":2,"time_elapsed":209012,"internal_node_id":"0.0-2.0-0.0"},{"group":"hexagon_tri","room_assignment":["grey","yellow","red","green","purple","blue"],"door_color_assignment":["black","white"],"door_generator_assignment":[0,1],"goal":3,"start":4,"action_noise":0.2,"location_history":"[4,2,3]","action_history":"[1,1]","door_history":"[1,1]","location_rts":"[4736,3768]","trial_type":"two-door-navigation","trial_index":3,"time_elapsed":223103,"internal_node_id":"0.0-2.0-1.0"},{"group":"hexagon_tri","room_assignment":["grey","yellow","red","green","purple","blue"],"door_color_assignment":["black","white"],"door_generator_assignment":[0,1],"goal":5,"start":3,"action_noise":0.2,"location_history":"[3,4,2,1,3,4,2,3,4,2,1,3,4,0,5]","action_history":"[0,0,0,0,1,1,1,1,1,0,0,0,1,0]","door_history":"[0,0,0,0,1,1,1,1,1,0,0,0,1,0]","location_rts":"[4887,2595,2503,2381,1952,1868,1662,2316,1928,1500,2194,2874,1940,3795]","trial_type":"two-door-navigation","trial_index":4,"time_elapsed":275333,"internal_node_id":"0.0-2.0-2.0"},{"group":"hexagon_tri","room_assignment":["grey","yellow","red","green","purple","blue"],"door_color_assignment":["black","white"],"door_generator_assignment":[0,1],"goal":2,"start":5,"action_noise":0.2,"location_history":"[5,4,0,1,3,4,0,1,5,4,0,5,0,5,0,5,0,5,4,2]","action_history":"[0,1,1,0,0,0,0,1,0,0,0,0,0,1,1,1,0,0,1]","door_history":"[0,1,1,0,0,0,0,1,0,0,0,0,0,1,1,1,0,0,1]","location_rts":"[5261,1790,2397,1444,867,940,756,1117,1375,811,696,969,1599,704,1140,2190,1603,1187,2063]","trial_type":"two-door-navigation","trial_index":5,"time_elapsed":327206,"internal_node_id":"0.0-2.0-3.0"},{"group":"hexagon_tri","room_assignment":["grey","yellow","red","green","purple","blue"],"door_color_assignment":["black","white"],"door_generator_assignment":[0,1],"goal":1,"start":2,"action_noise":0.2,"location_history":"[2,3,2,3,4,2,1]","action_history":"[1,1,0,1,1,0]","door_history":"[1,1,0,1,1,0]","location_rts":"[8108,1771,2344,1369,1854,1158]","trial_type":"two-door-navigation","trial_index":6,"time_elapsed":353475,"internal_node_id":"0.0-2.0-4.0"},{"group":"hexagon_tri","room_assignment":["grey","yellow","red","green","purple","blue"],"door_color_assignment":["black","white"],"door_generator_assignment":[0,1],"goal":4,"start":1,"action_noise":0.2,"location_history":"[1,3,2,1,5,0,5,0,5,4]","action_history":"[0,0,0,1,0,0,1,1,1]","door_history":"[0,0,0,1,0,0,1,1,1]","location_rts":"[4088,1482,1185,1616,11546,1077,1250,651,1880]","trial_type":"two-door-navigation","trial_index":7,"time_elapsed":391021,"internal_node_id":"0.0-2.0-5.0"},{"group":"hexagon_tri","room_assignment":["grey","yellow","red","green","purple","blue"],"door_color_assignment":["black","white"],"door_generator_assignment":[0,1],"goal":1,"start":4,"action_noise":0.2,"location_history":"[4,2,1]","action_history":"[1,0]","door_history":"[1,0]","location_rts":"[2684,2050]","trial_type":"two-door-navigation","trial_index":8,"time_elapsed":401309,"internal_node_id":"0.0-2.0-6.0"},{"group":"hexagon_tri","room_assignment":["grey","yellow","red","green","purple","blue"],"door_color_assignment":["black","white"],"door_generator_assignment":[0,1],"goal":5,"start":1,"action_noise":0.2,"location_history":"[1,5]","action_history":"[1]","door_history":"[1]","location_rts":"[2791]","trial_type":"two-door-navigation","trial_index":9,"time_elapsed":408625,"internal_node_id":"0.0-2.0-7.0"},{"group":"hexagon_tri","room_assignment":["grey","yellow","red","green","purple","blue"],"door_color_assignment":["black","white"],"door_generator_assignment":[0,1],"goal":0,"start":5,"action_noise":0.2,"location_history":"[5,0]","action_history":"[1]","door_history":"[1]","location_rts":"[3948]","trial_type":"two-door-navigation","trial_index":10,"time_elapsed":417096,"internal_node_id":"0.0-2.0-8.0"},{"group":"hexagon_tri","room_assignment":["grey","yellow","red","green","purple","blue"],"door_color_assignment":["black","white"],"door_generator_assignment":[0,1],"goal":2,"start":0,"action_noise":0.2,"location_history":"[0,5,0,1,5,0,1,3,4,0,5,4,0,1,3,2]","action_history":"[0,1,1,1,1,1,0,1,0,0,0,1,1,0,0]","door_history":"[0,1,1,1,1,1,0,1,0,0,0,1,1,0,0]","location_rts":"[4833,1545,1238,1866,992,730,1343,1719,816,749,995,1125,756,1827,1092]","trial_type":"two-door-navigation","trial_index":11,"time_elapsed":457565,"internal_node_id":"0.0-2.0-9.0"},{"group":"hexagon_tri","room_assignment":["grey","yellow","red","green","purple","blue"],"door_color_assignment":["black","white"],"door_generator_assignment":[0,1],"goal":3,"start":2,"action_noise":0.2,"location_history":"[2,3]","action_history":"[1]","door_history":"[1]","location_rts":"[4132]","trial_type":"two-door-navigation","trial_index":12,"time_elapsed":466223,"internal_node_id":"0.0-2.0-10.0"},{"group":"hexagon_tri","room_assignment":["grey","yellow","red","green","purple","blue"],"door_color_assignment":["black","white"],"door_generator_assignment":[0,1],"goal":0,"start":3,"action_noise":0.2,"location_history":"[3,2,1,5,0]","action_history":"[0,0,1,1]","door_history":"[0,0,1,1]","location_rts":"[2270,1457,2706,885]","trial_type":"two-door-navigation","trial_index":13,"time_elapsed":481149,"internal_node_id":"0.0-2.0-11.0"},{"group":"hexagon_tri","room_assignment":["grey","yellow","red","green","purple","blue"],"door_color_assignment":["black","white"],"door_generator_assignment":[0,1],"goal":2,"start":0,"action_noise":0.2,"location_history":"[0,1,3,4,2]","action_history":"[1,1,1,1]","door_history":"[1,1,1,1]","location_rts":"[2241,2776,760,612]","trial_type":"two-door-navigation","trial_index":14,"time_elapsed":495140,"internal_node_id":"0.0-2.0-12.0"},{"group":"hexagon_tri","room_assignment":["grey","yellow","red","green","purple","blue"],"door_color_assignment":["black","white"],"door_generator_assignment":[0,1],"goal":5,"start":2,"action_noise":0.2,"location_history":"[2,1,5]","action_history":"[0,1]","door_history":"[0,1]","location_rts":"[1847,1807]","trial_type":"two-door-navigation","trial_index":15,"time_elapsed":504341,"internal_node_id":"0.0-2.0-13.0"},{"group":"hexagon_tri","room_assignment":["grey","yellow","red","green","purple","blue"],"door_color_assignment":["black","white"],"door_generator_assignment":[0,1],"goal":4,"start":5,"action_noise":0.2,"location_history":"[5,4]","action_history":"[0]","door_history":"[0]","location_rts":"[2610]","trial_type":"two-door-navigation","trial_index":16,"time_elapsed":511476,"internal_node_id":"0.0-2.0-14.0"},{"group":"hexagon_tri","room_assignment":["grey","yellow","red","green","purple","blue"],"door_color_assignment":["black","white"],"door_generator_assignment":[0,1],"goal":3,"start":4,"action_noise":0.2,"location_history":"[4,2,1,5,4,2,1,3]","action_history":"[1,1,1,1,0,0,0]","door_history":"[1,1,1,1,0,0,0]","location_rts":"[3438,2370,2815,1815,16503,1531,876]","trial_type":"two-door-navigation","trial_index":17,"time_elapsed":551484,"internal_node_id":"0.0-2.0-15.0"},{"group":"hexagon_tri","room_assignment":["grey","yellow","red","green","purple","blue"],"door_color_assignment":["black","white"],"door_generator_assignment":[0,1],"goal":1,"start":3,"action_noise":0.2,"location_history":"[3,4,2,3,4,0,5,4,2,1]","action_history":"[1,1,1,1,1,1,1,1,0]","door_history":"[1,1,1,1,1,1,1,1,0]","location_rts":"[1921,765,545,750,581,583,689,469,964]","trial_type":"two-door-navigation","trial_index":18,"time_elapsed":571494,"internal_node_id":"0.0-2.0-16.0"},{"group":"hexagon_tri","room_assignment":["grey","yellow","red","green","purple","blue"],"door_color_assignment":["black","white"],"door_generator_assignment":[0,1],"goal":5,"start":1,"action_noise":0.2,"location_history":"[1,3,2,3,4,2,1,5]","action_history":"[0,1,1,1,1,1,1]","door_history":"[0,1,1,1,1,1,1]","location_rts":"[3345,1295,1036,857,954,949,652]","trial_type":"two-door-navigation","trial_index":19,"time_elapsed":591242,"internal_node_id":"0.0-2.0-17.0"},{"group":"hexagon_tri","room_assignment":["grey","yellow","red","green","purple","blue"],"door_color_assignment":["black","white"],"door_generator_assignment":[0,1],"goal":4,"start":5,"action_noise":0.2,"location_history":"[5,0,1,5,4]","action_history":"[0,0,0,0]","door_history":"[0,0,0,0]","location_rts":"[1716,617,673,864]","trial_type":"two-door-navigation","trial_index":20,"time_elapsed":602760,"internal_node_id":"0.0-2.0-18.0"},{"group":"hexagon_tri","room_assignment":["grey","yellow","red","green","purple","blue"],"door_color_assignment":["black","white"],"door_generator_assignment":[0,1],"goal":0,"start":4,"action_noise":0.2,"location_history":"[4,0]","action_history":"[0]","door_history":"[0]","location_rts":"[1915]","trial_type":"two-door-navigation","trial_index":21,"time_elapsed":609204,"internal_node_id":"0.0-2.0-19.0"},{"group":"hexagon_tri","room_assignment":["grey","yellow","red","green","purple","blue"],"door_color_assignment":["black","white"],"door_generator_assignment":[0,1],"goal":1,"start":0,"action_noise":0.2,"location_history":"[0,1]","action_history":"[1]","door_history":"[1]","location_rts":"[1910]","trial_type":"two-door-navigation","trial_index":22,"time_elapsed":615639,"internal_node_id":"0.0-2.0-20.0"},{"group":"hexagon_tri","room_assignment":["grey","yellow","red","green","purple","blue"],"door_color_assignment":["black","white"],"door_generator_assignment":[0,1],"goal":3,"start":1,"action_noise":0.2,"location_history":"[1,3]","action_history":"[0]","door_history":"[0]","location_rts":"[2968]","trial_type":"two-door-navigation","trial_index":23,"time_elapsed":623141,"internal_node_id":"0.0-2.0-21.0"},{"group":"hexagon_tri","room_assignment":["grey","yellow","red","green","purple","blue"],"door_color_assignment":["black","white"],"door_generator_assignment":[0,1],"goal":2,"start":3,"action_noise":0.2,"location_history":"[3,2]","action_history":"[1]","door_history":"[1]","location_rts":"[2389]","trial_type":"two-door-navigation","trial_index":24,"time_elapsed":630052,"internal_node_id":"0.0-2.0-22.0"},{"group":"hexagon_tri","room_assignment":["grey","yellow","red","green","purple","blue"],"door_color_assignment":["black","white"],"door_generator_assignment":[0,1],"goal":0,"start":2,"action_noise":0.2,"location_history":"[2,1,3,4,0]","action_history":"[0,0,0,0]","door_history":"[0,0,0,0]","location_rts":"[3668,1301,974,496]","trial_type":"two-door-navigation","trial_index":25,"time_elapsed":644115,"internal_node_id":"0.0-2.0-23.0"},{"group":"hexagon_tri","room_assignment":["grey","yellow","red","green","purple","blue"],"door_color_assignment":["black","white"],"door_generator_assignment":[0,1],"goal":3,"start":0,"action_noise":0.2,"location_history":"[0,5,4,0,1,3]","action_history":"[1,0,0,0,0]","door_history":"[1,0,0,0,0]","location_rts":"[2498,1124,710,571,472]","trial_type":"two-door-navigation","trial_index":26,"time_elapsed":658108,"internal_node_id":"0.0-2.0-24.0"},{"group":"hexagon_tri","room_assignment":["grey","yellow","red","green","purple","blue"],"door_color_assignment":["black","white"],"door_generator_assignment":[0,1],"goal":1,"start":3,"action_noise":0.2,"location_history":"[3,4,2,3,2,1]","action_history":"[1,1,1,0,0]","door_history":"[1,1,1,0,0]","location_rts":"[1734,781,473,1498,737]","trial_type":"two-door-navigation","trial_index":27,"time_elapsed":671958,"internal_node_id":"0.0-2.0-25.0"},{"group":"hexagon_tri","room_assignment":["grey","yellow","red","green","purple","blue"],"door_color_assignment":["black","white"],"door_generator_assignment":[0,1],"goal":2,"start":1,"action_noise":0.2,"location_history":"[1,5,4,0,5,0,1,5,4,0,5,4,0,1,3,2]","action_history":"[1,0,0,0,1,1,1,0,0,0,0,0,0,1,1]","door_history":"[1,0,0,0,1,1,1,0,0,0,0,0,0,1,1]","location_rts":"[3229,909,586,902,1135,480,533,1026,429,603,738,1400,1416,793,425]","trial_type":"two-door-navigation","trial_index":28,"time_elapsed":705457,"internal_node_id":"0.0-2.0-26.0"},{"group":"hexagon_tri","room_assignment":["grey","yellow","red","green","purple","blue"],"door_color_assignment":["black","white"],"door_generator_assignment":[0,1],"goal":5,"start":2,"action_noise":0.2,"location_history":"[2,1,3,4,0,1,3,2,3,2,3,4,2,1,3,2,1,5]","action_history":"[1,0,0,0,0,0,0,0,1,1,1,1,1,0,0,0,1]","door_history":"[1,0,0,0,0,0,0,0,1,1,1,1,1,0,0,0,1]","location_rts":"[2793,2372,1072,462,394,377,371,387,971,667,825,579,455,774,748,442,1949]","trial_type":"two-door-navigation","trial_index":29,"time_elapsed":742047,"internal_node_id":"0.0-2.0-27.0"},{"group":"hexagon_tri","room_assignment":["grey","yellow","red","green","purple","blue"],"door_color_assignment":["black","white"],"door_generator_assignment":[0,1],"goal":4,"start":5,"action_noise":0.2,"location_history":"[5,4]","action_history":"[0]","door_history":"[0]","location_rts":"[2985]","trial_type":"two-door-navigation","trial_index":30,"time_elapsed":749573,"internal_node_id":"0.0-2.0-28.0"},{"group":"hexagon_tri","room_assignment":["grey","yellow","red","green","purple","blue"],"door_color_assignment":["black","white"],"door_generator_assignment":[0,1],"goal":5,"start":4,"action_noise":0.2,"location_history":"[4,2,3,4,2,1,5]","action_history":"[1,1,0,0,0,1]","door_history":"[1,1,0,0,0,1]","location_rts":"[3609,848,2828,858,636,979]","trial_type":"two-door-navigation","trial_index":31,"time_elapsed":768976,"internal_node_id":"0.0-2.0-29.0"},{"group":"hexagon_tri","room_assignment":["grey","yellow","red","green","purple","blue"],"door_color_assignment":["black","white"],"door_generator_assignment":[0,1],"goal":3,"start":5,"action_noise":0.2,"location_history":"[5,0,1,5,0,5,0,5,0,5,0,1,3]","action_history":"[1,1,1,1,1,0,0,0,0,1,1,0]","door_history":"[1,1,1,1,1,0,0,0,0,1,1,0]","location_rts":"[2697,948,1728,788,1692,2076,623,420,353,926,827,1732]","trial_type":"two-door-navigation","trial_index":32,"time_elapsed":799616,"internal_node_id":"0.0-2.0-30.0"},{"group":"hexagon_tri","room_assignment":["grey","yellow","red","green","purple","blue"],"door_color_assignment":["black","white"],"door_generator_assignment":[0,1],"goal":0,"start":3,"action_noise":0.2,"location_history":"[3,4,0]","action_history":"[1,1]","door_history":"[1,1]","location_rts":"[3899,706]","trial_type":"two-door-navigation","trial_index":33,"time_elapsed":809779,"internal_node_id":"0.0-2.0-31.0"},{"group":"hexagon_tri","room_assignment":["grey","yellow","red","green","purple","blue"],"door_color_assignment":["black","white"],"door_generator_assignment":[0,1],"goal":4,"start":0,"action_noise":0.2,"location_history":"[0,5,4]","action_history":"[0,0]","door_history":"[0,0]","location_rts":"[1891,895]","trial_type":"two-door-navigation","trial_index":34,"time_elapsed":818145,"internal_node_id":"0.0-2.0-32.0"},{"group":"hexagon_tri","room_assignment":["grey","yellow","red","green","purple","blue"],"door_color_assignment":["black","white"],"door_generator_assignment":[0,1],"goal":1,"start":4,"action_noise":0.2,"location_history":"[4,0,5,4,0,1]","action_history":"[0,0,1,1,1]","door_history":"[0,0,1,1,1]","location_rts":"[3624,798,868,769,849]","trial_type":"two-door-navigation","trial_index":35,"time_elapsed":833701,"internal_node_id":"0.0-2.0-33.0"},{"group":"hexagon_tri","room_assignment":["grey","yellow","red","green","purple","blue"],"door_color_assignment":["black","white"],"door_generator_assignment":[0,1],"goal":2,"start":1,"action_noise":0.2,"location_history":"[1,3,4,2]","action_history":"[0,1,1]","door_history":"[0,1,1]","location_rts":"[3304,827,529]","trial_type":"two-door-navigation","trial_index":36,"time_elapsed":844930,"internal_node_id":"0.0-2.0-34.0"},{"group":"hexagon_tri","room_assignment":["grey","yellow","red","green","purple","blue"],"door_color_assignment":["black","white"],"door_generator_assignment":[0,1],"goal":0,"start":2,"action_noise":0.2,"location_history":"[2,1,5,4,2,1,3,2,3,4,2,3,2,1,5,4,2,3,4,0]","action_history":"[0,1,0,0,0,0,0,0,1,1,1,0,1,1,0,1,1,1,0]","door_history":"[0,1,0,0,0,0,0,0,1,1,1,0,1,1,0,1,1,1,0]","location_rts":"[1826,1278,1364,627,586,433,386,372,494,512,641,1112,722,724,1602,756,474,807,811]","trial_type":"two-door-navigation","trial_index":37,"time_elapsed":883476,"internal_node_id":"0.0-2.0-35.0"},{"group":"hexagon_tri","room_assignment":["grey","yellow","red","green","purple","blue"],"door_color_assignment":["black","white"],"door_generator_assignment":[0,1],"goal":5,"start":0,"action_noise":0.2,"location_history":"[0,5]","action_history":"[0]","door_history":"[0]","location_rts":"[2947]","trial_type":"two-door-navigation","trial_index":38,"time_elapsed":890964,"internal_node_id":"0.0-2.0-36.0"},{"group":"hexagon_tri","room_assignment":["grey","yellow","red","green","purple","blue"],"door_color_assignment":["black","white"],"door_generator_assignment":[0,1],"goal":2,"start":5,"action_noise":0.2,"location_history":"[5,0,5,0,1,5,4,2]","action_history":"[1,0,1,1,0,0,1]","door_history":"[1,0,1,1,0,0,1]","location_rts":"[1546,1255,1054,1144,5542,1191,1108]","trial_type":"two-door-navigation","trial_index":39,"time_elapsed":914492,"internal_node_id":"0.0-2.0-37.0"},{"group":"hexagon_tri","room_assignment":["grey","yellow","red","green","purple","blue"],"door_color_assignment":["black","white"],"door_generator_assignment":[0,1],"goal":1,"start":2,"action_noise":0.2,"location_history":"[2,1]","action_history":"[0]","door_history":"[0]","location_rts":"[2158]","trial_type":"two-door-navigation","trial_index":40,"time_elapsed":921191,"internal_node_id":"0.0-2.0-38.0"},{"group":"hexagon_tri","room_assignment":["grey","yellow","red","green","purple","blue"],"door_color_assignment":["black","white"],"door_generator_assignment":[0,1],"goal":4,"start":1,"action_noise":0.2,"location_history":"[1,3,2,3,4]","action_history":"[1,1,1,1]","door_history":"[1,1,1,1]","location_rts":"[2499,1068,1031,1133]","trial_type":"two-door-navigation","trial_index":41,"time_elapsed":934518,"internal_node_id":"0.0-2.0-39.0"},{"group":"hexagon_tri","room_assignment":["grey","yellow","red","green","purple","blue"],"door_color_assignment":["black","white"],"door_generator_assignment":[0,1],"goal":3,"start":4,"action_noise":0.2,"location_history":"[4,0,5,4,0,5,0,1,3]","action_history":"[0,0,0,0,1,1,1,0]","door_history":"[0,0,0,0,1,1,1,0]","location_rts":"[3052,2222,618,782,1034,778,1347,1173]","trial_type":"two-door-navigation","trial_index":42,"time_elapsed":957224,"internal_node_id":"0.0-2.0-40.0"},{"group":"hexagon_tri","room_assignment":["grey","yellow","red","green","purple","blue"],"door_color_assignment":["black","white"],"door_generator_assignment":[0,1],"goal":5,"start":3,"action_noise":0.2,"location_history":"[3,2,1,3,2,1,3,4,0,1,3,4,2,3,4,0,5]","action_history":"[0,0,0,1,1,0,1,0,0,0,1,1,1,1,0,0]","door_history":"[0,0,0,1,1,0,1,0,0,0,1,1,1,1,0,0]","location_rts":"[1862,654,480,1665,799,970,1284,903,467,1299,922,292,522,2743,674,1870]","trial_type":"two-door-navigation","trial_index":43,"time_elapsed":994576,"internal_node_id":"0.0-2.0-41.0"},{"group":"hexagon_tri","room_assignment":["grey","yellow","red","green","purple","blue"],"door_color_assignment":["black","white"],"door_generator_assignment":[0,1],"goal":3,"start":5,"action_noise":0.2,"location_history":"[5,4,2,1,3]","action_history":"[0,0,0,1]","door_history":"[0,0,0,1]","location_rts":"[2015,947,716,787]","trial_type":"two-door-navigation","trial_index":44,"time_elapsed":1006649,"internal_node_id":"0.0-2.0-42.0"},{"group":"hexagon_tri","room_assignment":["grey","yellow","red","green","purple","blue"],"door_color_assignment":["black","white"],"door_generator_assignment":[0,1],"goal":0,"start":3,"action_noise":0.2,"location_history":"[3,4,2,1,3,4,0]","action_history":"[1,1,0,0,1,0]","door_history":"[1,1,0,0,1,0]","location_rts":"[1946,691,893,661,932,1058]","trial_type":"two-door-navigation","trial_index":45,"time_elapsed":1022494,"internal_node_id":"0.0-2.0-43.0"},{"group":"hexagon_tri","room_assignment":["grey","yellow","red","green","purple","blue"],"door_color_assignment":["black","white"],"door_generator_assignment":[0,1],"goal":2,"start":0,"action_noise":0.2,"location_history":"[0,1,5,4,2]","action_history":"[1,1,1,1]","door_history":"[1,1,1,1]","location_rts":"[2223,1871,790,728]","trial_type":"two-door-navigation","trial_index":46,"time_elapsed":1035710,"internal_node_id":"0.0-2.0-44.0"},{"group":"hexagon_tri","room_assignment":["grey","yellow","red","green","purple","blue"],"door_color_assignment":["black","white"],"door_generator_assignment":[0,1],"goal":4,"start":2,"action_noise":0.2,"location_history":"[2,1,3,4]","action_history":"[0,1,1]","door_history":"[0,1,1]","location_rts":"[2069,1638,706]","trial_type":"two-door-navigation","trial_index":47,"time_elapsed":1046697,"internal_node_id":"0.0-2.0-45.0"},{"group":"hexagon_tri","room_assignment":["grey","yellow","red","green","purple","blue"],"door_color_assignment":["black","white"],"door_generator_assignment":[0,1],"goal":1,"start":4,"action_noise":0.2,"location_history":"[4,2,1]","action_history":"[1,0]","door_history":"[1,0]","location_rts":"[3323,1201]","trial_type":"two-door-navigation","trial_index":48,"time_elapsed":1056766,"internal_node_id":"0.0-2.0-46.0"},{"group":"hexagon_tri","room_assignment":["grey","yellow","red","green","purple","blue"],"door_color_assignment":["black","white"],"door_generator_assignment":[0,1],"goal":4,"start":1,"action_noise":0.2,"location_history":"[1,3,4]","action_history":"[1,1]","door_history":"[1,1]","location_rts":"[2310,1375]","trial_type":"two-door-navigation","trial_index":49,"time_elapsed":1066015,"internal_node_id":"0.0-2.0-47.0"},{"group":"hexagon_tri","room_assignment":["grey","yellow","red","green","purple","blue"],"door_color_assignment":["black","white"],"door_generator_assignment":[0,1],"goal":1,"start":4,"action_noise":0.2,"location_history":"[4,0,5,4,2,1]","action_history":"[0,0,1,1,0]","door_history":"[0,0,1,1,0]","location_rts":"[2605,947,785,559,878]","trial_type":"two-door-navigation","trial_index":50,"time_elapsed":1080408,"internal_node_id":"0.0-2.0-48.0"},{"group":"hexagon_tri","room_assignment":["grey","yellow","red","green","purple","blue"],"door_color_assignment":["black","white"],"door_generator_assignment":[0,1],"goal":3,"start":1,"action_noise":0.2,"location_history":"[1,5,4,2,3]","action_history":"[1,1,1,1]","door_history":"[1,1,1,1]","location_rts":"[2125,1156,1364,915]","trial_type":"two-door-navigation","trial_index":51,"time_elapsed":1093571,"internal_node_id":"0.0-2.0-49.0"},{"group":"hexagon_tri","room_assignment":["grey","yellow","red","green","purple","blue"],"door_color_assignment":["black","white"],"door_generator_assignment":[0,1],"goal":5,"start":3,"action_noise":0.2,"location_history":"[3,4,2,1,5]","action_history":"[1,0,0,1]","door_history":"[1,0,0,1]","location_rts":"[2905,1111,915,932]","trial_type":"two-door-navigation","trial_index":52,"time_elapsed":1107038,"internal_node_id":"0.0-2.0-50.0"},{"group":"hexagon_tri","room_assignment":["grey","yellow","red","green","purple","blue"],"door_color_assignment":["black","white"],"door_generator_assignment":[0,1],"goal":0,"start":5,"action_noise":0.2,"location_history":"[5,0]","action_history":"[1]","door_history":"[1]","location_rts":"[1738]","trial_type":"two-door-navigation","trial_index":53,"time_elapsed":1113302,"internal_node_id":"0.0-2.0-51.0"},{"group":"hexagon_tri","room_assignment":["grey","yellow","red","green","purple","blue"],"door_color_assignment":["black","white"],"door_generator_assignment":[0,1],"goal":2,"start":0,"action_noise":0.2,"location_history":"[0,1,5,4,2]","action_history":"[1,0,0,1]","door_history":"[1,0,0,1]","location_rts":"[1376,2177,812,944]","trial_type":"two-door-navigation","trial_index":54,"time_elapsed":1126239,"internal_node_id":"0.0-2.0-52.0"},{"group":"hexagon_tri","room_assignment":["grey","yellow","red","green","purple","blue"],"door_color_assignment":["black","white"],"door_generator_assignment":[0,1],"goal":1,"start":2,"action_noise":0.2,"location_history":"[2,1]","action_history":"[0]","door_history":"[0]","location_rts":"[1957]","trial_type":"two-door-navigation","trial_index":55,"time_elapsed":1132774,"internal_node_id":"0.0-2.0-53.0"},{"group":"hexagon_tri","room_assignment":["grey","yellow","red","green","purple","blue"],"door_color_assignment":["black","white"],"door_generator_assignment":[0,1],"goal":2,"start":1,"action_noise":0.2,"location_history":"[1,5,4,2]","action_history":"[1,1,0]","door_history":"[1,1,0]","location_rts":"[3337,1214,965]","trial_type":"two-door-navigation","trial_index":56,"time_elapsed":1144861,"internal_node_id":"0.0-2.0-54.0"},{"group":"hexagon_tri","room_assignment":["grey","yellow","red","green","purple","blue"],"door_color_assignment":["black","white"],"door_generator_assignment":[0,1],"goal":5,"start":2,"action_noise":0.2,"location_history":"[2,3,4,2,3,4,2,3,2,3,4,2,3,4,0,5]","action_history":"[1,1,1,1,1,1,1,0,0,1,1,1,1,0,0]","door_history":"[1,1,1,1,1,1,1,0,0,1,1,1,1,0,0]","location_rts":"[2081,1531,816,622,421,515,834,982,634,1255,813,752,339,443,575]","trial_type":"two-door-navigation","trial_index":57,"time_elapsed":1176359,"internal_node_id":"0.0-2.0-55.0"},{"group":"hexagon_tri","room_assignment":["grey","yellow","red","green","purple","blue"],"door_color_assignment":["black","white"],"door_generator_assignment":[0,1],"goal":4,"start":5,"action_noise":0.2,"location_history":"[5,4]","action_history":"[0]","door_history":"[0]","location_rts":"[1486]","trial_type":"two-door-navigation","trial_index":58,"time_elapsed":1182370,"internal_node_id":"0.0-2.0-56.0"},{"group":"hexagon_tri","room_assignment":["grey","yellow","red","green","purple","blue"],"door_color_assignment":["black","white"],"door_generator_assignment":[0,1],"goal":3,"start":4,"action_noise":0.2,"location_history":"[4,2,3]","action_history":"[1,1]","door_history":"[1,1]","location_rts":"[1945,1557]","trial_type":"two-door-navigation","trial_index":59,"time_elapsed":1191420,"internal_node_id":"0.0-2.0-57.0"},{"group":"hexagon_tri","room_assignment":["grey","yellow","red","green","purple","blue"],"door_color_assignment":["black","white"],"door_generator_assignment":[0,1],"goal":0,"start":3,"action_noise":0.2,"location_history":"[3,2,1,3,4,0]","action_history":"[0,0,0,1,0]","door_history":"[0,0,0,1,0]","location_rts":"[1907,1642,1590,760,1153]","trial_type":"two-door-navigation","trial_index":60,"time_elapsed":1207106,"internal_node_id":"0.0-2.0-58.0"},{"group":"hexagon_tri","room_assignment":["grey","yellow","red","green","purple","blue"],"door_color_assignment":["black","white"],"door_generator_assignment":[0,1],"goal":2,"start":0,"action_noise":0.2,"location_history":"[0,1,3,2]","action_history":"[1,1,0]","door_history":"[1,1,0]","location_rts":"[2166,4741,921]","trial_type":"two-door-navigation","trial_index":61,"time_elapsed":1221500,"internal_node_id":"0.0-2.0-59.0"},{"group":"hexagon_tri","room_assignment":["grey","yellow","red","green","purple","blue"],"door_color_assignment":["black","white"],"door_generator_assignment":[0,1],"goal":1,"start":2,"action_noise":0.2,"location_history":"[2,1]","action_history":"[0]","door_history":"[0]","location_rts":"[1721]","trial_type":"two-door-navigation","trial_index":62,"time_elapsed":1227763,"internal_node_id":"0.0-2.0-60.0"},{"group":"hexagon_tri","room_assignment":["grey","yellow","red","green","purple","blue"],"door_color_assignment":["black","white"],"door_generator_assignment":[0,1],"goal":0,"start":1,"action_noise":0.2,"location_history":"[1,5,0]","action_history":"[1,1]","door_history":"[1,1]","location_rts":"[2069,647]","trial_type":"two-door-navigation","trial_index":63,"time_elapsed":1236026,"internal_node_id":"0.0-2.0-61.0"},{"group":"hexagon_tri","room_assignment":["grey","yellow","red","green","purple","blue"],"door_color_assignment":["black","white"],"door_generator_assignment":[0,1],"goal":3,"start":0,"action_noise":0.2,"location_history":"[0,1,5,4,2,3]","action_history":"[1,1,0,0,0]","door_history":"[1,1,0,0,0]","location_rts":"[2749,937,2204,594,496]","trial_type":"two-door-navigation","trial_index":64,"time_elapsed":1251630,"internal_node_id":"0.0-2.0-62.0"},{"group":"hexagon_tri","room_assignment":["grey","yellow","red","green","purple","blue"],"door_color_assignment":["black","white"],"door_generator_assignment":[0,1],"goal":5,"start":3,"action_noise":0.2,"location_history":"[3,4,0,5]","action_history":"[1,0,0]","door_history":"[1,0,0]","location_rts":"[1638,821,504]","trial_type":"two-door-navigation","trial_index":65,"time_elapsed":1261159,"internal_node_id":"0.0-2.0-63.0"},{"group":"hexagon_tri","room_assignment":["grey","yellow","red","green","purple","blue"],"door_color_assignment":["black","white"],"door_generator_assignment":[0,1],"goal":4,"start":5,"action_noise":0.2,"location_history":"[5,4]","action_history":"[0]","door_history":"[0]","location_rts":"[4192]","trial_type":"two-door-navigation","trial_index":66,"time_elapsed":1269886,"internal_node_id":"0.0-2.0-64.0"},{"group":"hexagon_tri","room_assignment":["grey","yellow","red","green","purple","blue"],"door_color_assignment":["black","white"],"door_generator_assignment":[0,1],"goal":1,"start":4,"action_noise":0.2,"location_history":"[4,2,1]","action_history":"[1,0]","door_history":"[1,0]","location_rts":"[2630,858]","trial_type":"two-door-navigation","trial_index":67,"time_elapsed":1278922,"internal_node_id":"0.0-2.0-65.0"},{"group":"hexagon_tri","room_assignment":["grey","yellow","red","green","purple","blue"],"door_color_assignment":["black","white"],"door_generator_assignment":[0,1],"goal":5,"start":1,"action_noise":0.2,"location_history":"[1,5]","action_history":"[1]","door_history":"[1]","location_rts":"[2765]","trial_type":"two-door-navigation","trial_index":68,"time_elapsed":1286248,"internal_node_id":"0.0-2.0-66.0"},{"group":"hexagon_tri","room_assignment":["grey","yellow","red","green","purple","blue"],"door_color_assignment":["black","white"],"door_generator_assignment":[0,1],"goal":2,"start":5,"action_noise":0.2,"location_history":"[5,0,1,3,4,0,5,4,0,5,4,0,5,4,0,1,3,4,0,5,0,1,3,4,2]","action_history":"[1,1,0,0,0,0,0,1,0,0,0,0,0,1,1,0,0,0,0,0,1,0,1,1]","door_history":"[1,1,0,0,0,0,0,1,0,0,0,0,0,1,1,0,0,0,0,0,1,0,1,1]","location_rts":"[1605,891,2717,1088,808,629,709,766,880,613,667,732,470,751,715,2131,1613,751,547,558,822,1353,638,836]","trial_type":"two-door-navigation","trial_index":69,"time_elapsed":1337678,"internal_node_id":"0.0-2.0-67.0"},{"group":"hexagon_tri","room_assignment":["grey","yellow","red","green","purple","blue"],"door_color_assignment":["black","white"],"door_generator_assignment":[0,1],"goal":3,"start":2,"action_noise":0.2,"location_history":"[2,3]","action_history":"[1]","door_history":"[1]","location_rts":"[2449]","trial_type":"two-door-navigation","trial_index":70,"time_elapsed":1344653,"internal_node_id":"0.0-2.0-68.0"},{"group":"hexagon_tri","room_assignment":["grey","yellow","red","green","purple","blue"],"door_color_assignment":["black","white"],"door_generator_assignment":[0,1],"goal":4,"start":3,"action_noise":0.2,"location_history":"[3,2,1,3,2,3,4]","action_history":"[0,0,0,1,1,1]","door_history":"[0,0,0,1,1,1]","location_rts":"[2377,665,413,1048,883,695]","trial_type":"two-door-navigation","trial_index":71,"time_elapsed":1360378,"internal_node_id":"0.0-2.0-69.0"},{"group":"hexagon_tri","room_assignment":["grey","yellow","red","green","purple","blue"],"door_color_assignment":["black","white"],"door_generator_assignment":[0,1],"goal":0,"start":4,"action_noise":0.2,"location_history":"[4,0]","action_history":"[1]","door_history":"[1]","location_rts":"[1774]","trial_type":"two-door-navigation","trial_index":72,"time_elapsed":1366684,"internal_node_id":"0.0-2.0-70.0"},{"group":"hexagon_tri","room_assignment":["grey","yellow","red","green","purple","blue"],"door_color_assignment":["black","white"],"door_generator_assignment":[0,1],"goal":5,"start":0,"action_noise":0.2,"location_history":"[0,1,3,4,0,5]","action_history":"[0,0,0,0,0]","door_history":"[0,0,0,0,0]","location_rts":"[1236,493,749,583,506]","trial_type":"two-door-navigation","trial_index":73,"time_elapsed":1378871,"internal_node_id":"0.0-2.0-71.0"},{"group":"hexagon_tri","room_assignment":["grey","yellow","red","green","purple","blue"],"door_color_assignment":["black","white"],"door_generator_assignment":[0,1],"goal":0,"start":5,"action_noise":0.2,"location_history":"[5,4,0]","action_history":"[1,0]","door_history":"[1,0]","location_rts":"[1945,1136]","trial_type":"two-door-navigation","trial_index":74,"time_elapsed":1387520,"internal_node_id":"0.0-2.0-72.0"},{"group":"hexagon_tri","room_assignment":["grey","yellow","red","green","purple","blue"],"door_color_assignment":["black","white"],"door_generator_assignment":[0,1],"goal":3,"start":0,"action_noise":0.2,"location_history":"[0,1,5,4,0,5,0,1,3]","action_history":"[1,1,0,0,0,1,1,0]","door_history":"[1,1,0,0,0,1,1,0]","location_rts":"[4585,828,1234,662,512,654,474,560]","trial_type":"two-door-navigation","trial_index":75,"time_elapsed":1408716,"internal_node_id":"0.0-2.0-73.0"},{"group":"hexagon_tri","room_assignment":["grey","yellow","red","green","purple","blue"],"door_color_assignment":["black","white"],"door_generator_assignment":[0,1],"goal":1,"start":3,"action_noise":0.2,"location_history":"[3,4,2,1]","action_history":"[1,1,0]","door_history":"[1,1,0]","location_rts":"[1701,854,771]","trial_type":"two-door-navigation","trial_index":76,"time_elapsed":1418609,"internal_node_id":"0.0-2.0-74.0"},{"group":"hexagon_tri","room_assignment":["grey","yellow","red","green","purple","blue"],"door_color_assignment":["black","white"],"door_generator_assignment":[0,1],"goal":2,"start":1,"action_noise":0.2,"location_history":"[1,5,0,5,0,5,0,5,4,2]","action_history":"[1,1,0,1,1,1,0,0,0]","door_history":"[1,1,0,1,1,1,0,0,0]","location_rts":"[3333,1213,1232,716,2282,16637,974,656,811]","trial_type":"two-door-navigation","trial_index":77,"time_elapsed":1459165,"internal_node_id":"0.0-2.0-75.0"},{"group":"hexagon_tri","room_assignment":["grey","yellow","red","green","purple","blue"],"door_color_assignment":["black","white"],"door_generator_assignment":[0,1],"goal":4,"start":2,"action_noise":0.2,"location_history":"[2,1,3,2,1,5,0,1,5,4]","action_history":"[0,0,0,0,1,1,1,1,0]","door_history":"[0,0,0,0,1,1,1,1,0]","location_rts":"[2658,940,629,2626,939,577,611,401,616]","trial_type":"two-door-navigation","trial_index":78,"time_elapsed":1481936,"internal_node_id":"0.0-2.0-76.0"},{"group":"hexagon_tri","room_assignment":["grey","yellow","red","green","purple","blue"],"door_color_assignment":["black","white"],"door_generator_assignment":[0,1],"goal":3,"start":4,"action_noise":0.2,"location_history":"[4,0,5,0,1,3]","action_history":"[0,0,0,1,0]","door_history":"[0,0,0,1,0]","location_rts":"[2473,609,594,756,622]","trial_type":"two-door-navigation","trial_index":79,"time_elapsed":1495628,"internal_node_id":"0.0-2.0-77.0"},{"group":"hexagon_tri","room_assignment":["grey","yellow","red","green","purple","blue"],"door_color_assignment":["black","white"],"door_generator_assignment":[0,1],"goal":0,"start":3,"action_noise":0.2,"location_history":"[3,4,0]","action_history":"[1,0]","door_history":"[1,0]","location_rts":"[1404,715]","trial_type":"two-door-navigation","trial_index":80,"time_elapsed":1503305,"internal_node_id":"0.0-2.0-78.0"},{"group":"hexagon_tri","room_assignment":["grey","yellow","red","green","purple","blue"],"door_color_assignment":["black","white"],"door_generator_assignment":[0,1],"goal":4,"start":0,"action_noise":0.2,"location_history":"[0,5,4]","action_history":"[0,0]","door_history":"[0,0]","location_rts":"[2276,532]","trial_type":"two-door-navigation","trial_index":81,"time_elapsed":1511664,"internal_node_id":"0.0-2.0-79.0"},{"group":"hexagon_tri","room_assignment":["grey","yellow","red","green","purple","blue"],"door_color_assignment":["black","white"],"door_generator_assignment":[0,1],"goal":5,"start":4,"action_noise":0.2,"location_history":"[4,0,5]","action_history":"[1,0]","door_history":"[1,0]","location_rts":"[1185,627]","trial_type":"two-door-navigation","trial_index":82,"time_elapsed":1519027,"internal_node_id":"0.0-2.0-80.0"},{"group":"hexagon_tri","room_assignment":["grey","yellow","red","green","purple","blue"],"door_color_assignment":["black","white"],"door_generator_assignment":[0,1],"goal":1,"start":5,"action_noise":0.2,"location_history":"[5,0,1]","action_history":"[1,1]","door_history":"[1,1]","location_rts":"[1844,594]","trial_type":"two-door-navigation","trial_index":83,"time_elapsed":1527033,"internal_node_id":"0.0-2.0-81.0"},{"group":"hexagon_tri","room_assignment":["grey","yellow","red","green","purple","blue"],"door_color_assignment":["black","white"],"door_generator_assignment":[0,1],"goal":2,"start":1,"action_noise":0.2,"location_history":"[1,5,4,2]","action_history":"[1,1,1]","door_history":"[1,1,1]","location_rts":"[2174,505,647]","trial_type":"two-door-navigation","trial_index":84,"time_elapsed":1536930,"internal_node_id":"0.0-2.0-82.0"},{"group":"hexagon_tri","room_assignment":["grey","yellow","red","green","purple","blue"],"door_color_assignment":["black","white"],"door_generator_assignment":[0,1],"goal":4,"start":2,"action_noise":0.2,"location_history":"[2,3,2,1,3,2,1,3,4]","action_history":"[1,0,0,0,0,0,1,1]","door_history":"[1,0,0,0,0,0,1,1]","location_rts":"[1455,791,644,595,732,406,946,879]","trial_type":"two-door-navigation","trial_index":85,"time_elapsed":1555139,"internal_node_id":"0.0-2.0-83.0"},{"group":"hexagon_tri","room_assignment":["grey","yellow","red","green","purple","blue"],"door_color_assignment":["black","white"],"door_generator_assignment":[0,1],"goal":0,"start":4,"action_noise":0.2,"location_history":"[4,2,3,4,0]","action_history":"[1,1,1,0]","door_history":"[1,1,1,0]","location_rts":"[1405,817,731,1355]","trial_type":"two-door-navigation","trial_index":86,"time_elapsed":1567070,"internal_node_id":"0.0-2.0-84.0"},{"group":"hexagon_tri","room_assignment":["grey","yellow","red","green","purple","blue"],"door_color_assignment":["black","white"],"door_generator_assignment":[0,1],"goal":5,"start":0,"action_noise":0.2,"location_history":"[0,5]","action_history":"[0]","door_history":"[0]","location_rts":"[1480]","trial_type":"two-door-navigation","trial_index":87,"time_elapsed":1573077,"internal_node_id":"0.0-2.0-85.0"},{"group":"hexagon_tri","room_assignment":["grey","yellow","red","green","purple","blue"],"door_color_assignment":["black","white"],"door_generator_assignment":[0,1],"goal":3,"start":5,"action_noise":0.2,"location_history":"[5,0,5,4,0,1,3]","action_history":"[0,0,0,0,0,0]","door_history":"[0,0,0,0,0,0]","location_rts":"[1485,425,580,617,683,1220]","trial_type":"two-door-navigation","trial_index":88,"time_elapsed":1587722,"internal_node_id":"0.0-2.0-86.0"},{"group":"hexagon_tri","room_assignment":["grey","yellow","red","green","purple","blue"],"door_color_assignment":["black","white"],"door_generator_assignment":[0,1],"goal":1,"start":3,"action_noise":0.2,"location_history":"[3,4,2,3,2,1]","action_history":"[1,1,0,0,0]","door_history":"[1,1,0,0,0]","location_rts":"[2380,635,1169,788,664]","trial_type":"two-door-navigation","trial_index":89,"time_elapsed":1602017,"internal_node_id":"0.0-2.0-87.0"},{"group":"hexagon_tri","room_assignment":["grey","yellow","red","green","purple","blue"],"door_color_assignment":["black","white"],"door_generator_assignment":[0,1],"goal":2,"start":1,"action_noise":0.2,"location_history":"[1,5,4,0,1,5,0,5,4,0,1,5,4,0,1,3,2]","action_history":"[1,0,0,1,1,1,0,0,0,0,0,0,0,1,1,1]","door_history":"[1,0,0,1,1,1,0,0,0,0,0,0,0,1,1,1]","location_rts":"[2674,508,401,677,619,434,631,441,381,391,994,423,634,658,682,2962]","trial_type":"two-door-navigation","trial_index":90,"time_elapsed":1635474,"internal_node_id":"0.0-2.0-88.0"},{"group":"hexagon_tri","room_assignment":["grey","yellow","red","green","purple","blue"],"door_color_assignment":["black","white"],"door_generator_assignment":[0,1],"goal":0,"start":2,"action_noise":0.2,"location_history":"[2,1,5,4,0]","action_history":"[0,1,0,0]","door_history":"[0,1,0,0]","location_rts":"[2675,565,716,478]","trial_type":"two-door-navigation","trial_index":91,"time_elapsed":1647550,"internal_node_id":"0.0-2.0-89.0"},{"group":"hexagon_tri","room_assignment":["grey","yellow","red","green","purple","blue"],"door_color_assignment":["black","white"],"door_generator_assignment":[0,1],"goal":5,"start":0,"action_noise":0.2,"location_history":"[0,5]","action_history":"[0]","door_history":"[0]","location_rts":"[2068]","trial_type":"two-door-navigation","trial_index":92,"time_elapsed":1654145,"internal_node_id":"0.0-2.0-90.0"},{"group":"hexagon_tri","room_assignment":["grey","yellow","red","green","purple","blue"],"door_color_assignment":["black","white"],"door_generator_assignment":[0,1],"goal":1,"start":5,"action_noise":0.2,"location_history":"[5,0,1]","action_history":"[1,1]","door_history":"[1,1]","location_rts":"[1680,1000]","trial_type":"two-door-navigation","trial_index":93,"time_elapsed":1662383,"internal_node_id":"0.0-2.0-91.0"},{"group":"hexagon_tri","room_assignment":["grey","yellow","red","green","purple","blue"],"door_color_assignment":["black","white"],"door_generator_assignment":[0,1],"goal":3,"start":1,"action_noise":0.2,"location_history":"[1,3]","action_history":"[0]","door_history":"[0]","location_rts":"[2277]","trial_type":"two-door-navigation","trial_index":94,"time_elapsed":1669185,"internal_node_id":"0.0-2.0-92.0"},{"group":"hexagon_tri","room_assignment":["grey","yellow","red","green","purple","blue"],"door_color_assignment":["black","white"],"door_generator_assignment":[0,1],"goal":4,"start":3,"action_noise":0.2,"location_history":"[3,4]","action_history":"[0]","door_history":"[0]","location_rts":"[1713]","trial_type":"two-door-navigation","trial_index":95,"time_elapsed":1675423,"internal_node_id":"0.0-2.0-93.0"},{"group":"hexagon_tri","room_assignment":["grey","yellow","red","green","purple","blue"],"door_color_assignment":["black","white"],"door_generator_assignment":[0,1],"goal":2,"start":4,"action_noise":0.2,"location_history":"[4,2]","action_history":"[1]","door_history":"[1]","location_rts":"[1876]","trial_type":"two-door-navigation","trial_index":96,"time_elapsed":1681824,"internal_node_id":"0.0-2.0-94.0"},{"group":"hexagon_tri","room_assignment":["grey","yellow","red","green","purple","blue"],"door_color_assignment":["black","white"],"door_generator_assignment":[0,1],"goal":4,"start":2,"action_noise":0.2,"location_history":"[2,3,4]","action_history":"[1,0]","door_history":"[1,0]","location_rts":"[1974,1009]","trial_type":"two-door-navigation","trial_index":97,"time_elapsed":1690353,"internal_node_id":"0.0-2.0-95.0"},{"group":"hexagon_tri","room_assignment":["grey","yellow","red","green","purple","blue"],"door_color_assignment":["black","white"],"door_generator_assignment":[0,1],"goal":0,"start":4,"action_noise":0.2,"location_history":"[4,2,3,2,3,4,2,3,2,3,2,3,4,0]","action_history":"[1,1,1,1,1,1,1,0,1,1,1,1,0]","door_history":"[1,1,1,1,1,1,1,0,1,1,1,1,0]","location_rts":"[1523,496,778,594,526,1262,526,797,720,804,556,515,740]","trial_type":"two-door-navigation","trial_index":98,"time_elapsed":1717040,"internal_node_id":"0.0-2.0-96.0"},{"group":"hexagon_tri","room_assignment":["grey","yellow","red","green","purple","blue"],"door_color_assignment":["black","white"],"door_generator_assignment":[0,1],"goal":5,"start":0,"action_noise":0.2,"location_history":"[0,5]","action_history":"[0]","door_history":"[0]","location_rts":"[1484]","trial_type":"two-door-navigation","trial_index":99,"time_elapsed":1723052,"internal_node_id":"0.0-2.0-97.0"},{"group":"hexagon_tri","room_assignment":["grey","yellow","red","green","purple","blue"],"door_color_assignment":["black","white"],"door_generator_assignment":[0,1],"goal":1,"start":5,"action_noise":0.2,"location_history":"[5,4,0,5,0,5,0,5,4,0,1]","action_history":"[0,0,1,1,1,0,0,0,0,1]","door_history":"[0,0,1,1,1,0,0,0,0,1]","location_rts":"[4521,673,691,722,1075,730,1141,650,511,747]","trial_type":"two-door-navigation","trial_index":100,"time_elapsed":1748379,"internal_node_id":"0.0-2.0-98.0"},{"group":"hexagon_tri","room_assignment":["grey","yellow","red","green","purple","blue"],"door_color_assignment":["black","white"],"door_generator_assignment":[0,1],"goal":3,"start":1,"action_noise":0.2,"location_history":"[1,3]","action_history":"[0]","door_history":"[0]","location_rts":"[11652]","trial_type":"two-door-navigation","trial_index":101,"time_elapsed":1764556,"internal_node_id":"0.0-2.0-99.0"},{"view_history":"[{\"page_index\":0,\"viewing_time\":3637}]","rt":3638,"trial_type":"instructions","trial_index":102,"time_elapsed":1769195,"internal_node_id":"0.0-3.0"},{"view_history":"[{\"page_index\":0,\"viewing_time\":3285},{\"page_index\":1,\"viewing_time\":7381}]","rt":10666,"trial_type":"instructions","trial_index":103,"time_elapsed":1780861,"internal_node_id":"0.0-4.0"},{"group":"hexagon_tri","fractal_assignment":["../images/cyn_red.png","../images/ylw_slt.png","../images/pnk_blu.png","../images/blu_wht.png","../images/org_blu.png","../images/gry_blk.png"],"mutagen_generator_assignment":[0,1],"goal":4,"start":0,"action_noise":0.2,"location_history":"[0,5,0,5,0,1,5,4]","action_history":"[0,0,1,1,1,1,0]","mutagen_history":"[0,0,1,1,1,1,0]","location_rts":"[24255,3311,5336,2436,1333,884,928]","trial_type":"fractal-mutation","trial_index":104,"time_elapsed":1830143,"internal_node_id":"0.0-5.0-0.0"},{"group":"hexagon_tri","fractal_assignment":["../images/cyn_red.png","../images/ylw_slt.png","../images/pnk_blu.png","../images/blu_wht.png","../images/org_blu.png","../images/gry_blk.png"],"mutagen_generator_assignment":[0,1],"goal":3,"start":4,"action_noise":0.2,"location_history":"[4,2,3]","action_history":"[1,1]","mutagen_history":"[1,1]","location_rts":"[3325,1100]","trial_type":"fractal-mutation","trial_index":105,"time_elapsed":1840172,"internal_node_id":"0.0-5.0-1.0"},{"group":"hexagon_tri","fractal_assignment":["../images/cyn_red.png","../images/ylw_slt.png","../images/pnk_blu.png","../images/blu_wht.png","../images/org_blu.png","../images/gry_blk.png"],"mutagen_generator_assignment":[0,1],"goal":5,"start":3,"action_noise":0.2,"location_history":"[3,4,2,3,2,1,3,2,3,2,1,3,2,1,3,4,0,5]","action_history":"[1,1,1,0,0,0,0,1,1,0,0,0,0,0,1,0,1]","mutagen_history":"[1,1,1,0,0,0,0,1,1,0,0,0,0,0,1,0,1]","location_rts":"[1854,791,636,948,686,594,895,511,1107,481,472,487,435,567,616,684,590]","trial_type":"fractal-mutation","trial_index":106,"time_elapsed":1873640,"internal_node_id":"0.0-5.0-2.0"},{"group":"hexagon_tri","fractal_assignment":["../images/cyn_red.png","../images/ylw_slt.png","../images/pnk_blu.png","../images/blu_wht.png","../images/org_blu.png","../images/gry_blk.png"],"mutagen_generator_assignment":[0,1],"goal":2,"start":5,"action_noise":0.2,"location_history":"[5,4,2]","action_history":"[1,1]","mutagen_history":"[1,1]","location_rts":"[2026,600]","trial_type":"fractal-mutation","trial_index":107,"time_elapsed":1881862,"internal_node_id":"0.0-5.0-3.0"},{"group":"hexagon_tri","fractal_assignment":["../images/cyn_red.png","../images/ylw_slt.png","../images/pnk_blu.png","../images/blu_wht.png","../images/org_blu.png","../images/gry_blk.png"],"mutagen_generator_assignment":[0,1],"goal":1,"start":2,"action_noise":0.2,"location_history":"[2,1]","action_history":"[0]","mutagen_history":"[0]","location_rts":"[1136]","trial_type":"fractal-mutation","trial_index":108,"time_elapsed":1887555,"internal_node_id":"0.0-5.0-4.0"},{"group":"hexagon_tri","fractal_assignment":["../images/cyn_red.png","../images/ylw_slt.png","../images/pnk_blu.png","../images/blu_wht.png","../images/org_blu.png","../images/gry_blk.png"],"mutagen_generator_assignment":[0,1],"goal":4,"start":1,"action_noise":0.2,"location_history":"[1,5,4]","action_history":"[1,0]","mutagen_history":"[1,0]","location_rts":"[1348,577]","trial_type":"fractal-mutation","trial_index":109,"time_elapsed":1895089,"internal_node_id":"0.0-5.0-5.0"},{"group":"hexagon_tri","fractal_assignment":["../images/cyn_red.png","../images/ylw_slt.png","../images/pnk_blu.png","../images/blu_wht.png","../images/org_blu.png","../images/gry_blk.png"],"mutagen_generator_assignment":[0,1],"goal":1,"start":4,"action_noise":0.2,"location_history":"[4,0,5,0,5,4,2,1]","action_history":"[1,0,0,0,0,1,0]","mutagen_history":"[1,0,0,0,0,1,0]","location_rts":"[1308,653,533,703,705,495,781]","trial_type":"fractal-mutation","trial_index":110,"time_elapsed":1911060,"internal_node_id":"0.0-5.0-6.0"},{"group":"hexagon_tri","fractal_assignment":["../images/cyn_red.png","../images/ylw_slt.png","../images/pnk_blu.png","../images/blu_wht.png","../images/org_blu.png","../images/gry_blk.png"],"mutagen_generator_assignment":[0,1],"goal":5,"start":1,"action_noise":0.2,"location_history":"[1,5]","action_history":"[1]","mutagen_history":"[1]","location_rts":"[1328]","trial_type":"fractal-mutation","trial_index":111,"time_elapsed":1916942,"internal_node_id":"0.0-5.0-7.0"},{"group":"hexagon_tri","fractal_assignment":["../images/cyn_red.png","../images/ylw_slt.png","../images/pnk_blu.png","../images/blu_wht.png","../images/org_blu.png","../images/gry_blk.png"],"mutagen_generator_assignment":[0,1],"goal":0,"start":5,"action_noise":0.2,"location_history":"[5,4,0]","action_history":"[0,1]","mutagen_history":"[0,1]","location_rts":"[1734,535]","trial_type":"fractal-mutation","trial_index":112,"time_elapsed":1924838,"internal_node_id":"0.0-5.0-8.0"},{"group":"hexagon_tri","fractal_assignment":["../images/cyn_red.png","../images/ylw_slt.png","../images/pnk_blu.png","../images/blu_wht.png","../images/org_blu.png","../images/gry_blk.png"],"mutagen_generator_assignment":[0,1],"goal":2,"start":0,"action_noise":0.2,"location_history":"[0,1,5,0,1,5,0,1,5,4,2]","action_history":"[1,1,1,1,1,1,0,1,0,1]","mutagen_history":"[1,1,1,1,1,1,0,1,0,1]","location_rts":"[1011,831,593,640,683,575,493,538,965,395]","trial_type":"fractal-mutation","trial_index":113,"time_elapsed":1945493,"internal_node_id":"0.0-5.0-9.0"},{"group":"hexagon_tri","fractal_assignment":["../images/cyn_red.png","../images/ylw_slt.png","../images/pnk_blu.png","../images/blu_wht.png","../images/org_blu.png","../images/gry_blk.png"],"mutagen_generator_assignment":[0,1],"goal":3,"start":2,"action_noise":0.2,"location_history":"[2,3]","action_history":"[1]","mutagen_history":"[1]","location_rts":"[1209]","trial_type":"fractal-mutation","trial_index":114,"time_elapsed":1951271,"internal_node_id":"0.0-5.0-10.0"},{"group":"hexagon_tri","fractal_assignment":["../images/cyn_red.png","../images/ylw_slt.png","../images/pnk_blu.png","../images/blu_wht.png","../images/org_blu.png","../images/gry_blk.png"],"mutagen_generator_assignment":[0,1],"goal":0,"start":3,"action_noise":0.2,"location_history":"[3,2,3,4,2,1,5,4,0]","action_history":"[0,1,1,0,0,1,0,0]","mutagen_history":"[0,1,1,0,0,1,0,0]","location_rts":"[1068,576,647,689,834,644,724,1114]","trial_type":"fractal-mutation","trial_index":115,"time_elapsed":1969358,"internal_node_id":"0.0-5.0-11.0"},{"group":"hexagon_tri","fractal_assignment":["../images/cyn_red.png","../images/ylw_slt.png","../images/pnk_blu.png","../images/blu_wht.png","../images/org_blu.png","../images/gry_blk.png"],"mutagen_generator_assignment":[0,1],"goal":2,"start":0,"action_noise":0.2,"location_history":"[0,1,3,4,2]","action_history":"[1,1,1,1]","mutagen_history":"[1,1,1,1]","location_rts":"[1768,804,658,704]","trial_type":"fractal-mutation","trial_index":116,"time_elapsed":1981001,"internal_node_id":"0.0-5.0-12.0"},{"group":"hexagon_tri","fractal_assignment":["../images/cyn_red.png","../images/ylw_slt.png","../images/pnk_blu.png","../images/blu_wht.png","../images/org_blu.png","../images/gry_blk.png"],"mutagen_generator_assignment":[0,1],"goal":5,"start":2,"action_noise":0.2,"location_history":"[2,1,5]","action_history":"[0,1]","mutagen_history":"[0,1]","location_rts":"[1727,484]","trial_type":"fractal-mutation","trial_index":117,"time_elapsed":1988807,"internal_node_id":"0.0-5.0-13.0"},{"group":"hexagon_tri","fractal_assignment":["../images/cyn_red.png","../images/ylw_slt.png","../images/pnk_blu.png","../images/blu_wht.png","../images/org_blu.png","../images/gry_blk.png"],"mutagen_generator_assignment":[0,1],"goal":4,"start":5,"action_noise":0.2,"location_history":"[5,4]","action_history":"[1]","mutagen_history":"[1]","location_rts":"[902]","trial_type":"fractal-mutation","trial_index":118,"time_elapsed":1994253,"internal_node_id":"0.0-5.0-14.0"},{"group":"hexagon_tri","fractal_assignment":["../images/cyn_red.png","../images/ylw_slt.png","../images/pnk_blu.png","../images/blu_wht.png","../images/org_blu.png","../images/gry_blk.png"],"mutagen_generator_assignment":[0,1],"goal":3,"start":4,"action_noise":0.2,"location_history":"[4,2,1,5,4,0,1,5,4,0,1,3]","action_history":"[1,0,0,0,1,1,1,1,0,0,1]","mutagen_history":"[1,0,0,0,1,1,1,1,0,0,1]","location_rts":"[687,667,729,482,375,744,500,451,940,674,752]","trial_type":"fractal-mutation","trial_index":119,"time_elapsed":2016191,"internal_node_id":"0.0-5.0-15.0"},{"group":"hexagon_tri","fractal_assignment":["../images/cyn_red.png","../images/ylw_slt.png","../images/pnk_blu.png","../images/blu_wht.png","../images/org_blu.png","../images/gry_blk.png"],"mutagen_generator_assignment":[0,1],"goal":1,"start":3,"action_noise":0.2,"location_history":"[3,2,3,4,0,5,4,0,1]","action_history":"[0,1,0,0,0,1,1,0]","mutagen_history":"[0,1,0,0,0,1,1,0]","location_rts":"[2275,731,948,532,742,476,673,501]","trial_type":"fractal-mutation","trial_index":120,"time_elapsed":2034856,"internal_node_id":"0.0-5.0-16.0"},{"group":"hexagon_tri","fractal_assignment":["../images/cyn_red.png","../images/ylw_slt.png","../images/pnk_blu.png","../images/blu_wht.png","../images/org_blu.png","../images/gry_blk.png"],"mutagen_generator_assignment":[0,1],"goal":5,"start":1,"action_noise":0.2,"location_history":"[1,5]","action_history":"[1]","mutagen_history":"[1]","location_rts":"[1395]","trial_type":"fractal-mutation","trial_index":121,"time_elapsed":2040797,"internal_node_id":"0.0-5.0-17.0"},{"group":"hexagon_tri","fractal_assignment":["../images/cyn_red.png","../images/ylw_slt.png","../images/pnk_blu.png","../images/blu_wht.png","../images/org_blu.png","../images/gry_blk.png"],"mutagen_generator_assignment":[0,1],"goal":4,"start":5,"action_noise":0.2,"location_history":"[5,4]","action_history":"[0]","mutagen_history":"[0]","location_rts":"[1148]","trial_type":"fractal-mutation","trial_index":122,"time_elapsed":2046494,"internal_node_id":"0.0-5.0-18.0"},{"group":"hexagon_tri","fractal_assignment":["../images/cyn_red.png","../images/ylw_slt.png","../images/pnk_blu.png","../images/blu_wht.png","../images/org_blu.png","../images/gry_blk.png"],"mutagen_generator_assignment":[0,1],"goal":0,"start":4,"action_noise":0.2,"location_history":"[4,2,3,4,0]","action_history":"[0,0,1,0]","mutagen_history":"[0,0,1,0]","location_rts":"[1758,1505,912,1193]","trial_type":"fractal-mutation","trial_index":123,"time_elapsed":2059501,"internal_node_id":"0.0-5.0-19.0"},{"group":"hexagon_tri","fractal_assignment":["../images/cyn_red.png","../images/ylw_slt.png","../images/pnk_blu.png","../images/blu_wht.png","../images/org_blu.png","../images/gry_blk.png"],"mutagen_generator_assignment":[0,1],"goal":1,"start":0,"action_noise":0.2,"location_history":"[0,5,0,5,4,0,5,0,5,4,2,3,4,2,1]","action_history":"[0,1,1,1,0,0,0,1,1,1,1,1,1,0]","mutagen_history":"[0,1,1,1,0,0,0,1,1,1,1,1,1,0]","location_rts":"[1371,720,712,624,695,551,727,540,688,434,610,586,568,636]","trial_type":"fractal-mutation","trial_index":124,"time_elapsed":2086998,"internal_node_id":"0.0-5.0-20.0"},{"group":"hexagon_tri","fractal_assignment":["../images/cyn_red.png","../images/ylw_slt.png","../images/pnk_blu.png","../images/blu_wht.png","../images/org_blu.png","../images/gry_blk.png"],"mutagen_generator_assignment":[0,1],"goal":3,"start":1,"action_noise":0.2,"location_history":"[1,3]","action_history":"[1]","mutagen_history":"[1]","location_rts":"[1631]","trial_type":"fractal-mutation","trial_index":125,"time_elapsed":2093199,"internal_node_id":"0.0-5.0-21.0"},{"group":"hexagon_tri","fractal_assignment":["../images/cyn_red.png","../images/ylw_slt.png","../images/pnk_blu.png","../images/blu_wht.png","../images/org_blu.png","../images/gry_blk.png"],"mutagen_generator_assignment":[0,1],"goal":2,"start":3,"action_noise":0.2,"location_history":"[3,4,2]","action_history":"[0,1]","mutagen_history":"[0,1]","location_rts":"[1298,564]","trial_type":"fractal-mutation","trial_index":126,"time_elapsed":2100628,"internal_node_id":"0.0-5.0-22.0"},{"group":"hexagon_tri","fractal_assignment":["../images/cyn_red.png","../images/ylw_slt.png","../images/pnk_blu.png","../images/blu_wht.png","../images/org_blu.png","../images/gry_blk.png"],"mutagen_generator_assignment":[0,1],"goal":0,"start":2,"action_noise":0.2,"location_history":"[2,3,2,1,5,0]","action_history":"[0,0,0,0,1]","mutagen_history":"[0,0,0,0,1]","location_rts":"[1753,788,744,945,586]","trial_type":"fractal-mutation","trial_index":127,"time_elapsed":2114086,"internal_node_id":"0.0-5.0-23.0"},{"group":"hexagon_tri","fractal_assignment":["../images/cyn_red.png","../images/ylw_slt.png","../images/pnk_blu.png","../images/blu_wht.png","../images/org_blu.png","../images/gry_blk.png"],"mutagen_generator_assignment":[0,1],"goal":3,"start":0,"action_noise":0.2,"location_history":"[0,1,5,4,0,1,5,0,1,5,0,5,4,0,1,3]","action_history":"[1,0,0,1,1,1,1,1,1,0,0,0,0,1,0]","mutagen_history":"[1,0,0,1,1,1,1,1,1,0,0,0,0,1,0]","location_rts":"[786,647,526,426,525,446,466,562,434,348,523,450,676,495,743]","trial_type":"fractal-mutation","trial_index":128,"time_elapsed":2141195,"internal_node_id":"0.0-5.0-24.0"},{"group":"hexagon_tri","fractal_assignment":["../images/cyn_red.png","../images/ylw_slt.png","../images/pnk_blu.png","../images/blu_wht.png","../images/org_blu.png","../images/gry_blk.png"],"mutagen_generator_assignment":[0,1],"goal":1,"start":3,"action_noise":0.2,"location_history":"[3,2,3,4,0,5,0,1]","action_history":"[0,1,1,0,0,1,1]","mutagen_history":"[0,1,1,0,0,1,1]","location_rts":"[3096,1739,717,675,321,330,571]","trial_type":"fractal-mutation","trial_index":129,"time_elapsed":2159431,"internal_node_id":"0.0-5.0-25.0"},{"group":"hexagon_tri","fractal_assignment":["../images/cyn_red.png","../images/ylw_slt.png","../images/pnk_blu.png","../images/blu_wht.png","../images/org_blu.png","../images/gry_blk.png"],"mutagen_generator_assignment":[0,1],"goal":2,"start":1,"action_noise":0.2,"location_history":"[1,5,4,0,1,5,0,1,3,2]","action_history":"[1,0,0,1,1,1,1,0,0]","mutagen_history":"[1,0,0,1,1,1,1,0,0]","location_rts":"[824,579,440,1331,547,692,476,553,634]","trial_type":"fractal-mutation","trial_index":130,"time_elapsed":2178313,"internal_node_id":"0.0-5.0-26.0"},{"group":"hexagon_tri","fractal_assignment":["../images/cyn_red.png","../images/ylw_slt.png","../images/pnk_blu.png","../images/blu_wht.png","../images/org_blu.png","../images/gry_blk.png"],"mutagen_generator_assignment":[0,1],"goal":5,"start":2,"action_noise":0.2,"location_history":"[2,3,2,1,3,4,0,1,5]","action_history":"[1,0,0,0,1,1,0,1]","mutagen_history":"[1,0,0,0,1,1,0,1]","location_rts":"[275,947,522,626,474,390,547,505]","trial_type":"fractal-mutation","trial_index":131,"time_elapsed":2194375,"internal_node_id":"0.0-5.0-27.0"},{"group":"hexagon_tri","fractal_assignment":["../images/cyn_red.png","../images/ylw_slt.png","../images/pnk_blu.png","../images/blu_wht.png","../images/org_blu.png","../images/gry_blk.png"],"mutagen_generator_assignment":[0,1],"goal":4,"start":5,"action_noise":0.2,"location_history":"[5,4]","action_history":"[0]","mutagen_history":"[0]","location_rts":"[2162]","trial_type":"fractal-mutation","trial_index":132,"time_elapsed":2201100,"internal_node_id":"0.0-5.0-28.0"},{"group":"hexagon_tri","fractal_assignment":["../images/cyn_red.png","../images/ylw_slt.png","../images/pnk_blu.png","../images/blu_wht.png","../images/org_blu.png","../images/gry_blk.png"],"mutagen_generator_assignment":[0,1],"goal":5,"start":4,"action_noise":0.2,"location_history":"[4,2,3,4,0,5]","action_history":"[1,0,0,1,0]","mutagen_history":"[1,0,0,1,0]","location_rts":"[2207,676,513,621,401]","trial_type":"fractal-mutation","trial_index":133,"time_elapsed":2214167,"internal_node_id":"0.0-5.0-29.0"},{"group":"hexagon_tri","fractal_assignment":["../images/cyn_red.png","../images/ylw_slt.png","../images/pnk_blu.png","../images/blu_wht.png","../images/org_blu.png","../images/gry_blk.png"],"mutagen_generator_assignment":[0,1],"goal":3,"start":5,"action_noise":0.2,"location_history":"[5,0,5,4,0,1,5,0,5,0,1,3]","action_history":"[1,0,0,0,1,1,1,0,0,1,0]","mutagen_history":"[1,0,0,0,1,1,1,0,0,1,0]","location_rts":"[1761,861,702,488,800,550,710,511,465,563,580]","trial_type":"fractal-mutation","trial_index":134,"time_elapsed":2237030,"internal_node_id":"0.0-5.0-30.0"},{"group":"hexagon_tri","fractal_assignment":["../images/cyn_red.png","../images/ylw_slt.png","../images/pnk_blu.png","../images/blu_wht.png","../images/org_blu.png","../images/gry_blk.png"],"mutagen_generator_assignment":[0,1],"goal":0,"start":3,"action_noise":0.2,"location_history":"[3,2,1,3,4,2,1,3,2,3,4,0]","action_history":"[1,0,0,1,1,1,0,0,1,1,1]","mutagen_history":"[1,0,0,1,1,1,0,0,1,1,1]","location_rts":"[2401,752,451,419,1061,702,711,651,493,270,660]","trial_type":"fractal-mutation","trial_index":135,"time_elapsed":2260491,"internal_node_id":"0.0-5.0-31.0"},{"group":"hexagon_tri","fractal_assignment":["../images/cyn_red.png","../images/ylw_slt.png","../images/pnk_blu.png","../images/blu_wht.png","../images/org_blu.png","../images/gry_blk.png"],"mutagen_generator_assignment":[0,1],"goal":4,"start":0,"action_noise":0.2,"location_history":"[0,1,5,0,5,0,5,4]","action_history":"[1,1,0,1,1,1,0]","mutagen_history":"[1,1,0,1,1,1,0]","location_rts":"[1493,1084,1129,596,407,856,426]","trial_type":"fractal-mutation","trial_index":136,"time_elapsed":2277239,"internal_node_id":"0.0-5.0-32.0"},{"group":"hexagon_tri","fractal_assignment":["../images/cyn_red.png","../images/ylw_slt.png","../images/pnk_blu.png","../images/blu_wht.png","../images/org_blu.png","../images/gry_blk.png"],"mutagen_generator_assignment":[0,1],"goal":1,"start":4,"action_noise":0.2,"location_history":"[4,0,5,0,1]","action_history":"[0,1,1,0]","mutagen_history":"[0,1,1,0]","location_rts":"[1593,700,974,626]","trial_type":"fractal-mutation","trial_index":137,"time_elapsed":2288802,"internal_node_id":"0.0-5.0-33.0"},{"group":"hexagon_tri","fractal_assignment":["../images/cyn_red.png","../images/ylw_slt.png","../images/pnk_blu.png","../images/blu_wht.png","../images/org_blu.png","../images/gry_blk.png"],"mutagen_generator_assignment":[0,1],"goal":2,"start":1,"action_noise":0.2,"location_history":"[1,5,4,2]","action_history":"[1,0,0]","mutagen_history":"[1,0,0]","location_rts":"[1241,568,515]","trial_type":"fractal-mutation","trial_index":138,"time_elapsed":2297724,"internal_node_id":"0.0-5.0-34.0"},{"group":"hexagon_tri","fractal_assignment":["../images/cyn_red.png","../images/ylw_slt.png","../images/pnk_blu.png","../images/blu_wht.png","../images/org_blu.png","../images/gry_blk.png"],"mutagen_generator_assignment":[0,1],"goal":0,"start":2,"action_noise":0.2,"location_history":"[2,3,4,0]","action_history":"[1,0,0]","mutagen_history":"[1,0,0]","location_rts":"[1420,498,1256]","trial_type":"fractal-mutation","trial_index":139,"time_elapsed":2307492,"internal_node_id":"0.0-5.0-35.0"},{"group":"hexagon_tri","fractal_assignment":["../images/cyn_red.png","../images/ylw_slt.png","../images/pnk_blu.png","../images/blu_wht.png","../images/org_blu.png","../images/gry_blk.png"],"mutagen_generator_assignment":[0,1],"goal":5,"start":0,"action_noise":0.2,"location_history":"[0,5]","action_history":"[1]","mutagen_history":"[1]","location_rts":"[2342]","trial_type":"fractal-mutation","trial_index":140,"time_elapsed":2314378,"internal_node_id":"0.0-5.0-36.0"},{"group":"hexagon_tri","fractal_assignment":["../images/cyn_red.png","../images/ylw_slt.png","../images/pnk_blu.png","../images/blu_wht.png","../images/org_blu.png","../images/gry_blk.png"],"mutagen_generator_assignment":[0,1],"goal":2,"start":5,"action_noise":0.2,"location_history":"[5,0,5,0,1,3,2]","action_history":"[0,0,1,1,0,0]","mutagen_history":"[0,0,1,1,0,0]","location_rts":"[1188,877,838,783,657,499]","trial_type":"fractal-mutation","trial_index":141,"time_elapsed":2328947,"internal_node_id":"0.0-5.0-37.0"},{"group":"hexagon_tri","fractal_assignment":["../images/cyn_red.png","../images/ylw_slt.png","../images/pnk_blu.png","../images/blu_wht.png","../images/org_blu.png","../images/gry_blk.png"],"mutagen_generator_assignment":[0,1],"goal":1,"start":2,"action_noise":0.2,"location_history":"[2,1]","action_history":"[0]","mutagen_history":"[0]","location_rts":"[853]","trial_type":"fractal-mutation","trial_index":142,"time_elapsed":2334325,"internal_node_id":"0.0-5.0-38.0"},{"group":"hexagon_tri","fractal_assignment":["../images/cyn_red.png","../images/ylw_slt.png","../images/pnk_blu.png","../images/blu_wht.png","../images/org_blu.png","../images/gry_blk.png"],"mutagen_generator_assignment":[0,1],"goal":4,"start":1,"action_noise":0.2,"location_history":"[1,3,2,3,4]","action_history":"[0,1,1,1]","mutagen_history":"[0,1,1,1]","location_rts":"[1566,724,784,622]","trial_type":"fractal-mutation","trial_index":143,"time_elapsed":2345761,"internal_node_id":"0.0-5.0-39.0"},{"group":"hexagon_tri","fractal_assignment":["../images/cyn_red.png","../images/ylw_slt.png","../images/pnk_blu.png","../images/blu_wht.png","../images/org_blu.png","../images/gry_blk.png"],"mutagen_generator_assignment":[0,1],"goal":3,"start":4,"action_noise":0.2,"location_history":"[4,0,1,5,0,5,4,2,1,5,0,1,3]","action_history":"[0,1,1,1,0,0,1,1,1,0,1,0]","mutagen_history":"[0,1,1,1,0,0,1,1,1,0,1,0]","location_rts":"[1289,570,723,548,655,536,590,1069,860,410,833,475]","trial_type":"fractal-mutation","trial_index":144,"time_elapsed":2370283,"internal_node_id":"0.0-5.0-40.0"},{"group":"hexagon_tri","fractal_assignment":["../images/cyn_red.png","../images/ylw_slt.png","../images/pnk_blu.png","../images/blu_wht.png","../images/org_blu.png","../images/gry_blk.png"],"mutagen_generator_assignment":[0,1],"goal":5,"start":3,"action_noise":0.2,"location_history":"[3,4,2,3,4,0,5]","action_history":"[1,1,1,1,1,0]","mutagen_history":"[1,1,1,1,1,0]","location_rts":"[1268,552,554,519,401,370]","trial_type":"fractal-mutation","trial_index":145,"time_elapsed":2383666,"internal_node_id":"0.0-5.0-41.0"},{"group":"hexagon_tri","fractal_assignment":["../images/cyn_red.png","../images/ylw_slt.png","../images/pnk_blu.png","../images/blu_wht.png","../images/org_blu.png","../images/gry_blk.png"],"mutagen_generator_assignment":[0,1],"goal":3,"start":5,"action_noise":0.2,"location_history":"[5,0,5,4,0,5,4,0,1,5,4,0,1,5,0,1,5,4,0,5,0,1,3]","action_history":"[0,1,0,0,0,0,0,1,1,1,1,1,0,0,1,1,0,0,0,1,1,1]","mutagen_history":"[0,1,0,0,0,0,0,1,1,1,1,1,0,0,1,1,0,0,0,1,1,1]","location_rts":"[1168,408,491,513,591,484,515,291,492,496,661,688,423,552,457,577,343,474,697,763,667,800]","trial_type":"fractal-mutation","trial_index":146,"time_elapsed":2422366,"internal_node_id":"0.0-5.0-42.0"},{"group":"hexagon_tri","fractal_assignment":["../images/cyn_red.png","../images/ylw_slt.png","../images/pnk_blu.png","../images/blu_wht.png","../images/org_blu.png","../images/gry_blk.png"],"mutagen_generator_assignment":[0,1],"goal":0,"start":3,"action_noise":0.2,"location_history":"[3,4,2,3,4,2,1,5,0]","action_history":"[0,1,1,1,1,0,1,0]","mutagen_history":"[0,1,1,1,1,0,1,0]","location_rts":"[1292,1022,625,489,627,587,1550,446]","trial_type":"fractal-mutation","trial_index":147,"time_elapsed":2440774,"internal_node_id":"0.0-5.0-43.0"},{"group":"hexagon_tri","fractal_assignment":["../images/cyn_red.png","../images/ylw_slt.png","../images/pnk_blu.png","../images/blu_wht.png","../images/org_blu.png","../images/gry_blk.png"],"mutagen_generator_assignment":[0,1],"goal":2,"start":0,"action_noise":0.2,"location_history":"[0,5,0,5,4,2]","action_history":"[0,1,1,0,1]","mutagen_history":"[0,1,1,0,1]","location_rts":"[906,437,494,840,577]","trial_type":"fractal-mutation","trial_index":148,"time_elapsed":2452695,"internal_node_id":"0.0-5.0-44.0"},{"group":"hexagon_tri","fractal_assignment":["../images/cyn_red.png","../images/ylw_slt.png","../images/pnk_blu.png","../images/blu_wht.png","../images/org_blu.png","../images/gry_blk.png"],"mutagen_generator_assignment":[0,1],"goal":4,"start":2,"action_noise":0.2,"location_history":"[2,3,2,1,5,0,5,4]","action_history":"[1,0,0,1,0,0,0]","mutagen_history":"[1,0,0,1,0,0,0]","location_rts":"[392,736,656,841,477,332,457]","trial_type":"fractal-mutation","trial_index":149,"time_elapsed":2467284,"internal_node_id":"0.0-5.0-45.0"},{"group":"hexagon_tri","fractal_assignment":["../images/cyn_red.png","../images/ylw_slt.png","../images/pnk_blu.png","../images/blu_wht.png","../images/org_blu.png","../images/gry_blk.png"],"mutagen_generator_assignment":[0,1],"goal":1,"start":4,"action_noise":0.2,"location_history":"[4,0,1]","action_history":"[0,1]","mutagen_history":"[0,1]","location_rts":"[1070,614]","trial_type":"fractal-mutation","trial_index":150,"time_elapsed":2474537,"internal_node_id":"0.0-5.0-46.0"},{"group":"hexagon_tri","fractal_assignment":["../images/cyn_red.png","../images/ylw_slt.png","../images/pnk_blu.png","../images/blu_wht.png","../images/org_blu.png","../images/gry_blk.png"],"mutagen_generator_assignment":[0,1],"goal":4,"start":1,"action_noise":0.2,"location_history":"[1,3,2,1,5,0,1,5,0,1,3,2,1,5,0,1,3,4]","action_history":"[0,0,1,1,1,0,0,1,0,1,0,0,0,0,1,0,1]","mutagen_history":"[0,0,1,1,1,0,0,1,0,1,0,0,0,0,1,0,1]","location_rts":"[1198,493,448,794,460,311,409,418,386,596,611,816,1148,953,875,1136,922]","trial_type":"fractal-mutation","trial_index":151,"time_elapsed":2507509,"internal_node_id":"0.0-5.0-47.0"},{"group":"hexagon_tri","fractal_assignment":["../images/cyn_red.png","../images/ylw_slt.png","../images/pnk_blu.png","../images/blu_wht.png","../images/org_blu.png","../images/gry_blk.png"],"mutagen_generator_assignment":[0,1],"goal":1,"start":4,"action_noise":0.2,"location_history":"[4,2,1]","action_history":"[1,0]","mutagen_history":"[1,0]","location_rts":"[777,613]","trial_type":"fractal-mutation","trial_index":152,"time_elapsed":2514453,"internal_node_id":"0.0-5.0-48.0"},{"group":"hexagon_tri","fractal_assignment":["../images/cyn_red.png","../images/ylw_slt.png","../images/pnk_blu.png","../images/blu_wht.png","../images/org_blu.png","../images/gry_blk.png"],"mutagen_generator_assignment":[0,1],"goal":3,"start":1,"action_noise":0.2,"location_history":"[1,3]","action_history":"[0]","mutagen_history":"[0]","location_rts":"[884]","trial_type":"fractal-mutation","trial_index":153,"time_elapsed":2519864,"internal_node_id":"0.0-5.0-49.0"},{"group":"hexagon_tri","fractal_assignment":["../images/cyn_red.png","../images/ylw_slt.png","../images/pnk_blu.png","../images/blu_wht.png","../images/org_blu.png","../images/gry_blk.png"],"mutagen_generator_assignment":[0,1],"goal":5,"start":3,"action_noise":0.2,"location_history":"[3,4,0,5]","action_history":"[1,0,0]","mutagen_history":"[1,0,0]","location_rts":"[1184,547,743]","trial_type":"fractal-mutation","trial_index":154,"time_elapsed":2528927,"internal_node_id":"0.0-5.0-50.0"},{"group":"hexagon_tri","fractal_assignment":["../images/cyn_red.png","../images/ylw_slt.png","../images/pnk_blu.png","../images/blu_wht.png","../images/org_blu.png","../images/gry_blk.png"],"mutagen_generator_assignment":[0,1],"goal":0,"start":5,"action_noise":0.2,"location_history":"[5,4,0]","action_history":"[1,1]","mutagen_history":"[1,1]","location_rts":"[747,533]","trial_type":"fractal-mutation","trial_index":155,"time_elapsed":2535789,"internal_node_id":"0.0-5.0-51.0"},{"group":"hexagon_tri","fractal_assignment":["../images/cyn_red.png","../images/ylw_slt.png","../images/pnk_blu.png","../images/blu_wht.png","../images/org_blu.png","../images/gry_blk.png"],"mutagen_generator_assignment":[0,1],"goal":2,"start":0,"action_noise":0.2,"location_history":"[0,5,4,2]","action_history":"[0,1,1]","mutagen_history":"[0,1,1]","location_rts":"[1265,733,794]","trial_type":"fractal-mutation","trial_index":156,"time_elapsed":2545188,"internal_node_id":"0.0-5.0-52.0"},{"group":"hexagon_tri","fractal_assignment":["../images/cyn_red.png","../images/ylw_slt.png","../images/pnk_blu.png","../images/blu_wht.png","../images/org_blu.png","../images/gry_blk.png"],"mutagen_generator_assignment":[0,1],"goal":1,"start":2,"action_noise":0.2,"location_history":"[2,1]","action_history":"[0]","mutagen_history":"[0]","location_rts":"[1035]","trial_type":"fractal-mutation","trial_index":157,"time_elapsed":2550751,"internal_node_id":"0.0-5.0-53.0"},{"group":"hexagon_tri","fractal_assignment":["../images/cyn_red.png","../images/ylw_slt.png","../images/pnk_blu.png","../images/blu_wht.png","../images/org_blu.png","../images/gry_blk.png"],"mutagen_generator_assignment":[0,1],"goal":2,"start":1,"action_noise":0.2,"location_history":"[1,5,4,0,5,4,2]","action_history":"[1,1,1,0,0,1]","mutagen_history":"[1,1,1,0,0,1]","location_rts":"[1734,505,616,492,630,520]","trial_type":"fractal-mutation","trial_index":158,"time_elapsed":2564952,"internal_node_id":"0.0-5.0-54.0"},{"group":"hexagon_tri","fractal_assignment":["../images/cyn_red.png","../images/ylw_slt.png","../images/pnk_blu.png","../images/blu_wht.png","../images/org_blu.png","../images/gry_blk.png"],"mutagen_generator_assignment":[0,1],"goal":5,"start":2,"action_noise":0.2,"location_history":"[2,1,5]","action_history":"[0,1]","mutagen_history":"[0,1]","location_rts":"[844,435]","trial_type":"fractal-mutation","trial_index":159,"time_elapsed":2571794,"internal_node_id":"0.0-5.0-55.0"},{"group":"hexagon_tri","fractal_assignment":["../images/cyn_red.png","../images/ylw_slt.png","../images/pnk_blu.png","../images/blu_wht.png","../images/org_blu.png","../images/gry_blk.png"],"mutagen_generator_assignment":[0,1],"goal":4,"start":5,"action_noise":0.2,"location_history":"[5,0,1,3,4]","action_history":"[0,1,0,1]","mutagen_history":"[0,1,0,1]","location_rts":"[1048,776,1080,451]","trial_type":"fractal-mutation","trial_index":160,"time_elapsed":2582769,"internal_node_id":"0.0-5.0-56.0"},{"group":"hexagon_tri","fractal_assignment":["../images/cyn_red.png","../images/ylw_slt.png","../images/pnk_blu.png","../images/blu_wht.png","../images/org_blu.png","../images/gry_blk.png"],"mutagen_generator_assignment":[0,1],"goal":3,"start":4,"action_noise":0.2,"location_history":"[4,2,1,5,0,1,3]","action_history":"[1,0,1,1,1,0]","mutagen_history":"[1,0,1,1,1,0]","location_rts":"[845,1000,301,309,410,739]","trial_type":"fractal-mutation","trial_index":161,"time_elapsed":2596072,"internal_node_id":"0.0-5.0-57.0"},{"group":"hexagon_tri","fractal_assignment":["../images/cyn_red.png","../images/ylw_slt.png","../images/pnk_blu.png","../images/blu_wht.png","../images/org_blu.png","../images/gry_blk.png"],"mutagen_generator_assignment":[0,1],"goal":0,"start":3,"action_noise":0.2,"location_history":"[3,2,3,4,2,3,2,3,2,3,4,0]","action_history":"[0,1,1,1,1,1,1,0,1,0,0]","mutagen_history":"[0,1,1,1,1,1,1,0,1,0,0]","location_rts":"[803,410,341,444,452,388,431,315,399,355,394]","trial_type":"fractal-mutation","trial_index":162,"time_elapsed":2615678,"internal_node_id":"0.0-5.0-58.0"},{"group":"hexagon_tri","fractal_assignment":["../images/cyn_red.png","../images/ylw_slt.png","../images/pnk_blu.png","../images/blu_wht.png","../images/org_blu.png","../images/gry_blk.png"],"mutagen_generator_assignment":[0,1],"goal":2,"start":0,"action_noise":0.2,"location_history":"[0,5,0,5,4,0,5,4,2]","action_history":"[1,1,0,0,0,0,1,1]","mutagen_history":"[1,1,0,0,0,0,1,1]","location_rts":"[1442,494,434,539,530,686,495,544]","trial_type":"fractal-mutation","trial_index":163,"time_elapsed":2632580,"internal_node_id":"0.0-5.0-59.0"},{"group":"hexagon_tri","fractal_assignment":["../images/cyn_red.png","../images/ylw_slt.png","../images/pnk_blu.png","../images/blu_wht.png","../images/org_blu.png","../images/gry_blk.png"],"mutagen_generator_assignment":[0,1],"goal":1,"start":2,"action_noise":0.2,"location_history":"[2,1]","action_history":"[0]","mutagen_history":"[0]","location_rts":"[767]","trial_type":"fractal-mutation","trial_index":164,"time_elapsed":2637873,"internal_node_id":"0.0-5.0-60.0"},{"group":"hexagon_tri","fractal_assignment":["../images/cyn_red.png","../images/ylw_slt.png","../images/pnk_blu.png","../images/blu_wht.png","../images/org_blu.png","../images/gry_blk.png"],"mutagen_generator_assignment":[0,1],"goal":0,"start":1,"action_noise":0.2,"location_history":"[1,3,4,0]","action_history":"[1,1,0]","mutagen_history":"[1,1,0]","location_rts":"[836,538,588]","trial_type":"fractal-mutation","trial_index":165,"time_elapsed":2646427,"internal_node_id":"0.0-5.0-61.0"},{"group":"hexagon_tri","fractal_assignment":["../images/cyn_red.png","../images/ylw_slt.png","../images/pnk_blu.png","../images/blu_wht.png","../images/org_blu.png","../images/gry_blk.png"],"mutagen_generator_assignment":[0,1],"goal":3,"start":0,"action_noise":0.2,"location_history":"[0,1,3]","action_history":"[0,0]","mutagen_history":"[0,0]","location_rts":"[994,458]","trial_type":"fractal-mutation","trial_index":166,"time_elapsed":2653429,"internal_node_id":"0.0-5.0-62.0"},{"group":"hexagon_tri","fractal_assignment":["../images/cyn_red.png","../images/ylw_slt.png","../images/pnk_blu.png","../images/blu_wht.png","../images/org_blu.png","../images/gry_blk.png"],"mutagen_generator_assignment":[0,1],"goal":5,"start":3,"action_noise":0.2,"location_history":"[3,4,2,3,4,2,1,5]","action_history":"[0,1,1,1,1,0,0]","mutagen_history":"[0,1,1,1,1,0,0]","location_rts":"[1064,641,622,635,1124,399,600]","trial_type":"fractal-mutation","trial_index":167,"time_elapsed":2669222,"internal_node_id":"0.0-5.0-63.0"},{"group":"hexagon_tri","fractal_assignment":["../images/cyn_red.png","../images/ylw_slt.png","../images/pnk_blu.png","../images/blu_wht.png","../images/org_blu.png","../images/gry_blk.png"],"mutagen_generator_assignment":[0,1],"goal":4,"start":5,"action_noise":0.2,"location_history":"[5,4]","action_history":"[0]","mutagen_history":"[0]","location_rts":"[1234]","trial_type":"fractal-mutation","trial_index":168,"time_elapsed":2674983,"internal_node_id":"0.0-5.0-64.0"},{"group":"hexagon_tri","fractal_assignment":["../images/cyn_red.png","../images/ylw_slt.png","../images/pnk_blu.png","../images/blu_wht.png","../images/org_blu.png","../images/gry_blk.png"],"mutagen_generator_assignment":[0,1],"goal":1,"start":4,"action_noise":0.2,"location_history":"[4,0,5,4,2,1]","action_history":"[0,0,0,1,0]","mutagen_history":"[0,0,0,1,0]","location_rts":"[1220,1193,759,445,407]","trial_type":"fractal-mutation","trial_index":169,"time_elapsed":2687632,"internal_node_id":"0.0-5.0-65.0"},{"group":"hexagon_tri","fractal_assignment":["../images/cyn_red.png","../images/ylw_slt.png","../images/pnk_blu.png","../images/blu_wht.png","../images/org_blu.png","../images/gry_blk.png"],"mutagen_generator_assignment":[0,1],"goal":5,"start":1,"action_noise":0.2,"location_history":"[1,5]","action_history":"[1]","mutagen_history":"[1]","location_rts":"[1772]","trial_type":"fractal-mutation","trial_index":170,"time_elapsed":2693938,"internal_node_id":"0.0-5.0-66.0"},{"group":"hexagon_tri","fractal_assignment":["../images/cyn_red.png","../images/ylw_slt.png","../images/pnk_blu.png","../images/blu_wht.png","../images/org_blu.png","../images/gry_blk.png"],"mutagen_generator_assignment":[0,1],"goal":2,"start":5,"action_noise":0.2,"location_history":"[5,4,2]","action_history":"[0,1]","mutagen_history":"[0,1]","location_rts":"[863,443]","trial_type":"fractal-mutation","trial_index":171,"time_elapsed":2700806,"internal_node_id":"0.0-5.0-67.0"},{"group":"hexagon_tri","fractal_assignment":["../images/cyn_red.png","../images/ylw_slt.png","../images/pnk_blu.png","../images/blu_wht.png","../images/org_blu.png","../images/gry_blk.png"],"mutagen_generator_assignment":[0,1],"goal":3,"start":2,"action_noise":0.2,"location_history":"[2,1,3]","action_history":"[0,1]","mutagen_history":"[0,1]","location_rts":"[1398,434]","trial_type":"fractal-mutation","trial_index":172,"time_elapsed":2708201,"internal_node_id":"0.0-5.0-68.0"},{"group":"hexagon_tri","fractal_assignment":["../images/cyn_red.png","../images/ylw_slt.png","../images/pnk_blu.png","../images/blu_wht.png","../images/org_blu.png","../images/gry_blk.png"],"mutagen_generator_assignment":[0,1],"goal":4,"start":3,"action_noise":0.2,"location_history":"[3,2,3,2,1,3,4]","action_history":"[0,0,0,0,0,1]","mutagen_history":"[0,0,0,0,0,1]","location_rts":"[954,621,498,689,813,497]","trial_type":"fractal-mutation","trial_index":173,"time_elapsed":2721922,"internal_node_id":"0.0-5.0-69.0"},{"group":"hexagon_tri","fractal_assignment":["../images/cyn_red.png","../images/ylw_slt.png","../images/pnk_blu.png","../images/blu_wht.png","../images/org_blu.png","../images/gry_blk.png"],"mutagen_generator_assignment":[0,1],"goal":0,"start":4,"action_noise":0.2,"location_history":"[4,0]","action_history":"[0]","mutagen_history":"[0]","location_rts":"[1024]","trial_type":"fractal-mutation","trial_index":174,"time_elapsed":2727472,"internal_node_id":"0.0-5.0-70.0"},{"group":"hexagon_tri","fractal_assignment":["../images/cyn_red.png","../images/ylw_slt.png","../images/pnk_blu.png","../images/blu_wht.png","../images/org_blu.png","../images/gry_blk.png"],"mutagen_generator_assignment":[0,1],"goal":5,"start":0,"action_noise":0.2,"location_history":"[0,5]","action_history":"[1]","mutagen_history":"[1]","location_rts":"[1365]","trial_type":"fractal-mutation","trial_index":175,"time_elapsed":2733383,"internal_node_id":"0.0-5.0-71.0"},{"group":"hexagon_tri","fractal_assignment":["../images/cyn_red.png","../images/ylw_slt.png","../images/pnk_blu.png","../images/blu_wht.png","../images/org_blu.png","../images/gry_blk.png"],"mutagen_generator_assignment":[0,1],"goal":0,"start":5,"action_noise":0.2,"location_history":"[5,4,2,3,2,1,5,4,2,1,3,2,1,3,4,0]","action_history":"[0,1,1,0,0,0,0,1,0,0,0,0,0,1,0]","mutagen_history":"[0,1,1,0,0,0,0,1,0,0,0,0,0,1,0]","location_rts":"[1192,456,1034,672,577,801,633,624,545,511,439,634,631,345,761]","trial_type":"fractal-mutation","trial_index":176,"time_elapsed":2762164,"internal_node_id":"0.0-5.0-72.0"},{"group":"hexagon_tri","fractal_assignment":["../images/cyn_red.png","../images/ylw_slt.png","../images/pnk_blu.png","../images/blu_wht.png","../images/org_blu.png","../images/gry_blk.png"],"mutagen_generator_assignment":[0,1],"goal":3,"start":0,"action_noise":0.2,"location_history":"[0,1,3]","action_history":"[1,0]","mutagen_history":"[1,0]","location_rts":"[1956,620]","trial_type":"fractal-mutation","trial_index":177,"time_elapsed":2770308,"internal_node_id":"0.0-5.0-73.0"},{"group":"hexagon_tri","fractal_assignment":["../images/cyn_red.png","../images/ylw_slt.png","../images/pnk_blu.png","../images/blu_wht.png","../images/org_blu.png","../images/gry_blk.png"],"mutagen_generator_assignment":[0,1],"goal":1,"start":3,"action_noise":0.2,"location_history":"[3,2,1]","action_history":"[1,0]","mutagen_history":"[1,0]","location_rts":"[1549,689]","trial_type":"fractal-mutation","trial_index":178,"time_elapsed":2778113,"internal_node_id":"0.0-5.0-74.0"},{"group":"hexagon_tri","fractal_assignment":["../images/cyn_red.png","../images/ylw_slt.png","../images/pnk_blu.png","../images/blu_wht.png","../images/org_blu.png","../images/gry_blk.png"],"mutagen_generator_assignment":[0,1],"goal":2,"start":1,"action_noise":0.2,"location_history":"[1,5,0,5,0,1,3,2]","action_history":"[1,0,0,1,1,0,0]","mutagen_history":"[1,0,0,1,1,0,0]","location_rts":"[1130,465,488,544,600,900,453]","trial_type":"fractal-mutation","trial_index":179,"time_elapsed":2793408,"internal_node_id":"0.0-5.0-75.0"},{"group":"hexagon_tri","fractal_assignment":["../images/cyn_red.png","../images/ylw_slt.png","../images/pnk_blu.png","../images/blu_wht.png","../images/org_blu.png","../images/gry_blk.png"],"mutagen_generator_assignment":[0,1],"goal":4,"start":2,"action_noise":0.2,"location_history":"[2,1,3,2,1,3,2,1,3,2,3,4]","action_history":"[0,1,1,0,0,0,0,0,0,1,1]","mutagen_history":"[0,1,1,0,0,0,0,0,0,1,1]","location_rts":"[1222,811,473,464,361,493,730,555,492,380,591]","trial_type":"fractal-mutation","trial_index":180,"time_elapsed":2814818,"internal_node_id":"0.0-5.0-76.0"},{"group":"hexagon_tri","fractal_assignment":["../images/cyn_red.png","../images/ylw_slt.png","../images/pnk_blu.png","../images/blu_wht.png","../images/org_blu.png","../images/gry_blk.png"],"mutagen_generator_assignment":[0,1],"goal":3,"start":4,"action_noise":0.2,"location_history":"[4,0,5,0,1,5,4,0,1,5,4,0,5,0,1,5,0,5,4,2,1,5,4,0,1,3]","action_history":"[0,1,1,1,0,1,0,1,1,0,0,0,1,1,1,1,1,0,1,0,0,0,0,1,0]","mutagen_history":"[0,1,1,1,0,1,0,1,1,0,0,0,1,1,1,1,1,0,1,0,0,0,0,1,0]","location_rts":"[1534,916,460,553,388,673,497,632,466,613,714,1328,471,493,665,642,705,615,469,641,639,511,586,320,292]","trial_type":"fractal-mutation","trial_index":181,"time_elapsed":2859928,"internal_node_id":"0.0-5.0-77.0"},{"group":"hexagon_tri","fractal_assignment":["../images/cyn_red.png","../images/ylw_slt.png","../images/pnk_blu.png","../images/blu_wht.png","../images/org_blu.png","../images/gry_blk.png"],"mutagen_generator_assignment":[0,1],"goal":0,"start":3,"action_noise":0.2,"location_history":"[3,2,3,4,2,1,3,2,3,4,0]","action_history":"[0,1,1,1,0,0,1,1,1,0]","mutagen_history":"[0,1,1,1,0,0,1,1,1,0]","location_rts":"[840,463,541,900,689,482,571,544,627,435]","trial_type":"fractal-mutation","trial_index":182,"time_elapsed":2879829,"internal_node_id":"0.0-5.0-78.0"},{"group":"hexagon_tri","fractal_assignment":["../images/cyn_red.png","../images/ylw_slt.png","../images/pnk_blu.png","../images/blu_wht.png","../images/org_blu.png","../images/gry_blk.png"],"mutagen_generator_assignment":[0,1],"goal":4,"start":0,"action_noise":0.2,"location_history":"[0,5,0,5,0,5,0,5,4]","action_history":"[0,1,1,1,0,1,0,0]","mutagen_history":"[0,1,1,1,0,1,0,0]","location_rts":"[1157,409,494,436,762,503,355,349]","trial_type":"fractal-mutation","trial_index":183,"time_elapsed":2896025,"internal_node_id":"0.0-5.0-79.0"},{"group":"hexagon_tri","fractal_assignment":["../images/cyn_red.png","../images/ylw_slt.png","../images/pnk_blu.png","../images/blu_wht.png","../images/org_blu.png","../images/gry_blk.png"],"mutagen_generator_assignment":[0,1],"goal":5,"start":4,"action_noise":0.2,"location_history":"[4,2,1,5]","action_history":"[1,0,1]","mutagen_history":"[1,0,1]","location_rts":"[1795,729,584]","trial_type":"fractal-mutation","trial_index":184,"time_elapsed":2905723,"internal_node_id":"0.0-5.0-80.0"},{"group":"hexagon_tri","fractal_assignment":["../images/cyn_red.png","../images/ylw_slt.png","../images/pnk_blu.png","../images/blu_wht.png","../images/org_blu.png","../images/gry_blk.png"],"mutagen_generator_assignment":[0,1],"goal":1,"start":5,"action_noise":0.2,"location_history":"[5,4,2,3,4,0,1]","action_history":"[0,1,1,0,0,1]","mutagen_history":"[0,1,1,0,0,1]","location_rts":"[1489,521,1051,472,541,578]","trial_type":"fractal-mutation","trial_index":185,"time_elapsed":2920041,"internal_node_id":"0.0-5.0-81.0"},{"group":"hexagon_tri","fractal_assignment":["../images/cyn_red.png","../images/ylw_slt.png","../images/pnk_blu.png","../images/blu_wht.png","../images/org_blu.png","../images/gry_blk.png"],"mutagen_generator_assignment":[0,1],"goal":2,"start":1,"action_noise":0.2,"location_history":"[1,3,4,2]","action_history":"[0,1,1]","mutagen_history":"[0,1,1]","location_rts":"[1236,479,491]","trial_type":"fractal-mutation","trial_index":186,"time_elapsed":2928846,"internal_node_id":"0.0-5.0-82.0"},{"group":"hexagon_tri","fractal_assignment":["../images/cyn_red.png","../images/ylw_slt.png","../images/pnk_blu.png","../images/blu_wht.png","../images/org_blu.png","../images/gry_blk.png"],"mutagen_generator_assignment":[0,1],"goal":4,"start":2,"action_noise":0.2,"location_history":"[2,1,5,0,1,5,0,1,3,2,3,2,1,5,0,5,4]","action_history":"[0,1,0,1,1,1,1,0,0,1,0,0,0,1,0,0]","mutagen_history":"[0,1,0,1,1,1,1,0,0,1,0,0,0,1,0,0]","location_rts":"[2258,1129,497,563,504,338,865,339,435,524,490,634,520,552,702,462]","trial_type":"fractal-mutation","trial_index":187,"time_elapsed":2959621,"internal_node_id":"0.0-5.0-83.0"},{"group":"hexagon_tri","fractal_assignment":["../images/cyn_red.png","../images/ylw_slt.png","../images/pnk_blu.png","../images/blu_wht.png","../images/org_blu.png","../images/gry_blk.png"],"mutagen_generator_assignment":[0,1],"goal":0,"start":4,"action_noise":0.2,"location_history":"[4,0]","action_history":"[0]","mutagen_history":"[0]","location_rts":"[852]","trial_type":"fractal-mutation","trial_index":188,"time_elapsed":2965000,"internal_node_id":"0.0-5.0-84.0"},{"group":"hexagon_tri","fractal_assignment":["../images/cyn_red.png","../images/ylw_slt.png","../images/pnk_blu.png","../images/blu_wht.png","../images/org_blu.png","../images/gry_blk.png"],"mutagen_generator_assignment":[0,1],"goal":5,"start":0,"action_noise":0.2,"location_history":"[0,5]","action_history":"[1]","mutagen_history":"[1]","location_rts":"[1089]","trial_type":"fractal-mutation","trial_index":189,"time_elapsed":2970628,"internal_node_id":"0.0-5.0-85.0"},{"group":"hexagon_tri","fractal_assignment":["../images/cyn_red.png","../images/ylw_slt.png","../images/pnk_blu.png","../images/blu_wht.png","../images/org_blu.png","../images/gry_blk.png"],"mutagen_generator_assignment":[0,1],"goal":3,"start":5,"action_noise":0.2,"location_history":"[5,4,0,1,5,0,1,3]","action_history":"[0,0,1,1,1,1,0]","mutagen_history":"[0,0,1,1,1,1,0]","location_rts":"[1277,573,747,473,718,522,213]","trial_type":"fractal-mutation","trial_index":190,"time_elapsed":2985849,"internal_node_id":"0.0-5.0-86.0"},{"group":"hexagon_tri","fractal_assignment":["../images/cyn_red.png","../images/ylw_slt.png","../images/pnk_blu.png","../images/blu_wht.png","../images/org_blu.png","../images/gry_blk.png"],"mutagen_generator_assignment":[0,1],"goal":1,"start":3,"action_noise":0.2,"location_history":"[3,4,2,3,2,1]","action_history":"[0,1,1,0,0]","mutagen_history":"[0,1,1,0,0]","location_rts":"[1028,786,683,575,601]","trial_type":"fractal-mutation","trial_index":191,"time_elapsed":2998157,"internal_node_id":"0.0-5.0-87.0"},{"group":"hexagon_tri","fractal_assignment":["../images/cyn_red.png","../images/ylw_slt.png","../images/pnk_blu.png","../images/blu_wht.png","../images/org_blu.png","../images/gry_blk.png"],"mutagen_generator_assignment":[0,1],"goal":2,"start":1,"action_noise":0.2,"location_history":"[1,5,4,0,5,4,0,1,5,0,1,3,2]","action_history":"[1,0,1,0,0,0,0,1,0,1,1,0]","mutagen_history":"[1,0,1,0,0,0,0,1,0,1,1,0]","location_rts":"[1176,371,956,489,318,332,620,507,460,412,583,618]","trial_type":"fractal-mutation","trial_index":192,"time_elapsed":3020820,"internal_node_id":"0.0-5.0-88.0"},{"group":"hexagon_tri","fractal_assignment":["../images/cyn_red.png","../images/ylw_slt.png","../images/pnk_blu.png","../images/blu_wht.png","../images/org_blu.png","../images/gry_blk.png"],"mutagen_generator_assignment":[0,1],"goal":0,"start":2,"action_noise":0.2,"location_history":"[2,1,3,2,1,5,0]","action_history":"[1,0,0,0,1,1]","mutagen_history":"[1,0,0,0,1,1]","location_rts":"[470,383,390,441,475,399]","trial_type":"fractal-mutation","trial_index":193,"time_elapsed":3033042,"internal_node_id":"0.0-5.0-89.0"},{"group":"hexagon_tri","fractal_assignment":["../images/cyn_red.png","../images/ylw_slt.png","../images/pnk_blu.png","../images/blu_wht.png","../images/org_blu.png","../images/gry_blk.png"],"mutagen_generator_assignment":[0,1],"goal":5,"start":0,"action_noise":0.2,"location_history":"[0,1,3,2,3,4,2,3,4,2,1,3,2,3,2,1,5]","action_history":"[1,0,0,1,1,1,1,1,1,0,1,0,1,0,0,1]","mutagen_history":"[1,0,0,1,1,1,1,1,1,0,1,0,1,0,0,1]","location_rts":"[327,578,431,459,439,401,411,464,661,397,378,558,398,386,541,404]","trial_type":"fractal-mutation","trial_index":194,"time_elapsed":3060231,"internal_node_id":"0.0-5.0-90.0"},{"group":"hexagon_tri","fractal_assignment":["../images/cyn_red.png","../images/ylw_slt.png","../images/pnk_blu.png","../images/blu_wht.png","../images/org_blu.png","../images/gry_blk.png"],"mutagen_generator_assignment":[0,1],"goal":1,"start":5,"action_noise":0.2,"location_history":"[5,0,1]","action_history":"[0,1]","mutagen_history":"[0,1]","location_rts":"[879,455]","trial_type":"fractal-mutation","trial_index":195,"time_elapsed":3067127,"internal_node_id":"0.0-5.0-91.0"},{"group":"hexagon_tri","fractal_assignment":["../images/cyn_red.png","../images/ylw_slt.png","../images/pnk_blu.png","../images/blu_wht.png","../images/org_blu.png","../images/gry_blk.png"],"mutagen_generator_assignment":[0,1],"goal":3,"start":1,"action_noise":0.2,"location_history":"[1,3]","action_history":"[0]","mutagen_history":"[0]","location_rts":"[1072]","trial_type":"fractal-mutation","trial_index":196,"time_elapsed":3072725,"internal_node_id":"0.0-5.0-92.0"},{"group":"hexagon_tri","fractal_assignment":["../images/cyn_red.png","../images/ylw_slt.png","../images/pnk_blu.png","../images/blu_wht.png","../images/org_blu.png","../images/gry_blk.png"],"mutagen_generator_assignment":[0,1],"goal":4,"start":3,"action_noise":0.2,"location_history":"[3,4]","action_history":"[1]","mutagen_history":"[1]","location_rts":"[780]","trial_type":"fractal-mutation","trial_index":197,"time_elapsed":3078058,"internal_node_id":"0.0-5.0-93.0"},{"group":"hexagon_tri","fractal_assignment":["../images/cyn_red.png","../images/ylw_slt.png","../images/pnk_blu.png","../images/blu_wht.png","../images/org_blu.png","../images/gry_blk.png"],"mutagen_generator_assignment":[0,1],"goal":2,"start":4,"action_noise":0.2,"location_history":"[4,0,5,4,2]","action_history":"[0,0,1,1]","mutagen_history":"[0,0,1,1]","location_rts":"[893,781,1055,407]","trial_type":"fractal-mutation","trial_index":198,"time_elapsed":3088805,"internal_node_id":"0.0-5.0-94.0"},{"group":"hexagon_tri","fractal_assignment":["../images/cyn_red.png","../images/ylw_slt.png","../images/pnk_blu.png","../images/blu_wht.png","../images/org_blu.png","../images/gry_blk.png"],"mutagen_generator_assignment":[0,1],"goal":4,"start":2,"action_noise":0.2,"location_history":"[2,1,5,0,1,3,4]","action_history":"[0,1,1,1,1,1]","mutagen_history":"[0,1,1,1,1,1]","location_rts":"[776,431,359,455,663,537]","trial_type":"fractal-mutation","trial_index":199,"time_elapsed":3101717,"internal_node_id":"0.0-5.0-95.0"},{"group":"hexagon_tri","fractal_assignment":["../images/cyn_red.png","../images/ylw_slt.png","../images/pnk_blu.png","../images/blu_wht.png","../images/org_blu.png","../images/gry_blk.png"],"mutagen_generator_assignment":[0,1],"goal":0,"start":4,"action_noise":0.2,"location_history":"[4,0]","action_history":"[0]","mutagen_history":"[0]","location_rts":"[890]","trial_type":"fractal-mutation","trial_index":200,"time_elapsed":3107133,"internal_node_id":"0.0-5.0-96.0"},{"group":"hexagon_tri","fractal_assignment":["../images/cyn_red.png","../images/ylw_slt.png","../images/pnk_blu.png","../images/blu_wht.png","../images/org_blu.png","../images/gry_blk.png"],"mutagen_generator_assignment":[0,1],"goal":5,"start":0,"action_noise":0.2,"location_history":"[0,1,3,2,1,5]","action_history":"[1,0,0,0,1]","mutagen_history":"[1,0,0,0,1]","location_rts":"[910,562,667,635,391]","trial_type":"fractal-mutation","trial_index":201,"time_elapsed":3118934,"internal_node_id":"0.0-5.0-97.0"},{"group":"hexagon_tri","fractal_assignment":["../images/cyn_red.png","../images/ylw_slt.png","../images/pnk_blu.png","../images/blu_wht.png","../images/org_blu.png","../images/gry_blk.png"],"mutagen_generator_assignment":[0,1],"goal":1,"start":5,"action_noise":0.2,"location_history":"[5,4,2,3,4,0,5,0,5,4,2,3,2,1]","action_history":"[0,1,0,1,0,0,1,1,0,1,1,0,0]","mutagen_history":"[0,1,0,1,0,0,1,1,0,1,1,0,0]","location_rts":"[794,411,322,584,620,561,319,207,373,370,1192,1219,737]","trial_type":"fractal-mutation","trial_index":202,"time_elapsed":3143513,"internal_node_id":"0.0-5.0-98.0"},{"group":"hexagon_tri","fractal_assignment":["../images/cyn_red.png","../images/ylw_slt.png","../images/pnk_blu.png","../images/blu_wht.png","../images/org_blu.png","../images/gry_blk.png"],"mutagen_generator_assignment":[0,1],"goal":3,"start":1,"action_noise":0.2,"location_history":"[1,5,0,5,4,0,5,0,5,0,5,0,1,5,4,0,1,3]","action_history":"[0,1,0,0,0,1,1,1,1,0,1,0,0,0,0,1,0]","mutagen_history":"[0,1,0,0,0,1,1,1,1,0,1,0,0,0,0,1,0]","location_rts":"[1222,2483,520,277,535,265,295,342,336,287,360,517,1267,488,357,575,235]","trial_type":"fractal-mutation","trial_index":203,"time_elapsed":3174835,"internal_node_id":"0.0-5.0-99.0"},{"view_history":"[{\"page_index\":0,\"viewing_time\":10813}]","rt":10813,"trial_type":"instructions","trial_index":204,"time_elapsed":3186648,"internal_node_id":"0.0-6.0"},{"rt":3920,"responses":"{\"Q0\":\"no\"}","trial_type":"survey-text","trial_index":205,"time_elapsed":3191575,"internal_node_id":"0.0-7.0"}]