[{"view_history":"[{\"page_index\":0,\"viewing_time\":9194},{\"page_index\":1,\"viewing_time\":1730},{\"page_index\":2,\"viewing_time\":6387},{\"page_index\":3,\"viewing_time\":2698}]","rt":20009,"trial_type":"instructions","trial_index":0,"time_elapsed":20009,"internal_node_id":"0.0-0.0"},{"view_history":"[{\"page_index\":0,\"viewing_time\":1338},{\"page_index\":1,\"viewing_time\":6768}]","rt":8107,"trial_type":"instructions","trial_index":1,"time_elapsed":29118,"internal_node_id":"0.0-1.0"},{"group":"hexagon_bi","room_assignment":["yellow","red","purple","grey","green","blue"],"door_color_assignment":["black","white"],"door_generator_assignment":[1,0],"goal":4,"start":0,"action_noise":0.2,"location_history":"[0,5,0,1,0,5,4]","action_history":"[0,0,1,0,0,1]","door_history":"[1,1,0,1,1,0]","location_rts":"[2197,610,1043,3925,230,262]","trial_type":"two-door-navigation","trial_index":2,"time_elapsed":46993,"internal_node_id":"0.0-2.0-0.0"},{"group":"hexagon_bi","room_assignment":["yellow","red","purple","grey","green","blue"],"door_color_assignment":["black","white"],"door_generator_assignment":[1,0],"goal":3,"start":4,"action_noise":0.2,"location_history":"[4,5,0,5,4,3]","action_history":"[1,0,0,1,1]","door_history":"[0,1,1,0,0]","location_rts":"[1352,236,274,127,208]","trial_type":"two-door-navigation","trial_index":3,"time_elapsed":57782,"internal_node_id":"0.0-2.0-1.0"},{"group":"hexagon_bi","room_assignment":["yellow","red","purple","grey","green","blue"],"door_color_assignment":["black","white"],"door_generator_assignment":[1,0],"goal":5,"start":3,"action_noise":0.2,"location_history":"[3,2,1,2,1,2,3,2,1,2,1,0,5]","action_history":"[1,0,0,0,1,1,1,0,0,0,1,0]","door_history":"[0,1,1,1,0,0,0,1,1,1,0,1]","location_rts":"[968,22,303,219,255,253,228,2917,255,390,492,2731]","trial_type":"two-door-navigation","trial_index":4,"time_elapsed":82547,"internal_node_id":"0.0-2.0-2.0"},{"group":"hexagon_bi","room_assignment":["yellow","red","purple","grey","green","blue"],"door_color_assignment":["black","white"],"door_generator_assignment":[1,0],"goal":2,"start":5,"action_noise":0.2,"location_history":"[5,4,3,2]","action_history":"[1,1,0]","door_history":"[0,0,1]","location_rts":"[787,372,368]","trial_type":"two-door-navigation","trial_index":5,"time_elapsed":90637,"internal_node_id":"0.0-2.0-3.0"},{"group":"hexagon_bi","room_assignment":["yellow","red","purple","grey","green","blue"],"door_color_assignment":["black","white"],"door_generator_assignment":[1,0],"goal":1,"start":2,"action_noise":0.2,"location_history":"[2,3,4,3,4,5,0,5,4,5,0,1]","action_history":"[1,0,0,0,1,1,0,0,0,1,1]","door_history":"[0,1,1,1,0,0,1,1,1,0,0]","location_rts":"[2840,104,240,266,403,278,315,269,176,367,87]","trial_type":"two-door-navigation","trial_index":6,"time_elapsed":110675,"internal_node_id":"0.0-2.0-4.0"},{"group":"hexagon_bi","room_assignment":["yellow","red","purple","grey","green","blue"],"door_color_assignment":["black","white"],"door_generator_assignment":[1,0],"goal":4,"start":1,"action_noise":0.2,"location_history":"[1,2,1,2,3,2,1,0,5,4]","action_history":"[1,0,0,1,1,0,0,0,1]","door_history":"[0,1,1,0,0,1,1,1,0]","location_rts":"[300,158,217,294,47,261,198,345,154]","trial_type":"two-door-navigation","trial_index":7,"time_elapsed":125323,"internal_node_id":"0.0-2.0-5.0"},{"group":"hexagon_bi","room_assignment":["yellow","red","purple","grey","green","blue"],"door_color_assignment":["black","white"],"door_generator_assignment":[1,0],"goal":1,"start":4,"action_noise":0.2,"location_history":"[4,3,2,3,4,5,0,5,4,5,0,5,4,3,2,3,2,1]","action_history":"[0,1,1,0,0,0,0,1,1,1,0,0,0,1,1,0,0]","door_history":"[1,0,0,1,1,1,1,0,0,0,1,1,1,0,0,1,1]","location_rts":"[3968,90,190,62,26,22583,84,1141,374,190,99,36,115,146,149,4,58]","trial_type":"two-door-navigation","trial_index":8,"time_elapsed":175457,"internal_node_id":"0.0-2.0-6.0"},{"group":"hexagon_bi","room_assignment":["yellow","red","purple","grey","green","blue"],"door_color_assignment":["black","white"],"door_generator_assignment":[1,0],"goal":5,"start":1,"action_noise":0.2,"location_history":"[1,0,1,2,3,2,1,2,1,2,1,2,1,0,5]","action_history":"[1,0,0,1,1,0,0,1,0,0,0,0,1,0]","door_history":"[0,1,1,0,0,1,1,0,1,1,1,1,0,1]","location_rts":"[746,251,238,167,239,97,255,72,47,76,9,139,195,273]","trial_type":"two-door-navigation","trial_index":9,"time_elapsed":196016,"internal_node_id":"0.0-2.0-7.0"},{"group":"hexagon_bi","room_assignment":["yellow","red","purple","grey","green","blue"],"door_color_assignment":["black","white"],"door_generator_assignment":[1,0],"goal":0,"start":5,"action_noise":0.2,"location_history":"[5,0]","action_history":"[0]","door_history":"[1]","location_rts":"[422]","trial_type":"two-door-navigation","trial_index":10,"time_elapsed":200955,"internal_node_id":"0.0-2.0-8.0"},{"group":"hexagon_bi","room_assignment":["yellow","red","purple","grey","green","blue"],"door_color_assignment":["black","white"],"door_generator_assignment":[1,0],"goal":2,"start":0,"action_noise":0.2,"location_history":"[0,1,0,5,4,3,4,3,2]","action_history":"[1,0,0,1,1,0,0,0]","door_history":"[0,1,1,0,0,1,1,1]","location_rts":"[326,295,227,248,247,249,63,188]","trial_type":"two-door-navigation","trial_index":11,"time_elapsed":214440,"internal_node_id":"0.0-2.0-9.0"},{"group":"hexagon_bi","room_assignment":["yellow","red","purple","grey","green","blue"],"door_color_assignment":["black","white"],"door_generator_assignment":[1,0],"goal":3,"start":2,"action_noise":0.2,"location_history":"[2,3]","action_history":"[1]","door_history":"[0]","location_rts":"[1304]","trial_type":"two-door-navigation","trial_index":12,"time_elapsed":220266,"internal_node_id":"0.0-2.0-10.0"},{"group":"hexagon_bi","room_assignment":["yellow","red","purple","grey","green","blue"],"door_color_assignment":["black","white"],"door_generator_assignment":[1,0],"goal":0,"start":3,"action_noise":0.2,"location_history":"[3,4,5,4,5,4,3,4,3,2,3,4,5,4,5,4,3,4,3,4,3,4,5,4,5,4,3,2,1,2,3,2,3,2,1,2,3,2,3,2,3,2,1,2,1,2,1,2,1,0]","action_history":"[0,0,1,1,1,0,0,0,1,1,0,0,1,1,1,0,0,0,0,0,0,1,1,1,1,0,1,0,0,1,1,1,1,0,0,1,1,1,1,0,1,0,0,0,1,1,0,0,1]","door_history":"[1,1,0,0,0,1,1,1,0,0,1,1,0,0,0,1,1,1,1,1,1,0,0,0,0,1,0,1,1,0,0,0,0,1,1,0,0,0,0,1,0,1,1,1,0,0,1,1,0]","location_rts":"[350,75,76,474,828,342,147,112,105,301,206,92,343,209,274,273,267,183,310,231,226,266,2,146,140,9,348,216,205,209,206,253,205,77,549,15,164,279,762,500,294,488,74,366,316,13913,747,248,271]","trial_type":"two-door-navigation","trial_index":13,"time_elapsed":300332,"internal_node_id":"0.0-2.0-11.0"},{"group":"hexagon_bi","room_assignment":["yellow","red","purple","grey","green","blue"],"door_color_assignment":["black","white"],"door_generator_assignment":[1,0],"goal":2,"start":0,"action_noise":0.2,"location_history":"[0,1,0,5,0,5,0,5,0,1,0,5,0,5,0,5,0,1,0,1,2]","action_history":"[1,1,0,1,1,0,0,1,1,1,0,0,0,1,0,0,0,1,1,0]","door_history":"[0,0,1,0,0,1,1,0,0,0,1,1,1,0,1,1,1,0,0,1]","location_rts":"[216,3529,76,234,14,913,293,72,116,189,308,168,412,256,308,730,249,382,0,172]","trial_type":"two-door-navigation","trial_index":14,"time_elapsed":332838,"internal_node_id":"0.0-2.0-12.0"},{"group":"hexagon_bi","room_assignment":["yellow","red","purple","grey","green","blue"],"door_color_assignment":["black","white"],"door_generator_assignment":[1,0],"goal":5,"start":2,"action_noise":0.2,"location_history":"[2,3,4,3,4,5]","action_history":"[1,0,0,1,1]","door_history":"[0,1,1,0,0]","location_rts":"[665,303,49,88,71]","trial_type":"two-door-navigation","trial_index":15,"time_elapsed":342602,"internal_node_id":"0.0-2.0-13.0"},{"group":"hexagon_bi","room_assignment":["yellow","red","purple","grey","green","blue"],"door_color_assignment":["black","white"],"door_generator_assignment":[1,0],"goal":4,"start":5,"action_noise":0.2,"location_history":"[5,0,5,0,1,0,1,2,1,0,1,2,1,0,1,2,1,2,1,0,1,0,5,0,1,0,1,2,3,4]","action_history":"[1,0,0,1,1,1,0,0,1,1,0,0,1,1,1,1,0,0,1,1,0,0,0,1,1,1,0,1,1]","door_history":"[0,1,1,0,0,0,1,1,0,0,1,1,0,0,0,0,1,1,0,0,1,1,1,0,0,0,1,0,0]","location_rts":"[511,311,9,36,23,180,65,41,55,422,218,87,87,33,98,271,215,6,173,197,71,341,16,239,172,43,280,131,4]","trial_type":"two-door-navigation","trial_index":16,"time_elapsed":379980,"internal_node_id":"0.0-2.0-14.0"},{"group":"hexagon_bi","room_assignment":["yellow","red","purple","grey","green","blue"],"door_color_assignment":["black","white"],"door_generator_assignment":[1,0],"goal":3,"start":4,"action_noise":0.2,"location_history":"[4,3]","action_history":"[0]","door_history":"[1]","location_rts":"[478]","trial_type":"two-door-navigation","trial_index":17,"time_elapsed":384976,"internal_node_id":"0.0-2.0-15.0"},{"group":"hexagon_bi","room_assignment":["yellow","red","purple","grey","green","blue"],"door_color_assignment":["black","white"],"door_generator_assignment":[1,0],"goal":1,"start":3,"action_noise":0.2,"location_history":"[3,2,3,4,3,2,3,4,3,4,5,4,3,4,5,4,5,0,1]","action_history":"[1,0,0,0,1,1,1,0,0,1,1,0,0,1,1,1,0,0]","door_history":"[0,1,1,1,0,0,0,1,1,0,0,1,1,0,0,0,1,1]","location_rts":"[363,237,357,68,52,214,302,3045,208,109,51,110,18,64,53,90,39,123]","trial_type":"two-door-navigation","trial_index":18,"time_elapsed":412328,"internal_node_id":"0.0-2.0-16.0"},{"group":"hexagon_bi","room_assignment":["yellow","red","purple","grey","green","blue"],"door_color_assignment":["black","white"],"door_generator_assignment":[1,0],"goal":5,"start":1,"action_noise":0.2,"location_history":"[1,2,1,0,5]","action_history":"[1,1,0,0]","door_history":"[0,0,1,1]","location_rts":"[457,279,31,1]","trial_type":"two-door-navigation","trial_index":19,"time_elapsed":420675,"internal_node_id":"0.0-2.0-17.0"},{"group":"hexagon_bi","room_assignment":["yellow","red","purple","grey","green","blue"],"door_color_assignment":["black","white"],"door_generator_assignment":[1,0],"goal":4,"start":5,"action_noise":0.2,"location_history":"[5,4]","action_history":"[1]","door_history":"[0]","location_rts":"[763]","trial_type":"two-door-navigation","trial_index":20,"time_elapsed":425953,"internal_node_id":"0.0-2.0-18.0"},{"group":"hexagon_bi","room_assignment":["yellow","red","purple","grey","green","blue"],"door_color_assignment":["black","white"],"door_generator_assignment":[1,0],"goal":0,"start":4,"action_noise":0.2,"location_history":"[4,5,0]","action_history":"[1,0]","door_history":"[0,1]","location_rts":"[443,277]","trial_type":"two-door-navigation","trial_index":21,"time_elapsed":432208,"internal_node_id":"0.0-2.0-19.0"},{"group":"hexagon_bi","room_assignment":["yellow","red","purple","grey","green","blue"],"door_color_assignment":["black","white"],"door_generator_assignment":[1,0],"goal":1,"start":0,"action_noise":0.2,"location_history":"[0,1]","action_history":"[1]","door_history":"[0]","location_rts":"[506]","trial_type":"two-door-navigation","trial_index":22,"time_elapsed":437232,"internal_node_id":"0.0-2.0-20.0"},{"group":"hexagon_bi","room_assignment":["yellow","red","purple","grey","green","blue"],"door_color_assignment":["black","white"],"door_generator_assignment":[1,0],"goal":3,"start":1,"action_noise":0.2,"location_history":"[1,2,3]","action_history":"[0,1]","door_history":"[1,0]","location_rts":"[390,107]","trial_type":"two-door-navigation","trial_index":23,"time_elapsed":443266,"internal_node_id":"0.0-2.0-21.0"},{"group":"hexagon_bi","room_assignment":["yellow","red","purple","grey","green","blue"],"door_color_assignment":["black","white"],"door_generator_assignment":[1,0],"goal":2,"start":3,"action_noise":0.2,"location_history":"[3,4,5,4,3,4,5,4,3,4,5,4,3,4,5,4,5,4,3,2]","action_history":"[0,1,1,0,1,1,1,0,0,1,1,0,0,0,1,1,1,0,1]","door_history":"[1,0,0,1,0,0,0,1,1,0,0,1,1,1,0,0,0,1,0]","location_rts":"[436,386,175,185,276,154,210,247,152,212,85,260,25,372,138,240,203,77,441]","trial_type":"two-door-navigation","trial_index":24,"time_elapsed":470392,"internal_node_id":"0.0-2.0-22.0"},{"group":"hexagon_bi","room_assignment":["yellow","red","purple","grey","green","blue"],"door_color_assignment":["black","white"],"door_generator_assignment":[1,0],"goal":0,"start":2,"action_noise":0.2,"location_history":"[2,3,2,3,2,1,2,3,2,3,4,3,4,5,4,5,0]","action_history":"[0,1,1,1,0,0,0,1,1,1,0,0,1,1,1,0]","door_history":"[1,0,0,0,1,1,1,0,0,0,1,1,0,0,0,1]","location_rts":"[1507,401,888,121,263,338,4,58,184,70,218,157,102,45,67,110]","trial_type":"two-door-navigation","trial_index":25,"time_elapsed":494729,"internal_node_id":"0.0-2.0-23.0"},{"group":"hexagon_bi","room_assignment":["yellow","red","purple","grey","green","blue"],"door_color_assignment":["black","white"],"door_generator_assignment":[1,0],"goal":3,"start":0,"action_noise":0.2,"location_history":"[0,1,2,1,0,5,4,3]","action_history":"[1,0,0,1,1,0,0]","door_history":"[0,1,1,0,0,1,1]","location_rts":"[655,260,53,42,102,301,292]","trial_type":"two-door-navigation","trial_index":26,"time_elapsed":507065,"internal_node_id":"0.0-2.0-24.0"},{"group":"hexagon_bi","room_assignment":["yellow","red","purple","grey","green","blue"],"door_color_assignment":["black","white"],"door_generator_assignment":[1,0],"goal":1,"start":3,"action_noise":0.2,"location_history":"[3,4,5,4,5,0,5,4,5,0,1]","action_history":"[0,1,1,1,0,0,1,1,0,1]","door_history":"[1,0,0,0,1,1,0,0,1,0]","location_rts":"[366,116,301,218,223,114,1,57,105353,663]","trial_type":"two-door-navigation","trial_index":27,"time_elapsed":628153,"internal_node_id":"0.0-2.0-25.0"},{"group":"hexagon_bi","room_assignment":["yellow","red","purple","grey","green","blue"],"door_color_assignment":["black","white"],"door_generator_assignment":[1,0],"goal":2,"start":1,"action_noise":0.2,"location_history":"[1,2]","action_history":"[0]","door_history":"[1]","location_rts":"[371]","trial_type":"two-door-navigation","trial_index":28,"time_elapsed":633049,"internal_node_id":"0.0-2.0-26.0"},{"group":"hexagon_bi","room_assignment":["yellow","red","purple","grey","green","blue"],"door_color_assignment":["black","white"],"door_generator_assignment":[1,0],"goal":5,"start":2,"action_noise":0.2,"location_history":"[2,1,0,1,2,3,2,3,4,5]","action_history":"[0,1,0,1,1,1,0,0,1]","door_history":"[1,0,1,0,0,0,1,1,0]","location_rts":"[6611,1206,1911,1013,368,105,226,413,31]","trial_type":"two-door-navigation","trial_index":29,"time_elapsed":657603,"internal_node_id":"0.0-2.0-27.0"},{"group":"hexagon_bi","room_assignment":["yellow","red","purple","grey","green","blue"],"door_color_assignment":["black","white"],"door_generator_assignment":[1,0],"goal":4,"start":5,"action_noise":0.2,"location_history":"[5,0,1,0,1,2,1,0,5,4]","action_history":"[0,1,1,0,0,0,1,1,1]","door_history":"[1,0,0,1,1,1,0,0,0]","location_rts":"[57079,131,203,369,7,1,39,260,79]","trial_type":"two-door-navigation","trial_index":30,"time_elapsed":728446,"internal_node_id":"0.0-2.0-28.0"},{"group":"hexagon_bi","room_assignment":["yellow","red","purple","grey","green","blue"],"door_color_assignment":["black","white"],"door_generator_assignment":[1,0],"goal":5,"start":4,"action_noise":0.2,"location_history":"[4,3,2,1,2,3,4,3,2,3,2,1,0,1,2,3,2,1,0,1,0,1,2,1,2,3,4,5]","action_history":"[0,1,0,0,1,1,0,1,1,0,0,0,1,0,1,1,1,1,0,1,1,1,0,0,1,1,1]","door_history":"[1,0,1,1,0,0,1,0,0,1,1,1,0,1,0,0,0,0,1,0,0,0,1,1,0,0,0]","location_rts":"[3332,835,382,255,43,84,57,258,241,71,17,21,10,49,378,24,374,242,367,276,167,3798,68,373,203,135,203]","trial_type":"two-door-navigation","trial_index":31,"time_elapsed":771697,"internal_node_id":"0.0-2.0-29.0"},{"group":"hexagon_bi","room_assignment":["yellow","red","purple","grey","green","blue"],"door_color_assignment":["black","white"],"door_generator_assignment":[1,0],"goal":3,"start":5,"action_noise":0.2,"location_history":"[5,4,3]","action_history":"[1,0]","door_history":"[0,1]","location_rts":"[607,52]","trial_type":"two-door-navigation","trial_index":32,"time_elapsed":777897,"internal_node_id":"0.0-2.0-30.0"},{"group":"hexagon_bi","room_assignment":["yellow","red","purple","grey","green","blue"],"door_color_assignment":["black","white"],"door_generator_assignment":[1,0],"goal":0,"start":3,"action_noise":0.2,"location_history":"[3,4,3,4,5,4,5,4,3,4,5,4,5,0]","action_history":"[1,0,0,1,1,1,1,0,0,1,1,1,0]","door_history":"[0,1,1,0,0,0,0,1,1,0,0,0,1]","location_rts":"[1335,46,127,241,47,490,290,19,129,392,65,40,232]","trial_type":"two-door-navigation","trial_index":33,"time_elapsed":798084,"internal_node_id":"0.0-2.0-31.0"},{"group":"hexagon_bi","room_assignment":["yellow","red","purple","grey","green","blue"],"door_color_assignment":["black","white"],"door_generator_assignment":[1,0],"goal":4,"start":0,"action_noise":0.2,"location_history":"[0,1,2,1,0,1,0,5,0,5,0,1,0,1,2,3,2,1,0,1,0,5,0,1,0,5,0,5,0,5,4]","action_history":"[1,0,0,1,1,1,0,0,0,1,1,1,1,0,1,0,0,1,1,1,0,0,0,1,0,0,0,0,0,1]","door_history":"[0,1,1,0,0,0,1,1,1,0,0,0,0,1,0,1,1,0,0,0,1,1,1,0,1,1,1,1,1,0]","location_rts":"[818,155,205,445,111,96,136,240,264,598,119,70,97,186,287,450,247,174,129,204,531,305,37,398,457,19,26,206,289,230]","trial_type":"two-door-navigation","trial_index":34,"time_elapsed":839653,"internal_node_id":"0.0-2.0-32.0"},{"group":"hexagon_bi","room_assignment":["yellow","red","purple","grey","green","blue"],"door_color_assignment":["black","white"],"door_generator_assignment":[1,0],"goal":1,"start":4,"action_noise":0.2,"location_history":"[4,3,2,1]","action_history":"[0,1,1]","door_history":"[1,0,0]","location_rts":"[452,91,202]","trial_type":"two-door-navigation","trial_index":35,"time_elapsed":846949,"internal_node_id":"0.0-2.0-33.0"},{"group":"hexagon_bi","room_assignment":["yellow","red","purple","grey","green","blue"],"door_color_assignment":["black","white"],"door_generator_assignment":[1,0],"goal":2,"start":1,"action_noise":0.2,"location_history":"[1,2]","action_history":"[0]","door_history":"[1]","location_rts":"[616]","trial_type":"two-door-navigation","trial_index":36,"time_elapsed":852089,"internal_node_id":"0.0-2.0-34.0"},{"group":"hexagon_bi","room_assignment":["yellow","red","purple","grey","green","blue"],"door_color_assignment":["black","white"],"door_generator_assignment":[1,0],"goal":0,"start":2,"action_noise":0.2,"location_history":"[2,1,2,1,0]","action_history":"[1,0,0,0]","door_history":"[0,1,1,1]","location_rts":"[695,126,98,218]","trial_type":"two-door-navigation","trial_index":37,"time_elapsed":860794,"internal_node_id":"0.0-2.0-35.0"},{"group":"hexagon_bi","room_assignment":["yellow","red","purple","grey","green","blue"],"door_color_assignment":["black","white"],"door_generator_assignment":[1,0],"goal":5,"start":0,"action_noise":0.2,"location_history":"[0,1,0,5]","action_history":"[1,1,0]","door_history":"[0,0,1]","location_rts":"[708,156,204]","trial_type":"two-door-navigation","trial_index":38,"time_elapsed":868419,"internal_node_id":"0.0-2.0-36.0"},{"group":"hexagon_bi","room_assignment":["yellow","red","purple","grey","green","blue"],"door_color_assignment":["black","white"],"door_generator_assignment":[1,0],"goal":2,"start":5,"action_noise":0.2,"location_history":"[5,4,5,0,5,4,5,4,3,4,5,4,3,2]","action_history":"[1,1,0,0,1,1,0,0,0,1,1,0,1]","door_history":"[0,0,1,1,0,0,1,1,1,0,0,1,0]","location_rts":"[544,195,174,133,234,158,311,156,28,114,2978,305,88]","trial_type":"two-door-navigation","trial_index":39,"time_elapsed":890575,"internal_node_id":"0.0-2.0-37.0"},{"group":"hexagon_bi","room_assignment":["yellow","red","purple","grey","green","blue"],"door_color_assignment":["black","white"],"door_generator_assignment":[1,0],"goal":1,"start":2,"action_noise":0.2,"location_history":"[2,1]","action_history":"[0]","door_history":"[1]","location_rts":"[481]","trial_type":"two-door-navigation","trial_index":40,"time_elapsed":895572,"internal_node_id":"0.0-2.0-38.0"},{"group":"hexagon_bi","room_assignment":["yellow","red","purple","grey","green","blue"],"door_color_assignment":["black","white"],"door_generator_assignment":[1,0],"goal":4,"start":1,"action_noise":0.2,"location_history":"[1,0,1,0,1,2,3,2,1,0,1,2,3,2,3,4]","action_history":"[0,1,1,1,0,0,1,0,0,1,1,1,1,1,0]","door_history":"[1,0,0,0,1,1,0,1,1,0,0,0,0,0,1]","location_rts":"[702,44,258,218,1524,787,644,305,121,67,91,73,217,302,134]","trial_type":"two-door-navigation","trial_index":41,"time_elapsed":919830,"internal_node_id":"0.0-2.0-39.0"},{"group":"hexagon_bi","room_assignment":["yellow","red","purple","grey","green","blue"],"door_color_assignment":["black","white"],"door_generator_assignment":[1,0],"goal":3,"start":4,"action_noise":0.2,"location_history":"[4,3]","action_history":"[0]","door_history":"[1]","location_rts":"[661]","trial_type":"two-door-navigation","trial_index":42,"time_elapsed":925009,"internal_node_id":"0.0-2.0-40.0"},{"group":"hexagon_bi","room_assignment":["yellow","red","purple","grey","green","blue"],"door_color_assignment":["black","white"],"door_generator_assignment":[1,0],"goal":5,"start":3,"action_noise":0.2,"location_history":"[3,2,1,2,1,0,1,2,3,2,3,4,3,2,1,0,1,0,1,2,3,4,3,2,3,4,3,4,5]","action_history":"[1,0,0,0,1,1,0,1,1,0,0,0,1,0,1,1,1,1,0,1,0,0,1,1,0,0,0,1]","door_history":"[0,1,1,1,0,0,1,0,0,1,1,1,0,1,0,0,0,0,1,0,1,1,0,0,1,1,1,0]","location_rts":"[232,124,25,156,454,213,283,231,412,284,131,442,340,501,374,196,296,510,129,603,310,270,292,348,428,90,13,465]","trial_type":"two-door-navigation","trial_index":43,"time_elapsed":965162,"internal_node_id":"0.0-2.0-41.0"},{"group":"hexagon_bi","room_assignment":["yellow","red","purple","grey","green","blue"],"door_color_assignment":["black","white"],"door_generator_assignment":[1,0],"goal":3,"start":5,"action_noise":0.2,"location_history":"[5,0,5,4,5,0,1,0,1,0,1,0,5,0,1,2,1,2,1,2,1,0,1,2,1,2,3]","action_history":"[0,1,1,0,0,1,1,1,0,1,0,0,0,1,0,0,1,0,0,1,1,1,0,0,1,1]","door_history":"[1,0,0,1,1,0,0,0,1,0,1,1,1,0,1,1,0,1,1,0,0,0,1,1,0,0]","location_rts":"[823,114,419,92,59,322,38,593,4,416,46,144,513,326,290,284,405,257,117,18,74,327,270,604,346,470]","trial_type":"two-door-navigation","trial_index":44,"time_elapsed":1002496,"internal_node_id":"0.0-2.0-42.0"},{"group":"hexagon_bi","room_assignment":["yellow","red","purple","grey","green","blue"],"door_color_assignment":["black","white"],"door_generator_assignment":[1,0],"goal":0,"start":3,"action_noise":0.2,"location_history":"[3,4,3,4,3,4,5,0]","action_history":"[1,0,0,0,1,1,0]","door_history":"[0,1,1,1,0,0,1]","location_rts":"[1037,294,120,50,78,372,363]","trial_type":"two-door-navigation","trial_index":45,"time_elapsed":1015435,"internal_node_id":"0.0-2.0-43.0"},{"group":"hexagon_bi","room_assignment":["yellow","red","purple","grey","green","blue"],"door_color_assignment":["black","white"],"door_generator_assignment":[1,0],"goal":2,"start":0,"action_noise":0.2,"location_history":"[0,1,0,5,4,5,4,5,4,3,2]","action_history":"[1,1,0,0,1,1,1,1,0,1]","door_history":"[0,0,1,1,0,0,0,0,1,0]","location_rts":"[385,367,15,59,37,207,425,143,101,311]","trial_type":"two-door-navigation","trial_index":46,"time_elapsed":1031166,"internal_node_id":"0.0-2.0-44.0"},{"group":"hexagon_bi","room_assignment":["yellow","red","purple","grey","green","blue"],"door_color_assignment":["black","white"],"door_generator_assignment":[1,0],"goal":4,"start":2,"action_noise":0.2,"location_history":"[2,3,2,1,2,3,4]","action_history":"[1,0,0,1,1,0]","door_history":"[0,1,1,0,0,1]","location_rts":"[474,45,236,521,211,34]","trial_type":"two-door-navigation","trial_index":47,"time_elapsed":1042303,"internal_node_id":"0.0-2.0-45.0"},{"group":"hexagon_bi","room_assignment":["yellow","red","purple","grey","green","blue"],"door_color_assignment":["black","white"],"door_generator_assignment":[1,0],"goal":1,"start":4,"action_noise":0.2,"location_history":"[4,3,4,3,2,3,4,5,4,3,4,5,4,5,0,1]","action_history":"[1,0,0,1,1,0,1,1,0,0,1,1,1,0,1]","door_history":"[0,1,1,0,0,1,0,0,1,1,0,0,0,1,0]","location_rts":"[512,85,47,175,302,965,180,39,78,72,276,129,427,195,808]","trial_type":"two-door-navigation","trial_index":48,"time_elapsed":1065360,"internal_node_id":"0.0-2.0-46.0"},{"group":"hexagon_bi","room_assignment":["yellow","red","purple","grey","green","blue"],"door_color_assignment":["black","white"],"door_generator_assignment":[1,0],"goal":4,"start":1,"action_noise":0.2,"location_history":"[1,2,3,2,1,0,1,0,5,4]","action_history":"[0,1,1,0,1,1,1,1,0]","door_history":"[1,0,0,1,0,0,0,0,1]","location_rts":"[479,62,344,476,311,402,335,543,100]","trial_type":"two-door-navigation","trial_index":49,"time_elapsed":1081081,"internal_node_id":"0.0-2.0-47.0"},{"group":"hexagon_bi","room_assignment":["yellow","red","purple","grey","green","blue"],"door_color_assignment":["black","white"],"door_generator_assignment":[1,0],"goal":1,"start":4,"action_noise":0.2,"location_history":"[4,5,0,5,4,3,4,3,2,3,4,3,2,3,2,1]","action_history":"[1,0,0,1,1,0,1,1,1,0,0,1,1,1,0]","door_history":"[0,1,1,0,0,1,0,0,0,1,1,0,0,0,1]","location_rts":"[732,71,289,109,43,133,352,214,568,167,524,148,37,466,33]","trial_type":"two-door-navigation","trial_index":50,"time_elapsed":1103715,"internal_node_id":"0.0-2.0-48.0"},{"group":"hexagon_bi","room_assignment":["yellow","red","purple","grey","green","blue"],"door_color_assignment":["black","white"],"door_generator_assignment":[1,0],"goal":3,"start":1,"action_noise":0.2,"location_history":"[1,0,5,4,5,4,3]","action_history":"[1,1,0,0,1,1]","door_history":"[0,0,1,1,0,0]","location_rts":"[374,51,75,94,132,20]","trial_type":"two-door-navigation","trial_index":51,"time_elapsed":1114065,"internal_node_id":"0.0-2.0-49.0"},{"group":"hexagon_bi","room_assignment":["yellow","red","purple","grey","green","blue"],"door_color_assignment":["black","white"],"door_generator_assignment":[1,0],"goal":5,"start":3,"action_noise":0.2,"location_history":"[3,2,3,2,3,4,5]","action_history":"[0,1,1,0,0,1]","door_history":"[1,0,0,1,1,0]","location_rts":"[1188,32,289,228,46,230]","trial_type":"two-door-navigation","trial_index":52,"time_elapsed":1125688,"internal_node_id":"0.0-2.0-50.0"},{"group":"hexagon_bi","room_assignment":["yellow","red","purple","grey","green","blue"],"door_color_assignment":["black","white"],"door_generator_assignment":[1,0],"goal":0,"start":5,"action_noise":0.2,"location_history":"[5,4,3,2,3,4,5,0]","action_history":"[1,0,0,1,0,1,0]","door_history":"[0,1,1,0,1,0,1]","location_rts":"[705,106,274,656,5586,32,254]","trial_type":"two-door-navigation","trial_index":53,"time_elapsed":1143925,"internal_node_id":"0.0-2.0-51.0"},{"group":"hexagon_bi","room_assignment":["yellow","red","purple","grey","green","blue"],"door_color_assignment":["black","white"],"door_generator_assignment":[1,0],"goal":2,"start":0,"action_noise":0.2,"location_history":"[0,1,0,5,0,1,0,1,2]","action_history":"[1,1,0,0,1,1,1,0]","door_history":"[0,0,1,1,0,0,0,1]","location_rts":"[433,8,39,184,405,75,115,98]","trial_type":"two-door-navigation","trial_index":54,"time_elapsed":1156934,"internal_node_id":"0.0-2.0-52.0"},{"group":"hexagon_bi","room_assignment":["yellow","red","purple","grey","green","blue"],"door_color_assignment":["black","white"],"door_generator_assignment":[1,0],"goal":1,"start":2,"action_noise":0.2,"location_history":"[2,1]","action_history":"[0]","door_history":"[1]","location_rts":"[666]","trial_type":"two-door-navigation","trial_index":55,"time_elapsed":1162120,"internal_node_id":"0.0-2.0-53.0"},{"group":"hexagon_bi","room_assignment":["yellow","red","purple","grey","green","blue"],"door_color_assignment":["black","white"],"door_generator_assignment":[1,0],"goal":2,"start":1,"action_noise":0.2,"location_history":"[1,0,5,0,1,0,1,0,1,2]","action_history":"[1,0,0,1,1,1,0,1,0]","door_history":"[0,1,1,0,0,0,1,0,1]","location_rts":"[385,47,42,12,303,251,199,317,218]","trial_type":"two-door-navigation","trial_index":56,"time_elapsed":1176551,"internal_node_id":"0.0-2.0-54.0"},{"group":"hexagon_bi","room_assignment":["yellow","red","purple","grey","green","blue"],"door_color_assignment":["black","white"],"door_generator_assignment":[1,0],"goal":5,"start":2,"action_noise":0.2,"location_history":"[2,1,0,1,2,1,2,3,4,5]","action_history":"[0,1,0,0,1,1,1,0,1]","door_history":"[1,0,1,1,0,0,0,1,0]","location_rts":"[664,30,450,256,156,128,343,278,369]","trial_type":"two-door-navigation","trial_index":57,"time_elapsed":1191890,"internal_node_id":"0.0-2.0-55.0"},{"group":"hexagon_bi","room_assignment":["yellow","red","purple","grey","green","blue"],"door_color_assignment":["black","white"],"door_generator_assignment":[1,0],"goal":4,"start":5,"action_noise":0.2,"location_history":"[5,0,5,4]","action_history":"[0,0,1]","door_history":"[1,1,0]","location_rts":"[985,8,237]","trial_type":"two-door-navigation","trial_index":58,"time_elapsed":1199676,"internal_node_id":"0.0-2.0-56.0"},{"group":"hexagon_bi","room_assignment":["yellow","red","purple","grey","green","blue"],"door_color_assignment":["black","white"],"door_generator_assignment":[1,0],"goal":3,"start":4,"action_noise":0.2,"location_history":"[4,3]","action_history":"[0]","door_history":"[1]","location_rts":"[2184]","trial_type":"two-door-navigation","trial_index":59,"time_elapsed":1206384,"internal_node_id":"0.0-2.0-57.0"},{"group":"hexagon_bi","room_assignment":["yellow","red","purple","grey","green","blue"],"door_color_assignment":["black","white"],"door_generator_assignment":[1,0],"goal":0,"start":3,"action_noise":0.2,"location_history":"[3,4,5,4,3,4,3,2,3,2,3,2,3,4,3,2,1,2,3,4,5,4,3,2,3,4,3,2,1,0]","action_history":"[0,1,1,0,0,0,1,1,1,0,1,1,0,0,1,0,0,1,0,1,1,0,1,1,0,0,0,0,1]","door_history":"[1,0,0,1,1,1,0,0,0,1,0,0,1,1,0,1,1,0,1,0,0,1,0,0,1,1,1,1,0]","location_rts":"[3293,42,44,360,67,151,44,203,276,73,206,234,386,15,342,423,349,436,1019,428,46,441,289,172,389,375,220,400,488]","trial_type":"two-door-navigation","trial_index":60,"time_elapsed":1250618,"internal_node_id":"0.0-2.0-58.0"},{"group":"hexagon_bi","room_assignment":["yellow","red","purple","grey","green","blue"],"door_color_assignment":["black","white"],"door_generator_assignment":[1,0],"goal":2,"start":0,"action_noise":0.2,"location_history":"[0,1,0,5,4,5,4,3,2]","action_history":"[1,0,0,1,1,1,0,1]","door_history":"[0,1,1,0,0,0,1,0]","location_rts":"[453,279,223,261,3,409,3482,203]","trial_type":"two-door-navigation","trial_index":61,"time_elapsed":1267577,"internal_node_id":"0.0-2.0-59.0"},{"group":"hexagon_bi","room_assignment":["yellow","red","purple","grey","green","blue"],"door_color_assignment":["black","white"],"door_generator_assignment":[1,0],"goal":1,"start":2,"action_noise":0.2,"location_history":"[2,1]","action_history":"[0]","door_history":"[1]","location_rts":"[995]","trial_type":"two-door-navigation","trial_index":62,"time_elapsed":1273090,"internal_node_id":"0.0-2.0-60.0"},{"group":"hexagon_bi","room_assignment":["yellow","red","purple","grey","green","blue"],"door_color_assignment":["black","white"],"door_generator_assignment":[1,0],"goal":0,"start":1,"action_noise":0.2,"location_history":"[1,0]","action_history":"[1]","door_history":"[0]","location_rts":"[424]","trial_type":"two-door-navigation","trial_index":63,"time_elapsed":1278038,"internal_node_id":"0.0-2.0-61.0"},{"group":"hexagon_bi","room_assignment":["yellow","red","purple","grey","green","blue"],"door_color_assignment":["black","white"],"door_generator_assignment":[1,0],"goal":3,"start":0,"action_noise":0.2,"location_history":"[0,5,0,5,4,5,4,5,0,1,0,5,0,1,0,1,0,5,0,1,0,1,0,5,4,3]","action_history":"[1,0,0,1,1,0,0,0,1,1,0,0,0,1,1,1,0,0,1,1,1,1,0,1,1]","door_history":"[0,1,1,0,0,1,1,1,0,0,1,1,1,0,0,0,1,1,0,0,0,0,1,0,0]","location_rts":"[432,8,41,178,53,377,245,290,268,188,696,31,72,366,859,715,385,571,4294,1057,731,310,368,501,187]","trial_type":"two-door-navigation","trial_index":64,"time_elapsed":1320213,"internal_node_id":"0.0-2.0-62.0"},{"group":"hexagon_bi","room_assignment":["yellow","red","purple","grey","green","blue"],"door_color_assignment":["black","white"],"door_generator_assignment":[1,0],"goal":5,"start":3,"action_noise":0.2,"location_history":"[3,4,3,2,1,0,5]","action_history":"[0,1,1,0,1,0]","door_history":"[1,0,0,1,0,1]","location_rts":"[1100,619,178,69,623,786]","trial_type":"two-door-navigation","trial_index":65,"time_elapsed":1333201,"internal_node_id":"0.0-2.0-63.0"},{"group":"hexagon_bi","room_assignment":["yellow","red","purple","grey","green","blue"],"door_color_assignment":["black","white"],"door_generator_assignment":[1,0],"goal":4,"start":5,"action_noise":0.2,"location_history":"[5,4]","action_history":"[0]","door_history":"[1]","location_rts":"[5466]","trial_type":"two-door-navigation","trial_index":66,"time_elapsed":1343186,"internal_node_id":"0.0-2.0-64.0"},{"group":"hexagon_bi","room_assignment":["yellow","red","purple","grey","green","blue"],"door_color_assignment":["black","white"],"door_generator_assignment":[1,0],"goal":1,"start":4,"action_noise":0.2,"location_history":"[4,5,0,5,0,1]","action_history":"[1,0,0,1,1]","door_history":"[0,1,1,0,0]","location_rts":"[1073,303,439,458,131]","trial_type":"two-door-navigation","trial_index":67,"time_elapsed":1354189,"internal_node_id":"0.0-2.0-65.0"},{"group":"hexagon_bi","room_assignment":["yellow","red","purple","grey","green","blue"],"door_color_assignment":["black","white"],"door_generator_assignment":[1,0],"goal":5,"start":1,"action_noise":0.2,"location_history":"[1,0,1,0,5]","action_history":"[0,1,1,0]","door_history":"[1,0,0,1]","location_rts":"[1013,4809,605,0]","trial_type":"two-door-navigation","trial_index":68,"time_elapsed":1368195,"internal_node_id":"0.0-2.0-66.0"},{"group":"hexagon_bi","room_assignment":["yellow","red","purple","grey","green","blue"],"door_color_assignment":["black","white"],"door_generator_assignment":[1,0],"goal":2,"start":5,"action_noise":0.2,"location_history":"[5,4,5,4,3,2]","action_history":"[0,1,0,1,1]","door_history":"[1,0,1,0,0]","location_rts":"[1339,4642,371,259,87]","trial_type":"two-door-navigation","trial_index":69,"time_elapsed":1383489,"internal_node_id":"0.0-2.0-67.0"},{"group":"hexagon_bi","room_assignment":["yellow","red","purple","grey","green","blue"],"door_color_assignment":["black","white"],"door_generator_assignment":[1,0],"goal":3,"start":2,"action_noise":0.2,"location_history":"[2,1,2,3]","action_history":"[0,0,1]","door_history":"[1,1,0]","location_rts":"[680,346,105]","trial_type":"two-door-navigation","trial_index":70,"time_elapsed":1391185,"internal_node_id":"0.0-2.0-68.0"},{"group":"hexagon_bi","room_assignment":["yellow","red","purple","grey","green","blue"],"door_color_assignment":["black","white"],"door_generator_assignment":[1,0],"goal":4,"start":3,"action_noise":0.2,"location_history":"[3,4]","action_history":"[0]","door_history":"[1]","location_rts":"[1194]","trial_type":"two-door-navigation","trial_index":71,"time_elapsed":1396902,"internal_node_id":"0.0-2.0-69.0"},{"group":"hexagon_bi","room_assignment":["yellow","red","purple","grey","green","blue"],"door_color_assignment":["black","white"],"door_generator_assignment":[1,0],"goal":0,"start":4,"action_noise":0.2,"location_history":"[4,5,0]","action_history":"[1,0]","door_history":"[0,1]","location_rts":"[504,555]","trial_type":"two-door-navigation","trial_index":72,"time_elapsed":1403507,"internal_node_id":"0.0-2.0-70.0"},{"group":"hexagon_bi","room_assignment":["yellow","red","purple","grey","green","blue"],"door_color_assignment":["black","white"],"door_generator_assignment":[1,0],"goal":5,"start":0,"action_noise":0.2,"location_history":"[0,1,0,5]","action_history":"[1,1,0]","door_history":"[0,0,1]","location_rts":"[444,542,329]","trial_type":"two-door-navigation","trial_index":73,"time_elapsed":1411382,"internal_node_id":"0.0-2.0-71.0"},{"group":"hexagon_bi","room_assignment":["yellow","red","purple","grey","green","blue"],"door_color_assignment":["black","white"],"door_generator_assignment":[1,0],"goal":0,"start":5,"action_noise":0.2,"location_history":"[5,4,3,4,5,0]","action_history":"[1,0,0,1,1]","door_history":"[0,1,1,0,0]","location_rts":"[393,179,353,276,230]","trial_type":"two-door-navigation","trial_index":74,"time_elapsed":1421401,"internal_node_id":"0.0-2.0-72.0"},{"group":"hexagon_bi","room_assignment":["yellow","red","purple","grey","green","blue"],"door_color_assignment":["black","white"],"door_generator_assignment":[1,0],"goal":3,"start":0,"action_noise":0.2,"location_history":"[0,1,2,3]","action_history":"[1,0,1]","door_history":"[0,1,0]","location_rts":"[2363,359,396]","trial_type":"two-door-navigation","trial_index":75,"time_elapsed":1431088,"internal_node_id":"0.0-2.0-73.0"},{"group":"hexagon_bi","room_assignment":["yellow","red","purple","grey","green","blue"],"door_color_assignment":["black","white"],"door_generator_assignment":[1,0],"goal":1,"start":3,"action_noise":0.2,"location_history":"[3,4,3,2,3,2,1]","action_history":"[0,0,1,1,1,0]","door_history":"[1,1,0,0,0,1]","location_rts":"[321,235,158,357,724,371]","trial_type":"two-door-navigation","trial_index":76,"time_elapsed":1442865,"internal_node_id":"0.0-2.0-74.0"},{"group":"hexagon_bi","room_assignment":["yellow","red","purple","grey","green","blue"],"door_color_assignment":["black","white"],"door_generator_assignment":[1,0],"goal":2,"start":1,"action_noise":0.2,"location_history":"[1,2]","action_history":"[1]","door_history":"[0]","location_rts":"[880]","trial_type":"two-door-navigation","trial_index":77,"time_elapsed":1448267,"internal_node_id":"0.0-2.0-75.0"},{"group":"hexagon_bi","room_assignment":["yellow","red","purple","grey","green","blue"],"door_color_assignment":["black","white"],"door_generator_assignment":[1,0],"goal":4,"start":2,"action_noise":0.2,"location_history":"[2,3,4]","action_history":"[0,1]","door_history":"[1,0]","location_rts":"[1623,173]","trial_type":"two-door-navigation","trial_index":78,"time_elapsed":1455597,"internal_node_id":"0.0-2.0-76.0"},{"group":"hexagon_bi","room_assignment":["yellow","red","purple","grey","green","blue"],"door_color_assignment":["black","white"],"door_generator_assignment":[1,0],"goal":3,"start":4,"action_noise":0.2,"location_history":"[4,5,4,5,0,5,4,5,0,1,0,1,0,5,4,3]","action_history":"[1,0,1,1,1,1,0,0,0,1,1,1,0,0,1]","door_history":"[0,1,0,0,0,0,1,1,1,0,0,0,1,1,0]","location_rts":"[486,824,323,252,335,820,114,192,469,145,228,80,406,54,534]","trial_type":"two-door-navigation","trial_index":79,"time_elapsed":1479625,"internal_node_id":"0.0-2.0-77.0"},{"group":"hexagon_bi","room_assignment":["yellow","red","purple","grey","green","blue"],"door_color_assignment":["black","white"],"door_generator_assignment":[1,0],"goal":0,"start":3,"action_noise":0.2,"location_history":"[3,2,1,0]","action_history":"[1,0,0]","door_history":"[0,1,1]","location_rts":"[850,276,24]","trial_type":"two-door-navigation","trial_index":80,"time_elapsed":1487331,"internal_node_id":"0.0-2.0-78.0"},{"group":"hexagon_bi","room_assignment":["yellow","red","purple","grey","green","blue"],"door_color_assignment":["black","white"],"door_generator_assignment":[1,0],"goal":4,"start":0,"action_noise":0.2,"location_history":"[0,1,2,1,2,3,2,1,2,3,4]","action_history":"[1,0,0,0,1,1,0,1,1,1]","door_history":"[0,1,1,1,0,0,1,0,0,0]","location_rts":"[481,166,292,205,596,96,208,374,102,233]","trial_type":"two-door-navigation","trial_index":81,"time_elapsed":1503774,"internal_node_id":"0.0-2.0-79.0"},{"group":"hexagon_bi","room_assignment":["yellow","red","purple","grey","green","blue"],"door_color_assignment":["black","white"],"door_generator_assignment":[1,0],"goal":5,"start":4,"action_noise":0.2,"location_history":"[4,5]","action_history":"[1]","door_history":"[0]","location_rts":"[1046]","trial_type":"two-door-navigation","trial_index":82,"time_elapsed":1509341,"internal_node_id":"0.0-2.0-80.0"},{"group":"hexagon_bi","room_assignment":["yellow","red","purple","grey","green","blue"],"door_color_assignment":["black","white"],"door_generator_assignment":[1,0],"goal":1,"start":5,"action_noise":0.2,"location_history":"[5,0,5,4,5,4,5,0,1]","action_history":"[0,0,1,1,1,0,0,1]","door_history":"[1,1,0,0,0,1,1,0]","location_rts":"[671,3,83,191,287,239,559,366]","trial_type":"two-door-navigation","trial_index":83,"time_elapsed":1523379,"internal_node_id":"0.0-2.0-81.0"},{"group":"hexagon_bi","room_assignment":["yellow","red","purple","grey","green","blue"],"door_color_assignment":["black","white"],"door_generator_assignment":[1,0],"goal":2,"start":1,"action_noise":0.2,"location_history":"[1,2]","action_history":"[0]","door_history":"[1]","location_rts":"[528]","trial_type":"two-door-navigation","trial_index":84,"time_elapsed":1528426,"internal_node_id":"0.0-2.0-82.0"},{"group":"hexagon_bi","room_assignment":["yellow","red","purple","grey","green","blue"],"door_color_assignment":["black","white"],"door_generator_assignment":[1,0],"goal":4,"start":2,"action_noise":0.2,"location_history":"[2,1,2,3,2,3,2,3,4]","action_history":"[1,0,0,1,1,1,0,1]","door_history":"[0,1,1,0,0,0,1,0]","location_rts":"[5675,882,154,249,135,46,52,134]","trial_type":"two-door-navigation","trial_index":85,"time_elapsed":1547391,"internal_node_id":"0.0-2.0-83.0"},{"group":"hexagon_bi","room_assignment":["yellow","red","purple","grey","green","blue"],"door_color_assignment":["black","white"],"door_generator_assignment":[1,0],"goal":0,"start":4,"action_noise":0.2,"location_history":"[4,5,4,5,0]","action_history":"[0,1,1,1]","door_history":"[1,0,0,0]","location_rts":"[817,1123,1183,20079]","trial_type":"two-door-navigation","trial_index":86,"time_elapsed":1578170,"internal_node_id":"0.0-2.0-84.0"},{"group":"hexagon_bi","room_assignment":["yellow","red","purple","grey","green","blue"],"door_color_assignment":["black","white"],"door_generator_assignment":[1,0],"goal":5,"start":0,"action_noise":0.2,"location_history":"[0,5]","action_history":"[0]","door_history":"[1]","location_rts":"[694]","trial_type":"two-door-navigation","trial_index":87,"time_elapsed":1583385,"internal_node_id":"0.0-2.0-85.0"},{"group":"hexagon_bi","room_assignment":["yellow","red","purple","grey","green","blue"],"door_color_assignment":["black","white"],"door_generator_assignment":[1,0],"goal":3,"start":5,"action_noise":0.2,"location_history":"[5,0,1,0,5,4,5,0,1,0,1,0,1,2,1,2,1,0,5,0,1,0,1,0,1,2,1,0,1,2,1,0,1,2,3]","action_history":"[0,1,1,0,0,1,1,0,0,1,1,0,1,1,0,1,1,0,0,0,1,1,1,0,0,0,1,1,0,0,1,1,1,1]","door_history":"[1,0,0,1,1,0,0,1,1,0,0,1,0,0,1,0,0,1,1,1,0,0,0,1,1,1,0,0,1,1,0,0,0,0]","location_rts":"[393,150,347,339,122,373,315,308,22,229,216,579,130,524,330,1216,635,786,3,165,340,117,601,255,42,68,123,104,302,77,151,205,255,536]","trial_type":"two-door-navigation","trial_index":88,"time_elapsed":1631838,"internal_node_id":"0.0-2.0-86.0"},{"group":"hexagon_bi","room_assignment":["yellow","red","purple","grey","green","blue"],"door_color_assignment":["black","white"],"door_generator_assignment":[1,0],"goal":1,"start":3,"action_noise":0.2,"location_history":"[3,2,1]","action_history":"[1,0]","door_history":"[0,1]","location_rts":"[581,18]","trial_type":"two-door-navigation","trial_index":89,"time_elapsed":1637977,"internal_node_id":"0.0-2.0-87.0"},{"group":"hexagon_bi","room_assignment":["yellow","red","purple","grey","green","blue"],"door_color_assignment":["black","white"],"door_generator_assignment":[1,0],"goal":2,"start":1,"action_noise":0.2,"location_history":"[1,2]","action_history":"[0]","door_history":"[1]","location_rts":"[922]","trial_type":"two-door-navigation","trial_index":90,"time_elapsed":1643417,"internal_node_id":"0.0-2.0-88.0"},{"group":"hexagon_bi","room_assignment":["yellow","red","purple","grey","green","blue"],"door_color_assignment":["black","white"],"door_generator_assignment":[1,0],"goal":0,"start":2,"action_noise":0.2,"location_history":"[2,1,2,1,2,1,0]","action_history":"[1,1,0,0,1,1]","door_history":"[0,0,1,1,0,0]","location_rts":"[646,232,44,27,219,41]","trial_type":"two-door-navigation","trial_index":91,"time_elapsed":1654236,"internal_node_id":"0.0-2.0-89.0"},{"group":"hexagon_bi","room_assignment":["yellow","red","purple","grey","green","blue"],"door_color_assignment":["black","white"],"door_generator_assignment":[1,0],"goal":5,"start":0,"action_noise":0.2,"location_history":"[0,5]","action_history":"[0]","door_history":"[1]","location_rts":"[845]","trial_type":"two-door-navigation","trial_index":92,"time_elapsed":1659603,"internal_node_id":"0.0-2.0-90.0"},{"group":"hexagon_bi","room_assignment":["yellow","red","purple","grey","green","blue"],"door_color_assignment":["black","white"],"door_generator_assignment":[1,0],"goal":1,"start":5,"action_noise":0.2,"location_history":"[5,0,1]","action_history":"[1,1]","door_history":"[0,0]","location_rts":"[396,642]","trial_type":"two-door-navigation","trial_index":93,"time_elapsed":1666182,"internal_node_id":"0.0-2.0-91.0"},{"group":"hexagon_bi","room_assignment":["yellow","red","purple","grey","green","blue"],"door_color_assignment":["black","white"],"door_generator_assignment":[1,0],"goal":3,"start":1,"action_noise":0.2,"location_history":"[1,0,1,0,1,2,1,0,1,0,5,0,5,0,1,0,1,2,1,0,1,0,1,2,1,0,1,2,3]","action_history":"[0,1,1,1,0,0,1,1,1,0,0,1,0,0,1,1,0,0,1,1,1,1,0,0,0,1,1,1]","door_history":"[1,0,0,0,1,1,0,0,0,1,1,0,1,1,0,0,1,1,0,0,0,0,1,1,1,0,0,0]","location_rts":"[474,106,6,809,117,80,970,15,272,31,96,82,79,100,133,197,831,65,137,130,203,6597,40,64,67,434,139,516]","trial_type":"two-door-navigation","trial_index":94,"time_elapsed":1710982,"internal_node_id":"0.0-2.0-92.0"},{"group":"hexagon_bi","room_assignment":["yellow","red","purple","grey","green","blue"],"door_color_assignment":["black","white"],"door_generator_assignment":[1,0],"goal":4,"start":3,"action_noise":0.2,"location_history":"[3,4]","action_history":"[0]","door_history":"[1]","location_rts":"[1083]","trial_type":"two-door-navigation","trial_index":95,"time_elapsed":1716588,"internal_node_id":"0.0-2.0-93.0"},{"group":"hexagon_bi","room_assignment":["yellow","red","purple","grey","green","blue"],"door_color_assignment":["black","white"],"door_generator_assignment":[1,0],"goal":2,"start":4,"action_noise":0.2,"location_history":"[4,5,4,3,4,3,2]","action_history":"[1,1,0,0,0,1]","door_history":"[0,0,1,1,1,0]","location_rts":"[489,52,320,63,107,37]","trial_type":"two-door-navigation","trial_index":96,"time_elapsed":1727266,"internal_node_id":"0.0-2.0-94.0"},{"group":"hexagon_bi","room_assignment":["yellow","red","purple","grey","green","blue"],"door_color_assignment":["black","white"],"door_generator_assignment":[1,0],"goal":4,"start":2,"action_noise":0.2,"location_history":"[2,1,2,1,0,1,0,5,0,1,0,5,4]","action_history":"[1,0,0,1,1,0,0,0,1,1,0,1]","door_history":"[0,1,1,0,0,1,1,1,0,0,1,0]","location_rts":"[529,290,33,529,35,27,301,812,206,532,424,97]","trial_type":"two-door-navigation","trial_index":97,"time_elapsed":1746804,"internal_node_id":"0.0-2.0-95.0"},{"group":"hexagon_bi","room_assignment":["yellow","red","purple","grey","green","blue"],"door_color_assignment":["black","white"],"door_generator_assignment":[1,0],"goal":0,"start":4,"action_noise":0.2,"location_history":"[4,5,0]","action_history":"[1,0]","door_history":"[0,1]","location_rts":"[591,115]","trial_type":"two-door-navigation","trial_index":98,"time_elapsed":1753045,"internal_node_id":"0.0-2.0-96.0"},{"group":"hexagon_bi","room_assignment":["yellow","red","purple","grey","green","blue"],"door_color_assignment":["black","white"],"door_generator_assignment":[1,0],"goal":5,"start":0,"action_noise":0.2,"location_history":"[0,1,0,5]","action_history":"[1,1,0]","door_history":"[0,0,1]","location_rts":"[631,538,84]","trial_type":"two-door-navigation","trial_index":99,"time_elapsed":1760849,"internal_node_id":"0.0-2.0-97.0"},{"group":"hexagon_bi","room_assignment":["yellow","red","purple","grey","green","blue"],"door_color_assignment":["black","white"],"door_generator_assignment":[1,0],"goal":1,"start":5,"action_noise":0.2,"location_history":"[5,4,5,0,5,4,5,4,5,0,5,0,5,4,5,0,1]","action_history":"[1,1,0,0,1,1,0,1,0,0,0,0,1,1,0,0]","door_history":"[0,0,1,1,0,0,1,0,1,1,1,1,0,0,1,1]","location_rts":"[579,94,395,328,105,78,237,5,660,31,90,3277,140,113,354,124]","trial_type":"two-door-navigation","trial_index":100,"time_elapsed":1787239,"internal_node_id":"0.0-2.0-98.0"},{"group":"hexagon_bi","room_assignment":["yellow","red","purple","grey","green","blue"],"door_color_assignment":["black","white"],"door_generator_assignment":[1,0],"goal":3,"start":1,"action_noise":0.2,"location_history":"[1,0,1,2,3]","action_history":"[1,1,0,1]","door_history":"[0,0,1,0]","location_rts":"[345,34,68,46]","trial_type":"two-door-navigation","trial_index":101,"time_elapsed":1795311,"internal_node_id":"0.0-2.0-99.0"},{"view_history":"[{\"page_index\":0,\"viewing_time\":1648}]","rt":1649,"trial_type":"instructions","trial_index":102,"time_elapsed":1797961,"internal_node_id":"0.0-3.0"},{"view_history":"[{\"page_index\":0,\"viewing_time\":1863},{\"page_index\":1,\"viewing_time\":15369}]","rt":17232,"trial_type":"instructions","trial_index":103,"time_elapsed":1816194,"internal_node_id":"0.0-4.0"},{"group":"hexagon_bi","fractal_assignment":["../images/gry_blk.png","../images/blu_wht.png","../images/pnk_blu.png","../images/org_blu.png","../images/ylw_slt.png","../images/cyn_red.png"],"mutagen_generator_assignment":[0,1],"goal":4,"start":0,"action_noise":0.2,"location_history":"[0,5,4]","action_history":"[0,1]","mutagen_history":"[0,1]","location_rts":"[2052,974]","trial_type":"fractal-mutation","trial_index":104,"time_elapsed":1824776,"internal_node_id":"0.0-5.0-0.0"},{"group":"hexagon_bi","fractal_assignment":["../images/gry_blk.png","../images/blu_wht.png","../images/pnk_blu.png","../images/org_blu.png","../images/ylw_slt.png","../images/cyn_red.png"],"mutagen_generator_assignment":[0,1],"goal":3,"start":4,"action_noise":0.2,"location_history":"[4,3]","action_history":"[0]","mutagen_history":"[0]","location_rts":"[453]","trial_type":"fractal-mutation","trial_index":105,"time_elapsed":1829758,"internal_node_id":"0.0-5.0-1.0"},{"group":"hexagon_bi","fractal_assignment":["../images/gry_blk.png","../images/blu_wht.png","../images/pnk_blu.png","../images/org_blu.png","../images/ylw_slt.png","../images/cyn_red.png"],"mutagen_generator_assignment":[0,1],"goal":5,"start":3,"action_noise":0.2,"location_history":"[3,4,5]","action_history":"[0,1]","mutagen_history":"[0,1]","location_rts":"[297,828]","trial_type":"fractal-mutation","trial_index":106,"time_elapsed":1836447,"internal_node_id":"0.0-5.0-2.0"},{"group":"hexagon_bi","fractal_assignment":["../images/gry_blk.png","../images/blu_wht.png","../images/pnk_blu.png","../images/org_blu.png","../images/ylw_slt.png","../images/cyn_red.png"],"mutagen_generator_assignment":[0,1],"goal":2,"start":5,"action_noise":0.2,"location_history":"[5,0,1,0,5,0,1,2]","action_history":"[0,1,1,0,0,1,0]","mutagen_history":"[0,1,1,0,0,1,0]","location_rts":"[406,915,692,278,530,611,717]","trial_type":"fractal-mutation","trial_index":107,"time_elapsed":1851275,"internal_node_id":"0.0-5.0-3.0"},{"group":"hexagon_bi","fractal_assignment":["../images/gry_blk.png","../images/blu_wht.png","../images/pnk_blu.png","../images/org_blu.png","../images/ylw_slt.png","../images/cyn_red.png"],"mutagen_generator_assignment":[0,1],"goal":1,"start":2,"action_noise":0.2,"location_history":"[2,3,2,3,4,3,4,5,0,5,0,1]","action_history":"[0,1,1,0,0,1,1,0,0,0,1]","mutagen_history":"[0,1,1,0,0,1,1,0,0,0,1]","location_rts":"[320,287,503,387,393,399,385,539,215,379,495]","trial_type":"fractal-mutation","trial_index":108,"time_elapsed":1870371,"internal_node_id":"0.0-5.0-4.0"},{"group":"hexagon_bi","fractal_assignment":["../images/gry_blk.png","../images/blu_wht.png","../images/pnk_blu.png","../images/org_blu.png","../images/ylw_slt.png","../images/cyn_red.png"],"mutagen_generator_assignment":[0,1],"goal":4,"start":1,"action_noise":0.2,"location_history":"[1,2,3,4]","action_history":"[0,1,0]","mutagen_history":"[0,1,0]","location_rts":"[259,151,432]","trial_type":"fractal-mutation","trial_index":109,"time_elapsed":1877798,"internal_node_id":"0.0-5.0-5.0"},{"group":"hexagon_bi","fractal_assignment":["../images/gry_blk.png","../images/blu_wht.png","../images/pnk_blu.png","../images/org_blu.png","../images/ylw_slt.png","../images/cyn_red.png"],"mutagen_generator_assignment":[0,1],"goal":1,"start":4,"action_noise":0.2,"location_history":"[4,5,4,5,0,5,4,5,4,3,4,5,0,1]","action_history":"[0,1,1,0,0,1,1,0,0,0,1,1,1]","mutagen_history":"[0,1,1,0,0,1,1,0,0,0,1,1,1]","location_rts":"[391,122,381,279,338,365,365,290,178,362,188,341,399]","trial_type":"fractal-mutation","trial_index":110,"time_elapsed":1898615,"internal_node_id":"0.0-5.0-6.0"},{"group":"hexagon_bi","fractal_assignment":["../images/gry_blk.png","../images/blu_wht.png","../images/pnk_blu.png","../images/org_blu.png","../images/ylw_slt.png","../images/cyn_red.png"],"mutagen_generator_assignment":[0,1],"goal":5,"start":1,"action_noise":0.2,"location_history":"[1,0,5]","action_history":"[1,0]","mutagen_history":"[1,0]","location_rts":"[519,418]","trial_type":"fractal-mutation","trial_index":111,"time_elapsed":1905102,"internal_node_id":"0.0-5.0-7.0"},{"group":"hexagon_bi","fractal_assignment":["../images/gry_blk.png","../images/blu_wht.png","../images/pnk_blu.png","../images/org_blu.png","../images/ylw_slt.png","../images/cyn_red.png"],"mutagen_generator_assignment":[0,1],"goal":0,"start":5,"action_noise":0.2,"location_history":"[5,4,3,4,3,2,1,0]","action_history":"[1,0,0,1,1,0,0]","mutagen_history":"[1,0,0,1,1,0,0]","location_rts":"[152,250,578,255,338,477,468]","trial_type":"fractal-mutation","trial_index":112,"time_elapsed":1918299,"internal_node_id":"0.0-5.0-8.0"},{"group":"hexagon_bi","fractal_assignment":["../images/gry_blk.png","../images/blu_wht.png","../images/pnk_blu.png","../images/org_blu.png","../images/ylw_slt.png","../images/cyn_red.png"],"mutagen_generator_assignment":[0,1],"goal":2,"start":0,"action_noise":0.2,"location_history":"[0,5,4,3,2]","action_history":"[1,0,0,1]","mutagen_history":"[1,0,0,1]","location_rts":"[402,254,168,296]","trial_type":"fractal-mutation","trial_index":113,"time_elapsed":1927025,"internal_node_id":"0.0-5.0-9.0"},{"group":"hexagon_bi","fractal_assignment":["../images/gry_blk.png","../images/blu_wht.png","../images/pnk_blu.png","../images/org_blu.png","../images/ylw_slt.png","../images/cyn_red.png"],"mutagen_generator_assignment":[0,1],"goal":3,"start":2,"action_noise":0.2,"location_history":"[2,1,0,1,2,1,0,1,2,1,2,3]","action_history":"[0,1,1,0,0,1,1,0,0,0,1]","mutagen_history":"[0,1,1,0,0,1,1,0,0,0,1]","location_rts":"[300,255,158,207,568,352,407,270,442,503,291]","trial_type":"fractal-mutation","trial_index":114,"time_elapsed":1945558,"internal_node_id":"0.0-5.0-10.0"},{"group":"hexagon_bi","fractal_assignment":["../images/gry_blk.png","../images/blu_wht.png","../images/pnk_blu.png","../images/org_blu.png","../images/ylw_slt.png","../images/cyn_red.png"],"mutagen_generator_assignment":[0,1],"goal":0,"start":3,"action_noise":0.2,"location_history":"[3,4,5,0]","action_history":"[0,1,1]","mutagen_history":"[0,1,1]","location_rts":"[361,194,293]","trial_type":"fractal-mutation","trial_index":115,"time_elapsed":1952985,"internal_node_id":"0.0-5.0-11.0"},{"group":"hexagon_bi","fractal_assignment":["../images/gry_blk.png","../images/blu_wht.png","../images/pnk_blu.png","../images/org_blu.png","../images/ylw_slt.png","../images/cyn_red.png"],"mutagen_generator_assignment":[0,1],"goal":2,"start":0,"action_noise":0.2,"location_history":"[0,1,0,5,0,1,0,1,0,5,4,3,2]","action_history":"[1,1,0,0,1,0,1,1,0,0,1,1]","mutagen_history":"[1,1,0,0,1,0,1,1,0,0,1,1]","location_rts":"[325,289,404,330,392,227,668,207,195,395,331,440]","trial_type":"fractal-mutation","trial_index":116,"time_elapsed":1972999,"internal_node_id":"0.0-5.0-12.0"},{"group":"hexagon_bi","fractal_assignment":["../images/gry_blk.png","../images/blu_wht.png","../images/pnk_blu.png","../images/org_blu.png","../images/ylw_slt.png","../images/cyn_red.png"],"mutagen_generator_assignment":[0,1],"goal":5,"start":2,"action_noise":0.2,"location_history":"[2,1,0,1,2,1,2,3,4,3,2,3,2,3,2,1,0,5]","action_history":"[0,1,1,0,0,0,1,1,1,0,0,1,1,1,0,0,1]","mutagen_history":"[0,1,1,0,0,0,1,1,1,0,0,1,1,1,0,0,1]","location_rts":"[493,168,199,445,480,353,107,351,442,70,447,120,332,132,174,379,564]","trial_type":"fractal-mutation","trial_index":117,"time_elapsed":1999178,"internal_node_id":"0.0-5.0-13.0"},{"group":"hexagon_bi","fractal_assignment":["../images/gry_blk.png","../images/blu_wht.png","../images/pnk_blu.png","../images/org_blu.png","../images/ylw_slt.png","../images/cyn_red.png"],"mutagen_generator_assignment":[0,1],"goal":4,"start":5,"action_noise":0.2,"location_history":"[5,0,5,4]","action_history":"[0,1,1]","mutagen_history":"[0,1,1]","location_rts":"[357,68,222]","trial_type":"fractal-mutation","trial_index":118,"time_elapsed":2006392,"internal_node_id":"0.0-5.0-14.0"},{"group":"hexagon_bi","fractal_assignment":["../images/gry_blk.png","../images/blu_wht.png","../images/pnk_blu.png","../images/org_blu.png","../images/ylw_slt.png","../images/cyn_red.png"],"mutagen_generator_assignment":[0,1],"goal":3,"start":4,"action_noise":0.2,"location_history":"[4,5,0,5,0,1,0,5,0,5,0,5,0,1,2,3]","action_history":"[1,0,0,1,1,0,0,1,1,0,0,1,1,0,1]","mutagen_history":"[1,0,0,1,1,0,0,1,1,0,0,1,1,0,1]","location_rts":"[389,222,175,191,262,135,318,330,382,762,293,98,345,735,833]","trial_type":"fractal-mutation","trial_index":119,"time_elapsed":2030743,"internal_node_id":"0.0-5.0-15.0"},{"group":"hexagon_bi","fractal_assignment":["../images/gry_blk.png","../images/blu_wht.png","../images/pnk_blu.png","../images/org_blu.png","../images/ylw_slt.png","../images/cyn_red.png"],"mutagen_generator_assignment":[0,1],"goal":1,"start":3,"action_noise":0.2,"location_history":"[3,4,3,2,1]","action_history":"[0,1,1,0]","mutagen_history":"[0,1,1,0]","location_rts":"[247,171,290,60]","trial_type":"fractal-mutation","trial_index":120,"time_elapsed":2039107,"internal_node_id":"0.0-5.0-16.0"},{"group":"hexagon_bi","fractal_assignment":["../images/gry_blk.png","../images/blu_wht.png","../images/pnk_blu.png","../images/org_blu.png","../images/ylw_slt.png","../images/cyn_red.png"],"mutagen_generator_assignment":[0,1],"goal":5,"start":1,"action_noise":0.2,"location_history":"[1,2,3,4,3,2,3,4,3,2,3,4,3,4,5]","action_history":"[0,1,1,0,1,1,0,0,1,1,0,0,0,1]","mutagen_history":"[0,1,1,0,1,1,0,0,1,1,0,0,0,1]","location_rts":"[100,56,516,330,399,355,246,168,394,556,467,330,162,97]","trial_type":"fractal-mutation","trial_index":121,"time_elapsed":2061110,"internal_node_id":"0.0-5.0-17.0"},{"group":"hexagon_bi","fractal_assignment":["../images/gry_blk.png","../images/blu_wht.png","../images/pnk_blu.png","../images/org_blu.png","../images/ylw_slt.png","../images/cyn_red.png"],"mutagen_generator_assignment":[0,1],"goal":4,"start":5,"action_noise":0.2,"location_history":"[5,0,1,0,5,0,1,0,5,0,5,4]","action_history":"[0,1,1,0,0,1,1,0,0,0,1]","mutagen_history":"[0,1,1,0,0,1,1,0,0,0,1]","location_rts":"[248,76,488,380,345,131,681,245,355,180,221]","trial_type":"fractal-mutation","trial_index":122,"time_elapsed":2079208,"internal_node_id":"0.0-5.0-18.0"},{"group":"hexagon_bi","fractal_assignment":["../images/gry_blk.png","../images/blu_wht.png","../images/pnk_blu.png","../images/org_blu.png","../images/ylw_slt.png","../images/cyn_red.png"],"mutagen_generator_assignment":[0,1],"goal":0,"start":4,"action_noise":0.2,"location_history":"[4,3,4,5,0]","action_history":"[0,1,1,0]","mutagen_history":"[0,1,1,0]","location_rts":"[301,153,377,254]","trial_type":"fractal-mutation","trial_index":123,"time_elapsed":2087888,"internal_node_id":"0.0-5.0-19.0"},{"group":"hexagon_bi","fractal_assignment":["../images/gry_blk.png","../images/blu_wht.png","../images/pnk_blu.png","../images/org_blu.png","../images/ylw_slt.png","../images/cyn_red.png"],"mutagen_generator_assignment":[0,1],"goal":1,"start":0,"action_noise":0.2,"location_history":"[0,5,4,5,0,1]","action_history":"[1,1,0,0,1]","mutagen_history":"[1,1,0,0,1]","location_rts":"[1150,482,8,226,150]","trial_type":"fractal-mutation","trial_index":124,"time_elapsed":2098526,"internal_node_id":"0.0-5.0-20.0"},{"group":"hexagon_bi","fractal_assignment":["../images/gry_blk.png","../images/blu_wht.png","../images/pnk_blu.png","../images/org_blu.png","../images/ylw_slt.png","../images/cyn_red.png"],"mutagen_generator_assignment":[0,1],"goal":3,"start":1,"action_noise":0.2,"location_history":"[1,2,3]","action_history":"[0,0]","mutagen_history":"[0,0]","location_rts":"[561,218]","trial_type":"fractal-mutation","trial_index":125,"time_elapsed":2104857,"internal_node_id":"0.0-5.0-21.0"},{"group":"hexagon_bi","fractal_assignment":["../images/gry_blk.png","../images/blu_wht.png","../images/pnk_blu.png","../images/org_blu.png","../images/ylw_slt.png","../images/cyn_red.png"],"mutagen_generator_assignment":[0,1],"goal":2,"start":3,"action_noise":0.2,"location_history":"[3,4,5,4,3,4,5,0,1,0,1,2]","action_history":"[0,1,1,0,0,1,1,0,1,1,0]","mutagen_history":"[0,1,1,0,0,1,1,0,1,1,0]","location_rts":"[445,54,272,275,346,136,169,337,205,339,428]","trial_type":"fractal-mutation","trial_index":126,"time_elapsed":2122628,"internal_node_id":"0.0-5.0-22.0"},{"group":"hexagon_bi","fractal_assignment":["../images/gry_blk.png","../images/blu_wht.png","../images/pnk_blu.png","../images/org_blu.png","../images/ylw_slt.png","../images/cyn_red.png"],"mutagen_generator_assignment":[0,1],"goal":0,"start":2,"action_noise":0.2,"location_history":"[2,1,0]","action_history":"[0,1]","mutagen_history":"[0,1]","location_rts":"[635,175]","trial_type":"fractal-mutation","trial_index":127,"time_elapsed":2128996,"internal_node_id":"0.0-5.0-23.0"},{"group":"hexagon_bi","fractal_assignment":["../images/gry_blk.png","../images/blu_wht.png","../images/pnk_blu.png","../images/org_blu.png","../images/ylw_slt.png","../images/cyn_red.png"],"mutagen_generator_assignment":[0,1],"goal":3,"start":0,"action_noise":0.2,"location_history":"[0,5,4,5,0,5,4,5,4,3]","action_history":"[0,1,1,0,0,1,1,0,0]","mutagen_history":"[0,1,1,0,0,1,1,0,0]","location_rts":"[1658,1338,293,529,233,203,358,370,327]","trial_type":"fractal-mutation","trial_index":128,"time_elapsed":2147034,"internal_node_id":"0.0-5.0-24.0"},{"group":"hexagon_bi","fractal_assignment":["../images/gry_blk.png","../images/blu_wht.png","../images/pnk_blu.png","../images/org_blu.png","../images/ylw_slt.png","../images/cyn_red.png"],"mutagen_generator_assignment":[0,1],"goal":1,"start":3,"action_noise":0.2,"location_history":"[3,4,3,4,3,2,3,4,3,2,3,4,3,2,3,2,1]","action_history":"[0,1,0,0,1,1,0,0,1,1,0,0,1,1,0,0]","mutagen_history":"[0,1,0,0,1,1,0,0,1,1,0,0,1,1,0,0]","location_rts":"[1275,587,303,12,116,288,241,187,1073,798,348,425,156,913,311,169]","trial_type":"fractal-mutation","trial_index":129,"time_elapsed":2174120,"internal_node_id":"0.0-5.0-25.0"},{"group":"hexagon_bi","fractal_assignment":["../images/gry_blk.png","../images/blu_wht.png","../images/pnk_blu.png","../images/org_blu.png","../images/ylw_slt.png","../images/cyn_red.png"],"mutagen_generator_assignment":[0,1],"goal":2,"start":1,"action_noise":0.2,"location_history":"[1,2]","action_history":"[0]","mutagen_history":"[0]","location_rts":"[301]","trial_type":"fractal-mutation","trial_index":130,"time_elapsed":2178946,"internal_node_id":"0.0-5.0-26.0"},{"group":"hexagon_bi","fractal_assignment":["../images/gry_blk.png","../images/blu_wht.png","../images/pnk_blu.png","../images/org_blu.png","../images/ylw_slt.png","../images/cyn_red.png"],"mutagen_generator_assignment":[0,1],"goal":5,"start":2,"action_noise":0.2,"location_history":"[2,3,4,5]","action_history":"[1,1,1]","mutagen_history":"[1,1,1]","location_rts":"[604,241,488]","trial_type":"fractal-mutation","trial_index":131,"time_elapsed":2186857,"internal_node_id":"0.0-5.0-27.0"},{"group":"hexagon_bi","fractal_assignment":["../images/gry_blk.png","../images/blu_wht.png","../images/pnk_blu.png","../images/org_blu.png","../images/ylw_slt.png","../images/cyn_red.png"],"mutagen_generator_assignment":[0,1],"goal":4,"start":5,"action_noise":0.2,"location_history":"[5,0,1,0,5,0,1,0,1,2,1,2,1,0,5,0,1,0,5,0,1,0,1,0,1,0,5,0,5,0,5,0,5,4]","action_history":"[0,1,1,0,0,1,1,1,0,0,0,1,1,0,0,1,1,0,0,0,1,1,1,1,1,0,0,0,0,1,0,0,1]","mutagen_history":"[0,1,1,0,0,1,1,1,0,0,0,1,1,0,0,1,1,0,0,0,1,1,1,1,1,0,0,0,0,1,0,0,1]","location_rts":"[1109,89,249,58,235,310,288,274,409,381,453,73,488,388,416,468,146,117,90,224,155,156,137,399,254,96,152,494,179,200,415,333,357]","trial_type":"fractal-mutation","trial_index":132,"time_elapsed":2233689,"internal_node_id":"0.0-5.0-28.0"},{"group":"hexagon_bi","fractal_assignment":["../images/gry_blk.png","../images/blu_wht.png","../images/pnk_blu.png","../images/org_blu.png","../images/ylw_slt.png","../images/cyn_red.png"],"mutagen_generator_assignment":[0,1],"goal":5,"start":4,"action_noise":0.2,"location_history":"[4,3,4,3,2,3,4,5]","action_history":"[0,1,1,0,1,1,1]","mutagen_history":"[0,1,1,0,1,1,1]","location_rts":"[278,78,329,231,448,262,417]","trial_type":"fractal-mutation","trial_index":133,"time_elapsed":2246400,"internal_node_id":"0.0-5.0-29.0"},{"group":"hexagon_bi","fractal_assignment":["../images/gry_blk.png","../images/blu_wht.png","../images/pnk_blu.png","../images/org_blu.png","../images/ylw_slt.png","../images/cyn_red.png"],"mutagen_generator_assignment":[0,1],"goal":3,"start":5,"action_noise":0.2,"location_history":"[5,4,3]","action_history":"[1,0]","mutagen_history":"[1,0]","location_rts":"[416,126]","trial_type":"fractal-mutation","trial_index":134,"time_elapsed":2252502,"internal_node_id":"0.0-5.0-30.0"},{"group":"hexagon_bi","fractal_assignment":["../images/gry_blk.png","../images/blu_wht.png","../images/pnk_blu.png","../images/org_blu.png","../images/ylw_slt.png","../images/cyn_red.png"],"mutagen_generator_assignment":[0,1],"goal":0,"start":3,"action_noise":0.2,"location_history":"[3,4,5,0]","action_history":"[0,1,0]","mutagen_history":"[0,1,0]","location_rts":"[359,264,235]","trial_type":"fractal-mutation","trial_index":135,"time_elapsed":2259928,"internal_node_id":"0.0-5.0-31.0"},{"group":"hexagon_bi","fractal_assignment":["../images/gry_blk.png","../images/blu_wht.png","../images/pnk_blu.png","../images/org_blu.png","../images/ylw_slt.png","../images/cyn_red.png"],"mutagen_generator_assignment":[0,1],"goal":4,"start":0,"action_noise":0.2,"location_history":"[0,5,0,5,0,5,4]","action_history":"[1,0,0,0,1,1]","mutagen_history":"[1,0,0,0,1,1]","location_rts":"[421,198,171,155,165,238]","trial_type":"fractal-mutation","trial_index":136,"time_elapsed":2270919,"internal_node_id":"0.0-5.0-32.0"},{"group":"hexagon_bi","fractal_assignment":["../images/gry_blk.png","../images/blu_wht.png","../images/pnk_blu.png","../images/org_blu.png","../images/ylw_slt.png","../images/cyn_red.png"],"mutagen_generator_assignment":[0,1],"goal":1,"start":4,"action_noise":0.2,"location_history":"[4,3,4,5,4,3,4,5,4,5,0,1]","action_history":"[0,0,1,1,0,0,1,1,0,0,1]","mutagen_history":"[0,0,1,1,0,0,1,1,0,0,1]","location_rts":"[344,279,84,163,61,243,3,215,4,43,459]","trial_type":"fractal-mutation","trial_index":137,"time_elapsed":2287573,"internal_node_id":"0.0-5.0-33.0"},{"group":"hexagon_bi","fractal_assignment":["../images/gry_blk.png","../images/blu_wht.png","../images/pnk_blu.png","../images/org_blu.png","../images/ylw_slt.png","../images/cyn_red.png"],"mutagen_generator_assignment":[0,1],"goal":2,"start":1,"action_noise":0.2,"location_history":"[1,0,5,0,5,4,5,0,5,0,1,0,5,0,1,2]","action_history":"[1,0,0,1,1,0,0,0,0,1,1,1,0,0,0]","mutagen_history":"[1,0,0,1,1,0,0,0,0,1,1,1,0,0,0]","location_rts":"[723,140,82,313,280,448,233,326,171,233,558,480,127,543,354]","trial_type":"fractal-mutation","trial_index":138,"time_elapsed":2311463,"internal_node_id":"0.0-5.0-34.0"},{"group":"hexagon_bi","fractal_assignment":["../images/gry_blk.png","../images/blu_wht.png","../images/pnk_blu.png","../images/org_blu.png","../images/ylw_slt.png","../images/cyn_red.png"],"mutagen_generator_assignment":[0,1],"goal":0,"start":2,"action_noise":0.2,"location_history":"[2,3,4,3,4,5,4,5,0]","action_history":"[1,0,0,0,1,1,0,0]","mutagen_history":"[1,0,0,0,1,1,0,0]","location_rts":"[384,278,19,160,201,384,152,178]","trial_type":"fractal-mutation","trial_index":139,"time_elapsed":2324911,"internal_node_id":"0.0-5.0-35.0"},{"group":"hexagon_bi","fractal_assignment":["../images/gry_blk.png","../images/blu_wht.png","../images/pnk_blu.png","../images/org_blu.png","../images/ylw_slt.png","../images/cyn_red.png"],"mutagen_generator_assignment":[0,1],"goal":5,"start":0,"action_noise":0.2,"location_history":"[0,1,0,5]","action_history":"[1,1,0]","mutagen_history":"[1,1,0]","location_rts":"[392,246,194]","trial_type":"fractal-mutation","trial_index":140,"time_elapsed":2332317,"internal_node_id":"0.0-5.0-36.0"},{"group":"hexagon_bi","fractal_assignment":["../images/gry_blk.png","../images/blu_wht.png","../images/pnk_blu.png","../images/org_blu.png","../images/ylw_slt.png","../images/cyn_red.png"],"mutagen_generator_assignment":[0,1],"goal":2,"start":5,"action_noise":0.2,"location_history":"[5,4,5,4,3,2]","action_history":"[0,1,1,0,0]","mutagen_history":"[0,1,1,0,0]","location_rts":"[515,89,24,269,33]","trial_type":"fractal-mutation","trial_index":141,"time_elapsed":2341867,"internal_node_id":"0.0-5.0-37.0"},{"group":"hexagon_bi","fractal_assignment":["../images/gry_blk.png","../images/blu_wht.png","../images/pnk_blu.png","../images/org_blu.png","../images/ylw_slt.png","../images/cyn_red.png"],"mutagen_generator_assignment":[0,1],"goal":1,"start":2,"action_noise":0.2,"location_history":"[2,3,4,3,4,3,4,3,4,5,4,3,2,3,2,1]","action_history":"[1,0,0,0,1,1,0,0,0,1,1,1,1,0,0]","mutagen_history":"[1,0,0,0,1,1,0,0,0,1,1,1,1,0,0]","location_rts":"[292,102,81,265,126,86,85,124,482,64,176,186,301,616,59]","trial_type":"fractal-mutation","trial_index":142,"time_elapsed":2363781,"internal_node_id":"0.0-5.0-38.0"},{"group":"hexagon_bi","fractal_assignment":["../images/gry_blk.png","../images/blu_wht.png","../images/pnk_blu.png","../images/org_blu.png","../images/ylw_slt.png","../images/cyn_red.png"],"mutagen_generator_assignment":[0,1],"goal":4,"start":1,"action_noise":0.2,"location_history":"[1,0,5,0,5,4]","action_history":"[1,0,0,0,1]","mutagen_history":"[1,0,0,0,1]","location_rts":"[666,79,141,253,503]","trial_type":"fractal-mutation","trial_index":143,"time_elapsed":2374040,"internal_node_id":"0.0-5.0-39.0"},{"group":"hexagon_bi","fractal_assignment":["../images/gry_blk.png","../images/blu_wht.png","../images/pnk_blu.png","../images/org_blu.png","../images/ylw_slt.png","../images/cyn_red.png"],"mutagen_generator_assignment":[0,1],"goal":3,"start":4,"action_noise":0.2,"location_history":"[4,3]","action_history":"[0]","mutagen_history":"[0]","location_rts":"[293]","trial_type":"fractal-mutation","trial_index":144,"time_elapsed":2378856,"internal_node_id":"0.0-5.0-40.0"},{"group":"hexagon_bi","fractal_assignment":["../images/gry_blk.png","../images/blu_wht.png","../images/pnk_blu.png","../images/org_blu.png","../images/ylw_slt.png","../images/cyn_red.png"],"mutagen_generator_assignment":[0,1],"goal":5,"start":3,"action_noise":0.2,"location_history":"[3,4,5]","action_history":"[0,1]","mutagen_history":"[0,1]","location_rts":"[295,111]","trial_type":"fractal-mutation","trial_index":145,"time_elapsed":2384812,"internal_node_id":"0.0-5.0-41.0"},{"group":"hexagon_bi","fractal_assignment":["../images/gry_blk.png","../images/blu_wht.png","../images/pnk_blu.png","../images/org_blu.png","../images/ylw_slt.png","../images/cyn_red.png"],"mutagen_generator_assignment":[0,1],"goal":3,"start":5,"action_noise":0.2,"location_history":"[5,0,5,4,3]","action_history":"[1,0,1,0]","mutagen_history":"[1,0,1,0]","location_rts":"[530,123,8552,111]","trial_type":"fractal-mutation","trial_index":146,"time_elapsed":2401757,"internal_node_id":"0.0-5.0-42.0"},{"group":"hexagon_bi","fractal_assignment":["../images/gry_blk.png","../images/blu_wht.png","../images/pnk_blu.png","../images/org_blu.png","../images/ylw_slt.png","../images/cyn_red.png"],"mutagen_generator_assignment":[0,1],"goal":0,"start":3,"action_noise":0.2,"location_history":"[3,2,1,0]","action_history":"[1,0,0]","mutagen_history":"[1,0,0]","location_rts":"[321,83,224]","trial_type":"fractal-mutation","trial_index":147,"time_elapsed":2408965,"internal_node_id":"0.0-5.0-43.0"},{"group":"hexagon_bi","fractal_assignment":["../images/gry_blk.png","../images/blu_wht.png","../images/pnk_blu.png","../images/org_blu.png","../images/ylw_slt.png","../images/cyn_red.png"],"mutagen_generator_assignment":[0,1],"goal":2,"start":0,"action_noise":0.2,"location_history":"[0,1,2]","action_history":"[1,0]","mutagen_history":"[1,0]","location_rts":"[371,48]","trial_type":"fractal-mutation","trial_index":148,"time_elapsed":2414933,"internal_node_id":"0.0-5.0-44.0"},{"group":"hexagon_bi","fractal_assignment":["../images/gry_blk.png","../images/blu_wht.png","../images/pnk_blu.png","../images/org_blu.png","../images/ylw_slt.png","../images/cyn_red.png"],"mutagen_generator_assignment":[0,1],"goal":4,"start":2,"action_noise":0.2,"location_history":"[2,3,4]","action_history":"[1,0]","mutagen_history":"[1,0]","location_rts":"[425,86]","trial_type":"fractal-mutation","trial_index":149,"time_elapsed":2420999,"internal_node_id":"0.0-5.0-45.0"},{"group":"hexagon_bi","fractal_assignment":["../images/gry_blk.png","../images/blu_wht.png","../images/pnk_blu.png","../images/org_blu.png","../images/ylw_slt.png","../images/cyn_red.png"],"mutagen_generator_assignment":[0,1],"goal":1,"start":4,"action_noise":0.2,"location_history":"[4,5,0,5,0,1]","action_history":"[1,1,0,0,1]","mutagen_history":"[1,1,0,0,1]","location_rts":"[281,258,27,114,177]","trial_type":"fractal-mutation","trial_index":150,"time_elapsed":2430488,"internal_node_id":"0.0-5.0-46.0"},{"group":"hexagon_bi","fractal_assignment":["../images/gry_blk.png","../images/blu_wht.png","../images/pnk_blu.png","../images/org_blu.png","../images/ylw_slt.png","../images/cyn_red.png"],"mutagen_generator_assignment":[0,1],"goal":4,"start":1,"action_noise":0.2,"location_history":"[1,2,1,0,5,4]","action_history":"[1,0,0,1,1]","mutagen_history":"[1,0,0,1,1]","location_rts":"[974,443,84,266,166]","trial_type":"fractal-mutation","trial_index":151,"time_elapsed":2441047,"internal_node_id":"0.0-5.0-47.0"},{"group":"hexagon_bi","fractal_assignment":["../images/gry_blk.png","../images/blu_wht.png","../images/pnk_blu.png","../images/org_blu.png","../images/ylw_slt.png","../images/cyn_red.png"],"mutagen_generator_assignment":[0,1],"goal":1,"start":4,"action_noise":0.2,"location_history":"[4,5,4,5,0,5,4,5,4,5,4,5,4,5,0,5,4,3,4,5,4,3,4,3,2,3,2,3,4,3,4,5,4,5,0,5,4,3,2,1]","action_history":"[0,1,1,0,0,1,1,0,0,0,1,1,1,0,0,1,0,0,1,0,0,1,1,1,1,0,1,0,0,0,1,1,1,0,0,1,1,1,0]","mutagen_history":"[0,1,1,0,0,1,1,0,0,0,1,1,1,0,0,1,0,0,1,0,0,1,1,1,1,0,1,0,0,0,1,1,1,0,0,1,1,1,0]","location_rts":"[849,392,136,68,320,153,184,41,258,387,210,274,330,281,151,430,338,324,478,127,98,46,225,351,485,418,128,96,233,94,201,100,54,189,185,29,30,309,416]","trial_type":"fractal-mutation","trial_index":152,"time_elapsed":2493940,"internal_node_id":"0.0-5.0-48.0"},{"group":"hexagon_bi","fractal_assignment":["../images/gry_blk.png","../images/blu_wht.png","../images/pnk_blu.png","../images/org_blu.png","../images/ylw_slt.png","../images/cyn_red.png"],"mutagen_generator_assignment":[0,1],"goal":3,"start":1,"action_noise":0.2,"location_history":"[1,2,3]","action_history":"[0,1]","mutagen_history":"[0,1]","location_rts":"[297,154]","trial_type":"fractal-mutation","trial_index":153,"time_elapsed":2499944,"internal_node_id":"0.0-5.0-49.0"},{"group":"hexagon_bi","fractal_assignment":["../images/gry_blk.png","../images/blu_wht.png","../images/pnk_blu.png","../images/org_blu.png","../images/ylw_slt.png","../images/cyn_red.png"],"mutagen_generator_assignment":[0,1],"goal":5,"start":3,"action_noise":0.2,"location_history":"[3,4,3,4,5]","action_history":"[0,1,1,1]","mutagen_history":"[0,1,1,1]","location_rts":"[285,159,311,450]","trial_type":"fractal-mutation","trial_index":154,"time_elapsed":2508762,"internal_node_id":"0.0-5.0-50.0"},{"group":"hexagon_bi","fractal_assignment":["../images/gry_blk.png","../images/blu_wht.png","../images/pnk_blu.png","../images/org_blu.png","../images/ylw_slt.png","../images/cyn_red.png"],"mutagen_generator_assignment":[0,1],"goal":0,"start":5,"action_noise":0.2,"location_history":"[5,0]","action_history":"[0]","mutagen_history":"[0]","location_rts":"[565]","trial_type":"fractal-mutation","trial_index":155,"time_elapsed":2513854,"internal_node_id":"0.0-5.0-51.0"},{"group":"hexagon_bi","fractal_assignment":["../images/gry_blk.png","../images/blu_wht.png","../images/pnk_blu.png","../images/org_blu.png","../images/ylw_slt.png","../images/cyn_red.png"],"mutagen_generator_assignment":[0,1],"goal":2,"start":0,"action_noise":0.2,"location_history":"[0,1,2]","action_history":"[0,1]","mutagen_history":"[0,1]","location_rts":"[40,49]","trial_type":"fractal-mutation","trial_index":156,"time_elapsed":2519492,"internal_node_id":"0.0-5.0-52.0"},{"group":"hexagon_bi","fractal_assignment":["../images/gry_blk.png","../images/blu_wht.png","../images/pnk_blu.png","../images/org_blu.png","../images/ylw_slt.png","../images/cyn_red.png"],"mutagen_generator_assignment":[0,1],"goal":1,"start":2,"action_noise":0.2,"location_history":"[2,1]","action_history":"[0]","mutagen_history":"[0]","location_rts":"[314]","trial_type":"fractal-mutation","trial_index":157,"time_elapsed":2524330,"internal_node_id":"0.0-5.0-53.0"},{"group":"hexagon_bi","fractal_assignment":["../images/gry_blk.png","../images/blu_wht.png","../images/pnk_blu.png","../images/org_blu.png","../images/ylw_slt.png","../images/cyn_red.png"],"mutagen_generator_assignment":[0,1],"goal":2,"start":1,"action_noise":0.2,"location_history":"[1,2]","action_history":"[0]","mutagen_history":"[0]","location_rts":"[605]","trial_type":"fractal-mutation","trial_index":158,"time_elapsed":2529460,"internal_node_id":"0.0-5.0-54.0"},{"group":"hexagon_bi","fractal_assignment":["../images/gry_blk.png","../images/blu_wht.png","../images/pnk_blu.png","../images/org_blu.png","../images/ylw_slt.png","../images/cyn_red.png"],"mutagen_generator_assignment":[0,1],"goal":5,"start":2,"action_noise":0.2,"location_history":"[2,3,2,3,2,3,4,5]","action_history":"[0,1,1,1,1,0,1]","mutagen_history":"[0,1,1,1,1,0,1]","location_rts":"[579,109,219,437,872,97,176]","trial_type":"fractal-mutation","trial_index":159,"time_elapsed":2542628,"internal_node_id":"0.0-5.0-55.0"},{"group":"hexagon_bi","fractal_assignment":["../images/gry_blk.png","../images/blu_wht.png","../images/pnk_blu.png","../images/org_blu.png","../images/ylw_slt.png","../images/cyn_red.png"],"mutagen_generator_assignment":[0,1],"goal":4,"start":5,"action_noise":0.2,"location_history":"[5,4]","action_history":"[1]","mutagen_history":"[1]","location_rts":"[747]","trial_type":"fractal-mutation","trial_index":160,"time_elapsed":2547901,"internal_node_id":"0.0-5.0-56.0"},{"group":"hexagon_bi","fractal_assignment":["../images/gry_blk.png","../images/blu_wht.png","../images/pnk_blu.png","../images/org_blu.png","../images/ylw_slt.png","../images/cyn_red.png"],"mutagen_generator_assignment":[0,1],"goal":3,"start":4,"action_noise":0.2,"location_history":"[4,5,0,1,2,1,2,3]","action_history":"[1,0,0,0,0,0,1]","mutagen_history":"[1,0,0,0,0,0,1]","location_rts":"[531,193,266,398,526,588,341]","trial_type":"fractal-mutation","trial_index":161,"time_elapsed":2561434,"internal_node_id":"0.0-5.0-57.0"},{"group":"hexagon_bi","fractal_assignment":["../images/gry_blk.png","../images/blu_wht.png","../images/pnk_blu.png","../images/org_blu.png","../images/ylw_slt.png","../images/cyn_red.png"],"mutagen_generator_assignment":[0,1],"goal":0,"start":3,"action_noise":0.2,"location_history":"[3,4,3,4,3,4,5,0]","action_history":"[0,0,0,1,0,0,0]","mutagen_history":"[0,0,0,1,0,0,0]","location_rts":"[523,361,359,138,526,436,539]","trial_type":"fractal-mutation","trial_index":162,"time_elapsed":2574982,"internal_node_id":"0.0-5.0-58.0"},{"group":"hexagon_bi","fractal_assignment":["../images/gry_blk.png","../images/blu_wht.png","../images/pnk_blu.png","../images/org_blu.png","../images/ylw_slt.png","../images/cyn_red.png"],"mutagen_generator_assignment":[0,1],"goal":2,"start":0,"action_noise":0.2,"location_history":"[0,5,0,5,0,5,0,1,0,1,2]","action_history":"[1,1,1,0,0,1,1,1,1,0]","mutagen_history":"[1,1,1,0,0,1,1,1,1,0]","location_rts":"[666,405,557,107,363,536,412,212,706,434]","trial_type":"fractal-mutation","trial_index":163,"time_elapsed":2593141,"internal_node_id":"0.0-5.0-59.0"},{"group":"hexagon_bi","fractal_assignment":["../images/gry_blk.png","../images/blu_wht.png","../images/pnk_blu.png","../images/org_blu.png","../images/ylw_slt.png","../images/cyn_red.png"],"mutagen_generator_assignment":[0,1],"goal":1,"start":2,"action_noise":0.2,"location_history":"[2,1]","action_history":"[0]","mutagen_history":"[0]","location_rts":"[435]","trial_type":"fractal-mutation","trial_index":164,"time_elapsed":2598103,"internal_node_id":"0.0-5.0-60.0"},{"group":"hexagon_bi","fractal_assignment":["../images/gry_blk.png","../images/blu_wht.png","../images/pnk_blu.png","../images/org_blu.png","../images/ylw_slt.png","../images/cyn_red.png"],"mutagen_generator_assignment":[0,1],"goal":0,"start":1,"action_noise":0.2,"location_history":"[1,0]","action_history":"[1]","mutagen_history":"[1]","location_rts":"[567]","trial_type":"fractal-mutation","trial_index":165,"time_elapsed":2603202,"internal_node_id":"0.0-5.0-61.0"},{"group":"hexagon_bi","fractal_assignment":["../images/gry_blk.png","../images/blu_wht.png","../images/pnk_blu.png","../images/org_blu.png","../images/ylw_slt.png","../images/cyn_red.png"],"mutagen_generator_assignment":[0,1],"goal":3,"start":0,"action_noise":0.2,"location_history":"[0,5,4,5,0,5,0,5,0,1,0,5,0,1,0,1,0,5,0,5,4,3]","action_history":"[0,1,1,0,0,0,0,0,1,1,0,0,0,1,1,1,0,0,1,1,0]","mutagen_history":"[0,1,1,0,0,0,0,0,1,1,0,0,0,1,1,1,0,0,1,1,0]","location_rts":"[439,736,364,617,131,324,390,146,201,466,134,179,427,222,418,546,132,410,1058,677,555]","trial_type":"fractal-mutation","trial_index":166,"time_elapsed":2636807,"internal_node_id":"0.0-5.0-62.0"},{"group":"hexagon_bi","fractal_assignment":["../images/gry_blk.png","../images/blu_wht.png","../images/pnk_blu.png","../images/org_blu.png","../images/ylw_slt.png","../images/cyn_red.png"],"mutagen_generator_assignment":[0,1],"goal":5,"start":3,"action_noise":0.2,"location_history":"[3,2,1,2,3,4,3,2,1,2,1,0,5]","action_history":"[1,0,0,1,0,0,1,1,0,0,1,1]","mutagen_history":"[1,0,0,1,0,0,1,1,0,0,1,1]","location_rts":"[870,736,417,385,750,392,686,161,641,392,426,726]","trial_type":"fractal-mutation","trial_index":167,"time_elapsed":2659184,"internal_node_id":"0.0-5.0-63.0"},{"group":"hexagon_bi","fractal_assignment":["../images/gry_blk.png","../images/blu_wht.png","../images/pnk_blu.png","../images/org_blu.png","../images/ylw_slt.png","../images/cyn_red.png"],"mutagen_generator_assignment":[0,1],"goal":4,"start":5,"action_noise":0.2,"location_history":"[5,0,1,0,1,2,1,2,3,4]","action_history":"[0,1,1,1,1,0,0,1,1]","mutagen_history":"[0,1,1,1,1,0,0,1,1]","location_rts":"[489,24,250,263,165,224,305,614,485]","trial_type":"fractal-mutation","trial_index":168,"time_elapsed":2674739,"internal_node_id":"0.0-5.0-64.0"},{"group":"hexagon_bi","fractal_assignment":["../images/gry_blk.png","../images/blu_wht.png","../images/pnk_blu.png","../images/org_blu.png","../images/ylw_slt.png","../images/cyn_red.png"],"mutagen_generator_assignment":[0,1],"goal":1,"start":4,"action_noise":0.2,"location_history":"[4,5,4,3,4,5,0,5,0,1]","action_history":"[0,0,1,0,1,1,0,0,1]","mutagen_history":"[0,0,1,0,1,1,0,0,1]","location_rts":"[445,483,399,455,445,204,601,376,428]","trial_type":"fractal-mutation","trial_index":169,"time_elapsed":2691300,"internal_node_id":"0.0-5.0-65.0"},{"group":"hexagon_bi","fractal_assignment":["../images/gry_blk.png","../images/blu_wht.png","../images/pnk_blu.png","../images/org_blu.png","../images/ylw_slt.png","../images/cyn_red.png"],"mutagen_generator_assignment":[0,1],"goal":5,"start":1,"action_noise":0.2,"location_history":"[1,2,3,4,5]","action_history":"[0,1,1,1]","mutagen_history":"[0,1,1,1]","location_rts":"[602,398,516,1014]","trial_type":"fractal-mutation","trial_index":170,"time_elapsed":2701441,"internal_node_id":"0.0-5.0-66.0"},{"group":"hexagon_bi","fractal_assignment":["../images/gry_blk.png","../images/blu_wht.png","../images/pnk_blu.png","../images/org_blu.png","../images/ylw_slt.png","../images/cyn_red.png"],"mutagen_generator_assignment":[0,1],"goal":2,"start":5,"action_noise":0.2,"location_history":"[5,4,3,2]","action_history":"[1,0,1]","mutagen_history":"[1,0,1]","location_rts":"[613,711,397]","trial_type":"fractal-mutation","trial_index":171,"time_elapsed":2709737,"internal_node_id":"0.0-5.0-67.0"},{"group":"hexagon_bi","fractal_assignment":["../images/gry_blk.png","../images/blu_wht.png","../images/pnk_blu.png","../images/org_blu.png","../images/ylw_slt.png","../images/cyn_red.png"],"mutagen_generator_assignment":[0,1],"goal":3,"start":2,"action_noise":0.2,"location_history":"[2,3]","action_history":"[0]","mutagen_history":"[0]","location_rts":"[422]","trial_type":"fractal-mutation","trial_index":172,"time_elapsed":2714687,"internal_node_id":"0.0-5.0-68.0"},{"group":"hexagon_bi","fractal_assignment":["../images/gry_blk.png","../images/blu_wht.png","../images/pnk_blu.png","../images/org_blu.png","../images/ylw_slt.png","../images/cyn_red.png"],"mutagen_generator_assignment":[0,1],"goal":4,"start":3,"action_noise":0.2,"location_history":"[3,4]","action_history":"[1]","mutagen_history":"[1]","location_rts":"[544]","trial_type":"fractal-mutation","trial_index":173,"time_elapsed":2719753,"internal_node_id":"0.0-5.0-69.0"},{"group":"hexagon_bi","fractal_assignment":["../images/gry_blk.png","../images/blu_wht.png","../images/pnk_blu.png","../images/org_blu.png","../images/ylw_slt.png","../images/cyn_red.png"],"mutagen_generator_assignment":[0,1],"goal":0,"start":4,"action_noise":0.2,"location_history":"[4,5,0]","action_history":"[1,0]","mutagen_history":"[1,0]","location_rts":"[446,73]","trial_type":"fractal-mutation","trial_index":174,"time_elapsed":2725814,"internal_node_id":"0.0-5.0-70.0"},{"group":"hexagon_bi","fractal_assignment":["../images/gry_blk.png","../images/blu_wht.png","../images/pnk_blu.png","../images/org_blu.png","../images/ylw_slt.png","../images/cyn_red.png"],"mutagen_generator_assignment":[0,1],"goal":5,"start":0,"action_noise":0.2,"location_history":"[0,1,0,5]","action_history":"[1,1,0]","mutagen_history":"[1,1,0]","location_rts":"[761,670,31]","trial_type":"fractal-mutation","trial_index":175,"time_elapsed":2733857,"internal_node_id":"0.0-5.0-71.0"},{"group":"hexagon_bi","fractal_assignment":["../images/gry_blk.png","../images/blu_wht.png","../images/pnk_blu.png","../images/org_blu.png","../images/ylw_slt.png","../images/cyn_red.png"],"mutagen_generator_assignment":[0,1],"goal":0,"start":5,"action_noise":0.2,"location_history":"[5,4,3,4,3,2,1,2,3,2,3,2,1,0]","action_history":"[1,0,0,1,1,0,0,1,1,1,0,0,1]","mutagen_history":"[1,0,0,1,1,0,0,1,1,1,0,0,1]","location_rts":"[621,295,289,69,312,585,467,426,362,499,247,316,596]","trial_type":"fractal-mutation","trial_index":176,"time_elapsed":2755755,"internal_node_id":"0.0-5.0-72.0"},{"group":"hexagon_bi","fractal_assignment":["../images/gry_blk.png","../images/blu_wht.png","../images/pnk_blu.png","../images/org_blu.png","../images/ylw_slt.png","../images/cyn_red.png"],"mutagen_generator_assignment":[0,1],"goal":3,"start":0,"action_noise":0.2,"location_history":"[0,5,4,3]","action_history":"[0,1,1]","mutagen_history":"[0,1,1]","location_rts":"[372,145,117]","trial_type":"fractal-mutation","trial_index":177,"time_elapsed":2762968,"internal_node_id":"0.0-5.0-73.0"},{"group":"hexagon_bi","fractal_assignment":["../images/gry_blk.png","../images/blu_wht.png","../images/pnk_blu.png","../images/org_blu.png","../images/ylw_slt.png","../images/cyn_red.png"],"mutagen_generator_assignment":[0,1],"goal":1,"start":3,"action_noise":0.2,"location_history":"[3,2,3,4,3,2,3,4,3,2,3,2,1]","action_history":"[1,1,0,0,1,1,0,0,1,1,1,0]","mutagen_history":"[1,1,0,0,1,1,0,0,1,1,1,0]","location_rts":"[446,410,69,102,373,179,262,173,327,409,443,416]","trial_type":"fractal-mutation","trial_index":178,"time_elapsed":2782357,"internal_node_id":"0.0-5.0-74.0"},{"group":"hexagon_bi","fractal_assignment":["../images/gry_blk.png","../images/blu_wht.png","../images/pnk_blu.png","../images/org_blu.png","../images/ylw_slt.png","../images/cyn_red.png"],"mutagen_generator_assignment":[0,1],"goal":2,"start":1,"action_noise":0.2,"location_history":"[1,0,5,0,1,0,1,2]","action_history":"[1,0,0,1,1,1,1]","mutagen_history":"[1,0,0,1,1,1,1]","location_rts":"[411,132,244,11,268,418,451]","trial_type":"fractal-mutation","trial_index":179,"time_elapsed":2794958,"internal_node_id":"0.0-5.0-75.0"},{"group":"hexagon_bi","fractal_assignment":["../images/gry_blk.png","../images/blu_wht.png","../images/pnk_blu.png","../images/org_blu.png","../images/ylw_slt.png","../images/cyn_red.png"],"mutagen_generator_assignment":[0,1],"goal":4,"start":2,"action_noise":0.2,"location_history":"[2,3,2,3,4]","action_history":"[1,1,1,0]","mutagen_history":"[1,1,1,0]","location_rts":"[280,116,240,320]","trial_type":"fractal-mutation","trial_index":180,"time_elapsed":2803517,"internal_node_id":"0.0-5.0-76.0"},{"group":"hexagon_bi","fractal_assignment":["../images/gry_blk.png","../images/blu_wht.png","../images/pnk_blu.png","../images/org_blu.png","../images/ylw_slt.png","../images/cyn_red.png"],"mutagen_generator_assignment":[0,1],"goal":3,"start":4,"action_noise":0.2,"location_history":"[4,5,0,5,4,3]","action_history":"[1,0,0,1,1]","mutagen_history":"[1,0,0,1,1]","location_rts":"[442,42,175,534,316]","trial_type":"fractal-mutation","trial_index":181,"time_elapsed":2813663,"internal_node_id":"0.0-5.0-77.0"},{"group":"hexagon_bi","fractal_assignment":["../images/gry_blk.png","../images/blu_wht.png","../images/pnk_blu.png","../images/org_blu.png","../images/ylw_slt.png","../images/cyn_red.png"],"mutagen_generator_assignment":[0,1],"goal":0,"start":3,"action_noise":0.2,"location_history":"[3,4,5,4,3,4,5,4,5,0]","action_history":"[0,1,1,0,0,1,1,0,0]","mutagen_history":"[0,1,1,0,0,1,1,0,0]","location_rts":"[711,415,384,137,257,98,90,458,305]","trial_type":"fractal-mutation","trial_index":182,"time_elapsed":2829254,"internal_node_id":"0.0-5.0-78.0"},{"group":"hexagon_bi","fractal_assignment":["../images/gry_blk.png","../images/blu_wht.png","../images/pnk_blu.png","../images/org_blu.png","../images/ylw_slt.png","../images/cyn_red.png"],"mutagen_generator_assignment":[0,1],"goal":4,"start":0,"action_noise":0.2,"location_history":"[0,1,0,1,2,1,0,1,2,3,2,1,2,1,0,1,2,1,0,5,4]","action_history":"[1,1,1,0,0,1,1,0,1,1,0,0,0,1,1,0,0,1,1,1]","mutagen_history":"[1,1,1,0,0,1,1,0,1,1,0,0,0,1,1,0,0,1,1,1]","location_rts":"[385,415,376,154,399,350,458,627,655,505,573,41,426,188,304,738,332,525,727,163]","trial_type":"fractal-mutation","trial_index":183,"time_elapsed":2861553,"internal_node_id":"0.0-5.0-79.0"},{"group":"hexagon_bi","fractal_assignment":["../images/gry_blk.png","../images/blu_wht.png","../images/pnk_blu.png","../images/org_blu.png","../images/ylw_slt.png","../images/cyn_red.png"],"mutagen_generator_assignment":[0,1],"goal":5,"start":4,"action_noise":0.2,"location_history":"[4,5]","action_history":"[1]","mutagen_history":"[1]","location_rts":"[662]","trial_type":"fractal-mutation","trial_index":184,"time_elapsed":2866745,"internal_node_id":"0.0-5.0-80.0"},{"group":"hexagon_bi","fractal_assignment":["../images/gry_blk.png","../images/blu_wht.png","../images/pnk_blu.png","../images/org_blu.png","../images/ylw_slt.png","../images/cyn_red.png"],"mutagen_generator_assignment":[0,1],"goal":1,"start":5,"action_noise":0.2,"location_history":"[5,4,3,4,5,4,5,4,3,4,3,4,3,2,1]","action_history":"[1,0,0,1,1,1,1,0,0,0,0,1,1,0]","mutagen_history":"[1,0,0,1,1,1,1,0,0,0,0,1,1,0]","location_rts":"[3518,220,423,920,184,462,289,78,236,350,567,195,147,47]","trial_type":"fractal-mutation","trial_index":185,"time_elapsed":2892204,"internal_node_id":"0.0-5.0-81.0"},{"group":"hexagon_bi","fractal_assignment":["../images/gry_blk.png","../images/blu_wht.png","../images/pnk_blu.png","../images/org_blu.png","../images/ylw_slt.png","../images/cyn_red.png"],"mutagen_generator_assignment":[0,1],"goal":2,"start":1,"action_noise":0.2,"location_history":"[1,0,5,4,5,4,5,0,5,0,1,2]","action_history":"[1,0,0,1,1,1,0,0,0,1,1]","mutagen_history":"[1,0,0,1,1,1,0,0,0,1,1]","location_rts":"[466,211,365,293,298,1496,347,305,1200,352,123]","trial_type":"fractal-mutation","trial_index":186,"time_elapsed":2912410,"internal_node_id":"0.0-5.0-82.0"},{"group":"hexagon_bi","fractal_assignment":["../images/gry_blk.png","../images/blu_wht.png","../images/pnk_blu.png","../images/org_blu.png","../images/ylw_slt.png","../images/cyn_red.png"],"mutagen_generator_assignment":[0,1],"goal":4,"start":2,"action_noise":0.2,"location_history":"[2,1,0,5,4]","action_history":"[0,1,1,1]","mutagen_history":"[0,1,1,1]","location_rts":"[558,198,271,248]","trial_type":"fractal-mutation","trial_index":187,"time_elapsed":2921288,"internal_node_id":"0.0-5.0-83.0"},{"group":"hexagon_bi","fractal_assignment":["../images/gry_blk.png","../images/blu_wht.png","../images/pnk_blu.png","../images/org_blu.png","../images/ylw_slt.png","../images/cyn_red.png"],"mutagen_generator_assignment":[0,1],"goal":0,"start":4,"action_noise":0.2,"location_history":"[4,5,0]","action_history":"[1,0]","mutagen_history":"[1,0]","location_rts":"[456,343]","trial_type":"fractal-mutation","trial_index":188,"time_elapsed":2927636,"internal_node_id":"0.0-5.0-84.0"},{"group":"hexagon_bi","fractal_assignment":["../images/gry_blk.png","../images/blu_wht.png","../images/pnk_blu.png","../images/org_blu.png","../images/ylw_slt.png","../images/cyn_red.png"],"mutagen_generator_assignment":[0,1],"goal":5,"start":0,"action_noise":0.2,"location_history":"[0,1,0,1,2,3,2,3,4,3,4,3,2,3,2,1,0,1,2,3,4,3,2,1,0,1,0,5]","action_history":"[1,1,1,0,1,1,1,0,0,0,0,1,1,1,0,0,1,1,1,0,0,0,0,1,1,1,0]","mutagen_history":"[1,1,1,0,1,1,1,0,0,0,0,1,1,1,0,0,1,1,1,0,0,0,0,1,1,1,0]","location_rts":"[747,383,221,3251,482,206,98,452,298,506,539,210,498,456,31,597,292,442,434,456,112,201,546,23,20,247,389]","trial_type":"fractal-mutation","trial_index":189,"time_elapsed":2970933,"internal_node_id":"0.0-5.0-85.0"},{"group":"hexagon_bi","fractal_assignment":["../images/gry_blk.png","../images/blu_wht.png","../images/pnk_blu.png","../images/org_blu.png","../images/ylw_slt.png","../images/cyn_red.png"],"mutagen_generator_assignment":[0,1],"goal":3,"start":5,"action_noise":0.2,"location_history":"[5,4,3]","action_history":"[1,0]","mutagen_history":"[1,0]","location_rts":"[474,129]","trial_type":"fractal-mutation","trial_index":190,"time_elapsed":2977096,"internal_node_id":"0.0-5.0-86.0"},{"group":"hexagon_bi","fractal_assignment":["../images/gry_blk.png","../images/blu_wht.png","../images/pnk_blu.png","../images/org_blu.png","../images/ylw_slt.png","../images/cyn_red.png"],"mutagen_generator_assignment":[0,1],"goal":1,"start":3,"action_noise":0.2,"location_history":"[3,4,5,0,1]","action_history":"[1,1,0,0]","mutagen_history":"[1,1,0,0]","location_rts":"[407,248,387,224]","trial_type":"fractal-mutation","trial_index":191,"time_elapsed":2985954,"internal_node_id":"0.0-5.0-87.0"},{"group":"hexagon_bi","fractal_assignment":["../images/gry_blk.png","../images/blu_wht.png","../images/pnk_blu.png","../images/org_blu.png","../images/ylw_slt.png","../images/cyn_red.png"],"mutagen_generator_assignment":[0,1],"goal":2,"start":1,"action_noise":0.2,"location_history":"[1,2]","action_history":"[1]","mutagen_history":"[1]","location_rts":"[343]","trial_type":"fractal-mutation","trial_index":192,"time_elapsed":2990825,"internal_node_id":"0.0-5.0-88.0"},{"group":"hexagon_bi","fractal_assignment":["../images/gry_blk.png","../images/blu_wht.png","../images/pnk_blu.png","../images/org_blu.png","../images/ylw_slt.png","../images/cyn_red.png"],"mutagen_generator_assignment":[0,1],"goal":0,"start":2,"action_noise":0.2,"location_history":"[2,1,2,3,4,3,4,5,4,5,0]","action_history":"[0,0,1,1,0,0,1,1,1,0]","mutagen_history":"[0,0,1,1,0,0,1,1,1,0]","location_rts":"[463,110,184,118,159,102,23,176,134,813]","trial_type":"fractal-mutation","trial_index":193,"time_elapsed":3006856,"internal_node_id":"0.0-5.0-89.0"},{"group":"hexagon_bi","fractal_assignment":["../images/gry_blk.png","../images/blu_wht.png","../images/pnk_blu.png","../images/org_blu.png","../images/ylw_slt.png","../images/cyn_red.png"],"mutagen_generator_assignment":[0,1],"goal":5,"start":0,"action_noise":0.2,"location_history":"[0,1,2,1,0,1,2,3,4,5]","action_history":"[1,0,0,1,1,0,0,0,1]","mutagen_history":"[1,0,0,1,1,0,0,0,1]","location_rts":"[4545,543,200,174,620,31,59,177,113]","trial_type":"fractal-mutation","trial_index":194,"time_elapsed":3026049,"internal_node_id":"0.0-5.0-90.0"},{"group":"hexagon_bi","fractal_assignment":["../images/gry_blk.png","../images/blu_wht.png","../images/pnk_blu.png","../images/org_blu.png","../images/ylw_slt.png","../images/cyn_red.png"],"mutagen_generator_assignment":[0,1],"goal":1,"start":5,"action_noise":0.2,"location_history":"[5,4,5,0,5,0,1]","action_history":"[1,1,0,0,1,1]","mutagen_history":"[1,1,0,0,1,1]","location_rts":"[423,191,362,151,306,207]","trial_type":"fractal-mutation","trial_index":195,"time_elapsed":3037349,"internal_node_id":"0.0-5.0-91.0"},{"group":"hexagon_bi","fractal_assignment":["../images/gry_blk.png","../images/blu_wht.png","../images/pnk_blu.png","../images/org_blu.png","../images/ylw_slt.png","../images/cyn_red.png"],"mutagen_generator_assignment":[0,1],"goal":3,"start":1,"action_noise":0.2,"location_history":"[1,2,1,2,1,0,1,0,5,0,5,0,5,4,5,4,5,4,5,4,5,0,5,0,1,2,3]","action_history":"[0,0,0,0,1,1,1,0,0,0,1,0,0,0,0,1,1,0,1,1,0,0,1,1,1,1]","mutagen_history":"[0,0,0,0,1,1,1,0,0,0,1,0,0,0,0,1,1,0,1,1,0,0,1,1,1,1]","location_rts":"[275,275,329,162,56,203,253,262,319,376,450,511,346,155,297,95,488,450,83,349,203,393,280,215,3,196]","trial_type":"fractal-mutation","trial_index":196,"time_elapsed":3074564,"internal_node_id":"0.0-5.0-92.0"},{"group":"hexagon_bi","fractal_assignment":["../images/gry_blk.png","../images/blu_wht.png","../images/pnk_blu.png","../images/org_blu.png","../images/ylw_slt.png","../images/cyn_red.png"],"mutagen_generator_assignment":[0,1],"goal":4,"start":3,"action_noise":0.2,"location_history":"[3,2,1,0,1,0,5,0,1,0,1,2,1,2,1,0,1,2,1,2,3,2,3,4]","action_history":"[0,0,1,1,1,0,0,1,1,1,0,0,0,0,1,1,0,0,0,1,1,1,0]","mutagen_history":"[0,0,1,1,1,0,0,1,1,1,0,0,0,0,1,1,0,0,0,1,1,1,0]","location_rts":"[413,270,165,253,182,251,243,259,316,394,263,333,363,545,193,489,979,430,71,114,719,522,382]","trial_type":"fractal-mutation","trial_index":197,"time_elapsed":3109799,"internal_node_id":"0.0-5.0-93.0"},{"group":"hexagon_bi","fractal_assignment":["../images/gry_blk.png","../images/blu_wht.png","../images/pnk_blu.png","../images/org_blu.png","../images/ylw_slt.png","../images/cyn_red.png"],"mutagen_generator_assignment":[0,1],"goal":2,"start":4,"action_noise":0.2,"location_history":"[4,5,4,3,2]","action_history":"[1,0,0,1]","mutagen_history":"[1,0,0,1]","location_rts":"[472,907,368,878]","trial_type":"fractal-mutation","trial_index":198,"time_elapsed":3120034,"internal_node_id":"0.0-5.0-94.0"},{"group":"hexagon_bi","fractal_assignment":["../images/gry_blk.png","../images/blu_wht.png","../images/pnk_blu.png","../images/org_blu.png","../images/ylw_slt.png","../images/cyn_red.png"],"mutagen_generator_assignment":[0,1],"goal":4,"start":2,"action_noise":0.2,"location_history":"[2,3,4]","action_history":"[1,0]","mutagen_history":"[1,0]","location_rts":"[335,728]","trial_type":"fractal-mutation","trial_index":199,"time_elapsed":3126650,"internal_node_id":"0.0-5.0-95.0"},{"group":"hexagon_bi","fractal_assignment":["../images/gry_blk.png","../images/blu_wht.png","../images/pnk_blu.png","../images/org_blu.png","../images/ylw_slt.png","../images/cyn_red.png"],"mutagen_generator_assignment":[0,1],"goal":0,"start":4,"action_noise":0.2,"loca