[{"view_history":"[{\"page_index\":0,\"viewing_time\":9542},{\"page_index\":1,\"viewing_time\":29034},{\"page_index\":2,\"viewing_time\":25396},{\"page_index\":3,\"viewing_time\":7508}]","rt":71480,"trial_type":"instructions","trial_index":0,"time_elapsed":71482,"internal_node_id":"0.0-0.0"},{"view_history":"[{\"page_index\":0,\"viewing_time\":2020},{\"page_index\":1,\"viewing_time\":41988}]","rt":44009,"trial_type":"instructions","trial_index":1,"time_elapsed":116494,"internal_node_id":"0.0-1.0"},{"group":"hexagon_tri","room_assignment":["green","blue","grey","yellow","red","purple"],"door_color_assignment":["black","white"],"door_generator_assignment":[1,0],"goal":4,"start":0,"action_noise":0.2,"location_history":"[0,5,0,1,3,2,1,3,2,1,3,4]","action_history":"[0,1,1,0,0,0,0,0,0,1,1]","door_history":"[1,0,0,1,1,1,1,1,1,0,0]","location_rts":"[13694,1677,1527,1529,1383,822,530,572,528,1180,542]","trial_type":"two-door-navigation","trial_index":2,"time_elapsed":155303,"internal_node_id":"0.0-2.0-0.0"},{"group":"hexagon_tri","room_assignment":["green","blue","grey","yellow","red","purple"],"door_color_assignment":["black","white"],"door_generator_assignment":[1,0],"goal":3,"start":4,"action_noise":0.2,"location_history":"[4,2,3]","action_history":"[1,1]","door_history":"[0,0]","location_rts":"[3294,821]","trial_type":"two-door-navigation","trial_index":3,"time_elapsed":164973,"internal_node_id":"0.0-2.0-1.0"},{"group":"hexagon_tri","room_assignment":["green","blue","grey","yellow","red","purple"],"door_color_assignment":["black","white"],"door_generator_assignment":[1,0],"goal":5,"start":3,"action_noise":0.2,"location_history":"[3,2,3,4,0,5]","action_history":"[0,0,0,0,0]","door_history":"[1,1,1,1,1]","location_rts":"[1759,626,450,488,484]","trial_type":"two-door-navigation","trial_index":4,"time_elapsed":177430,"internal_node_id":"0.0-2.0-2.0"},{"group":"hexagon_tri","room_assignment":["green","blue","grey","yellow","red","purple"],"door_color_assignment":["black","white"],"door_generator_assignment":[1,0],"goal":2,"start":5,"action_noise":0.2,"location_history":"[5,0,1,5,0,5,0,1,5,0,1,5,0,1,5,4,2]","action_history":"[1,1,1,1,0,0,1,1,1,1,1,1,1,0,0,0]","door_history":"[0,0,0,0,1,1,0,0,0,0,0,0,0,1,1,1]","location_rts":"[2172,840,1798,920,870,468,978,414,690,450,414,420,1307,1074,439,464]","trial_type":"two-door-navigation","trial_index":5,"time_elapsed":211068,"internal_node_id":"0.0-2.0-3.0"},{"group":"hexagon_tri","room_assignment":["green","blue","grey","yellow","red","purple"],"door_color_assignment":["black","white"],"door_generator_assignment":[1,0],"goal":1,"start":2,"action_noise":0.2,"location_history":"[2,1]","action_history":"[0]","door_history":"[1]","location_rts":"[1236]","trial_type":"two-door-navigation","trial_index":6,"time_elapsed":216836,"internal_node_id":"0.0-2.0-4.0"},{"group":"hexagon_tri","room_assignment":["green","blue","grey","yellow","red","purple"],"door_color_assignment":["black","white"],"door_generator_assignment":[1,0],"goal":4,"start":1,"action_noise":0.2,"location_history":"[1,5,0,5,0,1,5,4]","action_history":"[1,1,1,1,1,1,1]","door_history":"[0,0,0,0,0,0,0]","location_rts":"[1751,1040,751,432,588,448,469]","trial_type":"two-door-navigation","trial_index":7,"time_elapsed":232994,"internal_node_id":"0.0-2.0-5.0"},{"group":"hexagon_tri","room_assignment":["green","blue","grey","yellow","red","purple"],"door_color_assignment":["black","white"],"door_generator_assignment":[1,0],"goal":1,"start":4,"action_noise":0.2,"location_history":"[4,0,5,0,1]","action_history":"[0,0,1,1]","door_history":"[1,1,0,0]","location_rts":"[5563,1022,928,563]","trial_type":"two-door-navigation","trial_index":8,"time_elapsed":248696,"internal_node_id":"0.0-2.0-6.0"},{"group":"hexagon_tri","room_assignment":["green","blue","grey","yellow","red","purple"],"door_color_assignment":["black","white"],"door_generator_assignment":[1,0],"goal":5,"start":1,"action_noise":0.2,"location_history":"[1,3,2,1,5]","action_history":"[0,0,0,1]","door_history":"[1,1,1,0]","location_rts":"[6057,473,1150,363]","trial_type":"two-door-navigation","trial_index":9,"time_elapsed":264339,"internal_node_id":"0.0-2.0-7.0"},{"group":"hexagon_tri","room_assignment":["green","blue","grey","yellow","red","purple"],"door_color_assignment":["black","white"],"door_generator_assignment":[1,0],"goal":0,"start":5,"action_noise":0.2,"location_history":"[5,0]","action_history":"[1]","door_history":"[0]","location_rts":"[2888]","trial_type":"two-door-navigation","trial_index":10,"time_elapsed":271756,"internal_node_id":"0.0-2.0-8.0"},{"group":"hexagon_tri","room_assignment":["green","blue","grey","yellow","red","purple"],"door_color_assignment":["black","white"],"door_generator_assignment":[1,0],"goal":2,"start":0,"action_noise":0.2,"location_history":"[0,1,5,4,2]","action_history":"[1,1,0,0]","door_history":"[0,0,1,1]","location_rts":"[2357,1393,755,463]","trial_type":"two-door-navigation","trial_index":11,"time_elapsed":284331,"internal_node_id":"0.0-2.0-9.0"},{"group":"hexagon_tri","room_assignment":["green","blue","grey","yellow","red","purple"],"door_color_assignment":["black","white"],"door_generator_assignment":[1,0],"goal":3,"start":2,"action_noise":0.2,"location_history":"[2,3]","action_history":"[1]","door_history":"[0]","location_rts":"[989]","trial_type":"two-door-navigation","trial_index":12,"time_elapsed":289857,"internal_node_id":"0.0-2.0-10.0"},{"group":"hexagon_tri","room_assignment":["green","blue","grey","yellow","red","purple"],"door_color_assignment":["black","white"],"door_generator_assignment":[1,0],"goal":0,"start":3,"action_noise":0.2,"location_history":"[3,4,2,1,3,2,1,3,2,1,5,0]","action_history":"[0,1,0,0,0,0,0,0,0,1,1]","door_history":"[1,0,1,1,1,1,1,1,1,0,0]","location_rts":"[2489,781,418,367,504,1099,524,800,413,509,721]","trial_type":"two-door-navigation","trial_index":13,"time_elapsed":313282,"internal_node_id":"0.0-2.0-11.0"},{"group":"hexagon_tri","room_assignment":["green","blue","grey","yellow","red","purple"],"door_color_assignment":["black","white"],"door_generator_assignment":[1,0],"goal":2,"start":0,"action_noise":0.2,"location_history":"[0,1,5,0,5,0,5,0,5,0,5,0,1,3,4,0,5,4,0,5,0,1,5,0,1,3,2]","action_history":"[0,0,0,0,1,1,1,1,1,1,0,1,0,0,0,0,0,0,0,0,0,1,1,1,1,1]","door_history":"[1,1,1,1,0,0,0,0,0,0,1,0,1,1,1,1,1,1,1,1,1,0,0,0,0,0]","location_rts":"[3267,830,769,420,337,552,320,336,658,402,308,352,301,426,384,345,335,381,369,406,323,880,379,369,323,389]","trial_type":"two-door-navigation","trial_index":14,"time_elapsed":357624,"internal_node_id":"0.0-2.0-12.0"},{"group":"hexagon_tri","room_assignment":["green","blue","grey","yellow","red","purple"],"door_color_assignment":["black","white"],"door_generator_assignment":[1,0],"goal":5,"start":2,"action_noise":0.2,"location_history":"[2,1,5]","action_history":"[0,1]","door_history":"[1,0]","location_rts":"[1358,370]","trial_type":"two-door-navigation","trial_index":15,"time_elapsed":364904,"internal_node_id":"0.0-2.0-13.0"},{"group":"hexagon_tri","room_assignment":["green","blue","grey","yellow","red","purple"],"door_color_assignment":["black","white"],"door_generator_assignment":[1,0],"goal":4,"start":5,"action_noise":0.2,"location_history":"[5,4]","action_history":"[0]","door_history":"[1]","location_rts":"[1277]","trial_type":"two-door-navigation","trial_index":16,"time_elapsed":370708,"internal_node_id":"0.0-2.0-14.0"},{"group":"hexagon_tri","room_assignment":["green","blue","grey","yellow","red","purple"],"door_color_assignment":["black","white"],"door_generator_assignment":[1,0],"goal":3,"start":4,"action_noise":0.2,"location_history":"[4,0,1,3]","action_history":"[1,1,0]","door_history":"[0,0,1]","location_rts":"[1100,399,307]","trial_type":"two-door-navigation","trial_index":17,"time_elapsed":379096,"internal_node_id":"0.0-2.0-15.0"},{"group":"hexagon_tri","room_assignment":["green","blue","grey","yellow","red","purple"],"door_color_assignment":["black","white"],"door_generator_assignment":[1,0],"goal":1,"start":3,"action_noise":0.2,"location_history":"[3,2,3,4,2,3,4,0,5,4,0,1]","action_history":"[0,1,0,1,0,1,1,0,0,0,1]","door_history":"[1,0,1,0,1,0,0,1,1,1,0]","location_rts":"[1063,347,351,366,306,311,299,430,305,340,301]","trial_type":"two-door-navigation","trial_index":18,"time_elapsed":398303,"internal_node_id":"0.0-2.0-16.0"},{"group":"hexagon_tri","room_assignment":["green","blue","grey","yellow","red","purple"],"door_color_assignment":["black","white"],"door_generator_assignment":[1,0],"goal":5,"start":1,"action_noise":0.2,"location_history":"[1,3,4,2,1,3,4,2,1,3,4,0,1,3,4,0,5]","action_history":"[0,1,1,0,0,1,1,1,0,0,0,1,1,1,0,0]","door_history":"[1,0,0,1,1,0,0,0,1,1,1,0,0,0,1,1]","location_rts":"[1180,388,556,337,517,435,397,327,347,252,369,287,334,271,339,453]","trial_type":"two-door-navigation","trial_index":19,"time_elapsed":424991,"internal_node_id":"0.0-2.0-17.0"},{"group":"hexagon_tri","room_assignment":["green","blue","grey","yellow","red","purple"],"door_color_assignment":["black","white"],"door_generator_assignment":[1,0],"goal":4,"start":5,"action_noise":0.2,"location_history":"[5,4]","action_history":"[0]","door_history":"[1]","location_rts":"[2423]","trial_type":"two-door-navigation","trial_index":20,"time_elapsed":431947,"internal_node_id":"0.0-2.0-18.0"},{"group":"hexagon_tri","room_assignment":["green","blue","grey","yellow","red","purple"],"door_color_assignment":["black","white"],"door_generator_assignment":[1,0],"goal":0,"start":4,"action_noise":0.2,"location_history":"[4,2,3,2,3,2,1,5,0]","action_history":"[1,0,1,1,0,0,1,1]","door_history":"[0,1,0,0,1,1,0,0]","location_rts":"[761,376,284,284,243,240,239,281]","trial_type":"two-door-navigation","trial_index":21,"time_elapsed":446359,"internal_node_id":"0.0-2.0-19.0"},{"group":"hexagon_tri","room_assignment":["green","blue","grey","yellow","red","purple"],"door_color_assignment":["black","white"],"door_generator_assignment":[1,0],"goal":1,"start":0,"action_noise":0.2,"location_history":"[0,5,4,0,1]","action_history":"[0,0,1,1]","door_history":"[1,1,0,0]","location_rts":"[427,1125,292,300]","trial_type":"two-door-navigation","trial_index":22,"time_elapsed":456106,"internal_node_id":"0.0-2.0-20.0"},{"group":"hexagon_tri","room_assignment":["green","blue","grey","yellow","red","purple"],"door_color_assignment":["black","white"],"door_generator_assignment":[1,0],"goal":3,"start":1,"action_noise":0.2,"location_history":"[1,3]","action_history":"[0]","door_history":"[1]","location_rts":"[1132]","trial_type":"two-door-navigation","trial_index":23,"time_elapsed":461771,"internal_node_id":"0.0-2.0-21.0"},{"group":"hexagon_tri","room_assignment":["green","blue","grey","yellow","red","purple"],"door_color_assignment":["black","white"],"door_generator_assignment":[1,0],"goal":2,"start":3,"action_noise":0.2,"location_history":"[3,4,0,5,4,2]","action_history":"[1,1,0,0,1]","door_history":"[0,0,1,1,0]","location_rts":"[1129,681,326,285,608]","trial_type":"two-door-navigation","trial_index":24,"time_elapsed":473437,"internal_node_id":"0.0-2.0-22.0"},{"group":"hexagon_tri","room_assignment":["green","blue","grey","yellow","red","purple"],"door_color_assignment":["black","white"],"door_generator_assignment":[1,0],"goal":0,"start":2,"action_noise":0.2,"location_history":"[2,1,5,4,0]","action_history":"[0,1,0,0]","door_history":"[1,0,1,1]","location_rts":"[958,304,316,223]","trial_type":"two-door-navigation","trial_index":25,"time_elapsed":482843,"internal_node_id":"0.0-2.0-23.0"},{"group":"hexagon_tri","room_assignment":["green","blue","grey","yellow","red","purple"],"door_color_assignment":["black","white"],"door_generator_assignment":[1,0],"goal":3,"start":0,"action_noise":0.2,"location_history":"[0,1,5,0,1,5,4,0,1,3]","action_history":"[1,1,0,0,1,0,1,1,0]","door_history":"[0,0,1,1,0,1,0,0,1]","location_rts":"[584,403,278,277,455,295,401,283,336]","trial_type":"two-door-navigation","trial_index":26,"time_elapsed":498887,"internal_node_id":"0.0-2.0-24.0"},{"group":"hexagon_tri","room_assignment":["green","blue","grey","yellow","red","purple"],"door_color_assignment":["black","white"],"door_generator_assignment":[1,0],"goal":1,"start":3,"action_noise":0.2,"location_history":"[3,2,3,4,2,1]","action_history":"[0,1,1,0,0]","door_history":"[1,0,0,1,1]","location_rts":"[836,384,337,461,270]","trial_type":"two-door-navigation","trial_index":27,"time_elapsed":510118,"internal_node_id":"0.0-2.0-25.0"},{"group":"hexagon_tri","room_assignment":["green","blue","grey","yellow","red","purple"],"door_color_assignment":["black","white"],"door_generator_assignment":[1,0],"goal":2,"start":1,"action_noise":0.2,"location_history":"[1,5,4,2]","action_history":"[1,0,1]","door_history":"[0,1,0]","location_rts":"[2988,355,437]","trial_type":"two-door-navigation","trial_index":28,"time_elapsed":521473,"internal_node_id":"0.0-2.0-26.0"},{"group":"hexagon_tri","room_assignment":["green","blue","grey","yellow","red","purple"],"door_color_assignment":["black","white"],"door_generator_assignment":[1,0],"goal":5,"start":2,"action_noise":0.2,"location_history":"[2,1,5]","action_history":"[0,1]","door_history":"[1,0]","location_rts":"[904,361]","trial_type":"two-door-navigation","trial_index":29,"time_elapsed":528289,"internal_node_id":"0.0-2.0-27.0"},{"group":"hexagon_tri","room_assignment":["green","blue","grey","yellow","red","purple"],"door_color_assignment":["black","white"],"door_generator_assignment":[1,0],"goal":4,"start":5,"action_noise":0.2,"location_history":"[5,0,1,3,2,1,5,0,1,3,4]","action_history":"[0,1,1,0,0,1,1,1,0,0]","door_history":"[1,0,0,1,1,0,0,0,1,1]","location_rts":"[365,388,322,344,387,311,294,291,153,190]","trial_type":"two-door-navigation","trial_index":30,"time_elapsed":545101,"internal_node_id":"0.0-2.0-28.0"},{"group":"hexagon_tri","room_assignment":["green","blue","grey","yellow","red","purple"],"door_color_assignment":["black","white"],"door_generator_assignment":[1,0],"goal":5,"start":4,"action_noise":0.2,"location_history":"[4,0,5]","action_history":"[1,1]","door_history":"[0,0]","location_rts":"[791,621]","trial_type":"two-door-navigation","trial_index":31,"time_elapsed":552072,"internal_node_id":"0.0-2.0-29.0"},{"group":"hexagon_tri","room_assignment":["green","blue","grey","yellow","red","purple"],"door_color_assignment":["black","white"],"door_generator_assignment":[1,0],"goal":3,"start":5,"action_noise":0.2,"location_history":"[5,4,0,5,0,5,0,5,4,2,1,3]","action_history":"[0,1,0,1,1,1,0,0,0,0,0]","door_history":"[1,0,1,0,0,0,1,1,1,1,1]","location_rts":"[786,328,354,256,248,292,441,275,380,310,279]","trial_type":"two-door-navigation","trial_index":32,"time_elapsed":570808,"internal_node_id":"0.0-2.0-30.0"},{"group":"hexagon_tri","room_assignment":["green","blue","grey","yellow","red","purple"],"door_color_assignment":["black","white"],"door_generator_assignment":[1,0],"goal":0,"start":3,"action_noise":0.2,"location_history":"[3,4,2,1,3,4,0]","action_history":"[1,0,0,0,1,1]","door_history":"[0,1,1,1,0,0]","location_rts":"[1232,357,444,342,295,263]","trial_type":"two-door-navigation","trial_index":33,"time_elapsed":583397,"internal_node_id":"0.0-2.0-31.0"},{"group":"hexagon_tri","room_assignment":["green","blue","grey","yellow","red","purple"],"door_color_assignment":["black","white"],"door_generator_assignment":[1,0],"goal":4,"start":0,"action_noise":0.2,"location_history":"[0,5,0,5,4]","action_history":"[0,1,0,0]","door_history":"[1,0,1,1]","location_rts":"[450,464,396,311]","trial_type":"two-door-navigation","trial_index":34,"time_elapsed":592608,"internal_node_id":"0.0-2.0-32.0"},{"group":"hexagon_tri","room_assignment":["green","blue","grey","yellow","red","purple"],"door_color_assignment":["black","white"],"door_generator_assignment":[1,0],"goal":1,"start":4,"action_noise":0.2,"location_history":"[4,0,5,4,0,5,4,0,1]","action_history":"[0,1,1,1,1,0,0,0]","door_history":"[1,0,0,0,0,1,1,1]","location_rts":"[754,538,221,192,336,281,174,422]","trial_type":"two-door-navigation","trial_index":35,"time_elapsed":607238,"internal_node_id":"0.0-2.0-33.0"},{"group":"hexagon_tri","room_assignment":["green","blue","grey","yellow","red","purple"],"door_color_assignment":["black","white"],"door_generator_assignment":[1,0],"goal":2,"start":1,"action_noise":0.2,"location_history":"[1,3,2]","action_history":"[0,1]","door_history":"[1,0]","location_rts":"[536,263]","trial_type":"two-door-navigation","trial_index":36,"time_elapsed":613589,"internal_node_id":"0.0-2.0-34.0"},{"group":"hexagon_tri","room_assignment":["green","blue","grey","yellow","red","purple"],"door_color_assignment":["black","white"],"door_generator_assignment":[1,0],"goal":0,"start":2,"action_noise":0.2,"location_history":"[2,3,2,3,4,0]","action_history":"[0,0,0,1,1]","door_history":"[1,1,1,0,0]","location_rts":"[561,336,283,144,328]","trial_type":"two-door-navigation","trial_index":37,"time_elapsed":623873,"internal_node_id":"0.0-2.0-35.0"},{"group":"hexagon_tri","room_assignment":["green","blue","grey","yellow","red","purple"],"door_color_assignment":["black","white"],"door_generator_assignment":[1,0],"goal":5,"start":0,"action_noise":0.2,"location_history":"[0,5]","action_history":"[0]","door_history":"[1]","location_rts":"[434]","trial_type":"two-door-navigation","trial_index":38,"time_elapsed":628840,"internal_node_id":"0.0-2.0-36.0"},{"group":"hexagon_tri","room_assignment":["green","blue","grey","yellow","red","purple"],"door_color_assignment":["black","white"],"door_generator_assignment":[1,0],"goal":2,"start":5,"action_noise":0.2,"location_history":"[5,0,5,0,1,5,0,5,4,2]","action_history":"[1,0,1,1,1,1,0,0,0]","door_history":"[0,1,0,0,0,0,1,1,1]","location_rts":"[683,420,538,332,322,509,345,281,234]","trial_type":"two-door-navigation","trial_index":39,"time_elapsed":645239,"internal_node_id":"0.0-2.0-37.0"},{"group":"hexagon_tri","room_assignment":["green","blue","grey","yellow","red","purple"],"door_color_assignment":["black","white"],"door_generator_assignment":[1,0],"goal":1,"start":2,"action_noise":0.2,"location_history":"[2,1]","action_history":"[1]","door_history":"[0]","location_rts":"[723]","trial_type":"two-door-navigation","trial_index":40,"time_elapsed":650490,"internal_node_id":"0.0-2.0-38.0"},{"group":"hexagon_tri","room_assignment":["green","blue","grey","yellow","red","purple"],"door_color_assignment":["black","white"],"door_generator_assignment":[1,0],"goal":4,"start":1,"action_noise":0.2,"location_history":"[1,3,4]","action_history":"[0,1]","door_history":"[1,0]","location_rts":"[418,283]","trial_type":"two-door-navigation","trial_index":41,"time_elapsed":656742,"internal_node_id":"0.0-2.0-39.0"},{"group":"hexagon_tri","room_assignment":["green","blue","grey","yellow","red","purple"],"door_color_assignment":["black","white"],"door_generator_assignment":[1,0],"goal":3,"start":4,"action_noise":0.2,"location_history":"[4,0,1,5,4,0,1,5,4,0,5,4,0,1,3]","action_history":"[0,1,1,1,1,1,1,0,0,1,0,0,1,1]","door_history":"[1,0,0,0,0,0,0,1,1,0,1,1,0,0]","location_rts":"[897,272,257,258,316,285,276,306,320,290,249,279,285,387]","trial_type":"two-door-navigation","trial_index":42,"time_elapsed":679250,"internal_node_id":"0.0-2.0-40.0"},{"group":"hexagon_tri","room_assignment":["green","blue","grey","yellow","red","purple"],"door_color_assignment":["black","white"],"door_generator_assignment":[1,0],"goal":5,"start":3,"action_noise":0.2,"location_history":"[3,2,3,2,3,4,0,1,5]","action_history":"[0,1,1,1,1,0,0,0]","door_history":"[1,0,0,0,0,1,1,1]","location_rts":"[569,295,185,282,276,289,246,106]","trial_type":"two-door-navigation","trial_index":43,"time_elapsed":693223,"internal_node_id":"0.0-2.0-41.0"},{"group":"hexagon_tri","room_assignment":["green","blue","grey","yellow","red","purple"],"door_color_assignment":["black","white"],"door_generator_assignment":[1,0],"goal":3,"start":5,"action_noise":0.2,"location_history":"[5,0,5,0,5,0,5,4,2,3]","action_history":"[1,0,1,1,0,0,0,1,1]","door_history":"[0,1,0,0,1,1,1,0,0]","location_rts":"[628,270,259,208,236,331,226,257,256]","trial_type":"two-door-navigation","trial_index":44,"time_elapsed":708630,"internal_node_id":"0.0-2.0-42.0"},{"group":"hexagon_tri","room_assignment":["green","blue","grey","yellow","red","purple"],"door_color_assignment":["black","white"],"door_generator_assignment":[1,0],"goal":0,"start":3,"action_noise":0.2,"location_history":"[3,4,0]","action_history":"[1,0]","door_history":"[0,1]","location_rts":"[577,552]","trial_type":"two-door-navigation","trial_index":45,"time_elapsed":715312,"internal_node_id":"0.0-2.0-43.0"},{"group":"hexagon_tri","room_assignment":["green","blue","grey","yellow","red","purple"],"door_color_assignment":["black","white"],"door_generator_assignment":[1,0],"goal":2,"start":0,"action_noise":0.2,"location_history":"[0,5,4,2]","action_history":"[0,1,1]","door_history":"[1,0,0]","location_rts":"[1213,308,251]","trial_type":"two-door-navigation","trial_index":46,"time_elapsed":723665,"internal_node_id":"0.0-2.0-44.0"},{"group":"hexagon_tri","room_assignment":["green","blue","grey","yellow","red","purple"],"door_color_assignment":["black","white"],"door_generator_assignment":[1,0],"goal":4,"start":2,"action_noise":0.2,"location_history":"[2,1,5,0,1,3,2,1,3,2,3,4]","action_history":"[0,1,1,1,0,0,0,0,0,0,0]","door_history":"[1,0,0,0,1,1,1,1,1,1,1]","location_rts":"[665,550,280,198,272,142,225,236,274,254,241]","trial_type":"two-door-navigation","trial_index":47,"time_elapsed":741780,"internal_node_id":"0.0-2.0-45.0"},{"group":"hexagon_tri","room_assignment":["green","blue","grey","yellow","red","purple"],"door_color_assignment":["black","white"],"door_generator_assignment":[1,0],"goal":1,"start":4,"action_noise":0.2,"location_history":"[4,2,3,4,0,1]","action_history":"[1,1,1,0,0]","door_history":"[0,0,0,1,1]","location_rts":"[399,482,468,240,260]","trial_type":"two-door-navigation","trial_index":48,"time_elapsed":752257,"internal_node_id":"0.0-2.0-46.0"},{"group":"hexagon_tri","room_assignment":["green","blue","grey","yellow","red","purple"],"door_color_assignment":["black","white"],"door_generator_assignment":[1,0],"goal":4,"start":1,"action_noise":0.2,"location_history":"[1,5,4]","action_history":"[0,0]","door_history":"[1,1]","location_rts":"[862,412]","trial_type":"two-door-navigation","trial_index":49,"time_elapsed":759088,"internal_node_id":"0.0-2.0-47.0"},{"group":"hexagon_tri","room_assignment":["green","blue","grey","yellow","red","purple"],"door_color_assignment":["black","white"],"door_generator_assignment":[1,0],"goal":1,"start":4,"action_noise":0.2,"location_history":"[4,2,3,4,0,5,0,1]","action_history":"[0,1,1,1,1,1,1]","door_history":"[1,0,0,0,0,0,0]","location_rts":"[703,1025,404,705,450,573,1879]","trial_type":"two-door-navigation","trial_index":50,"time_elapsed":775503,"internal_node_id":"0.0-2.0-48.0"},{"group":"hexagon_tri","room_assignment":["green","blue","grey","yellow","red","purple"],"door_color_assignment":["black","white"],"door_generator_assignment":[1,0],"goal":3,"start":1,"action_noise":0.2,"location_history":"[1,3]","action_history":"[0]","door_history":"[1]","location_rts":"[4504]","trial_type":"two-door-navigation","trial_index":51,"time_elapsed":784539,"internal_node_id":"0.0-2.0-49.0"},{"group":"hexagon_tri","room_assignment":["green","blue","grey","yellow","red","purple"],"door_color_assignment":["black","white"],"door_generator_assignment":[1,0],"goal":5,"start":3,"action_noise":0.2,"location_history":"[3,2,1,5]","action_history":"[0,0,1]","door_history":"[1,1,0]","location_rts":"[2709,266,2271]","trial_type":"two-door-navigation","trial_index":52,"time_elapsed":796381,"internal_node_id":"0.0-2.0-50.0"},{"group":"hexagon_tri","room_assignment":["green","blue","grey","yellow","red","purple"],"door_color_assignment":["black","white"],"door_generator_assignment":[1,0],"goal":0,"start":5,"action_noise":0.2,"location_history":"[5,4,2,3,4,2,3,4,2,1,3,4,2,3,4,2,1,3,4,0]","action_history":"[0,0,0,1,1,1,1,0,0,0,1,1,1,1,1,0,0,0,0]","door_history":"[1,1,1,0,0,0,0,1,1,1,0,0,0,0,0,1,1,1,1]","location_rts":"[5434,420,343,61,79,287,320,134,469,796,338,280,351,449,376,380,400,432,288]","trial_type":"two-door-navigation","trial_index":53,"time_elapsed":830992,"internal_node_id":"0.0-2.0-51.0"},{"group":"hexagon_tri","room_assignment":["green","blue","grey","yellow","red","purple"],"door_color_assignment":["black","white"],"door_generator_assignment":[1,0],"goal":2,"start":0,"action_noise":0.2,"location_history":"[0,5,4,2]","action_history":"[0,0,1]","door_history":"[1,1,0]","location_rts":"[600,303,297]","trial_type":"two-door-navigation","trial_index":54,"time_elapsed":838771,"internal_node_id":"0.0-2.0-52.0"},{"group":"hexagon_tri","room_assignment":["green","blue","grey","yellow","red","purple"],"door_color_assignment":["black","white"],"door_generator_assignment":[1,0],"goal":1,"start":2,"action_noise":0.2,"location_history":"[2,1]","action_history":"[0]","door_history":"[1]","location_rts":"[371]","trial_type":"two-door-navigation","trial_index":55,"time_elapsed":843675,"internal_node_id":"0.0-2.0-53.0"},{"group":"hexagon_tri","room_assignment":["green","blue","grey","yellow","red","purple"],"door_color_assignment":["black","white"],"door_generator_assignment":[1,0],"goal":2,"start":1,"action_noise":0.2,"location_history":"[1,3,2]","action_history":"[0,1]","door_history":"[1,0]","location_rts":"[715,558]","trial_type":"two-door-navigation","trial_index":56,"time_elapsed":851374,"internal_node_id":"0.0-2.0-54.0"},{"group":"hexagon_tri","room_assignment":["green","blue","grey","yellow","red","purple"],"door_color_assignment":["black","white"],"door_generator_assignment":[1,0],"goal":5,"start":2,"action_noise":0.2,"location_history":"[2,3,4,2,3,2,3,4,0,1,5]","action_history":"[0,1,1,1,1,1,1,0,0,0]","door_history":"[1,0,0,0,0,0,0,1,1,1]","location_rts":"[841,302,335,181,203,267,116,125,41,195]","trial_type":"two-door-navigation","trial_index":57,"time_elapsed":867734,"internal_node_id":"0.0-2.0-55.0"},{"group":"hexagon_tri","room_assignment":["green","blue","grey","yellow","red","purple"],"door_color_assignment":["black","white"],"door_generator_assignment":[1,0],"goal":4,"start":5,"action_noise":0.2,"location_history":"[5,4]","action_history":"[0]","door_history":"[1]","location_rts":"[488]","trial_type":"two-door-navigation","trial_index":58,"time_elapsed":872757,"internal_node_id":"0.0-2.0-56.0"},{"group":"hexagon_tri","room_assignment":["green","blue","grey","yellow","red","purple"],"door_color_assignment":["black","white"],"door_generator_assignment":[1,0],"goal":3,"start":4,"action_noise":0.2,"location_history":"[4,2,3]","action_history":"[1,1]","door_history":"[0,0]","location_rts":"[593,304]","trial_type":"two-door-navigation","trial_index":59,"time_elapsed":879210,"internal_node_id":"0.0-2.0-57.0"},{"group":"hexagon_tri","room_assignment":["green","blue","grey","yellow","red","purple"],"door_color_assignment":["black","white"],"door_generator_assignment":[1,0],"goal":0,"start":3,"action_noise":0.2,"location_history":"[3,4,2,3,4,0]","action_history":"[1,0,1,1,1]","door_history":"[0,1,0,0,0]","location_rts":"[689,431,157,608,543]","trial_type":"two-door-navigation","trial_index":60,"time_elapsed":890267,"internal_node_id":"0.0-2.0-58.0"},{"group":"hexagon_tri","room_assignment":["green","blue","grey","yellow","red","purple"],"door_color_assignment":["black","white"],"door_generator_assignment":[1,0],"goal":2,"start":0,"action_noise":0.2,"location_history":"[0,1,5,0,5,4,2]","action_history":"[1,1,1,0,0,0]","door_history":"[0,0,0,1,1,1]","location_rts":"[1716,390,476,331,1067,411]","trial_type":"two-door-navigation","trial_index":61,"time_elapsed":904329,"internal_node_id":"0.0-2.0-59.0"},{"group":"hexagon_tri","room_assignment":["green","blue","grey","yellow","red","purple"],"door_color_assignment":["black","white"],"door_generator_assignment":[1,0],"goal":1,"start":2,"action_noise":0.2,"location_history":"[2,1]","action_history":"[0]","door_history":"[1]","location_rts":"[3262]","trial_type":"two-door-navigation","trial_index":62,"time_elapsed":912123,"internal_node_id":"0.0-2.0-60.0"},{"group":"hexagon_tri","room_assignment":["green","blue","grey","yellow","red","purple"],"door_color_assignment":["black","white"],"door_generator_assignment":[1,0],"goal":0,"start":1,"action_noise":0.2,"location_history":"[1,5,0]","action_history":"[0,1]","door_history":"[1,0]","location_rts":"[2031,314]","trial_type":"two-door-navigation","trial_index":63,"time_elapsed":920025,"internal_node_id":"0.0-2.0-61.0"},{"group":"hexagon_tri","room_assignment":["green","blue","grey","yellow","red","purple"],"door_color_assignment":["black","white"],"door_generator_assignment":[1,0],"goal":3,"start":0,"action_noise":0.2,"location_history":"[0,1,5,4,0,1,3]","action_history":"[1,1,1,1,1,0]","door_history":"[0,0,0,0,0,1]","location_rts":"[1117,971,475,369,767,283]","trial_type":"two-door-navigation","trial_index":64,"time_elapsed":933669,"internal_node_id":"0.0-2.0-62.0"},{"group":"hexagon_tri","room_assignment":["green","blue","grey","yellow","red","purple"],"door_color_assignment":["black","white"],"door_generator_assignment":[1,0],"goal":5,"start":3,"action_noise":0.2,"location_history":"[3,4,2,3,4,0,5]","action_history":"[0,1,1,1,1,1]","door_history":"[1,0,0,0,0,0]","location_rts":"[653,318,634,276,188,477]","trial_type":"two-door-navigation","trial_index":65,"time_elapsed":945871,"internal_node_id":"0.0-2.0-63.0"},{"group":"hexagon_tri","room_assignment":["green","blue","grey","yellow","red","purple"],"door_color_assignment":["black","white"],"door_generator_assignment":[1,0],"goal":4,"start":5,"action_noise":0.2,"location_history":"[5,0,5,0,5,0,5,4]","action_history":"[1,0,1,0,1,0,0]","door_history":"[0,1,0,1,0,1,1]","location_rts":"[884,2737,440,1023,389,362,3228]","trial_type":"two-door-navigation","trial_index":66,"time_elapsed":972871,"internal_node_id":"0.0-2.0-64.0"},{"group":"hexagon_tri","room_assignment":["green","blue","grey","yellow","red","purple"],"door_color_assignment":["black","white"],"door_generator_assignment":[1,0],"goal":1,"start":4,"action_noise":0.2,"location_history":"[4,2,3,2,1]","action_history":"[1,0,1,0]","door_history":"[0,1,0,1]","location_rts":"[919,191,35,1089]","trial_type":"two-door-navigation","trial_index":67,"time_elapsed":983739,"internal_node_id":"0.0-2.0-65.0"},{"group":"hexagon_tri","room_assignment":["green","blue","grey","yellow","red","purple"],"door_color_assignment":["black","white"],"door_generator_assignment":[1,0],"goal":5,"start":1,"action_noise":0.2,"location_history":"[1,5]","action_history":"[1]","door_history":"[0]","location_rts":"[676]","trial_type":"two-door-navigation","trial_index":68,"time_elapsed":988950,"internal_node_id":"0.0-2.0-66.0"},{"group":"hexagon_tri","room_assignment":["green","blue","grey","yellow","red","purple"],"door_color_assignment":["black","white"],"door_generator_assignment":[1,0],"goal":2,"start":5,"action_noise":0.2,"location_history":"[5,0,1,5,0,1,5,0,5,0,5,4,2]","action_history":"[1,1,0,1,0,1,1,1,1,0,1,0]","door_history":"[0,0,1,0,1,0,0,0,0,1,0,1]","location_rts":"[407,436,196,5540,271,544,324,3337,270,220,158,219]","trial_type":"two-door-navigation","trial_index":69,"time_elapsed":1017118,"internal_node_id":"0.0-2.0-67.0"},{"group":"hexagon_tri","room_assignment":["green","blue","grey","yellow","red","purple"],"door_color_assignment":["black","white"],"door_generator_assignment":[1,0],"goal":3,"start":2,"action_noise":0.2,"location_history":"[2,3]","action_history":"[1]","door_history":"[0]","location_rts":"[810]","trial_type":"two-door-navigation","trial_index":70,"time_elapsed":1022463,"internal_node_id":"0.0-2.0-68.0"},{"group":"hexagon_tri","room_assignment":["green","blue","grey","yellow","red","purple"],"door_color_assignment":["black","white"],"door_generator_assignment":[1,0],"goal":4,"start":3,"action_noise":0.2,"location_history":"[3,2,3,2,1,3,4]","action_history":"[1,0,1,0,0,0]","door_history":"[0,1,0,1,1,1]","location_rts":"[521,140,80,55,557,163]","trial_type":"two-door-navigation","trial_index":71,"time_elapsed":1034117,"internal_node_id":"0.0-2.0-69.0"},{"group":"hexagon_tri","room_assignment":["green","blue","grey","yellow","red","purple"],"door_color_assignment":["black","white"],"door_generator_assignment":[1,0],"goal":0,"start":4,"action_noise":0.2,"location_history":"[4,2,3,4,0]","action_history":"[1,0,1,0]","door_history":"[0,1,0,1]","location_rts":"[5552,255,324,403]","trial_type":"two-door-navigation","trial_index":72,"time_elapsed":1050074,"internal_node_id":"0.0-2.0-70.0"},{"group":"hexagon_tri","room_assignment":["green","blue","grey","yellow","red","purple"],"door_color_assignment":["black","white"],"door_generator_assignment":[1,0],"goal":5,"start":0,"action_noise":0.2,"location_history":"[0,1,3,2,1,3,2,1,3,2,1,3,2,1,3,2,3,4,0,1,5]","action_history":"[1,0,0,0,0,0,0,0,0,0,0,0,0,0,0,0,1,1,1,1]","door_history":"[0,1,1,1,1,1,1,1,1,1,1,1,1,1,1,1,0,0,0,0]","location_rts":"[746,257,64,84,21,272,347,2533,698,819,471,712,279,182,126,236,277,225,501,252]","trial_type":"two-door-navigation","trial_index":73,"time_elapsed":1083337,"internal_node_id":"0.0-2.0-71.0"},{"group":"hexagon_tri","room_assignment":["green","blue","grey","yellow","red","purple"],"door_color_assignment":["black","white"],"door_generator_assignment":[1,0],"goal":0,"start":5,"action_noise":0.2,"location_history":"[5,0]","action_history":"[1]","door_history":"[0]","location_rts":"[670]","trial_type":"two-door-navigation","trial_index":74,"time_elapsed":1089117,"internal_node_id":"0.0-2.0-72.0"},{"group":"hexagon_tri","room_assignment":["green","blue","grey","yellow","red","purple"],"door_color_assignment":["black","white"],"door_generator_assignment":[1,0],"goal":3,"start":0,"action_noise":0.2,"location_history":"[0,1,3]","action_history":"[0,0]","door_history":"[1,1]","location_rts":"[660,524]","trial_type":"two-door-navigation","trial_index":75,"time_elapsed":1096280,"internal_node_id":"0.0-2.0-73.0"},{"group":"hexagon_tri","room_assignment":["green","blue","grey","yellow","red","purple"],"door_color_assignment":["black","white"],"door_generator_assignment":[1,0],"goal":1,"start":3,"action_noise":0.2,"location_history":"[3,4,0,5,4,0,1]","action_history":"[0,1,0,1,1,1]","door_history":"[1,0,1,0,0,0]","location_rts":"[414,256,328,301,632,286]","trial_type":"two-door-navigation","trial_index":76,"time_elapsed":1108166,"internal_node_id":"0.0-2.0-74.0"},{"group":"hexagon_tri","room_assignment":["green","blue","grey","yellow","red","purple"],"door_color_assignment":["black","white"],"door_generator_assignment":[1,0],"goal":2,"start":1,"action_noise":0.2,"location_history":"[1,3,4,0,1,5,0,1,5,0,5,4,0,5,0,5,4,0,1,3,2]","action_history":"[0,1,1,1,1,1,1,1,1,0,0,0,0,1,0,1,1,1,0,0]","door_history":"[1,0,0,0,0,0,0,0,0,1,1,1,1,0,1,0,0,0,1,1]","location_rts":"[557,355,303,430,450,615,201,355,175,1082,225,102,252,177,270,267,226,293,192,252]","trial_type":"two-door-navigation","trial_index":77,"time_elapsed":1139227,"internal_node_id":"0.0-2.0-75.0"},{"group":"hexagon_tri","room_assignment":["green","blue","grey","yellow","red","purple"],"door_color_assignment":["black","white"],"door_generator_assignment":[1,0],"goal":4,"start":2,"action_noise":0.2,"location_history":"[2,3,4]","action_history":"[1,1]","door_history":"[0,0]","location_rts":"[881,271]","trial_type":"two-door-navigation","trial_index":78,"time_elapsed":1145935,"internal_node_id":"0.0-2.0-76.0"},{"group":"hexagon_tri","room_assignment":["green","blue","grey","yellow","red","purple"],"door_color_assignment":["black","white"],"door_generator_assignment":[1,0],"goal":3,"start":4,"action_noise":0.2,"location_history":"[4,2,3]","action_history":"[1,1]","door_history":"[0,0]","location_rts":"[1030,269]","trial_type":"two-door-navigation","trial_index":79,"time_elapsed":1152785,"internal_node_id":"0.0-2.0-77.0"},{"group":"hexagon_tri","room_assignment":["green","blue","grey","yellow","red","purple"],"door_color_assignment":["black","white"],"door_generator_assignment":[1,0],"goal":0,"start":3,"action_noise":0.2,"location_history":"[3,2,3,4,0]","action_history":"[0,1,1,1]","door_history":"[1,0,0,0]","location_rts":"[363,229,212,154]","trial_type":"two-door-navigation","trial_index":80,"time_elapsed":1161353,"internal_node_id":"0.0-2.0-78.0"},{"group":"hexagon_tri","room_assignment":["green","blue","grey","yellow","red","purple"],"door_color_assignment":["black","white"],"door_generator_assignment":[1,0],"goal":4,"start":0,"action_noise":0.2,"location_history":"[0,5,0,1,3,4]","action_history":"[0,1,1,1,1]","door_history":"[1,0,0,0,0]","location_rts":"[3246,276,243,158,102]","trial_type":"two-door-navigation","trial_index":81,"time_elapsed":1174783,"internal_node_id":"0.0-2.0-79.0"},{"group":"hexagon_tri","room_assignment":["green","blue","grey","yellow","red","purple"],"door_color_assignment":["black","white"],"door_generator_assignment":[1,0],"goal":5,"start":4,"action_noise":0.2,"location_history":"[4,2,3,2,1,3,2,3,2,3,2,3,4,2,3,4,0,5]","action_history":"[0,1,0,1,0,0,1,1,1,1,1,1,1,1,1,1,1]","door_history":"[1,0,1,0,1,1,0,0,0,0,0,0,0,0,0,0,0]","location_rts":"[423,595,170,181,159,121,319,464,234,226,253,529,146,150,140,87,104]","trial_type":"two-door-navigation","trial_index":82,"time_elapsed":1200013,"internal_node_id":"0.0-2.0-80.0"},{"group":"hexagon_tri","room_assignment":["green","blue","grey","yellow","red","purple"],"door_color_assignment":["black","white"],"door_generator_assignment":[1,0],"goal":1,"start":5,"action_noise":0.2,"location_history":"[5,4,0,1]","action_history":"[0,0,0]","door_history":"[1,1,1]","location_rts":"[465,574,285]","trial_type":"two-door-navigation","trial_index":83,"time_elapsed":1207914,"internal_node_id":"0.0-2.0-81.0"},{"group":"hexagon_tri","room_assignment":["green","blue","grey","yellow","red","purple"],"door_color_assignment":["black","white"],"door_generator_assignment":[1,0],"goal":2,"start":1,"action_noise":0.2,"location_history":"[1,5,4,2]","action_history":"[1,0,1]","door_history":"[0,1,0]","location_rts":"[546,281,216]","trial_type":"two-door-navigation","trial_index":84,"time_elapsed":1215532,"internal_node_id":"0.0-2.0-82.0"},{"group":"hexagon_tri","room_assignment":["green","blue","grey","yellow","red","purple"],"door_color_assignment":["black","white"],"door_generator_assignment":[1,0],"goal":4,"start":2,"action_noise":0.2,"location_history":"[2,3,4]","action_history":"[0,0]","door_history":"[1,1]","location_rts":"[486,362]","trial_type":"two-door-navigation","trial_index":85,"time_elapsed":1221932,"internal_node_id":"0.0-2.0-83.0"},{"group":"hexagon_tri","room_assignment":["green","blue","grey","yellow","red","purple"],"door_color_assignment":["black","white"],"door_generator_assignment":[1,0],"goal":0,"start":4,"action_noise":0.2,"location_history":"[4,0]","action_history":"[1]","door_history":"[0]","location_rts":"[414]","trial_type":"two-door-navigation","trial_index":86,"time_elapsed":1226876,"internal_node_id":"0.0-2.0-84.0"},{"group":"hexagon_tri","room_assignment":["green","blue","grey","yellow","red","purple"],"door_color_assignment":["black","white"],"door_generator_assignment":[1,0],"goal":5,"start":0,"action_noise":0.2,"location_history":"[0,5]","action_history":"[0]","door_history":"[1]","location_rts":"[370]","trial_type":"two-door-navigation","trial_index":87,"time_elapsed":1231772,"internal_node_id":"0.0-2.0-85.0"},{"group":"hexagon_tri","room_assignment":["green","blue","grey","yellow","red","purple"],"door_color_assignment":["black","white"],"door_generator_assignment":[1,0],"goal":3,"start":5,"action_noise":0.2,"location_history":"[5,0,1,3]","action_history":"[1,1,0]","door_history":"[0,0,1]","location_rts":"[520,265,226]","trial_type":"two-door-navigation","trial_index":88,"time_elapsed":1239348,"internal_node_id":"0.0-2.0-86.0"},{"group":"hexagon_tri","room_assignment":["green","blue","grey","yellow","red","purple"],"door_color_assignment":["black","white"],"door_generator_assignment":[1,0],"goal":1,"start":3,"action_noise":0.2,"location_history":"[3,2,1]","action_history":"[0,1]","door_history":"[1,0]","location_rts":"[441,194]","trial_type":"two-door-navigation","trial_index":89,"time_elapsed":1245535,"internal_node_id":"0.0-2.0-87.0"},{"group":"hexagon_tri","room_assignment":["green","blue","grey","yellow","red","purple"],"door_color_assignment":["black","white"],"door_generator_assignment":[1,0],"goal":2,"start":1,"action_noise":0.2,"location_history":"[1,3,4,2]","action_history":"[0,1,1]","door_history":"[1,0,0]","location_rts":"[369,286,256]","trial_type":"two-door-navigation","trial_index":90,"time_elapsed":1253018,"internal_node_id":"0.0-2.0-88.0"},{"group":"hexagon_tri","room_assignment":["green","blue","grey","yellow","red","purple"],"door_color_assignment":["black","white"],"door_generator_assignment":[1,0],"goal":0,"start":2,"action_noise":0.2,"location_history":"[2,1,5,0]","action_history":"[0,0,1]","door_history":"[1,1,0]","location_rts":"[486,271,252]","trial_type":"two-door-navigation","trial_index":91,"time_elapsed":1260607,"internal_node_id":"0.0-2.0-89.0"},{"group":"hexagon_tri","room_assignment":["green","blue","grey","yellow","red","purple"],"door_color_assignment":["black","white"],"door_generator_assignment":[1,0],"goal":5,"start":0,"action_noise":0.2,"location_history":"[0,5]","action_history":"[0]","door_history":"[1]","location_rts":"[377]","trial_type":"two-door-navigation","trial_index":92,"time_elapsed":1265517,"internal_node_id":"0.0-2.0-90.0"},{"group":"hexagon_tri","room_assignment":["green","blue","grey","yellow","red","purple"],"door_color_assignment":["black","white"],"door_generator_assignment":[1,0],"goal":1,"start":5,"action_noise":0.2,"location_history":"[5,0,1]","action_history":"[0,1]","door_history":"[1,0]","location_rts":"[410,591]","trial_type":"two-door-navigation","trial_index":93,"time_elapsed":1272076,"internal_node_id":"0.0-2.0-91.0"},{"group":"hexagon_tri","room_assignment":["green","blue","grey","yellow","red","purple"],"door_color_assignment":["black","white"],"door_generator_assignment":[1,0],"goal":3,"start":1,"action_noise":0.2,"location_history":"[1,5,0,5,4,2,3]","action_history":"[1,1,0,0,0,1]","door_history":"[0,0,1,1,1,0]","location_rts":"[353,344,127,243,1054,371]","trial_type":"two-door-navigation","trial_index":94,"time_elapsed":1285116,"internal_node_id":"0.0-2.0-92.0"},{"group":"hexagon_tri","room_assignment":["green","blue","grey","yellow","red","purple"],"door_color_assignment":["black","white"],"door_generator_assignment":[1,0],"goal":4,"start":3,"action_noise":0.2,"location_history":"[3,4]","action_history":"[1]","door_history":"[0]","location_rts":"[1053]","trial_type":"two-door-navigation","trial_index":95,"time_elapsed":1290696,"internal_node_id":"0.0-2.0-93.0"},{"group":"hexagon_tri","room_assignment":["green","blue","grey","yellow","red","purple"],"door_color_assignment":["black","white"],"door_generator_assignment":[1,0],"goal":2,"start":4,"action_noise":0.2,"location_history":"[4,0,1,5,4,0,1,3,4,2]","action_history":"[0,1,1,0,0,0,1,1,1]","door_history":"[1,0,0,1,1,1,0,0,0]","location_rts":"[370,333,241,294,114,350,61,92,184]","trial_type":"two-door-navigation","trial_index":96,"time_elapsed":1305693,"internal_node_id":"0.0-2.0-94.0"},{"group":"hexagon_tri","room_assignment":["green","blue","grey","yellow","red","purple"],"door_color_assignment":["black","white"],"door_generator_assignment":[1,0],"goal":4,"start":2,"action_noise":0.2,"location_history":"[2,1,3,2,3,4]","action_history":"[0,1,1,1,0]","door_history":"[1,0,0,0,1]","location_rts":"[1017,272,236,222,140]","trial_type":"two-door-navigation","trial_index":97,"time_elapsed":1316212,"internal_node_id":"0.0-2.0-95.0"},{"group":"hexagon_tri","room_assignment":["green","blue","grey","yellow","red","purple"],"door_color_assignment":["black","white"],"door_generator_assignment":[1,0],"goal":0,"start":4,"action_noise":0.2,"location_history":"[4,2,1,3,2,3,4,2,1,5,4,0]","action_history":"[1,1,0,0,1,1,1,0,0,0,0]","door_history":"[0,0,1,1,0,0,0,1,1,1,1]","location_rts":"[372,217,133,186,155,163,151,167,315,301,324]","trial_type":"two-door-navigation","trial_index":98,"time_elapsed":1333466,"internal_node_id":"0.0-2.0-96.0"},{"group":"hexagon_tri","room_assignment":["green","blue","grey","yellow","red","purple"],"door_color_assignment":["black","white"],"door_generator_assignment":[1,0],"goal":5,"start":0,"action_noise":0.2,"location_history":"[0,1,5]","action_history":"[1,1]","door_history":"[0,0]","location_rts":"[384,95]","trial_type":"two-door-navigation","trial_index":99,"time_elapsed":1339500,"internal_node_id":"0.0-2.0-97.0"},{"group":"hexagon_tri","room_assignment":["green","blue","grey","yellow","red","purple"],"door_color_assignment":["black","white"],"door_generator_assignment":[1,0],"goal":1,"start":5,"action_noise":0.2,"location_history":"[5,4,0,1]","action_history":"[0,0,1]","door_history":"[1,1,0]","location_rts":"[368,150,52]","trial_type":"two-door-navigation","trial_index":100,"time_elapsed":1346647,"internal_node_id":"0.0-2.0-98.0"},{"group":"hexagon_tri","room_assignment":["green","blue","grey","yellow","red","purple"],"door_color_assignment":["black","white"],"door_generator_assignment":[1,0],"goal":3,"start":1,"action_noise":0.2,"location_history":"[1,3]","action_history":"[1]","door_history":"[0]","location_rts":"[320]","trial_type":"two-door-navigation","trial_index":101,"time_elapsed":1351499,"internal_node_id":"0.0-2.0-99.0"},{"view_history":"[{\"page_index\":0,\"viewing_time\":3599}]","rt":3599,"trial_type":"instructions","trial_index":102,"time_elapsed":1356098,"internal_node_id":"0.0-3.0"},{"view_history":"[{\"page_index\":0,\"viewing_time\":2458},{\"page_index\":1,\"viewing_time\":28051}]","rt":30510,"trial_type":"instructions","trial_index":103,"time_elapsed":1387610,"internal_node_id":"0.0-4.0"},{"group":"hexagon_bi","fractal_assignment":["../images/cyn_red.png","../images/gry_blk.png","../images/pnk_blu.png","../images/blu_wht.png","../images/ylw_slt.png","../images/org_blu.png"],"mutagen_generator_assignment":[1,0],"goal":4,"start":0,"action_noise":0.2,"location_history":"[0,1,0,1,0,1,2,1,2,1,2,3,2,1,0,1,0,1,2,1,0,1,2,1,2,3,4]","action_history":"[1,1,0,0,0,0,0,0,0,0,1,1,1,1,1,1,1,1,0,0,0,0,0,0,0,0]","mutagen_history":"[0,0,1,1,1,1,1,1,1,1,0,0,0,0,0,0,0,0,1,1,1,1,1,1,1,1]","location_rts":"[5802,2289,5720,2632,1773,455,578,326,412,1485,356,458,365,1070,406,2438,10397,453,1227,454,5166,370,628,314,308,456]","trial_type":"fractal-mutation","trial_index":104,"time_elapsed":1464605,"internal_node_id":"0.0-5.0-0.0"},{"group":"hexagon_bi","fractal_assignment":["../images/cyn_red.png","../images/gry_blk.png","../images/pnk_blu.png","../images/blu_wht.png","../images/ylw_slt.png","../images/org_blu.png"],"mutagen_generator_assignment":[1,0],"goal":3,"start":4,"action_noise":0.2,"location_history":"[4,3]","action_history":"[0]","mutagen_history":"[1]","location_rts":"[1113]","trial_type":"fractal-mutation","trial_index":105,"time_elapsed":1470286,"internal_node_id":"0.0-5.0-1.0"},{"group":"hexagon_bi","fractal_assignment":["../images/cyn_red.png","../images/gry_blk.png","../images/pnk_blu.png","../images/blu_wht.png","../images/ylw_slt.png","../images/org_blu.png"],"mutagen_generator_assignment":[1,0],"goal":5,"start":3,"action_noise":0.2,"location_history":"[3,4,3,2,1,0,1,0,1,0,1,0,1,0,1,2,3,4,3,4,5]","action_history":"[0,0,0,0,0,1,1,1,1,1,1,1,1,1,1,0,0,0,0,0]","mutagen_history":"[1,1,1,1,1,0,0,0,0,0,0,0,0,0,0,1,1,1,1,1]","location_rts":"[503,369,303,295,804,605,316,242,589,242,791,217,92,237,277,3681,336,329,297,175]","trial_type":"fractal-mutation","trial_index":106,"time_elapsed":1505461,"internal_node_id":"0.0-5.0-2.0"},{"group":"hexagon_bi","fractal_assignment":["../images/cyn_red.png","../images/gry_blk.png","../images/pnk_blu.png","../images/blu_wht.png","../images/ylw_slt.png","../images/org_blu.png"],"mutagen_generator_assignment":[1,0],"goal":2,"start":5,"action_noise":0.2,"location_history":"[5,0,5,0,1,0,1,0,5,0,1,0,5,0,5,0,5,0,5,0,5,0,5,0,5,0,1,0,5,4,5,0,5,4,3,4,3,2]","action_history":"[0,0,0,1,1,1,1,1,1,1,1,0,0,0,0,0,0,0,0,0,0,0,0,0,0,1,1,1,1,1,1,1,0,0,0,0,0]","mutagen_history":"[1,1,1,0,0,0,0,0,0,0,0,1,1,1,1,1,1,1,1,1,1,1,1,1,1,0,0,0,0,0,0,0,1,1,1,1,1]","location_rts":"[974,367,314,314,332,336,319,307,333,244,217,229,2279,341,3674,399,322,414,734,6210,430,310,331,10,374,681,356,343,324,350,231,3502,3280,295,286,198,161]","trial_type":"fractal-mutation","trial_index":107,"time_elapsed":1577974,"internal_node_id":"0.0-5.0-3.0"},{"group":"hexagon_bi","fractal_assignment":["../images/cyn_red.png","../images/gry_blk.png","../images/pnk_blu.png","../images/blu_wht.png","../images/ylw_slt.png","../images/org_blu.png"],"mutagen_generator_assignment":[1,0],"goal":1,"start":2,"action_noise":0.2,"location_history":"[2,1]","action_history":"[0]","mutagen_history":"[1]","location_rts":"[1094]","trial_type":"fractal-mutation","trial_index":108,"time_elapsed":1583631,"internal_node_id":"0.0-5.0-4.0"},{"group":"hexagon_bi","fractal_assignment":["../images/cyn_red.png","../images/gry_blk.png","../images/pnk_blu.png","../images/blu_wht.png","../images/ylw_slt.png","../images/org_blu.png"],"mutagen_generator_assignment":[1,0],"goal":4,"start":1,"action_noise":0.2,"location_history":"[1,2,1,2,3,2,3,2,1,0,5,4]","action_history":"[0,0,0,1,1,1,1,1,1,1,1]","mutagen_history":"[1,1,1,0,0,0,0,0,0,0,0]","location_rts":"[694,334,300,181,392,448,300,273,260,222,224]","trial_type":"fractal-mutation","trial_index":109,"time_elapsed":1602249,"internal_node_id":"0.0-5.0-5.0"},{"group":"hexagon_bi","fractal_assignment":["../images/cyn_red.png","../images/gry_blk.png","../images/pnk_blu.png","../images/blu_wht.png","../images/ylw_slt.png","../images/org_blu.png"],"mutagen_generator_assignment":[1,0],"goal":1,"start":4,"action_noise":0.2,"location_history":"[4,5,0,1]","action_history":"[0,0,0]","mutagen_history":"[1,1,1]","location_rts":"[4137,174,184]","trial_type":"fractal-mutation","trial_index":110,"time_elapsed":1613422,"internal_node_id":"0.0-5.0-6.0"},{"group":"hexagon_bi","fractal_assignment":["../images/cyn_red.png","../images/gry_blk.png","../images/pnk_blu.png","../images/blu_wht.png","../images/ylw_slt.png","../images/org_blu.png"],"mutagen_generator_assignment":[1,0],"goal":5,"start":1,"action_noise":0.2,"location_history":"[1,2,1,2,1,0,5]","action_history":"[0,0,0,0,0,0]","mutagen_history":"[1,1,1,1,1,1]","location_rts":"[1173,362,269,188,148,107]","trial_type":"fractal-mutation","trial_index":111,"time_elapsed":1625528,"internal_node_id":"0.0-5.0-7.0"},{"group":"hexagon_bi","fractal_assignment":["../images/cyn_red.png","../images/gry_blk.png","../images/pnk_blu.png","../images/blu_wht.png","../images/ylw_slt.png","../images/org_blu.png"],"mutagen_generator_assignment":[1,0],"goal":0,"start":5,"action_noise":0.2,"location_history":"[5,4,3,2,3,2,3,2,1,2,1,2,3,4,3,4,5,0]","action_history":"[1,1,1,1,1,1,0,0,0,0,0,0,0,0,0,1,1]","mutagen_history":"[0,0,0,0,0,0,1,1,1,1,1,1,1,1,1,0,0]","location_rts":"[421,390,263,268,400,244,247,263,186,156,170,270,281,287,219,132,278]","trial_type":"fractal-mutation","trial_index":112,"time_elapsed":1651337,"internal_node_id":"0.0-5.0-8.0"},{"group":"hexagon_bi","fractal_assignment":["../images/cyn_red.png","../images/gry_blk.png","../images/pnk_blu.png","../images/blu_wht.png","../images/ylw_slt.png","../images/org_blu.png"],"mutagen_generator_assignment":[1,0],"goal":2,"start":0,"action_noise":0.2,"location_history":"[0,5,0,5,4,5,4,3,2]","action_history":"[0,0,0,1,1,1,0,1]","mutagen_history":"[1,1,1,0,0,0,1,0]","location_rts":"[771,283,385,221,308,246,237,317]","trial_type":"fractal-mutation","trial_index":113,"time_elapsed":1665982,"internal_node_id":"0.0-5.0-9.0"},{"group":"hexagon_bi","fractal_assignment":["../images/cyn_red.png","../images/gry_blk.png","../images/pnk_blu.png","../images/blu_wht.png","../images/ylw_slt.png","../images/org_blu.png"],"mutagen_generator_assignment":[1,0],"goal":3,"start":2,"action_noise":0.2,"location_history":"[2,3]","action_history":"[0]","mutagen_history":"[1]","location_rts":"[508]","trial_type":"fractal-mutation","trial_index":114,"time_elapsed":1671051,"internal_node_id":"0.0-5.0-10.0"},{"group":"hexagon_bi","fractal_assignment":["../images/cyn_red.png","../images/gry_blk.png","../images/pnk_blu.png","../images/blu_wht.png","../images/ylw_slt.png","../images/org_blu.png"],"mutagen_generator_assignment":[1,0],"goal":0,"start":3,"action_noise":0.2,"location_history":"[3,2,3,2,1,0]","action_history":"[1,1,1,1,0]","mutagen_history":"[0,0,0,0,1]","location_rts":"[640,303,259,239,106]","trial_type":"fractal-mutation","trial_index":115,"time_elapsed":1681320,"internal_node_id":"0.0-5.0-11.0"},{"group":"hexagon_bi","fractal_assignment":["../images/cyn_red.png","../images/gry_blk.png","../images/pnk_blu.png","../images/blu_wht.png","../images/ylw_slt.png","../images/org_blu.png"],"mutagen_generator_assignment":[1,0],"goal":2,"start":0,"action_noise":0.2,"location_history":"[0,1,0,1,0,5,0,5,0,5,4,3,4,3,4,3,4,5,4,5,4,5,4,5,0,1,2]","action_history":"[1,1,1,1,0,0,0,0,0,0,0,0,0,0,0,0,1,1,1,1,1,1,1,0,0,0]","mutagen_history":"[0,0,0,0,1,1,1,1,1,1,1,1,1,1,1,1,0,0,0,0,0,0,0,1,1,1]","location_rts":"[444,258,4297,368,351,357,577,368,586,648,419,553,763,547,526,387,419,310,437,286,250,211,244,280,641,292]","trial_type":"fractal-mutation","trial_index":116,"time_elapsed":1726977,"internal_node_id":"0.0-5.0-12.0"},{"group":"hexagon_bi","fractal_assignment":["../images/cyn_red.png","../images/gry_blk.png","../images/pnk_blu.png","../images/blu_wht.png","../images/ylw_slt.png","../images/org_blu.png"],"mutagen_generator_assignment":[1,0],"goal":5,"start":2,"action_noise":0.2,"location_history":"[2,1,2,1,2,1,0,1,0,1,0,1,0,1,0,5]","action_history":"[0,0,0,0,0,0,0,1,1,1,1,1,1,1,1]","mutagen_history":"[1,1,1,1,1,1,1,0,0,0,0,0,0,0,0]","location_rts":"[2123,358,299,173,363,388,90,120,936,307,9,231,232,34,280]","trial_type":"fractal-mutation","trial_index":117,"time_elapsed":1752158,"internal_node_id":"0.0-5.0-13.0"},{"group":"hexagon_bi","fractal_assignment":["../images/cyn_red.png","../images/gry_blk.png","../images/pnk_blu.png","../images/blu_wht.png","../images/ylw_slt.png","../images/org_blu.png"],"mutagen_generator_assignment":[1,0],"goal":4,"start":5,"action_noise":0.2,"location_history":"[5,0,1,2,3,2,1,2,3,2,3,2,3,4]","action_history":"[0,0,0,0,0,0,0,1,1,1,1,1,0]","mutagen_history":"[1,1,1,1,1,1,1,0,0,0,0,0,1]","location_rts":"[428,138,209,202,179,133,122,110,258,40,172,806,697]","trial_type":"fractal-mutation","trial_index":118,"time_elapsed":1772839,"internal_node_id":"0.0-5.0-14.0"},{"group":"hexagon_bi","fractal_assignment":["../images/cyn_red.png","../images/gry_blk.png","../images/pnk_blu.png","../images/blu_wht.png","../images/ylw_slt.png","../images/org_blu.png"],"mutagen_generator_assignment":[1,0],"goal":3,"start":4,"action_noise":0.2,"location_history":"[4,3]","action_history":"[1]","mutagen_history":"[0]","location_rts":"[587]","trial_type":"fractal-mutation","trial_index":119,"time_elapsed":1777976,"internal_node_id":"0.0-5.0-15.0"},{"group":"hexagon_bi","fractal_assignment":["../images/cyn_red.png","../images/gry_blk.png","../images/pnk_blu.png","../images/blu_wht.png","../images/ylw_slt.png","../images/org_blu.png"],"mutagen_generator_assignment":[1,0],"goal":1,"start":3,"action_noise":0.2,"location_history":"[3,2,1]","action_history":"[1,1]","mutagen_history":"[0,0]","location_rts":"[541,154]","trial_type":"fractal-mutation","trial_index":120,"time_elapsed":1784262,"internal_node_id":"0.0-5.0-16.0"},{"group":"hexagon_bi","fractal_assignment":["../images/cyn_red.png","../images/gry_blk.png","../images/pnk_blu.png","../images/blu_wht.png","../images/ylw_slt.png","../images/org_blu.png"],"mutagen_generator_assignment":[1,0],"goal":5,"start":1,"action_noise":0.2,"location_history":"[1,2,1,2,1,0,1,2,3,2,3,2,3,2,1,2,1,2,1,0,1,2,3,4,5]","action_history":"[0,0,0,0,0,0,1,1,1,1,1,1,0,0,0,0,0,0,0,0,0,1,1,1]","mutagen_history":"[1,1,1,1,1,1,0,0,0,0,0,0,1,1,1,1,1,1,1,1,1,0,0,0]","location_rts":"[399,249,183,108,92,116,719,416,292,121,201,351,161,254,154,208,150,172,203,377,334,122,199,185]","trial_type":"fractal-mutation","trial_index":121,"time_elapsed":1818757,"internal_node_id":"0.0-5.0-17.0"},{"group":"hexagon_bi","fractal_assignment":["../images/cyn_red.png","../images/gry_blk.png","../images/pnk_blu.png","../images/blu_wht.png","../images/ylw_slt.png","../images/org_blu.png"],"mutagen_generator_assignment":[1,0],"goal":4,"start":5,"action_noise":0.2,"location_history":"[5,4]","action_history":"[0]","mutagen_history":"[1]","location_rts":"[380]","trial_type":"fractal-mutation","trial_index":122,"time_elapsed":1823701,"internal_node_id":"0.0-5.0-18.0"},{"group":"hexagon_bi","fractal_assignment":["../images/cyn_red.png","../images/gry_blk.png","../images/pnk_blu.png","../images/blu_wht.png","../images/ylw_slt.png","../images/org_blu.png"],"mutagen_generator_assignment":[1,0],"goal":0,"start":4,"action_noise":0.2,"location_history":"[4,5,0]","action_history":"[1,1]","mutagen_history":"[0,0]","location_rts":"[375,11517]","trial_type":"fractal-mutation","trial_index":123,"time_elapsed":1841176,"internal_node_id":"0.0-5.0-19.0"},{"group":"hexagon_bi","fractal_assignment":["../images/cyn_red.png","../images/gry_blk.png","../images/pnk_blu.png","../images/blu_wht.png","../images/ylw_slt.png","../images/org_blu.png"],"mutagen_generator_assignment":[1,0],"goal":1,"start":0,"action_noise":0.2,"location_history":"[0,5,4,3,4,3,2,1]","action_history":"[1,1,0,0,0,0,0]","mutagen_history":"[0,0,1,1,1,1,1]","location_rts":"[531,324,184,130,113,95,132]","trial_type":"fractal-mutation","trial_index":124,"time_elapsed":1853553,"internal_node_id":"0.0-5.0-20.0"},{"group":"hexagon_bi","fractal_assignment":["../images/cyn_red.png","../images/gry_blk.png","../images/pnk_blu.png","../images/blu_wht.png","../images/ylw_slt.png","../images/org_blu.png"],"mutagen_generator_assignment":[1,0],"goal":3,"start":1,"action_noise":0.2,"location_history":"[1,0,5,0,5,0,5,4,5,0,5,0,1,0,1,0,1,0,1,0,1,0,5,0,5,4,5,0,5,0,5,0,5,0,1,0,1,0,1,0,1,0,5,4,5,0,1,0,1,2,3]","action_history":"[0,0,0,0,0,0,0,0,0,0,0,1,1,1,1,1,1,1,1,1,1,0,0,0,0,0,0,0,0,0,0,0,0,1,1,1,1,1,1,1,1,1,1,1,1,1,1,1,0,0]","mutagen_history":"[1,1,1,1,1,1,1,1,1,1,1,0,0,0,0,0,0,0,0,0,0,1,1,1,1,1,1,1,1,1,1,1,1,0,0,0,0,0,0,0,0,0,0,0,0,0,0,0,1,1]","location_rts":"[621,260,209,402,233,151,191,299,203,265,314,245,316,240,142,175,124,139,9,32,41,589,234,216,162,463,207,244,314,185,217,625,369,394,248,260,746,285,7,333,150,188,155,191,211,282,382,1001,240,194]","trial_type":"fractal-mutation","trial_index":125,"time_elapsed":1923070,"internal_node_id":"0.0-5.0-21.0"},{"group":"hexagon_bi","fractal_assignment":["../images/cyn_red.png","../images/gry_blk.png","../images/pnk_blu.png","../images/blu_wht.png","../images/ylw_slt.png","../images/org_blu.png"],"mutagen_generator_assignment":[1,0],"goal":2,"start":3,"action_noise":0.2,"location_history":"[3,2]","action_history":"[1]","mutagen_history":"[0]","location_rts":"[8658]","trial_type":"fractal-mutation","trial_index":126,"time_elapsed":1936268,"internal_node_id":"0.0-5.0-22.0"},{"group":"hexagon_bi","fractal_assignment":["../images/cyn_red.png","../images/gry_blk.png","../images/pnk_blu.png","../images/blu_wht.png","../images/ylw_slt.png","../images/org_blu.png"],"mutagen_generator_assignment":[1,0],"goal":0,"start":2,"action_noise":0.2,"location_history":"[2,3,4,3,4,3,4,3,2,3,2,1,0]","action_history":"[1,1,0,0,0,0,1,1,0,0,0,0]","mutagen_history":"[0,0,1,1,1,1,0,0,1,1,1,1]","location_rts":"[11750,589,191,432,430,199,4993,368,1437,213,355,378]","trial_type":"fractal-mutation","trial_index":127,"time_elapsed":1973685,"internal_node_id":"0.0-5.0-23.0"},{"group":"hexagon_bi","fractal_assignment":["../images/cyn_red.png","../images/gry_blk.png","../images/pnk_blu.png","../images/blu_wht.png","../images/ylw_slt.png","../images/org_blu.png"],"mutagen_generator_assignment":[1,0],"goal":3,"start":0,"action_noise":0.2,"location_history":"[0,1,2,1,0,1,2,1,2,1,2,3]","action_history":"[0,0,0,0,0,0,0,0,0,0,0]","mutagen_history":"[1,1,1,1,1,1,1,1,1,1,1]","location_rts":"[938,395,780,757,1926,1027,953,136,476,365,191]","trial_type":"fractal-mutation","trial_index":128,"time_elapsed":1996749,"internal_node_id":"0.0-5.0-24.0"},{"group":"hexagon_bi","fractal_assignment":["../images/cyn_red.png","../images/gry_blk.png","../images/pnk_blu.png","../images/blu_wht.png","../images/ylw_slt.png","../images/org_blu.png"],"mutagen_generator_assignment":[1,0],"goal":1,"start":3,"action_noise":0.2,"location_history":"[3,2,3,2,3,4,3,4,5,0,1]","action_history":"[1,1,1,1,1,1,1,1,1,1]","mutagen_history":"[0,0,0,0,0,0,0,0,0,0]","location_rts":"[1422,281,331,304,435,502,409,265,744,385]","trial_type":"fractal-mutation","trial_index":129,"time_elapsed":2015699,"internal_node_id":"0.0-5.0-25.0"},{"group":"hexagon_bi","fractal_assignment":["../images/cyn_red.png","../images/gry_blk.png","../images/pnk_blu.png","../images/blu_wht.png","../images/ylw_slt.png","../images/org_blu.png"],"mutagen_generator_assignment":[1,0],"goal":2,"start":1,"action_noise":0.2,"location_history":"[1,0,1,0,1,2]","action_history":"[0,0,0,1,1]","mutagen_history":"[1,1,1,0,0]","location_rts":"[1345,413,307,100,196]","trial_type":"fractal-mutation","trial_index":130,"time_elapsed":2026803,"internal_node_id":"0.0-5.0-26.0"},{"group":"hexagon_bi","fractal_assignment":["../images/cyn_red.png","../images/gry_blk.png","../images/pnk_blu.png","../images/blu_wht.png","../images/ylw_slt.png","../images/org_blu.png"],"mutagen_generator_assignment":[1,0],"goal":5,"start":2,"action_noise":0.2,"location_history":"[2,3,2,1,0,1,0,1,2,3,2,3,2,3,4,3,4,3,4,3,4,3,2,1,0,1,2,1,2,1,0,5]","action_history":"[0,0,0,1,1,1,1,1,1,1,1,1,1,1,0,0,0,0,0,0,0,1,1,1,1,0,0,0,0,0,0]","mutagen_history":"[1,1,1,0,0,0,0,0,0,0,0,0,0,0,1,1,1,1,1,1,1,0,0,0,0,1,1,1,1,1,1]","location_rts":"[474,574,351,234,612,478,632,211,239,392,231,24,4946,708,222,127,198,176,60,169,465,57,3086,499,229,228,102,46,513,178,116]","trial_type":"fractal-mutation","trial_index":131,"time_elapsed":2079317,"internal_node_id":"0.0-5.0-27.0"},{"group":"hexagon_bi","fractal_assignment":["../images/cyn_red.png","../images/gry_blk.png","../images/pnk_blu.png","../images/blu_wht.png","../images/ylw_slt.png","../images/org_blu.png"],"mutagen_generator_assignment":[1,0],"goal":4,"start":5,"action_noise":0.2,"location_history":"[5,0,5,0,1,0,1,2,3,2,3,2,3,2,3,4]","action_history":"[0,0,0,1,1,1,1,1,1,1,1,1,1,1,1]","mutagen_history":"[1,1,1,0,0,0,0,0,0,0,0,0,0,0,0]","location_rts":"[548,277,198,203,300,403,267,331,256,621,277,304,296,188,295]","trial_type":"fractal-mutation","trial_index":132,"time_elapsed":2103204,"internal_node_id":"0.0-5.0-28.0"},{"group":"hexagon_bi","fractal_assignment":["../images/cyn_red.png","../images/gry_blk.png","../images/pnk_blu.png","../images/blu_wht.png","../images/ylw_slt.png","../images/org_blu.png"],"mutagen_generator_assignment":[1,0],"goal":5,"start":4,"action_noise":0.2,"location_history":"[4,5]","action_history":"[1]","mutagen_history":"[0]","location_rts":"[547]","trial_type":"fractal-mutation","trial_index":133,"time_elapsed":2108293,"internal_node_id":"0.0-5.0-29.0"},{"group":"hexagon_bi","fractal_assignment":["../images/cyn_red.png","../images/gry_blk.png","../images/pnk_blu.png","../images/blu_wht.png","../images/ylw_slt.png","../images/org_blu.png"],"mutagen_generator_assignment":[1,0],"goal":3,"start":5,"action_noise":0.2,"location_history":"[5,0,5,0,5,4,3]","action_history":"[0,0,0,0,0,0]","mutagen_history":"[1,1,1,1,1,1]","location_rts":"[426,302,205,121,538,380]","trial_type":"fractal-mutation","trial_index":134,"time_elapsed":2120086,"internal_node_id":"0.0-5.0-30.0"},{"group":"hexagon_bi","fractal_assignment":["../images/cyn_red.png","../images/gry_blk.png","../images/pnk_blu.png","../images/blu_wht.png","../images/ylw_slt.png","../images/org_blu.png"],"mutagen_generator_assignment":[1,0],"goal":0,"start":3,"action_noise":0.2,"location_history":"[3,4,3,2,1,2,1,0]","action_history":"[0,0,0,0,0,1,1]","mutagen_history":"[1,1,1,1,1,0,0]","location_rts":"[489,567,303,197,382,165,253]","trial_type":"fractal-mutation","trial_index":135,"time_elapsed":2133287,"internal_node_id":"0.0-5.0-31.0"},{"group":"hexagon_bi","fractal_assignment":["../images/cyn_red.png","../images/gry_blk.png","../images/pnk_blu.png","../images/blu_wht.png","../images/ylw_slt.png","../images/org_blu.png"],"mutagen_generator_assignment":[1,0],"goal":4,"start":0,"action_noise":0.2,"location_history":"[0,5,0,1,2,3,2,1,0,1,0,5,4]","action_history":"[0,0,0,0,1,1,1,1,1,1,1,1]","mutagen_history":"[1,1,1,1,0,0,0,0,0,0,0,0]","location_rts":"[1547,1022,68,781,156,472,377,397,241,400,564,388]","trial_type":"fractal-mutation","trial_index":136,"time_elapsed":2155727,"internal_node_id":"0.0-5.0-32.0"},{"group":"hexagon_bi","fractal_assignment":["../images/cyn_red.png","../images/gry_blk.png","../images/pnk_blu.png","../images/blu_wht.png","../images/ylw_slt.png","../images/org_blu.png"],"mutagen_generator_assignment":[1,0],"goal":1,"start":4,"action_noise":0.2,"location_history":"[4,5,4,3,2,1]","action_history":"[0,1,0,1,0]","mutagen_history":"[1,0,1,0,1]","location_rts":"[662,207,187,210,478]","trial_type":"fractal-mutation","trial_index":137,"time_elapsed":2166239,"internal_node_id":"0.0-5.0-33.0"},{"group":"hexagon_bi","fractal_assignment":["../images/cyn_red.png","../images/gry_blk.png","../images/pnk_blu.png","../images/blu_wht.png","../images/ylw_slt.png","../images/org_blu.png"],"mutagen_generator_assignment":[1,0],"goal":2,"start":1,"action_noise":0.2,"location_history":"[1,2]","action_history":"[0]","mutagen_history":"[1]","location_rts":"[450]","trial_type":"fractal-mutation","trial_index":138,"time_elapsed":2171255,"internal_node_id":"0.0-5.0-34.0"},{"group":"hexagon_bi","fractal_assignment":["../images/cyn_red.png","../images/gry_blk.png","../images/pnk_blu.png","../images/blu_wht.png","../images/ylw_slt.png","../images/org_blu.png"],"mutagen_generator_assignment":[1,0],"goal":0,"start":2,"action_noise":0.2,"location_history":"[2,1,2,1,2,1,0]","action_history":"[0,0,0,0,0,0]","mutagen_history":"[1,1,1,1,1,1]","location_rts":"[427,332,316,373,152,350]","trial_type":"fractal-mutation","trial_index":139,"time_elapsed":2183048,"internal_node_id":"0.0-5.0-35.0"},{"group":"hexagon_bi","fractal_assignment":["../images/cyn_red.png","../images/gry_blk.png","../images/pnk_blu.png","../images/blu_wht.png","../images/ylw_slt.png","../images/org_blu.png"],"mutagen_generator_assignment":[1,0],"goal":5,"start":0,"action_noise":0.2,"location_history":"[0,5]","action_history":"[0]","mutagen_history":"[1]","location_rts":"[626]","trial_type":"fractal-mutation","trial_index":140,"time_elapsed":2188238,"internal_node_id":"0.0-5.0-36.0"},{"group":"hexagon_bi","fractal_assignment":["../images/cyn_red.png","../images/gry_blk.png","../images/pnk_blu.png","../images/blu_wht.png","../images/ylw_slt.png","../images/org_blu.png"],"mutagen_generator_assignment":[1,0],"goal":2,"start":5,"action_noise":0.2,"location_history":"[5,0,5,0,1,2]","action_history":"[0,0,0,0,0]","mutagen_history":"[1,1,1,1,1]","location_rts":"[621,261,253,314,199]","trial_type":"fractal-mutation","trial_index":141,"time_elapsed":2198672,"internal_node_id":"0.0-5.0-37.0"},{"group":"hexagon_bi","fractal_assignment":["../images/cyn_red.png","../images/gry_blk.png","../images/pnk_blu.png","../images/blu_wht.png","../images/ylw_slt.png","../images/org_blu.png"],"mutagen_generator_assignment":[1,0],"goal":1,"start":2,"action_noise":0.2,"location_history":"[2,3,2,1]","action_history":"[0,0,0]","mutagen_history":"[1,1,1]","location_rts":"[507,370,338]","trial_type":"fractal-mutation","trial_index":142,"time_elapsed":2206564,"internal_node_id":"0.0-5.0-38.0"},{"group":"hexagon_bi","fractal_assignment":["../images/cyn_red.png","../images/gry_blk.png","../images/pnk_blu.png","../images/blu_wht.png","../images/ylw_slt.png","../images/org_blu.png"],"mutagen_generator_assignment":[1,0],"goal":4,"start":1,"action_noise":0.2,"location_history":"[1,0,5,4]","action_history":"[0,0,1]","mutagen_history":"[1,1,0]","location_rts":"[416,218,310]","trial_type":"fractal-mutation","trial_index":143,"time_elapsed":2214173,"internal_node_id":"0.0-5.0-39.0"},{"group":"hexagon_bi","fractal_assignment":["../images/cyn_red.png","../images/gry_blk.png","../images/pnk_blu.png","../images/blu_wht.png","../images/ylw_slt.png","../images/org_blu.png"],"mutagen_generator_assignment":[1,0],"goal":3,"start":4,"action_noise":0.2,"location_history":"[4,3]","action_history":"[0]","mutagen_history":"[1]","location_rts":"[487]","trial_type":"fractal-mutation","trial_index":144,"time_elapsed":2219219,"internal_node_id":"0.0-5.0-40.0"},{"group":"hexagon_bi","fractal_assignment":["../images/cyn_red.png","../images/gry_blk.png","../images/pnk_blu.png","../images/blu_wht.png","../images/ylw_slt.png","../images/org_blu.png"],"mutagen_generator_assignment":[1,0],"goal":5,"start":3,"action_noise":0.2,"location_history":"[3,2,1,0,5]","action_history":"[0,0,0,0]","mutagen_history":"[1,1,1,1]","location_rts":"[503,567,301,223]","trial_type":"fractal-mutation","trial_index":145,"time_elapsed":2228535,"internal_node_id":"0.0-5.0-41.0"},{"group":"hexagon_bi","fractal_assignment":["../images/cyn_red.png","../images/gry_blk.png","../images/pnk_blu.png","../images/blu_wht.png","../images/ylw_slt.png","../images/org_blu.png"],"mutagen_generator_assignment":[1,0],"goal":3,"start":5,"action_noise":0.2,"location_history":"[5,0,1,2,1,2,1,0,1,0,5,0,1,0,1,2,3]","action_history":"[0,0,0,0,0,0,1,1,1,1,1,1,1,1,1,1]","mutagen_history":"[1,1,1,1,1,1,0,0,0,0,0,0,0,0,0,0]","location_rts":"[389,435,305,121,87,385,235,327,277,301,229,247,227,255,171,191]","trial_type":"fractal-mutation","trial_index":146,"time_elapsed":2252927,"internal_node_id":"0.0-5.0-42.0"},{"group":"hexagon_bi","fractal_assignment":["../images/cyn_red.png","../images/gry_blk.png","../images/pnk_blu.png","../images/blu_wht.png","../images/ylw_slt.png","../images/org_blu.png"],"mutagen_generator_assignment":[1,0],"goal":0,"start":3,"action_noise":0.2,"location_history":"[3,2,3,4,5,0]","action_history":"[1,1,1,1,1]","mutagen_history":"[0,0,0,0,0]","location_rts":"[426,302,253,200,207]","trial_type":"fractal-mutation","trial_index":147,"time_elapsed":2263002,"internal_node_id":"0.0-5.0-43.0"},{"group":"hexagon_bi","fractal_assignment":["../images/cyn_red.png","../images/gry_blk.png","../images/pnk_blu.png","../images/blu_wht.png","../images/ylw_slt.png","../images/org_blu.png"],"mutagen_generator_assignment":[1,0],"goal":2,"start":0,"action_noise":0.2,"location_history":"[0,1,2]","action_history":"[0,0]","mutagen_history":"[1,1]","location_rts":"[596,254]","trial_type":"fractal-mutation","trial_index":148,"time_elapsed":2269464,"internal_node_id":"0.0-5.0-44.0"},{"group":"hexagon_bi","fractal_assignment":["../images/cyn_red.png","../images/gry_blk.png","../images/pnk_blu.png","../images/blu_wht.png","../images/ylw_slt.png","../images/org_blu.png"],"mutagen_generator_assignment":[1,0],"goal":4,"start":2,"action_noise":0.2,"location_history":"[2,1,2,1,0,5,4]","action_history":"[0,0,0,1,1,1]","mutagen_history":"[1,1,1,0,0,0]","location_rts":"[395,401,197,83,105,172]","trial_type":"fractal-mutation","trial_index":149,"time_elapsed":2280605,"internal_node_id":"0.0-5.0-45.0"},{"group":"hexagon_bi","fractal_assignment":["../images/cyn_red.png","../images/gry_blk.png","../images/pnk_blu.png","../images/blu_wht.png","../images/ylw_slt.png","../images/org_blu.png"],"mutagen_generator_assignment":[1,0],"goal":1,"start":4,"action_noise":0.2,"location_history":"[4,5,0,5,0,1]","action_history":"[0,0,0,0,1]","mutagen_history":"[1,1,1,1,0]","location_rts":"[380,257,138,97,523]","trial_type":"fractal-mutation","trial_index":150,"time_elapsed":2290778,"internal_node_id":"0.0-5.0-46.0"},{"group":"hexagon_bi","fractal_assignment":["../images/cyn_red.png","../images/gry_blk.png","../images/pnk_blu.png","../images/blu_wht.png","../images/ylw_slt.png","../images/org_blu.png"],"mutagen_generator_assignment":[1,0],"goal":4,"start":1,"action_noise":0.2,"location_history":"[1,2,1,0,1,2,1,0,1,2,3,2,1,2,1,2,1,2,3,4]","action_history":"[0,0,1,1,1,1,1,1,1,1,1,0,0,0,0,0,0,0,0]","mutagen_history":"[1,1,0,0,0,0,0,0,0,0,0,1,1,1,1,1,1,1,1]","location_rts":"[481,118,436,1139,1542,320,284,134,657,239,242,568,553,544,344,296,387,71,562]","trial_type":"fractal-mutation","trial_index":151,"time_elapsed":2323194,"internal_node_id":"0.0-5.0-47.0"},{"group":"hexagon_bi","fractal_assignment":["../images/cyn_red.png","../images/gry_blk.png","../images/pnk_blu.png","../images/blu_wht.png","../images/ylw_slt.png","../images/org_blu.png"],"mutagen_generator_assignment":[1,0],"goal":1,"start":4,"action_noise":0.2,"location_history":"[4,3,4,5,4,5,4,3,2,3,4,3,4,3,2,3,2,3,4,5,0,1]","action_history":"[0,0,1,1,1,1,1,1,1,0,0,0,1,1,1,1,1,0,0,0,0]","mutagen_history":"[1,1,0,0,0,0,0,0,0,1,1,1,0,0,0,0,0,1,1,1,1]","location_rts":"[456,267,277,360,333,246,423,214,290,460,276,582,265,404,5267,294,281,463,1185,512,285]","trial_type":"fractal-mutation","trial_index":152,"time_elapsed":2361825,"internal_node_id":"0.0-5.0-48.0"},{"group":"hexagon_bi","fractal_assignment":["../images/cyn_red.png","../images/gry_blk.png","../images/pnk_blu.png","../images/blu_wht.png","../images/ylw_slt.png","../images/org_blu.png"],"mutagen_generator_assignment":[1,0],"goal":3,"start":1,"action_noise":0.2,"location_history":"[1,0,1,0,5,0,5,0,1,0,1,2,3]","action_history":"[1,1,1,0,0,0,0,1,1,1,1,1]","mutagen_history":"[0,0,0,1,1,1,1,0,0,0,0,0]","location_rts":"[2576,586,300,975,391,484,209,18428,6404,400,46,137]","trial_type":"fractal-mutation","trial_index":153,"time_elapsed":2408791,"internal_node_id":"0.0-5.0-49.0"},{"group":"hexagon_bi","fractal_assignment":["../images/cyn_red.png","../images/gry_blk.png","../images/pnk_blu.png","../images/blu_wht.png","../images/ylw_slt.png","../images/org_blu.png"],"mutagen_generator_assignment":[1,0],"goal":5,"start":3,"action_noise":0.2,"location_history":"[3,2,3,2,1,2,1,2,1,2,1,2,1,2,1,0,5]","action_history":"[1,1,1,0,0,0,0,0,0,0,0,0,0,0,0,0]","mutagen_history":"[0,0,0,1,1,1,1,1,1,1,1,1,1,1,1,1]","location_rts":"[848,267,75,465,142,187,139,85,260,118,55,65,146,126,977,1825]","trial_type":"fractal-mutation","trial_index":154,"time_elapsed":2434939,"internal_node_id":"0.0-5.0-50.0"},{"group":"hexagon_bi","fractal_assignment":["../images/cyn_red.png","../images/gry_blk.png","../images/pnk_blu.png","../images/blu_wht.png","../images/ylw_slt.png","../images/org_blu.png"],"mutagen_generator_assignment":[1,0],"goal":0,"start":5,"action_noise":0.2,"location_history":"[5,4,5,0]","action_history":"[1,1,1]","mutagen_history":"[0,0,0]","location_rts":"[3537,445,494]","trial_type":"fractal-mutation","trial_index":155,"time_elapsed":2446028,"internal_node_id":"0.0-5.0-51.0"},{"group":"hexagon_bi","fractal_assignment":["../images/cyn_red.png","../images/gry_blk.png","../images/pnk_blu.png","../images/blu_wht.png","../images/ylw_slt.png","../images/org_blu.png"],"mutagen_generator_assignment":[1,0],"goal":2,"start":0,"action_noise":0.2,"location_history":"[0,5,4,3,4,3,4,3,2]","action_history":"[0,0,0,0,0,0,0,1]","mutagen_history":"[1,1,1,1,1,1,1,0]","location_rts":"[615,287,197,890,1019,332,346,616]","trial_type":"fractal-mutation","trial_index":156,"time_elapsed":2462272,"internal_node_id":"0.0-5.0-52.0"},{"group":"hexagon_bi","fractal_assignment":["../images/cyn_red.png","../images/gry_blk.png","../images/pnk_blu.png","../images/blu_wht.png","../images/ylw_slt.png","../images/org_blu.png"],"mutagen_generator_assignment":[1,0],"goal":1,"start":2,"action_noise":0.2,"location_history":"[2,1]","action_history":"[0]","mutagen_history":"[1]","location_rts":"[1071]","trial_type":"fractal-mutation","trial_index":157,"time_elapsed":2467904,"internal_node_id":"0.0-5.0-53.0"},{"group":"hexagon_bi","fractal_assignment":["../images/cyn_red.png","../images/gry_blk.png","../images/pnk_blu.png","../images/blu_wht.png","../images/ylw_slt.png","../images/org_blu.png"],"mutagen_generator_assignment":[1,0],"goal":2,"start":1,"action_noise":0.2,"location_history":"[1,2]","action_history":"[0]","mutagen_history":"[1]","location_rts":"[470]","trial_type":"fractal-mutation","trial_index":158,"time_elapsed":2472936,"internal_node_id":"0.0-5.0-54.0"},{"group":"hexagon_bi","fractal_assignment":["../images/cyn_red.png","../images/gry_blk.png","../images/pnk_blu.png","../images/blu_wht.png","../images/ylw_slt.png","../images/org_blu.png"],"mutagen_generator_assignment":[1,0],"goal":5,"start":2,"action_noise":0.2,"location_history":"[2,1,2,1,0,1,2,3,2,1,2,1,2,1,2,1,0,5]","action_history":"[0,0,0,1,1,1,1,1,0,0,0,0,0,0,0,0,0]","mutagen_history":"[1,1,1,0,0,0,0,0,1,1,1,1,1,1,1,1,1]","location_rts":"[427,1298,314,80,299,432,370,427,310,399,241,146,335,160,32,1050,750]","trial_type":"fractal-mutation","trial_index":159,"time_elapsed":2501362,"internal_node_id":"0.0-5.0-55.0"},{"group":"hexagon_bi","fractal_assignment":["../images/cyn_red.png","../images/gry_blk.png","../images/pnk_blu.png","../images/blu_wht.png","../images/ylw_slt.png","../images/org_blu.png"],"mutagen_generator_assignment":[1,0],"goal":4,"start":5,"action_noise":0.2,"location_history":"[5,0,1,0,1,0,1,0,1,2,3,4]","action_history":"[0,1,1,1,1,1,1,1,1,0,0]","mutagen_history":"[1,0,0,0,0,0,0,0,0,1,1]","location_rts":"[4676,2032,219,287,403,178,504,209,792,516,252]","trial_type":"fractal-mutation","trial_index":160,"time_elapsed":2526411,"internal_node_id":"0.0-5.0-56.0"},{"group":"hexagon_bi","fractal_assignment":["../images/cyn_red.png","../images/gry_blk.png","../images/pnk_blu.png","../images/blu_wht.png","../images/ylw_slt.png","../images/org_blu.png"],"mutagen_generator_assignment":[1,0],"goal":3,"start":4,"action_noise":0.2,"location_history":"[4,3]","action_history":"[0]","mutagen_history":"[1]","location_rts":"[500]","trial_type":"fractal-mutation","trial_index":161,"time_elapsed":2531472,"internal_node_id":"0.0-5.0-57.0"},{"group":"hexagon_bi","fractal_assignment":["../images/cyn_red.png","../images/gry_blk.png","../images/pnk_blu.png","../images/blu_wht.png","../images/ylw_slt.png","../images/org_blu.png"],"mutagen_generator_assignment":[1,0],"goal":0,"start":3,"action_noise":0.2,"location_history":"[3,4,3,2,1,2,1,2,1,0]","action_history":"[0,0,0,0,0,0,0,0,0]","mutagen_history":"[1,1,1,1,1,1,1,1,1]","location_rts":"[407,323,303,277,396,336,295,302,408]","trial_type":"fractal-mutation","trial_index":162,"time_elapsed":2547509,"internal_node_id":"0.0-5.0-58.0"},{"group":"hexagon_bi","fractal_assignment":["../images/cyn_red.png","../images/gry_blk.png","../images/pnk_blu.png","../images/blu_wht.png","../images/ylw_slt.png","../images/org_blu.png"],"mutagen_generator_assignment":[1,0],"goal":2,"start":0,"action_noise":0.2,"location_history":"[0,5,0,5,4,5,0,1,2]","action_history":"[0,0,0,1,1,1,1,1]","mutagen_history":"[1,1,1,0,0,0,0,0]","location_rts":"[705,250,169,126,106,81,144,87]","trial_type":"fractal-mutation","trial_index":163,"time_elapsed":2561050,"internal_node_id":"0.0-5.0-59.0"},{"group":"hexagon_bi","fractal_assignment":["../images/cyn_red.png","../images/gry_blk.png","../images/pnk_blu.png","../images/blu_wht.png","../images/ylw_slt.png","../images/org_blu.png"],"mutagen_generator_assignment":[1,0],"goal":1,"start":2,"action_noise":0.2,"location_history":"[2,1]","action_history":"[0]","mutagen_history":"[1]","location_rts":"[3965]","trial_type":"fractal-mutation","trial_index":164,"time_elapsed":2569581,"internal_node_id":"0.0-5.0-60.0"},{"group":"hexagon_bi","fractal_assignment":["../images/cyn_red.png","../images/gry_blk.png","../images/pnk_blu.png","../images/blu_wht.png","../images/ylw_slt.png","../images/org_blu.png"],"mutagen_generator_assignment":[1,0],"goal":0,"start":1,"action_noise":0.2,"location_history":"[1,0]","action_history":"[0]","mutagen_history":"[1]","location_rts":"[6958]","trial_type":"fractal-mutation","trial_index":165,"time_elapsed":2581105,"internal_node_id":"0.0-5.0-61.0"},{"group":"hexagon_bi","fractal_assignment":["../images/cyn_red.png","../images/gry_blk.png","../images/pnk_blu.png","../images/blu_wht.png","../images/ylw_slt.png","../images/org_blu.png"],"mutagen_generator_assignment":[1,0],"goal":3,"start":0,"action_noise":0.2,"location_history":"[0,5,0,5,0,1,0,5,4,5,4,5,4,5,0,5,4,5,4,5,0,1,2,1,2,1,2,1,2,3]","action_history":"[0,0,0,0,0,0,1,1,1,1,1,1,1,1,1,1,1,1,1,1,1,0,0,0,0,0,0,0,0]","mutagen_history":"[1,1,1,1,1,1,0,0,0,0,0,0,0,0,0,0,0,0,0,0,0,1,1,1,1,1,1,1,1]","location_rts":"[11518,287,94,181,63,219,324,250,510,134,115,43,103,151,98,71,104,62,35,8,8,69,216,715,821,574,273,230,1179]","trial_type":"fractal-mutation","trial_index":166,"time_elapsed":2633458,"internal_node_id":"0.0-5.0-62.0"},{"group":"hexagon_bi","fractal_assignment":["../images/cyn_red.png","../images/gry_blk.png","../images/pnk_blu.png","../images/blu_wht.png","../images/ylw_slt.png","../images/org_blu.png"],"mutagen_generator_assignment":[1,0],"goal":5,"start":3,"action_noise":0.2,"location_history":"[3,4,3,4,5]","action_history":"[0,0,0,0]","mutagen_history":"[1,1,1,1]","location_rts":"[678,120,139,155]","trial_type":"fractal-mutation","trial_index":167,"time_elapsed":2642287,"internal_node_id":"0.0-5.0-63.0"},{"group":"hexagon_bi","fractal_assignment":["../images/cyn_red.png","../images/gry_blk.png","../images/pnk_blu.png","../images/blu_wht.png","../images/ylw_slt.png","../images/org_blu.png"],"mutagen_generator_assignment":[1,0],"goal":4,"start":5,"action_noise":0.2,"location_history":"[5,0,1,0,1,0,5,0,5,0,1,2,1,2,1,0,1,0,5,4]","action_history":"[0,0,0,0,0,0,1,1,1,0,0,0,0,0,1,1,1,1,1]","mutagen_history":"[1,1,1,1,1,1,0,0,0,1,1,1,1,1,0,0,0,0,0]","location_rts":"[183,269,363,360,150,310,128,128,157,173,63,138,142,57,214,216,279,561,362]","trial_type":"fractal-mutation","trial_index":168,"time_elapsed":2669952,"internal_node_id":"0.0-5.0-64.0"},{"group":"hexagon_bi","fractal_assignment":["../images/cyn_red.png","../images/gry_blk.png","../images/pnk_blu.png","../images/blu_wht.png","../images/ylw_slt.png","../images/org_blu.png"],"mutagen_generator_assignment":[1,0],"goal":1,"start":4,"action_noise":0.2,"location_history":"[4,3,2,1]","action_history":"[1,1,0]","mutagen_history":"[0,0,1]","location_rts":"[518,353,249]","trial_type":"fractal-mutation","trial_index":169,"time_elapsed":2677710,"internal_node_id":"0.0-5.0-65.0"},{"group":"hexagon_bi","fractal_assignment":["../images/cyn_red.png","../images/gry_blk.png","../images/pnk_blu.png","../images/blu_wht.png","../images/ylw_slt.png","../images/org_blu.png"],"mutagen_generator_assignment":[1,0],"goal":5,"start":1,"action_noise":0.2,"location_history":"[1,2,1,2,1,2,1,2,1,2,1,2,1,0,1,0,1,2,3,4,3,4,3,4,5]","action_history":"[0,0,0,0,0,0,0,0,0,0,0,0,1,1,1,1,1,0,0,0,0,0,0,0]","mutagen_history":"[1,1,1,1,1,1,1,1,1,1,1,1,0,0,0,0,0,1,1,1,1,1,1,1]","location_rts":"[1898,121,22,58,538,445,96,3055,142,27,474,116,1322,348,1250,318,290,642,1639,1874,1465,230,658,1624]","trial_type":"fractal-mutation","trial_index":170,"time_elapsed":2725138,"internal_node_id":"0.0-5.0-66.0"},{"group":"hexagon_bi","fractal_assignment":["../images/cyn_red.png","../images/gry_blk.png","../images/pnk_blu.png","../images/blu_wht.png","../images/ylw_slt.png","../images/org_blu.png"],"mutagen_generator_assignment":[1,0],"goal":2,"start":5,"action_noise":0.2,"location_history":"[5,4,3,4,3,4,5,4,5,0,1,2]","action_history":"[0,0,0,0,0,1,1,1,1,1,1]","mutagen_history":"[1,1,1,1,1,0,0,0,0,0,0]","location_rts":"[1660,2081,399,1037,305,1021,911,433,1159,386,748]","trial_type":"fractal-mutation","trial_index":171,"time_elapsed":2750315,"internal_node_id":"0.0-5.0-67.0"},{"group":"hexagon_bi","fractal_assignment":["../images/cyn_red.png","../images/gry_blk.png","../images/pnk_blu.png","../images/blu_wht.png","../images/ylw_slt.png","../images/org_blu.png"],"mutagen_generator_assignment":[1,0],"goal":3,"start":2,"action_noise":0.2,"location_history":"[2,1,2,1,0,1,0,5,0,1,0,5,0,5,0,5,0,5,0,5,4,3]","action_history":"[0,0,0,1,1,1,1,1,1,1,0,0,0,0,0,0,0,0,0,0,0]","mutagen_history":"[1,1,1,0,0,0,0,0,0,0,1,1,1,1,1,1,1,1,1,1,1]","location_rts":"[543,818,339,323,459,255,366,322,5148,3132,341,351,330,247,423,276,518,205,563,391,1879]","trial_type":"fractal-mutation","trial_index":172,"time_elapsed":2793139,"internal_node_id":"0.0-5.0-68.0"},{"group":"hexagon_bi","fractal_assignment":["../images/cyn_red.png","../images/gry_blk.png","../images/pnk_blu.png","../images/blu_wht.png","../images/ylw_slt.png","../images/org_blu.png"],"mutagen_generator_assignment":[1,0],"goal":4,"start":3,"action_noise":0.2,"location_history":"[3,2,1,2,1,2,3,2,1,2,1,2,1,0,5,4]","action_history":"[0,0,0,0,0,0,0,0,0,0,0,0,0,1,1]","mutagen_history":"[1,1,1,1,1,1,1,1,1,1,1,1,1,0,0]","location_rts":"[612,765,636,480,663,1329,1054,194,801,1603,54,666,440,729,466]","trial_type":"fractal-mutation","trial_index":173,"time_elapsed":2822968,"internal_node_id":"0.0-5.0-69.0"},{"group":"hexagon_bi","fractal_assignment":["../images/cyn_red.png","../images/gry_blk.png","../images/pnk_blu.png","../images/blu_wht.png","../images/ylw_slt.png","../images/org_blu.png"],"mutagen_generator_assignment":[1,0],"goal":0,"start":4,"action_noise":0.2,"location_history":"[4,3,2,1,0]","action_history":"[1,1,1,1]","mutagen_history":"[0,0,0,0]","location_rts":"[416,1665,446,450]","trial_type":"fractal-mutation","trial_index":174,"time_elapsed":2833589,"internal_node_id":"0.0-5.0-70.0"},{"group":"hexagon_bi","fractal_assignment":["../images/cyn_red.png","../images/gry_blk.png","../images/pnk_blu.png","../images/blu_wht.png","../images/ylw_slt.png","../images/org_blu.png"],"mutagen_generator_assignment":[1,0],"goal":5,"start":0,"action_noise":0.2,"location_history":"[0,5]","action_history":"[0]","mutagen_history":"[1]","location_rts":"[518]","trial_type":"fractal-mutation","trial_index":175,"time_elapsed":2838666,"internal_node_id":"0.0-5.0-71.0"},{"group":"hexagon_bi","fractal_assignment":["../images/cyn_red.png","../images/gry_blk.png","../images/pnk_blu.png","../images/blu_wht.png","../images/ylw_slt.png","../images/org_blu.png"],"mutagen_generator_assignment":[1,0],"goal":0,"start":5,"action_noise":0.2,"location_history":"[5,0]","action_history":"[0]","mutagen_history":"[1]","location_rts":"[709]","trial_type":"fractal-mutation","trial_index":176,"time_elapsed":2843938,"internal_node_id":"0.0-5.0-72.0"},{"group":"hexagon_bi","fractal_assignment":["../images/cyn_red.png","../images/gry_blk.png","../images/pnk_blu.png","../images/blu_wht.png","../images/ylw_slt.png","../images/org_blu.png"],"mutagen_generator_assignment":[1,0],"goal":3,"start":0,"action_noise":0.2,"location_history":"[0,5,0,5,0,5,0,5,0,1,2,1,0,5,4,3]","action_history":"[0,0,0,0,0,0,0,0,0,0,0,0,0,0,0]","mutagen_history":"[1,1,1,1,1,1,1,1,1,1,1,1,1,1,1]","location_rts":"[4055,3190,412,2050,2182,1486,112,731,1424,49,937,3398,1962,1898,191]","trial_type":"fractal-mutation","trial_index":177,"time_elapsed":2887383,"internal_node_id":"0.0-5.0-73.0"},{"group":"hexagon_bi","fractal_assignment":["../images/cyn_red.png","../images/gry_blk.png","../images/pnk_blu.png","../images/blu_wht.png","../images/ylw_slt.png","../images/org_blu.png"],"mutagen_generator_assignment":[1,0],"goal":1,"start":3,"action_noise":0.2,"location_history":"[3,2,1]","action_history":"[0,0]","mutagen_history":"[1,1]","location_rts":"[1046,2105]","trial_type":"fractal-mutation","trial_index":178,"time_elapsed":2896154,"internal_node_id":"0.0-5.0-74.0"},{"group":"hexagon_bi","fractal_assignment":["../images/cyn_red.png","../images/gry_blk.png","../images/pnk_blu.png","../images/blu_wht.png","../images/ylw_slt.png","../images/org_blu.png"],"mutagen_generator_assignment":[1,0],"goal":2,"start":1,"action_noise":0.2,"location_history":"[1,2]","action_history":"[0]","mutagen_history":"[1]","location_rts":"[1850]","trial_type":"fractal-mutation","trial_index":179,"time_elapsed":2902566,"internal_node_id":"0.0-5.0-75.0"},{"group":"hexagon_bi","fractal_assignment":["../images/cyn_red.png","../images/gry_blk.png","../images/pnk_blu.png","../images/blu_wht.png","../images/ylw_slt.png","../images/org_blu.png"],"mutagen_generator_assignment":[1,0],"goal":4,"start":2,"action_noise":0.2,"location_history":"[2,1,2,3,4]","action_history":"[0,0,0,0]","mutagen_history":"[1,1,1,1]","location_rts":"[1573,1352,557,1320]","trial_type":"fractal-mutation","trial_index":180,"time_elapsed":2915093,"internal_node_id":"0.0-5.0-76.0"},{"group":"hexagon_bi","fractal_assignment":["../images/cyn_red.png","../images/gry_blk.png","../images/pnk_blu.png","../images/blu_wht.png","../images/ylw_slt.png","../images/org_blu.png"],"mutagen_generator_assignment":[1,0],"goal":3,"start":4,"action_noise":0.2,"location_history":"[4,5,4,5,4,5,4,5,4,5,0,1,0,1,0,1,2,1,2,1,2,3]","action_history":"[1,1,1,1,1,1,1,1,1,1,1,1,1,1,1,0,0,0,0,0,0]","mutagen_history":"[0,0,0,0,0,0,0,0,0,0,0,0,0,0,0,1,1,1,1,1,1]","location_rts":"[593,758,1223,2958,823,100,676,1131,1066,623,584,812,1107,673,362,238,327,347,445,460,348]","trial_type":"fractal-mutation","trial_index":181,"time_elapsed":2956188,"internal_node_id":"0.0-5.0-77.0"},{"group":"hexagon_bi","fractal_assignment":["../images/cyn_red.png","../images/gry_blk.png","../images/pnk_blu.png","../images/blu_wht.png","../images/ylw_slt.png","../images/org_blu.png"],"mutagen_generator_assignment":[1,0],"goal":0,"start":3,"action_noise":0.2,"location_history":"[3,4,3,4,3,4,5,0]","action_history":"[0,0,0,0,0,0,0]","mutagen_history":"[1,1,1,1,1,1,1]","location_rts":"[1795,566,624,282,690,520,348]","trial_type":"fractal-mutation","trial_index":182,"time_elapsed":2971919,"internal_node_id":"0.0-5.0-78.0"},{"group":"hexagon_bi","fractal_assignment":["../images/cyn_red.png","../images/gry_blk.png","../images/pnk_blu.png","../images/blu_wht.png","../images/ylw_slt.png","../images/org_blu.png"],"mutagen_generator_assignment":[1,0],"goal":4,"start":0,"action_noise":0.2,"location_history":"[0,5,0,1,0,5,4]","action_history":"[0,0,1,1,1,1]","mutagen_history":"[1,1,0,0,0,0]","location_rts":"[501,633,293,761,259,396]","trial_type":"fractal-mutation","trial_index":183,"time_elapsed":2984535,"internal_node_id":"0.0-5.0-79.0"},{"group":"hexagon_bi","fractal_assignment":["../images/cyn_red.png","../images/gry_blk.png","../images/pnk_blu.png","../images/blu_wht.png","../images/ylw_slt.png","../images/org_blu.png"],"mutagen_generator_assignment":[1,0],"goal":5,"start":4,"action_noise":0.2,"location_history":"[4,3,4,3,2,1,0,5]","action_history":"[0,0,0,0,0,0,0]","mutagen_history":"[1,1,1,1,1,1,1]","location_rts":"[398,310,402,231,278,166,304]","trial_type":"fractal-mutation","trial_index":184,"time_elapsed":2997517,"internal_node_id":"0.0-5.0-80.0"},{"group":"hexagon_bi","fractal_assignment":["../images/cyn_red.png","../images/gry_blk.png","../images/pnk_blu.png","../images/blu_wht.png","../images/ylw_slt.png","../images/org_blu.png"],"mutagen_generator_assignment":[1,0],"goal":1,"start":5,"action_noise":0.2,"location_history":"[5,0,5,0,5,0,5,0,1]","action_history":"[0,0,0,0,0,0,0,0]","mutagen_history":"[1,1,1,1,1,1,1,1]","location_rts":"[329,503,243,260,175,124,97,105]","trial_type":"fractal-mutation","trial_index":185,"time_elapsed":3011316,"internal_node_id":"0.0-5.0-81.0"},{"group":"hexagon_bi","fractal_assignment":["../images/cyn_red.png","../images/gry_blk.png","../images/pnk_blu.png","../images/blu_wht.png","../images/ylw_slt.png","../images/org_blu.png"],"mutagen_generator_assignment":[1,0],"goal":2,"start":1,"action_noise":0.2,"location_history":"[1,2]","action_history":"[0]","mutagen_history":"[1]","location_rts":"[511]","trial_type":"fractal-mutation","trial_index":186,"time_elapsed":3016392,"internal_node_id":"0.0-5.0-82.0"},{"group":"hexagon_bi","fractal_assignment":["../images/cyn_red.png","../images/gry_blk.png","../images/pnk_blu.png","../images/blu_wht.png","../images/ylw_slt.png","../images/org_blu.png"],"mutagen_generator_assignment":[1,0],"goal":4,"start":2,"action_noise":0.2,"location_history":"[2,3,4]","action_history":"[0,0]","mutagen_history":"[1,1]","location_rts":"[874,281]","trial_type":"fractal-mutation","trial_index":187,"time_elapsed":3023170,"internal_node_id":"0.0-5.0-83.0"},{"group":"hexagon_bi","fractal_assignment":["../images/cyn_red.png","../images/gry_blk.png","../images/pnk_blu.png","../images/blu_wht.png","../images/ylw_slt.png","../images/org_blu.png"],"mutagen_generator_assignment":[1,0],"goal":0,"start":4,"action_noise":0.2,"location_history":"[4,3,4,3,4,3,4,5,0]","action_history":"[0,0,0,0,0,0,0,0]","mutagen_history":"[1,1,1,1,1,1,1,1]","location_rts":"[402,198,284,250,150,178,226,67]","trial_type":"fractal-mutation","trial_index":188,"time_elapsed":3036880,"internal_node_id":"0.0-5.0-84.0"},{"group":"hexagon_bi","fractal_assignment":["../images/cyn_red.png","../images/gry_blk.png","../images/pnk_blu.png","../images/blu_wht.png","../images/ylw_slt.png","../images/org_blu.png"],"mutagen_generator_assignment":[1,0],"goal":5,"start":0,"action_noise":0.2,"location_history":"[0,5]","action_history":"[0]","mutagen_history":"[1]","location_rts":"[270]","trial_type":"fractal-mutation","trial_index":189,"time_elapsed":3041714,"internal_node_id":"0.0-5.0-85.0"},{"group":"hexagon_bi","fractal_assignment":["../images/cyn_red.png","../images/gry_blk.png","../images/pnk_blu.png","../images/blu_wht.png","../images/ylw_slt.png","../images/org_blu.png"],"mutagen_generator_assignment":[1,0],"goal":3,"start":5,"action_noise":0.2,"location_history":"[5,4,3]","action_history":"[0,0]","mutagen_history":"[1,1]","location_rts":"[526,357]","trial_type":"fractal-mutation","trial_index":190,"time_elapsed":3048214,"internal_node_id":"0.0-5.0-86.0"},{"group":"hexagon_bi","fractal_assignment":["../images/cyn_red.png","../images/gry_blk.png","../images/pnk_blu.png","../images/blu_wht.png","../images/ylw_slt.png","../images/org_blu.png"],"mutagen_generator_assignment":[1,0],"goal":1,"start":3,"action_noise":0.2,"location_history":"[3,2,1]","action_history":"[0,0]","mutagen_history":"[1,1]","location_rts":"[387,183]","trial_type":"fractal-mutation","trial_index":191,"time_elapsed":3054401,"internal_node_id":"0.0-5.0-87.0"},{"group":"hexagon_bi","fractal_assignment":["../images/cyn_red.png","../images/gry_blk.png","../images/pnk_blu.png","../images/blu_wht.png","../images/ylw_slt.png","../images/org_blu.png"],"mutagen_generator_assignment":[1,0],"goal":2,"start":1,"action_noise":0.2,"location_history":"[1,2]","action_history":"[0]","mutagen_history":"[1]","location_rts":"[384]","trial_type":"fractal-mutation","trial_index":192,"time_elapsed":3059350,"internal_node_id":"0.0-5.0-88.0"},{"group":"hexagon_bi","fractal_assignment":["../images/cyn_red.png","../images/gry_blk.png","../images/pnk_blu.png","../images/blu_wht.png","../images/ylw_slt.png","../images/org_blu.png"],"mutagen_generator_assignment":[1,0],"goal":0,"start":2,"action_noise":0.2,"location_history":"[2,1,2,1,0]","action_history":"[0,0,0,0]","mutagen_history":"[1,1,1,1]","location_rts":"[334,356,357,360]","trial_type":"fractal-mutation","trial_index":193,"time_elapsed":3068492,"internal_node_id":"0.0-5.0-89.0"},{"group":"hexagon_bi","fractal_assignment":["../images/cyn_red.png","../images/gry_blk.png","../images/pnk_blu.png","../images/blu_wht.png","../images/ylw_slt.png","../images/org_blu.png"],"mutagen_generator_assignment":[1,0],"goal":5,"start":0,"action_noise":0.2,"location_history":"[0,5]","action_history":"[0]","mutagen_history":"[1]","location_rts":"[451]","trial_type":"fractal-mutation","trial_index":194,"time_elapsed":3073512,"internal_node_id":"0.0-5.0-90.0"},{"group":"hexagon_bi","fractal_assignment":["../images/cyn_red.png","../images/gry_blk.png","../images/pnk_blu.png","../images/blu_wht.png","../images/ylw_slt.png","../images/org_blu.png"],"mutagen_generator_assignment":[1,0],"goal":1,"start":5,"action_noise":0.2,"location_history":"[5,0,5,4,3,4,5,0,5,4,5,0,5,0,5,0,1]","action_history":"[0,0,0,0,0,0,0,0,0,0,0,0,0,1,1,1]","mutagen_history":"[1,1,1,1,1,1,1,1,1,1,1,1,1,0,0,0]","location_rts":"[641,161,377,360,207,125,101,275,117,118,313,300,255,118,265,150]","trial_type":"fractal-mutation","trial_index":195,"time_elapsed":3097738,"internal_node_id":"0.0-5.0-91.0"},{"group":"hexagon_bi","fractal_assignment":["../images/cyn_red.png","../images/gry_blk.png","../images/pnk_blu.png","../images/blu_wht.png","../images/ylw_slt.png","../images/org_blu.png"],"mutagen_generator_assignment":[1,0],"goal":3,"start":1,"action_noise":0.2,"location_history":"[1,2,1,2,1,2,3]","action_history":"[0,0,0,0,0,0]","mutagen_history":"[1,1,1,1,1,1]","location_rts":"[487,231,108,181,357,181]","trial_type":"fractal-mutation","trial_index":196,"time_elapsed":3109127,"internal_node_id":"0.0-5.0-92.0"},{"group":"hexagon_bi","fractal_assignment":["../images/cyn_red.png","../images/gry_blk.png","../images/pnk_blu.png","../images/blu_wht.png","../images/ylw_slt.png","../images/org_blu.png"],"mutagen_generator_assignment":[1,0],"goal":4,"start":3,"action_noise":0.2,"location_history":"[3,4]","action_history":"[0]","mutagen_history":"[1]","location_rts":"[494]","trial_type":"fractal-mutation","trial_index":197,"time_elapsed":3114180,"internal_node_id":"0.0-5.0-93.0"},{"group":"hexagon_bi","fractal_assignment":["../images/cyn_red.png","../images/gry_blk.png","../images/pnk_blu.png","../images/blu_wht.png","../images/ylw_slt.png","../images/org_blu.png"],"mutagen_generator_assignment":[1,0],"goal":2,"start":4,"action_noise":0.2,"location_history":"[4,5,0,1,0,5,4,3,4,5,0,5,4,3,2]","action_history":"[0,0,0,0,0,0,0,0,0,0,0,0,0,1]","mutagen_history":"[1,1,1,1,1,1,1,1,1,1,1,1,1,0]","location_rts":"[721,370,650,148,169,499,251,247,300,144,306,807,364,399]","trial_type":"fractal-mutation","trial_index":198,"time_elapsed":3137836,"internal_node_id":"0.0-5.0-94.0"},{"group":"hexagon_bi","fractal_assignment":["../images/cyn_red.png","../images/gry_blk.png","../images/pnk_blu.png","../images/blu_wht.png","../images/ylw_slt.png","../images/org_blu.png"],"mutagen_generator_assignment":[1,0],"goal":4,"start":2,"action_noise":0.2,"location_history":"[2,1,2,3,4]","action_history":"[1,1,1,0]","mutagen_history":"[0,0,0,1]","location_rts":"[84,1075,1083,494]","trial_type":"fractal-mutation","trial_index":199,"time_elapsed":3148249,"internal_node_id":"0.0-5.0-95.0"},{"group":"hexagon_bi","fractal_assignment":["../images/cyn_red.png","../images/gry_blk.png","../images/pnk_blu.png","../images/blu_wht.png","../images/ylw_slt.png","../images/org_blu.png"],"mutagen_generator_assignment":[1,0],"goal":0,"start":4,"action_noise":0.2,"location_history":"[4,3,4,3,4,3,4,3,4,3,4,5,0]","action_history":"[0,0,0,0,0,0,0,0,0,0,0,0]","mutagen_history":"[1,1,1,1,1,1,1,1,1,1,1,1]","location_rts":"[2578,1148,1333,1137,702,2959,2553,3414,395,910,944,463]","trial_type":"fractal-mutation","trial_index":200,"time_elapsed":3182975,"internal_node_id":"0.0-5.0-96.0"},{"group":"hexagon_bi","fractal_assignment":["../images/cyn_red.png","../images/gry_blk.png","../images/pnk_blu.png","../images/blu_wht.png","../images/ylw_slt.png","../images/org_blu.png"],"mutagen_generator_assignment":[1,0],"goal":5,"start":0,"action_noise":0.2,"location_history":"[0,5]","action_history":"[0]","mutagen_history":"[1]","location_rts":"[5503]","trial_type":"fractal-mutation","trial_index":201,"time_elapsed":3193042,"internal_node_id":"0.0-5.0-97.0"},{"group":"hexagon_bi","fractal_assignment":["../images/cyn_red.png","../images/gry_blk.png","../images/pnk_blu.png","../images/blu_wht.png","../images/ylw_slt.png","../images/org_blu.png"],"mutagen_generator_assignment":[1,0],"goal":1,"start":5,"action_noise":0.2,"location_history":"[5,0,5,0,5,0,1]","action_history":"[0,0,0,0,0,0]","mutagen_history":"[1,1,1,1,1,1]","location_rts":"[573,255,758,29,919,4617]","trial_type":"fractal-mutation","trial_index":202,"time_elapsed":3213599,"inter