[{"view_history":"[{\"page_index\":0,\"viewing_time\":352841},{\"page_index\":1,\"viewing_time\":7145},{\"page_index\":2,\"viewing_time\":18017},{\"page_index\":3,\"viewing_time\":6064}]","rt":384069,"trial_type":"instructions","trial_index":0,"time_elapsed":384070,"internal_node_id":"0.0-0.0"},{"view_history":"[{\"page_index\":0,\"viewing_time\":2120},{\"page_index\":1,\"viewing_time\":35738}]","rt":37860,"trial_type":"instructions","trial_index":1,"time_elapsed":422934,"internal_node_id":"0.0-1.0"},{"group":"hexagon_tri","room_assignment":["blue","grey","yellow","red","green","purple"],"door_color_assignment":["white","black"],"door_generator_assignment":[0,1],"goal":4,"start":0,"action_noise":0.2,"location_history":"[0,1,3,2,3,4]","action_history":"[1,0,0,1,1]","door_history":"[1,0,0,1,1]","location_rts":"[4293,7645,3595,1984,3434]","trial_type":"two-door-navigation","trial_index":2,"time_elapsed":452609,"internal_node_id":"0.0-2.0-0.0"},{"group":"hexagon_tri","room_assignment":["blue","grey","yellow","red","green","purple"],"door_color_assignment":["white","black"],"door_generator_assignment":[0,1],"goal":3,"start":4,"action_noise":0.2,"location_history":"[4,0,1,3]","action_history":"[1,1,1]","door_history":"[1,1,1]","location_rts":"[5581,5415,1152]","trial_type":"two-door-navigation","trial_index":3,"time_elapsed":471395,"internal_node_id":"0.0-2.0-1.0"},{"group":"hexagon_tri","room_assignment":["blue","grey","yellow","red","green","purple"],"door_color_assignment":["white","black"],"door_generator_assignment":[0,1],"goal":5,"start":3,"action_noise":0.2,"location_history":"[3,4,0,5]","action_history":"[0,0,0]","door_history":"[0,0,0]","location_rts":"[2707,1141,715]","trial_type":"two-door-navigation","trial_index":4,"time_elapsed":482600,"internal_node_id":"0.0-2.0-2.0"},{"group":"hexagon_tri","room_assignment":["blue","grey","yellow","red","green","purple"],"door_color_assignment":["white","black"],"door_generator_assignment":[0,1],"goal":2,"start":5,"action_noise":0.2,"location_history":"[5,4,2]","action_history":"[0,0]","door_history":"[0,0]","location_rts":"[3271,982]","trial_type":"two-door-navigation","trial_index":5,"time_elapsed":492445,"internal_node_id":"0.0-2.0-3.0"},{"group":"hexagon_tri","room_assignment":["blue","grey","yellow","red","green","purple"],"door_color_assignment":["white","black"],"door_generator_assignment":[0,1],"goal":1,"start":2,"action_noise":0.2,"location_history":"[2,3,4,2,3,4,2,1]","action_history":"[1,1,1,1,1,1,0]","door_history":"[1,1,1,1,1,1,0]","location_rts":"[2600,614,995,609,512,569,1119]","trial_type":"two-door-navigation","trial_index":6,"time_elapsed":510279,"internal_node_id":"0.0-2.0-4.0"},{"group":"hexagon_tri","room_assignment":["blue","grey","yellow","red","green","purple"],"door_color_assignment":["white","black"],"door_generator_assignment":[0,1],"goal":4,"start":1,"action_noise":0.2,"location_history":"[1,5,4]","action_history":"[1,1]","door_history":"[1,1]","location_rts":"[7019,1124]","trial_type":"two-door-navigation","trial_index":7,"time_elapsed":524028,"internal_node_id":"0.0-2.0-5.0"},{"group":"hexagon_tri","room_assignment":["blue","grey","yellow","red","green","purple"],"door_color_assignment":["white","black"],"door_generator_assignment":[0,1],"goal":1,"start":4,"action_noise":0.2,"location_history":"[4,0,5,4,0,1]","action_history":"[0,0,0,0,1]","door_history":"[0,0,0,0,1]","location_rts":"[4258,1169,577,534,870]","trial_type":"two-door-navigation","trial_index":8,"time_elapsed":540172,"internal_node_id":"0.0-2.0-6.0"},{"group":"hexagon_tri","room_assignment":["blue","grey","yellow","red","green","purple"],"door_color_assignment":["white","black"],"door_generator_assignment":[0,1],"goal":5,"start":1,"action_noise":0.2,"location_history":"[1,5]","action_history":"[1]","door_history":"[1]","location_rts":"[5263]","trial_type":"two-door-navigation","trial_index":9,"time_elapsed":549980,"internal_node_id":"0.0-2.0-7.0"},{"group":"hexagon_tri","room_assignment":["blue","grey","yellow","red","green","purple"],"door_color_assignment":["white","black"],"door_generator_assignment":[0,1],"goal":0,"start":5,"action_noise":0.2,"location_history":"[5,4,0]","action_history":"[0,0]","door_history":"[0,0]","location_rts":"[1945,629]","trial_type":"two-door-navigation","trial_index":10,"time_elapsed":558154,"internal_node_id":"0.0-2.0-8.0"},{"group":"hexagon_tri","room_assignment":["blue","grey","yellow","red","green","purple"],"door_color_assignment":["white","black"],"door_generator_assignment":[0,1],"goal":2,"start":0,"action_noise":0.2,"location_history":"[0,5,4,0,1,5,0,1,5,4,0,5,0,1,5,0,5,4,0,1,3,2]","action_history":"[0,0,0,1,1,1,1,1,0,0,0,1,1,1,1,0,0,0,0,0,0]","door_history":"[0,0,0,1,1,1,1,1,0,0,0,1,1,1,1,0,0,0,0,0,0]","location_rts":"[3102,501,546,1178,547,575,526,467,1603,446,1727,729,723,792,1116,1060,471,525,1594,779,576]","trial_type":"two-door-navigation","trial_index":11,"time_elapsed":603080,"internal_node_id":"0.0-2.0-9.0"},{"group":"hexagon_tri","room_assignment":["blue","grey","yellow","red","green","purple"],"door_color_assignment":["white","black"],"door_generator_assignment":[0,1],"goal":3,"start":2,"action_noise":0.2,"location_history":"[2,1,5,0,1,5,0,5,4,0,5,0,1,3]","action_history":"[1,1,1,1,1,0,0,0,0,0,1,1,1]","door_history":"[1,1,1,1,1,0,0,0,0,0,1,1,1]","location_rts":"[4416,467,1188,864,482,1732,426,487,469,558,1088,418,554]","trial_type":"two-door-navigation","trial_index":12,"time_elapsed":633252,"internal_node_id":"0.0-2.0-10.0"},{"group":"hexagon_tri","room_assignment":["blue","grey","yellow","red","green","purple"],"door_color_assignment":["white","black"],"door_generator_assignment":[0,1],"goal":0,"start":3,"action_noise":0.2,"location_history":"[3,2,1,5,0]","action_history":"[0,0,0,0]","door_history":"[0,0,0,0]","location_rts":"[4621,1022,542,679]","trial_type":"two-door-navigation","trial_index":13,"time_elapsed":647798,"internal_node_id":"0.0-2.0-11.0"},{"group":"hexagon_tri","room_assignment":["blue","grey","yellow","red","green","purple"],"door_color_assignment":["white","black"],"door_generator_assignment":[0,1],"goal":2,"start":0,"action_noise":0.2,"location_history":"[0,5,4,0,5,4,2]","action_history":"[1,1,0,0,0,1]","door_history":"[1,1,0,0,0,1]","location_rts":"[6452,488,1250,562,644,1334]","trial_type":"two-door-navigation","trial_index":14,"time_elapsed":668271,"internal_node_id":"0.0-2.0-12.0"},{"group":"hexagon_tri","room_assignment":["blue","grey","yellow","red","green","purple"],"door_color_assignment":["white","black"],"door_generator_assignment":[0,1],"goal":5,"start":2,"action_noise":0.2,"location_history":"[2,3,4,2,3,2,3,4,0,5]","action_history":"[1,1,1,0,0,0,0,0,0]","door_history":"[1,1,1,0,0,0,0,0,0]","location_rts":"[2162,530,516,1053,487,490,551,1069,1230]","trial_type":"two-door-navigation","trial_index":15,"time_elapsed":689274,"internal_node_id":"0.0-2.0-13.0"},{"group":"hexagon_tri","room_assignment":["blue","grey","yellow","red","green","purple"],"door_color_assignment":["white","black"],"door_generator_assignment":[0,1],"goal":4,"start":5,"action_noise":0.2,"location_history":"[5,4]","action_history":"[1]","door_history":"[1]","location_rts":"[5151]","trial_type":"two-door-navigation","trial_index":16,"time_elapsed":698982,"internal_node_id":"0.0-2.0-14.0"},{"group":"hexagon_tri","room_assignment":["blue","grey","yellow","red","green","purple"],"door_color_assignment":["white","black"],"door_generator_assignment":[0,1],"goal":3,"start":4,"action_noise":0.2,"location_history":"[4,0,5,4,0,1,3]","action_history":"[0,0,0,0,1,1]","door_history":"[0,0,0,0,1,1]","location_rts":"[3309,702,656,1116,1145,593]","trial_type":"two-door-navigation","trial_index":17,"time_elapsed":716268,"internal_node_id":"0.0-2.0-15.0"},{"group":"hexagon_tri","room_assignment":["blue","grey","yellow","red","green","purple"],"door_color_assignment":["white","black"],"door_generator_assignment":[0,1],"goal":1,"start":3,"action_noise":0.2,"location_history":"[3,4,0,1]","action_history":"[1,1,1]","door_history":"[1,1,1]","location_rts":"[3506,422,401]","trial_type":"two-door-navigation","trial_index":18,"time_elapsed":727252,"internal_node_id":"0.0-2.0-16.0"},{"group":"hexagon_tri","room_assignment":["blue","grey","yellow","red","green","purple"],"door_color_assignment":["white","black"],"door_generator_assignment":[0,1],"goal":5,"start":1,"action_noise":0.2,"location_history":"[1,3,4,0,1,3,2,1,5]","action_history":"[0,1,1,1,1,0,0,0]","door_history":"[0,1,1,1,1,0,0,0]","location_rts":"[3021,1392,743,470,689,749,396,734]","trial_type":"two-door-navigation","trial_index":19,"time_elapsed":747253,"internal_node_id":"0.0-2.0-17.0"},{"group":"hexagon_tri","room_assignment":["blue","grey","yellow","red","green","purple"],"door_color_assignment":["white","black"],"door_generator_assignment":[0,1],"goal":4,"start":5,"action_noise":0.2,"location_history":"[5,0,5,0,5,4]","action_history":"[1,1,1,0,0]","door_history":"[1,1,1,0,0]","location_rts":"[1941,1826,1004,918,618]","trial_type":"two-door-navigation","trial_index":20,"time_elapsed":762247,"internal_node_id":"0.0-2.0-18.0"},{"group":"hexagon_tri","room_assignment":["blue","grey","yellow","red","green","purple"],"door_color_assignment":["white","black"],"door_generator_assignment":[0,1],"goal":0,"start":4,"action_noise":0.2,"location_history":"[4,2,3,4,2,1,3,2,1,3,4,2,3,4,0]","action_history":"[1,1,1,1,0,0,0,1,1,1,1,1,1,0]","door_history":"[1,1,1,1,0,0,0,1,1,1,1,1,1,0]","location_rts":"[3166,540,717,5431,1054,465,464,1794,470,468,637,865,718,1381]","trial_type":"two-door-navigation","trial_index":21,"time_elapsed":798515,"internal_node_id":"0.0-2.0-19.0"},{"group":"hexagon_tri","room_assignment":["blue","grey","yellow","red","green","purple"],"door_color_assignment":["white","black"],"door_generator_assignment":[0,1],"goal":1,"start":0,"action_noise":0.2,"location_history":"[0,1]","action_history":"[1]","door_history":"[1]","location_rts":"[3062]","trial_type":"two-door-navigation","trial_index":22,"time_elapsed":806123,"internal_node_id":"0.0-2.0-20.0"},{"group":"hexagon_tri","room_assignment":["blue","grey","yellow","red","green","purple"],"door_color_assignment":["white","black"],"door_generator_assignment":[0,1],"goal":3,"start":1,"action_noise":0.2,"location_history":"[1,3]","action_history":"[0]","door_history":"[0]","location_rts":"[3526]","trial_type":"two-door-navigation","trial_index":23,"time_elapsed":814204,"internal_node_id":"0.0-2.0-21.0"},{"group":"hexagon_tri","room_assignment":["blue","grey","yellow","red","green","purple"],"door_color_assignment":["white","black"],"door_generator_assignment":[0,1],"goal":2,"start":3,"action_noise":0.2,"location_history":"[3,4,0,5,4,2]","action_history":"[1,0,0,0,1]","door_history":"[1,0,0,0,1]","location_rts":"[2485,1154,616,778,1267]","trial_type":"two-door-navigation","trial_index":24,"time_elapsed":829251,"internal_node_id":"0.0-2.0-22.0"},{"group":"hexagon_tri","room_assignment":["blue","grey","yellow","red","green","purple"],"door_color_assignment":["white","black"],"door_generator_assignment":[0,1],"goal":0,"start":2,"action_noise":0.2,"location_history":"[2,3,4,0]","action_history":"[1,1,0]","door_history":"[1,1,0]","location_rts":"[3193,454,1712]","trial_type":"two-door-navigation","trial_index":25,"time_elapsed":841243,"internal_node_id":"0.0-2.0-23.0"},{"group":"hexagon_tri","room_assignment":["blue","grey","yellow","red","green","purple"],"door_color_assignment":["white","black"],"door_generator_assignment":[0,1],"goal":3,"start":0,"action_noise":0.2,"location_history":"[0,1,5,0,1,3]","action_history":"[1,1,1,1,0]","door_history":"[1,1,1,1,0]","location_rts":"[2728,709,2525,417,717]","trial_type":"two-door-navigation","trial_index":26,"time_elapsed":857057,"internal_node_id":"0.0-2.0-24.0"},{"group":"hexagon_tri","room_assignment":["blue","grey","yellow","red","green","purple"],"door_color_assignment":["white","black"],"door_generator_assignment":[0,1],"goal":1,"start":3,"action_noise":0.2,"location_history":"[3,4,2,1]","action_history":"[1,1,1]","door_history":"[1,1,1]","location_rts":"[8326,1835,652]","trial_type":"two-door-navigation","trial_index":27,"time_elapsed":874525,"internal_node_id":"0.0-2.0-25.0"},{"group":"hexagon_tri","room_assignment":["blue","grey","yellow","red","green","purple"],"door_color_assignment":["white","black"],"door_generator_assignment":[0,1],"goal":2,"start":1,"action_noise":0.2,"location_history":"[1,3,2]","action_history":"[0,0]","door_history":"[0,0]","location_rts":"[4223,547]","trial_type":"two-door-navigation","trial_index":28,"time_elapsed":884879,"internal_node_id":"0.0-2.0-26.0"},{"group":"hexagon_tri","room_assignment":["blue","grey","yellow","red","green","purple"],"door_color_assignment":["white","black"],"door_generator_assignment":[0,1],"goal":5,"start":2,"action_noise":0.2,"location_history":"[2,1,3,4,0,1,3,4,0,5]","action_history":"[0,0,0,0,1,1,1,0,0]","door_history":"[0,0,0,0,1,1,1,0,0]","location_rts":"[2860,804,415,1082,749,643,452,1288,502]","trial_type":"two-door-navigation","trial_index":29,"time_elapsed":906559,"internal_node_id":"0.0-2.0-27.0"},{"group":"hexagon_tri","room_assignment":["blue","grey","yellow","red","green","purple"],"door_color_assignment":["white","black"],"door_generator_assignment":[0,1],"goal":4,"start":5,"action_noise":0.2,"location_history":"[5,0,1,5,4]","action_history":"[1,1,1,0]","door_history":"[1,1,1,0]","location_rts":"[3093,501,1437,1100]","trial_type":"two-door-navigation","trial_index":30,"time_elapsed":920436,"internal_node_id":"0.0-2.0-28.0"},{"group":"hexagon_tri","room_assignment":["blue","grey","yellow","red","green","purple"],"door_color_assignment":["white","black"],"door_generator_assignment":[0,1],"goal":5,"start":4,"action_noise":0.2,"location_history":"[4,0,5]","action_history":"[0,0]","door_history":"[0,0]","location_rts":"[3323,1242]","trial_type":"two-door-navigation","trial_index":31,"time_elapsed":930576,"internal_node_id":"0.0-2.0-29.0"},{"group":"hexagon_tri","room_assignment":["blue","grey","yellow","red","green","purple"],"door_color_assignment":["white","black"],"door_generator_assignment":[0,1],"goal":3,"start":5,"action_noise":0.2,"location_history":"[5,0,5,4,2,3]","action_history":"[1,0,0,1,1]","door_history":"[1,0,0,1,1]","location_rts":"[8752,7464,688,1783,449]","trial_type":"two-door-navigation","trial_index":32,"time_elapsed":958381,"internal_node_id":"0.0-2.0-30.0"},{"group":"hexagon_tri","room_assignment":["blue","grey","yellow","red","green","purple"],"door_color_assignment":["white","black"],"door_generator_assignment":[0,1],"goal":0,"start":3,"action_noise":0.2,"location_history":"[3,4,2,1,5,0]","action_history":"[1,1,1,1,1]","door_history":"[1,1,1,1,1]","location_rts":"[2914,438,945,583,528]","trial_type":"two-door-navigation","trial_index":33,"time_elapsed":972499,"internal_node_id":"0.0-2.0-31.0"},{"group":"hexagon_tri","room_assignment":["blue","grey","yellow","red","green","purple"],"door_color_assignment":["white","black"],"door_generator_assignment":[0,1],"goal":4,"start":0,"action_noise":0.2,"location_history":"[0,5,4]","action_history":"[0,0]","door_history":"[0,0]","location_rts":"[3984,2129]","trial_type":"two-door-navigation","trial_index":34,"time_elapsed":984221,"internal_node_id":"0.0-2.0-32.0"},{"group":"hexagon_tri","room_assignment":["blue","grey","yellow","red","green","purple"],"door_color_assignment":["white","black"],"door_generator_assignment":[0,1],"goal":1,"start":4,"action_noise":0.2,"location_history":"[4,0,1]","action_history":"[0,1]","door_history":"[0,1]","location_rts":"[6793,1212]","trial_type":"two-door-navigation","trial_index":35,"time_elapsed":997820,"internal_node_id":"0.0-2.0-33.0"},{"group":"hexagon_tri","room_assignment":["blue","grey","yellow","red","green","purple"],"door_color_assignment":["white","black"],"door_generator_assignment":[0,1],"goal":2,"start":1,"action_noise":0.2,"location_history":"[1,3,2]","action_history":"[0,0]","door_history":"[0,0]","location_rts":"[4852,642]","trial_type":"two-door-navigation","trial_index":36,"time_elapsed":1008909,"internal_node_id":"0.0-2.0-34.0"},{"group":"hexagon_tri","room_assignment":["blue","grey","yellow","red","green","purple"],"door_color_assignment":["white","black"],"door_generator_assignment":[0,1],"goal":0,"start":2,"action_noise":0.2,"location_history":"[2,3,4,2,1,3,2,1,5,4,2,1,3,4,2,1,3,4,2,1,5,4,2,3,4,2,1,3,2,3,4,2,3,4,0]","action_history":"[1,1,1,0,0,0,0,1,1,1,1,0,0,0,0,0,1,1,1,1,0,1,0,0,0,0,0,1,1,1,1,1,1,0]","door_history":"[1,1,1,0,0,0,0,1,1,1,1,0,0,0,0,0,1,1,1,1,0,1,0,0,0,0,0,1,1,1,1,1,1,0]","location_rts":"[2074,460,1923,1710,652,399,1434,1163,457,1712,484,1389,392,440,422,661,577,362,1617,460,1476,1156,742,451,404,751,449,1180,365,380,962,375,386,923]","trial_type":"two-door-navigation","trial_index":37,"time_elapsed":1076544,"internal_node_id":"0.0-2.0-35.0"},{"group":"hexagon_tri","room_assignment":["blue","grey","yellow","red","green","purple"],"door_color_assignment":["white","black"],"door_generator_assignment":[0,1],"goal":5,"start":0,"action_noise":0.2,"location_history":"[0,1,3,2,1,3,2,3,4,2,1,3,4,0,5]","action_history":"[0,0,0,0,0,1,1,1,1,1,0,0,0,0]","door_history":"[0,0,0,0,0,1,1,1,1,1,0,0,0,0]","location_rts":"[4095,630,555,915,988,611,628,632,608,748,1495,406,380,473]","trial_type":"two-door-navigation","trial_index":38,"time_elapsed":1107752,"internal_node_id":"0.0-2.0-36.0"},{"group":"hexagon_tri","room_assignment":["blue","grey","yellow","red","green","purple"],"door_color_assignment":["white","black"],"door_generator_assignment":[0,1],"goal":2,"start":5,"action_noise":0.2,"location_history":"[5,4,0,5,4,0,5,0,1,5,4,2]","action_history":"[0,0,0,0,0,0,1,1,0,0,0]","door_history":"[0,0,0,0,0,0,1,1,0,0,0]","location_rts":"[3479,638,759,842,609,916,55718,1279,3320,515,377]","trial_type":"two-door-navigation","trial_index":39,"time_elapsed":1191181,"internal_node_id":"0.0-2.0-37.0"},{"group":"hexagon_tri","room_assignment":["blue","grey","yellow","red","green","purple"],"door_color_assignment":["white","black"],"door_generator_assignment":[0,1],"goal":1,"start":2,"action_noise":0.2,"location_history":"[2,1]","action_history":"[0]","door_history":"[0]","location_rts":"[9595]","trial_type":"two-door-navigation","trial_index":40,"time_elapsed":1205328,"internal_node_id":"0.0-2.0-38.0"},{"group":"hexagon_tri","room_assignment":["blue","grey","yellow","red","green","purple"],"door_color_assignment":["white","black"],"door_generator_assignment":[0,1],"goal":4,"start":1,"action_noise":0.2,"location_history":"[1,5,4]","action_history":"[1,1]","door_history":"[1,1]","location_rts":"[5660,527]","trial_type":"two-door-navigation","trial_index":41,"time_elapsed":1217092,"internal_node_id":"0.0-2.0-39.0"},{"group":"hexagon_tri","room_assignment":["blue","grey","yellow","red","green","purple"],"door_color_assignment":["white","black"],"door_generator_assignment":[0,1],"goal":3,"start":4,"action_noise":0.2,"location_history":"[4,2,3]","action_history":"[1,1]","door_history":"[1,1]","location_rts":"[2280,1168]","trial_type":"two-door-navigation","trial_index":42,"time_elapsed":1226119,"internal_node_id":"0.0-2.0-40.0"},{"group":"hexagon_tri","room_assignment":["blue","grey","yellow","red","green","purple"],"door_color_assignment":["white","black"],"door_generator_assignment":[0,1],"goal":5,"start":3,"action_noise":0.2,"location_history":"[3,2,1,5]","action_history":"[0,0,1]","door_history":"[0,0,1]","location_rts":"[3970,429,1249]","trial_type":"two-door-navigation","trial_index":43,"time_elapsed":1238405,"internal_node_id":"0.0-2.0-41.0"},{"group":"hexagon_tri","room_assignment":["blue","grey","yellow","red","green","purple"],"door_color_assignment":["white","black"],"door_generator_assignment":[0,1],"goal":3,"start":5,"action_noise":0.2,"location_history":"[5,0,1,5,4,0,5,0,1,5,4,0,5,0,1,3]","action_history":"[1,1,1,0,0,0,0,1,1,0,0,0,1,1,0]","door_history":"[1,1,1,0,0,0,0,1,1,0,0,0,1,1,0]","location_rts":"[2873,603,453,1242,435,457,484,950,566,1456,486,1618,1318,706,1334]","trial_type":"two-door-navigation","trial_index":44,"time_elapsed":1272461,"internal_node_id":"0.0-2.0-42.0"},{"group":"hexagon_tri","room_assignment":["blue","grey","yellow","red","green","purple"],"door_color_assignment":["white","black"],"door_generator_assignment":[0,1],"goal":0,"start":3,"action_noise":0.2,"location_history":"[3,4,2,1,5,4,0]","action_history":"[1,1,0,1,1,0]","door_history":"[1,1,0,1,1,0]","location_rts":"[2661,933,1517,1434,6031,1417]","trial_type":"two-door-navigation","trial_index":45,"time_elapsed":1296153,"internal_node_id":"0.0-2.0-43.0"},{"group":"hexagon_tri","room_assignment":["blue","grey","yellow","red","green","purple"],"door_color_assignment":["white","black"],"door_generator_assignment":[0,1],"goal":2,"start":0,"action_noise":0.2,"location_history":"[0,5,4,0,1,3,2]","action_history":"[0,0,0,1,0,0]","door_history":"[0,0,0,1,0,0]","location_rts":"[2382,726,504,1091,2575,566]","trial_type":"two-door-navigation","trial_index":46,"time_elapsed":1313775,"internal_node_id":"0.0-2.0-44.0"},{"group":"hexagon_tri","room_assignment":["blue","grey","yellow","red","green","purple"],"door_color_assignment":["white","black"],"door_generator_assignment":[0,1],"goal":4,"start":2,"action_noise":0.2,"location_history":"[2,3,4]","action_history":"[1,1]","door_history":"[1,1]","location_rts":"[4142,758]","trial_type":"two-door-navigation","trial_index":47,"time_elapsed":1324269,"internal_node_id":"0.0-2.0-45.0"},{"group":"hexagon_tri","room_assignment":["blue","grey","yellow","red","green","purple"],"door_color_assignment":["white","black"],"door_generator_assignment":[0,1],"goal":1,"start":4,"action_noise":0.2,"location_history":"[4,0,5,0,5,0,1]","action_history":"[0,0,0,0,1,1]","door_history":"[0,0,0,0,1,1]","location_rts":"[2580,713,644,1680,864,1220]","trial_type":"two-door-navigation","trial_index":48,"time_elapsed":1341715,"internal_node_id":"0.0-2.0-46.0"},{"group":"hexagon_tri","room_assignment":["blue","grey","yellow","red","green","purple"],"door_color_assignment":["white","black"],"door_generator_assignment":[0,1],"goal":4,"start":1,"action_noise":0.2,"location_history":"[1,3,4]","action_history":"[1,1]","door_history":"[1,1]","location_rts":"[2940,662]","trial_type":"two-door-navigation","trial_index":49,"time_elapsed":1350915,"internal_node_id":"0.0-2.0-47.0"},{"group":"hexagon_tri","room_assignment":["blue","grey","yellow","red","green","purple"],"door_color_assignment":["white","black"],"door_generator_assignment":[0,1],"goal":1,"start":4,"action_noise":0.2,"location_history":"[4,2,3,4,0,5,4,0,1]","action_history":"[1,1,1,0,0,0,0,1]","door_history":"[1,1,1,0,0,0,0,1]","location_rts":"[3367,486,1263,945,746,839,1815,457]","trial_type":"two-door-navigation","trial_index":50,"time_elapsed":1372658,"internal_node_id":"0.0-2.0-48.0"},{"group":"hexagon_tri","room_assignment":["blue","grey","yellow","red","green","purple"],"door_color_assignment":["white","black"],"door_generator_assignment":[0,1],"goal":3,"start":1,"action_noise":0.2,"location_history":"[1,5,0,1,5,0,5,4,2,3]","action_history":"[1,1,1,1,0,0,0,1,1]","door_history":"[1,1,1,1,0,0,0,1,1]","location_rts":"[2559,381,450,1483,815,465,644,1529,480]","trial_type":"two-door-navigation","trial_index":51,"time_elapsed":1394359,"internal_node_id":"0.0-2.0-49.0"},{"group":"hexagon_tri","room_assignment":["blue","grey","yellow","red","green","purple"],"door_color_assignment":["white","black"],"door_generator_assignment":[0,1],"goal":5,"start":3,"action_noise":0.2,"location_history":"[3,2,1,5]","action_history":"[0,0,1]","door_history":"[0,0,1]","location_rts":"[7548,624,1286]","trial_type":"two-door-navigation","trial_index":52,"time_elapsed":1410476,"internal_node_id":"0.0-2.0-50.0"},{"group":"hexagon_tri","room_assignment":["blue","grey","yellow","red","green","purple"],"door_color_assignment":["white","black"],"door_generator_assignment":[0,1],"goal":0,"start":5,"action_noise":0.2,"location_history":"[5,0]","action_history":"[1]","door_history":"[1]","location_rts":"[2181]","trial_type":"two-door-navigation","trial_index":53,"time_elapsed":1417196,"internal_node_id":"0.0-2.0-51.0"},{"group":"hexagon_tri","room_assignment":["blue","grey","yellow","red","green","purple"],"door_color_assignment":["white","black"],"door_generator_assignment":[0,1],"goal":2,"start":0,"action_noise":0.2,"location_history":"[0,5,4,0,5,4,0,1,3,2]","action_history":"[0,0,0,0,0,0,1,0,0]","door_history":"[0,0,0,0,0,0,1,0,0]","location_rts":"[3417,434,649,7916,551,527,3374,1898,575]","trial_type":"two-door-navigation","trial_index":54,"time_elapsed":1449446,"internal_node_id":"0.0-2.0-52.0"},{"group":"hexagon_tri","room_assignment":["blue","grey","yellow","red","green","purple"],"door_color_assignment":["white","black"],"door_generator_assignment":[0,1],"goal":1,"start":2,"action_noise":0.2,"location_history":"[2,3,2,1]","action_history":"[1,0,0]","door_history":"[1,0,0]","location_rts":"[3384,1331,1909]","trial_type":"two-door-navigation","trial_index":55,"time_elapsed":1462705,"internal_node_id":"0.0-2.0-53.0"},{"group":"hexagon_tri","room_assignment":["blue","grey","yellow","red","green","purple"],"door_color_assignment":["white","black"],"door_generator_assignment":[0,1],"goal":2,"start":1,"action_noise":0.2,"location_history":"[1,5,4,0,5,4,2]","action_history":"[0,0,0,0,0,1]","door_history":"[0,0,0,0,0,1]","location_rts":"[10382,611,401,1250,1481,603]","trial_type":"two-door-navigation","trial_index":56,"time_elapsed":1487104,"internal_node_id":"0.0-2.0-54.0"},{"group":"hexagon_tri","room_assignment":["blue","grey","yellow","red","green","purple"],"door_color_assignment":["white","black"],"door_generator_assignment":[0,1],"goal":5,"start":2,"action_noise":0.2,"location_history":"[2,3,2,3,2,1,3,4,2,3,4,0,5]","action_history":"[1,1,1,0,0,1,1,1,1,1,0,1]","door_history":"[1,1,1,0,0,1,1,1,1,1,0,1]","location_rts":"[2846,648,1020,503,790,890,598,450,375,585,780,1328]","trial_type":"two-door-navigation","trial_index":57,"time_elapsed":1513902,"internal_node_id":"0.0-2.0-55.0"},{"group":"hexagon_tri","room_assignment":["blue","grey","yellow","red","green","purple"],"door_color_assignment":["white","black"],"door_generator_assignment":[0,1],"goal":4,"start":5,"action_noise":0.2,"location_history":"[5,0,5,0,1,3,2,1,3,4]","action_history":"[1,0,0,0,0,0,0,0,1]","door_history":"[1,0,0,0,0,0,0,0,1]","location_rts":"[8228,1986,779,458,5467,468,540,428,386]","trial_type":"two-door-navigation","trial_index":58,"time_elapsed":1545454,"internal_node_id":"0.0-2.0-56.0"},{"group":"hexagon_tri","room_assignment":["blue","grey","yellow","red","green","purple"],"door_color_assignment":["white","black"],"door_generator_assignment":[0,1],"goal":3,"start":4,"action_noise":0.2,"location_history":"[4,2,3]","action_history":"[1,1]","door_history":"[1,1]","location_rts":"[5955,442]","trial_type":"two-door-navigation","trial_index":59,"time_elapsed":1557414,"internal_node_id":"0.0-2.0-57.0"},{"group":"hexagon_tri","room_assignment":["blue","grey","yellow","red","green","purple"],"door_color_assignment":["white","black"],"door_generator_assignment":[0,1],"goal":0,"start":3,"action_noise":0.2,"location_history":"[3,4,2,3,2,1,3,4,2,3,4,2,1,5,4,0]","action_history":"[1,1,1,0,0,0,1,1,1,1,0,0,1,1,1]","door_history":"[1,1,1,0,0,0,1,1,1,1,0,0,1,1,1]","location_rts":"[2520,463,652,1292,874,1372,1697,458,639,654,751,2476,1174,404,676]","trial_type":"two-door-navigation","trial_index":60,"time_elapsed":1592655,"internal_node_id":"0.0-2.0-58.0"},{"group":"hexagon_tri","room_assignment":["blue","grey","yellow","red","green","purple"],"door_color_assignment":["white","black"],"door_generator_assignment":[0,1],"goal":2,"start":0,"action_noise":0.2,"location_history":"[0,5,4,0,5,0,1,3,4,0,5,4,2]","action_history":"[0,0,0,0,0,1,0,0,0,0,0,1]","door_history":"[0,0,0,0,0,1,0,0,0,0,0,1]","location_rts":"[8737,1011,789,942,503,1044,989,366,707,406,735,615]","trial_type":"two-door-navigation","trial_index":61,"time_elapsed":1625484,"internal_node_id":"0.0-2.0-59.0"},{"group":"hexagon_tri","room_assignment":["blue","grey","yellow","red","green","purple"],"door_color_assignment":["white","black"],"door_generator_assignment":[0,1],"goal":1,"start":2,"action_noise":0.2,"location_history":"[2,1]","action_history":"[0]","door_history":"[0]","location_rts":"[4689]","trial_type":"two-door-navigation","trial_index":62,"time_elapsed":1634721,"internal_node_id":"0.0-2.0-60.0"},{"group":"hexagon_tri","room_assignment":["blue","grey","yellow","red","green","purple"],"door_color_assignment":["white","black"],"door_generator_assignment":[0,1],"goal":0,"start":1,"action_noise":0.2,"location_history":"[1,5,0]","action_history":"[1,1]","door_history":"[1,1]","location_rts":"[2744,424]","trial_type":"two-door-navigation","trial_index":63,"time_elapsed":1643467,"internal_node_id":"0.0-2.0-61.0"},{"group":"hexagon_tri","room_assignment":["blue","grey","yellow","red","green","purple"],"door_color_assignment":["white","black"],"door_generator_assignment":[0,1],"goal":3,"start":0,"action_noise":0.2,"location_history":"[0,5,0,5,4,2,1,3]","action_history":"[0,0,0,1,1,0,0]","door_history":"[0,0,0,1,1,0,0]","location_rts":"[1944,568,781,998,1531,1180,539]","trial_type":"two-door-navigation","trial_index":64,"time_elapsed":1661821,"internal_node_id":"0.0-2.0-62.0"},{"group":"hexagon_tri","room_assignment":["blue","grey","yellow","red","green","purple"],"door_color_assignment":["white","black"],"door_generator_assignment":[0,1],"goal":5,"start":3,"action_noise":0.2,"location_history":"[3,2,3,2,1,5]","action_history":"[1,1,1,0,1]","door_history":"[1,1,1,0,1]","location_rts":"[2136,1283,613,829,450]","trial_type":"two-door-navigation","trial_index":65,"time_elapsed":1675848,"internal_node_id":"0.0-2.0-63.0"},{"group":"hexagon_tri","room_assignment":["blue","grey","yellow","red","green","purple"],"door_color_assignment":["white","black"],"door_generator_assignment":[0,1],"goal":4,"start":5,"action_noise":0.2,"location_history":"[5,4]","action_history":"[0]","door_history":"[0]","location_rts":"[9263]","trial_type":"two-door-navigation","trial_index":66,"time_elapsed":1689662,"internal_node_id":"0.0-2.0-64.0"},{"group":"hexagon_tri","room_assignment":["blue","grey","yellow","red","green","purple"],"door_color_assignment":["white","black"],"door_generator_assignment":[0,1],"goal":1,"start":4,"action_noise":0.2,"location_history":"[4,0,5,0,1]","action_history":"[0,0,1,1]","door_history":"[0,0,1,1]","location_rts":"[1675,590,863,636]","trial_type":"two-door-navigation","trial_index":67,"time_elapsed":1701093,"internal_node_id":"0.0-2.0-65.0"},{"group":"hexagon_tri","room_assignment":["blue","grey","yellow","red","green","purple"],"door_color_assignment":["white","black"],"door_generator_assignment":[0,1],"goal":5,"start":1,"action_noise":0.2,"location_history":"[1,5]","action_history":"[1]","door_history":"[1]","location_rts":"[2199]","trial_type":"two-door-navigation","trial_index":68,"time_elapsed":1707858,"internal_node_id":"0.0-2.0-66.0"},{"group":"hexagon_tri","room_assignment":["blue","grey","yellow","red","green","purple"],"door_color_assignment":["white","black"],"door_generator_assignment":[0,1],"goal":2,"start":5,"action_noise":0.2,"location_history":"[5,4,2]","action_history":"[0,0]","door_history":"[0,0]","location_rts":"[2193,746]","trial_type":"two-door-navigation","trial_index":69,"time_elapsed":1716443,"internal_node_id":"0.0-2.0-67.0"},{"group":"hexagon_tri","room_assignment":["blue","grey","yellow","red","green","purple"],"door_color_assignment":["white","black"],"door_generator_assignment":[0,1],"goal":3,"start":2,"action_noise":0.2,"location_history":"[2,3]","action_history":"[1]","door_history":"[1]","location_rts":"[4014]","trial_type":"two-door-navigation","trial_index":70,"time_elapsed":1725011,"internal_node_id":"0.0-2.0-68.0"},{"group":"hexagon_tri","room_assignment":["blue","grey","yellow","red","green","purple"],"door_color_assignment":["white","black"],"door_generator_assignment":[0,1],"goal":4,"start":3,"action_noise":0.2,"location_history":"[3,2,1,5,0,1,3,2,3,2,1,5,0,5,0,5,0,5,4]","action_history":"[0,0,0,1,1,1,0,0,0,0,1,0,1,0,0,0,0,1]","door_history":"[0,0,0,1,1,1,0,0,0,0,1,0,1,0,0,0,0,1]","location_rts":"[3436,652,986,1990,396,854,718,557,1184,505,1200,826,3141,1534,377,579,426,1009]","trial_type":"two-door-navigation","trial_index":71,"time_elapsed":1767572,"internal_node_id":"0.0-2.0-69.0"},{"group":"hexagon_tri","room_assignment":["blue","grey","yellow","red","green","purple"],"door_color_assignment":["white","black"],"door_generator_assignment":[0,1],"goal":0,"start":4,"action_noise":0.2,"location_history":"[4,2,3,4,0]","action_history":"[0,0,1,1]","door_history":"[0,0,1,1]","location_rts":"[2501,1823,872,388]","trial_type":"two-door-navigation","trial_index":72,"time_elapsed":1780838,"internal_node_id":"0.0-2.0-70.0"},{"group":"hexagon_tri","room_assignment":["blue","grey","yellow","red","green","purple"],"door_color_assignment":["white","black"],"door_generator_assignment":[0,1],"goal":5,"start":0,"action_noise":0.2,"location_history":"[0,1,5]","action_history":"[1,1]","door_history":"[1,1]","location_rts":"[6583,850]","trial_type":"two-door-navigation","trial_index":73,"time_elapsed":1793890,"internal_node_id":"0.0-2.0-71.0"},{"group":"hexagon_tri","room_assignment":["blue","grey","yellow","red","green","purple"],"door_color_assignment":["white","black"],"door_generator_assignment":[0,1],"goal":0,"start":5,"action_noise":0.2,"location_history":"[5,0]","action_history":"[1]","door_history":"[1]","location_rts":"[4000]","trial_type":"two-door-navigation","trial_index":74,"time_elapsed":1802865,"internal_node_id":"0.0-2.0-72.0"},{"group":"hexagon_tri","room_assignment":["blue","grey","yellow","red","green","purple"],"door_color_assignment":["white","black"],"door_generator_assignment":[0,1],"goal":3,"start":0,"action_noise":0.2,"location_history":"[0,5,4,0,1,5,4,0,5,4,2,3]","action_history":"[0,0,1,1,1,1,0,0,0,0,1]","door_history":"[0,0,1,1,1,1,0,0,0,0,1]","location_rts":"[1434,555,1590,536,494,847,1277,535,638,466,3404]","trial_type":"two-door-navigation","trial_index":75,"time_elapsed":1829554,"internal_node_id":"0.0-2.0-73.0"},{"group":"hexagon_tri","room_assignment":["blue","grey","yellow","red","green","purple"],"door_color_assignment":["white","black"],"door_generator_assignment":[0,1],"goal":1,"start":3,"action_noise":0.2,"location_history":"[3,2,1]","action_history":"[0,0]","door_history":"[0,0]","location_rts":"[2294,637]","trial_type":"two-door-navigation","trial_index":76,"time_elapsed":1838075,"internal_node_id":"0.0-2.0-74.0"},{"group":"hexagon_tri","room_assignment":["blue","grey","yellow","red","green","purple"],"door_color_assignment":["white","black"],"door_generator_assignment":[0,1],"goal":2,"start":1,"action_noise":0.2,"location_history":"[1,3,2]","action_history":"[0,0]","door_history":"[0,0]","location_rts":"[4760,722]","trial_type":"two-door-navigation","trial_index":77,"time_elapsed":1849156,"internal_node_id":"0.0-2.0-75.0"},{"group":"hexagon_tri","room_assignment":["blue","grey","yellow","red","green","purple"],"door_color_assignment":["white","black"],"door_generator_assignment":[0,1],"goal":4,"start":2,"action_noise":0.2,"location_history":"[2,3,2,1,3,4]","action_history":"[1,0,0,0,1]","door_history":"[1,0,0,0,1]","location_rts":"[3257,1491,725,1319,736]","trial_type":"two-door-navigation","trial_index":78,"time_elapsed":1865418,"internal_node_id":"0.0-2.0-76.0"},{"group":"hexagon_tri","room_assignment":["blue","grey","yellow","red","green","purple"],"door_color_assignment":["white","black"],"door_generator_assignment":[0,1],"goal":3,"start":4,"action_noise":0.2,"location_history":"[4,0,1,5,0,1,5,0,1,5,0,5,4,2,3]","action_history":"[0,1,1,1,1,1,1,0,0,0,0,0,1,1]","door_history":"[0,1,1,1,1,1,1,0,0,0,0,0,1,1]","location_rts":"[1712,2718,440,531,951,585,914,6332,498,1546,557,802,341,1808]","trial_type":"two-door-navigation","trial_index":79,"time_elapsed":1903148,"internal_node_id":"0.0-2.0-77.0"},{"group":"hexagon_tri","room_assignment":["blue","grey","yellow","red","green","purple"],"door_color_assignment":["white","black"],"door_generator_assignment":[0,1],"goal":0,"start":3,"action_noise":0.2,"location_history":"[3,4,2,3,4,2,3,2,1,5,0]","action_history":"[1,1,1,1,0,1,1,1,1,1]","door_history":"[1,1,1,1,0,1,1,1,1,1]","location_rts":"[1851,597,640,395,1459,5613,580,879,1116,364]","trial_type":"two-door-navigation","trial_index":80,"time_elapsed":1930601,"internal_node_id":"0.0-2.0-78.0"},{"group":"hexagon_tri","room_assignment":["blue","grey","yellow","red","green","purple"],"door_color_assignment":["white","black"],"door_generator_assignment":[0,1],"goal":4,"start":0,"action_noise":0.2,"location_history":"[0,1,5,0,5,4]","action_history":"[1,1,0,0,0]","door_history":"[1,1,0,0,0]","location_rts":"[3621,1236,1213,560,605]","trial_type":"two-door-navigation","trial_index":81,"time_elapsed":1946566,"internal_node_id":"0.0-2.0-79.0"},{"group":"hexagon_tri","room_assignment":["blue","grey","yellow","red","green","purple"],"door_color_assignment":["white","black"],"door_generator_assignment":[0,1],"goal":5,"start":4,"action_noise":0.2,"location_history":"[4,2,3,2,1,5]","action_history":"[1,1,0,0,1]","door_history":"[1,1,0,0,1]","location_rts":"[2577,1109,1635,524,956]","trial_type":"two-door-navigation","trial_index":82,"time_elapsed":1962109,"internal_node_id":"0.0-2.0-80.0"},{"group":"hexagon_tri","room_assignment":["blue","grey","yellow","red","green","purple"],"door_color_assignment":["white","black"],"door_generator_assignment":[0,1],"goal":1,"start":5,"action_noise":0.2,"location_history":"[5,0,5,0,1]","action_history":"[0,0,1,1]","door_history":"[0,0,1,1]","location_rts":"[2389,538,2152,1076]","trial_type":"two-door-navigation","trial_index":83,"time_elapsed":1975917,"internal_node_id":"0.0-2.0-81.0"},{"group":"hexagon_tri","room_assignment":["blue","grey","yellow","red","green","purple"],"door_color_assignment":["white","black"],"door_generator_assignment":[0,1],"goal":2,"start":1,"action_noise":0.2,"location_history":"[1,5,0,5,0,1,5,4,0,5,4,0,1,3,2]","action_history":"[0,0,0,1,1,1,0,0,0,0,0,1,1,1]","door_history":"[0,0,0,1,1,1,0,0,0,0,0,1,1,1]","location_rts":"[5704,1024,879,581,425,1342,1155,714,2181,943,498,543,374,414]","trial_type":"two-door-navigation","trial_index":84,"time_elapsed":2010721,"internal_node_id":"0.0-2.0-82.0"},{"group":"hexagon_tri","room_assignment":["blue","grey","yellow","red","green","purple"],"door_color_assignment":["white","black"],"door_generator_assignment":[0,1],"goal":4,"start":2,"action_noise":0.2,"location_history":"[2,3,2,3,2,1,5,4]","action_history":"[1,1,1,0,0,0,0]","door_history":"[1,1,1,0,0,0,0]","location_rts":"[3853,661,855,818,787,1334,967]","trial_type":"two-door-navigation","trial_index":85,"time_elapsed":2030762,"internal_node_id":"0.0-2.0-83.0"},{"group":"hexagon_tri","room_assignment":["blue","grey","yellow","red","green","purple"],"door_color_assignment":["white","black"],"door_generator_assignment":[0,1],"goal":0,"start":4,"action_noise":0.2,"location_history":"[4,0]","action_history":"[1]","door_history":"[1]","location_rts":"[4398]","trial_type":"two-door-navigation","trial_index":86,"time_elapsed":2039691,"internal_node_id":"0.0-2.0-84.0"},{"group":"hexagon_tri","room_assignment":["blue","grey","yellow","red","green","purple"],"door_color_assignment":["white","black"],"door_generator_assignment":[0,1],"goal":5,"start":0,"action_noise":0.2,"location_history":"[0,5]","action_history":"[0]","door_history":"[0]","location_rts":"[2118]","trial_type":"two-door-navigation","trial_index":87,"time_elapsed":2046345,"internal_node_id":"0.0-2.0-85.0"},{"group":"hexagon_tri","room_assignment":["blue","grey","yellow","red","green","purple"],"door_color_assignment":["white","black"],"door_generator_assignment":[0,1],"goal":3,"start":5,"action_noise":0.2,"location_history":"[5,0,5,0,5,4,2,3]","action_history":"[1,1,1,0,0,1,1]","door_history":"[1,1,1,0,0,1,1]","location_rts":"[4306,758,522,707,1066,3019,994]","trial_type":"two-door-navigation","trial_index":88,"time_elapsed":2068470,"internal_node_id":"0.0-2.0-86.0"},{"group":"hexagon_tri","room_assignment":["blue","grey","yellow","red","green","purple"],"door_color_assignment":["white","black"],"door_generator_assignment":[0,1],"goal":1,"start":3,"action_noise":0.2,"location_history":"[3,2,1]","action_history":"[0,0]","door_history":"[0,0]","location_rts":"[3116,592]","trial_type":"two-door-navigation","trial_index":89,"time_elapsed":2077745,"internal_node_id":"0.0-2.0-87.0"},{"group":"hexagon_tri","room_assignment":["blue","grey","yellow","red","green","purple"],"door_color_assignment":["white","black"],"door_generator_assignment":[0,1],"goal":2,"start":1,"action_noise":0.2,"location_history":"[1,3,2]","action_history":"[0,0]","door_history":"[0,0]","location_rts":"[3553,374]","trial_type":"two-door-navigation","trial_index":90,"time_elapsed":2087234,"internal_node_id":"0.0-2.0-88.0"},{"group":"hexagon_tri","room_assignment":["blue","grey","yellow","red","green","purple"],"door_color_assignment":["white","black"],"door_generator_assignment":[0,1],"goal":0,"start":2,"action_noise":0.2,"location_history":"[2,3,4,0]","action_history":"[1,1,1]","door_history":"[1,1,1]","location_rts":"[4098,409,429]","trial_type":"two-door-navigation","trial_index":91,"time_elapsed":2098763,"internal_node_id":"0.0-2.0-89.0"},{"group":"hexagon_tri","room_assignment":["blue","grey","yellow","red","green","purple"],"door_color_assignment":["white","black"],"door_generator_assignment":[0,1],"goal":5,"start":0,"action_noise":0.2,"location_history":"[0,1,5]","action_history":"[1,1]","door_history":"[1,1]","location_rts":"[4791,1069]","trial_type":"two-door-navigation","trial_index":92,"time_elapsed":2110197,"internal_node_id":"0.0-2.0-90.0"},{"group":"hexagon_tri","room_assignment":["blue","grey","yellow","red","green","purple"],"door_color_assignment":["white","black"],"door_generator_assignment":[0,1],"goal":1,"start":5,"action_noise":0.2,"location_history":"[5,4,0,5,0,1]","action_history":"[0,0,0,1,1]","door_history":"[0,0,0,1,1]","location_rts":"[3010,1090,958,1211,394]","trial_type":"two-door-navigation","trial_index":93,"time_elapsed":2125584,"internal_node_id":"0.0-2.0-91.0"},{"group":"hexagon_tri","room_assignment":["blue","grey","yellow","red","green","purple"],"door_color_assignment":["white","black"],"door_generator_assignment":[0,1],"goal":3,"start":1,"action_noise":0.2,"location_history":"[1,5,0,1,3]","action_history":"[1,1,1,0]","door_history":"[1,1,1,0]","location_rts":"[2808,493,445,1813]","trial_type":"two-door-navigation","trial_index":94,"time_elapsed":2138821,"internal_node_id":"0.0-2.0-92.0"},{"group":"hexagon_tri","room_assignment":["blue","grey","yellow","red","green","purple"],"door_color_assignment":["white","black"],"door_generator_assignment":[0,1],"goal":4,"start":3,"action_noise":0.2,"location_history":"[3,4]","action_history":"[1]","door_history":"[1]","location_rts":"[2274]","trial_type":"two-door-navigation","trial_index":95,"time_elapsed":2145682,"internal_node_id":"0.0-2.0-93.0"},{"group":"hexagon_tri","room_assignment":["blue","grey","yellow","red","green","purple"],"door_color_assignment":["white","black"],"door_generator_assignment":[0,1],"goal":2,"start":4,"action_noise":0.2,"location_history":"[4,0,1,3,2]","action_history":"[0,0,0,0]","door_history":"[0,0,0,0]","location_rts":"[2169,752,1272,2564]","trial_type":"two-door-navigation","trial_index":96,"time_elapsed":2160104,"internal_node_id":"0.0-2.0-94.0"},{"group":"hexagon_tri","room_assignment":["blue","grey","yellow","red","green","purple"],"door_color_assignment":["white","black"],"door_generator_assignment":[0,1],"goal":4,"start":2,"action_noise":0.2,"location_history":"[2,3,2,3,2,3,2,3,2,1,5,0,1,5,0,5,4]","action_history":"[1,1,1,0,1,1,1,0,0,1,1,1,1,1,0,0]","door_history":"[1,1,1,0,1,1,1,0,0,1,1,1,1,1,0,0]","location_rts":"[2239,571,702,921,1541,721,1324,886,359,3416,357,379,1087,555,452,837]","trial_type":"two-door-navigation","trial_index":97,"time_elapsed":2196569,"internal_node_id":"0.0-2.0-95.0"},{"group":"hexagon_tri","room_assignment":["blue","grey","yellow","red","green","purple"],"door_color_assignment":["white","black"],"door_generator_assignment":[0,1],"goal":0,"start":4,"action_noise":0.2,"location_history":"[4,2,3,4,2,3,4,0]","action_history":"[1,1,1,0,0,0,0]","door_history":"[1,1,1,0,0,0,0]","location_rts":"[4018,1072,668,861,524,371,550]","trial_type":"two-door-navigation","trial_index":98,"time_elapsed":2215432,"internal_node_id":"0.0-2.0-96.0"},{"group":"hexagon_tri","room_assignment":["blue","grey","yellow","red","green","purple"],"door_color_assignment":["white","black"],"door_generator_assignment":[0,1],"goal":5,"start":0,"action_noise":0.2,"location_history":"[0,1,3,4,2,3,2,1,5]","action_history":"[1,1,1,1,1,0,0,1]","door_history":"[1,1,1,1,1,0,0,1]","location_rts":"[1810,1072,4546,629,939,1177,661,1053]","trial_type":"two-door-navigation","trial_index":99,"time_elapsed":2239164,"internal_node_id":"0.0-2.0-97.0"},{"group":"hexagon_tri","room_assignment":["blue","grey","yellow","red","green","purple"],"door_color_assignment":["white","black"],"door_generator_assignment":[0,1],"goal":1,"start":5,"action_noise":0.2,"location_history":"[5,4,2,1]","action_history":"[0,0,0]","door_history":"[0,0,0]","location_rts":"[11459,422,1528]","trial_type":"two-door-navigation","trial_index":100,"time_elapsed":2259216,"internal_node_id":"0.0-2.0-98.0"},{"group":"hexagon_tri","room_assignment":["blue","grey","yellow","red","green","purple"],"door_color_assignment":["white","black"],"door_generator_assignment":[0,1],"goal":3,"start":1,"action_noise":0.2,"location_history":"[1,5,0,5,4,0,5,0,1,3]","action_history":"[0,0,0,0,0,0,1,1,0]","door_history":"[0,0,0,0,0,0,1,1,0]","location_rts":"[2510,724,1145,631,1744,676,505,861,1256]","trial_type":"two-door-navigation","trial_index":101,"time_elapsed":2282139,"internal_node_id":"0.0-2.0-99.0"},{"view_history":"[{\"page_index\":0,\"viewing_time\":2272}]","rt":2273,"trial_type":"instructions","trial_index":102,"time_elapsed":2285414,"internal_node_id":"0.0-3.0"},{"view_history":"[{\"page_index\":0,\"viewing_time\":1954},{\"page_index\":1,\"viewing_time\":26486}]","rt":28442,"trial_type":"instructions","trial_index":103,"time_elapsed":2314857,"internal_node_id":"0.0-4.0"},{"group":"hexagon_tri","fractal_assignment":["../images/org_blu.png","../images/pnk_blu.png","../images/blu_wht.png","../images/cyn_red.png","../images/gry_blk.png","../images/ylw_slt.png"],"mutagen_generator_assignment":[0,1],"goal":4,"start":0,"action_noise":0.2,"location_history":"[0,5,0,1,5,4]","action_history":"[0,1,1,1,0]","mutagen_history":"[0,1,1,1,0]","location_rts":"[7966,5251,1920,2287,858]","trial_type":"fractal-mutation","trial_index":104,"time_elapsed":2342179,"internal_node_id":"0.0-5.0-0.0"},{"group":"hexagon_tri","fractal_assignment":["../images/org_blu.png","../images/pnk_blu.png","../images/blu_wht.png","../images/cyn_red.png","../images/gry_blk.png","../images/ylw_slt.png"],"mutagen_generator_assignment":[0,1],"goal":3,"start":4,"action_noise":0.2,"location_history":"[4,0,5,0,1,5,0,1,5,4,0,5,4,2,1,3]","action_history":"[0,0,1,1,1,1,1,0,0,0,0,1,1,0,0]","mutagen_history":"[0,0,1,1,1,1,1,0,0,0,0,1,1,0,0]","location_rts":"[2002,1100,555,739,1093,903,1094,802,1995,2654,1107,1002,682,3611,3182]","trial_type":"fractal-mutation","trial_index":105,"time_elapsed":2384434,"internal_node_id":"0.0-5.0-1.0"},{"group":"hexagon_tri","fractal_assignment":["../images/org_blu.png","../images/pnk_blu.png","../images/blu_wht.png","../images/cyn_red.png","../images/gry_blk.png","../images/ylw_slt.png"],"mutagen_generator_assignment":[0,1],"goal":5,"start":3,"action_noise":0.2,"location_history":"[3,4,2,1,3,4,2,3,4,0,1,3,4,2,1,3,2,1,3,2,1,3,4,2,1,5]","action_history":"[1,0,0,0,1,1,1,1,0,1,1,1,1,0,0,0,1,1,1,0,0,0,0,0,1]","mutagen_history":"[1,0,0,0,1,1,1,1,0,1,1,1,1,0,0,0,1,1,1,0,0,0,0,0,1]","location_rts":"[6518,3672,816,767,1445,1085,746,1629,614,692,1930,692,2251,1023,2107,704,752,1844,744,1041,773,625,693,575,1973]","trial_type":"fractal-mutation","trial_index":106,"time_elapsed":2450704,"internal_node_id":"0.0-5.0-2.0"},{"group":"hexagon_tri","fractal_assignment":["../images/org_blu.png","../images/pnk_blu.png","../images/blu_wht.png","../images/cyn_red.png","../images/gry_blk.png","../images/ylw_slt.png"],"mutagen_generator_assignment":[0,1],"goal":2,"start":5,"action_noise":0.2,"location_history":"[5,0,1,3,4,0,1,5,0,1,5,0,1,3,4,2]","action_history":"[0,0,0,0,0,0,1,1,1,1,1,0,0,1,1]","mutagen_history":"[0,0,0,0,0,0,1,1,1,1,1,0,0,1,1]","location_rts":"[4135,548,1184,612,982,834,707,786,809,734,1146,833,746,2873,2704]","trial_type":"fractal-mutation","trial_index":107,"time_elapsed":2490013,"internal_node_id":"0.0-5.0-3.0"},{"group":"hexagon_tri","fractal_assignment":["../images/org_blu.png","../images/pnk_blu.png","../images/blu_wht.png","../images/cyn_red.png","../images/gry_blk.png","../images/ylw_slt.png"],"mutagen_generator_assignment":[0,1],"goal":1,"start":2,"action_noise":0.2,"location_history":"[2,3,4,0,5,4,0,1]","action_history":"[1,1,1,0,0,0,1]","mutagen_history":"[1,1,1,0,0,0,1]","location_rts":"[3073,637,678,2117,961,835,798]","trial_type":"fractal-mutation","trial_index":108,"time_elapsed":2510959,"internal_node_id":"0.0-5.0-4.0"},{"group":"hexagon_tri","fractal_assignment":["../images/org_blu.png","../images/pnk_blu.png","../images/blu_wht.png","../images/cyn_red.png","../images/gry_blk.png","../images/ylw_slt.png"],"mutagen_generator_assignment":[0,1],"goal":4,"start":1,"action_noise":0.2,"location_history":"[1,5,4]","action_history":"[0,0]","mutagen_history":"[0,0]","location_rts":"[3576,1056]","trial_type":"fractal-mutation","trial_index":109,"time_elapsed":2521238,"internal_node_id":"0.0-5.0-5.0"},{"group":"hexagon_tri","fractal_assignment":["../images/org_blu.png","../images/pnk_blu.png","../images/blu_wht.png","../images/cyn_red.png","../images/gry_blk.png","../images/ylw_slt.png"],"mutagen_generator_assignment":[0,1],"goal":1,"start":4,"action_noise":0.2,"location_history":"[4,0,5,4,0,1]","action_history":"[1,0,0,0,1]","mutagen_history":"[1,0,0,0,1]","location_rts":"[3178,761,986,559,1157]","trial_type":"fractal-mutation","trial_index":110,"time_elapsed":2536818,"internal_node_id":"0.0-5.0-6.0"},{"group":"hexagon_tri","fractal_assignment":["../images/org_blu.png","../images/pnk_blu.png","../images/blu_wht.png","../images/cyn_red.png","../images/gry_blk.png","../images/ylw_slt.png"],"mutagen_generator_assignment":[0,1],"goal":5,"start":1,"action_noise":0.2,"location_history":"[1,5]","action_history":"[1]","mutagen_history":"[1]","location_rts":"[3165]","trial_type":"fractal-mutation","trial_index":111,"time_elapsed":2544587,"internal_node_id":"0.0-5.0-7.0"},{"group":"hexagon_tri","fractal_assignment":["../images/org_blu.png","../images/pnk_blu.png","../images/blu_wht.png","../images/cyn_red.png","../images/gry_blk.png","../images/ylw_slt.png"],"mutagen_generator_assignment":[0,1],"goal":0,"start":5,"action_noise":0.2,"location_history":"[5,4,2,1,3,2,1,5,0]","action_history":"[0,0,0,0,0,1,1,1]","mutagen_history":"[0,0,0,0,0,1,1,1]","location_rts":"[1699,403,697,1315,901,675,1996,767]","trial_type":"fractal-mutation","trial_index":112,"time_elapsed":2565177,"internal_node_id":"0.0-5.0-8.0"},{"group":"hexagon_tri","fractal_assignment":["../images/org_blu.png","../images/pnk_blu.png","../images/blu_wht.png","../images/cyn_red.png","../images/gry_blk.png","../images/ylw_slt.png"],"mutagen_generator_assignment":[0,1],"goal":2,"start":0,"action_noise":0.2,"location_history":"[0,1,3,2]","action_history":"[1,0,0]","mutagen_history":"[1,0,0]","location_rts":"[1784,1079,598]","trial_type":"fractal-mutation","trial_index":113,"time_elapsed":2575423,"internal_node_id":"0.0-5.0-9.0"},{"group":"hexagon_tri","fractal_assignment":["../images/org_blu.png","../images/pnk_blu.png","../images/blu_wht.png","../images/cyn_red.png","../images/gry_blk.png","../images/ylw_slt.png"],"mutagen_generator_assignment":[0,1],"goal":3,"start":2,"action_noise":0.2,"location_history":"[2,3]","action_history":"[1]","mutagen_history":"[1]","location_rts":"[2840]","trial_type":"fractal-mutation","trial_index":114,"time_elapsed":2582861,"internal_node_id":"0.0-5.0-10.0"},{"group":"hexagon_tri","fractal_assignment":["../images/org_blu.png","../images/pnk_blu.png","../images/blu_wht.png","../images/cyn_red.png","../images/gry_blk.png","../images/ylw_slt.png"],"mutagen_generator_assignment":[0,1],"goal":0,"start":3,"action_noise":0.2,"location_history":"[3,4,2,1,3,4,2,3,4,2,3,2,3,4,0]","action_history":"[1,0,0,0,1,1,1,1,0,1,1,1,0,0]","mutagen_history":"[1,0,0,0,1,1,1,1,0,1,1,1,0,0]","location_rts":"[2513,770,427,1081,628,479,755,682,412,824,898,588,379,1299]","trial_type":"fractal-mutation","trial_index":115,"time_elapsed":2613233,"internal_node_id":"0.0-5.0-11.0"},{"group":"hexagon_tri","fractal_assignment":["../images/org_blu.png","../images/pnk_blu.png","../images/blu_wht.png","../images/cyn_red.png","../images/gry_blk.png","../images/ylw_slt.png"],"mutagen_generator_assignment":[0,1],"goal":2,"start":0,"action_noise":0.2,"location_history":"[0,1,3,2]","action_history":"[1,0,0]","mutagen_history":"[1,0,0]","location_rts":"[3200,1534,725]","trial_type":"fractal-mutation","trial_index":116,"time_elapsed":2625438,"internal_node_id":"0.0-5.0-12.0"},{"group":"hexagon_tri","fractal_assignment":["../images/org_blu.png","../images/pnk_blu.png","../images/blu_wht.png","../images/cyn_red.png","../images/gry_blk.png","../images/ylw_slt.png"],"mutagen_generator_assignment":[0,1],"goal":5,"start":2,"action_noise":0.2,"location_history":"[2,3,2,1,5]","action_history":"[1,1,0,1]","mutagen_history":"[1,1,0,1]","location_rts":"[1558,768,742,608]","trial_type":"fractal-mutation","trial_index":117,"time_elapsed":2636957,"internal_node_id":"0.0-5.0-13.0"},{"group":"hexagon_tri","fractal_assignment":["../images/org_blu.png","../images/pnk_blu.png","../images/blu_wht.png","../images/cyn_red.png","../images/gry_blk.png","../images/ylw_slt.png"],"mutagen_generator_assignment":[0,1],"goal":4,"start":5,"action_noise":0.2,"location_history":"[5,4]","action_history":"[0]","mutagen_history":"[0]","location_rts":"[3233]","trial_type":"fractal-mutation","trial_index":118,"time_elapsed":2644769,"internal_node_id":"0.0-5.0-14.0"},{"group":"hexagon_tri","fractal_assignment":["../images/org_blu.png","../images/pnk_blu.png","../images/blu_wht.png","../images/cyn_red.png","../images/gry_blk.png","../images/ylw_slt.png"],"mutagen_generator_assignment":[0,1],"goal":3,"start":4,"action_noise":0.2,"location_history":"[4,0,5,0,5,0,5,0,1,5,0,5,0,1,5,0,5,0,1,3]","action_history":"[0,1,1,0,1,1,1,0,0,0,0,1,0,1,1,1,1,0,0]","mutagen_history":"[0,1,1,0,1,1,1,0,0,0,0,1,0,1,1,1,1,0,0]","location_rts":"[1213,992,844,593,1011,683,626,350,546,1754,726,744,616,873,1194,530,372,451,2019]","trial_type":"fractal-mutation","trial_index":119,"time_elapsed":2684928,"internal_node_id":"0.0-5.0-15.0"},{"group":"hexagon_tri","fractal_assignment":["../images/org_blu.png","../images/pnk_blu.png","../images/blu_wht.png","../images/cyn_red.png","../images/gry_blk.png","../images/ylw_slt.png"],"mutagen_generator_assignment":[0,1],"goal":1,"start":3,"action_noise":0.2,"location_history":"[3,4,2,1]","action_history":"[1,1,0]","mutagen_history":"[1,1,0]","location_rts":"[2737,838,631]","trial_type":"fractal-mutation","trial_index":120,"time_elapsed":2695937,"internal_node_id":"0.0-5.0-16.0"},{"group":"hexagon_tri","fractal_assignment":["../images/org_blu.png","../images/pnk_blu.png","../images/blu_wht.png","../images/cyn_red.png","../images/gry_blk.png","../images/ylw_slt.png"],"mutagen_generator_assignment":[0,1],"goal":5,"start":1,"action_noise":0.2,"location_history":"[1,3,4,2,3,2,1,3,2,3,2,3,2,1,3,4,2,3,4,0,5]","action_history":"[0,1,1,1,0,0,1,1,1,0,0,0,0,0,1,1,1,1,0,1]","mutagen_history":"[0,1,1,1,0,0,1,1,1,0,0,0,0,0,1,1,1,1,0,1]","location_rts":"[2741,490,1255,1101,1176,861,819,804,1332,461,397,555,432,2266,531,463,459,470,443,371]","trial_type":"fractal-mutation","trial_index":121,"time_elapsed":2738601,"internal_node_id":"0.0-5.0-17.0"},{"group":"hexagon_tri","fractal_assignment":["../images/org_blu.png","../images/pnk_blu.png","../images/blu_wht.png","../images/cyn_red.png","../images/gry_blk.png","../images/ylw_slt.png"],"mutagen_generator_assignment":[0,1],"goal":4,"start":5,"action_noise":0.2,"location_history":"[5,4]","action_history":"[0]","mutagen_history":"[0]","location_rts":"[16355]","trial_type":"fractal-mutation","trial_index":122,"time_elapsed":2759543,"internal_node_id":"0.0-5.0-18.0"},{"group":"hexagon_tri","fractal_assignment":["../images/org_blu.png","../images/pnk_blu.png","../images/blu_wht.png","../images/cyn_red.png","../images/gry_blk.png","../images/ylw_slt.png"],"mutagen_generator_assignment":[0,1],"goal":0,"start":4,"action_noise":0.2,"location_history":"[4,0]","action_history":"[0]","mutagen_history":"[0]","location_rts":"[1480]","trial_type":"fractal-mutation","trial_index":123,"time_elapsed":2765621,"internal_node_id":"0.0-5.0-19.0"},{"group":"hexagon_tri","fractal_assignment":["../images/org_blu.png","../images/pnk_blu.png","../images/blu_wht.png","../images/cyn_red.png","../images/gry_blk.png","../images/ylw_slt.png"],"mutagen_generator_assignment":[0,1],"goal":1,"start":0,"action_noise":0.2,"location_history":"[0,1]","action_history":"[1]","mutagen_history":"[1]","location_rts":"[2588]","trial_type":"fractal-mutation","trial_index":124,"time_elapsed":2772812,"internal_node_id":"0.0-5.0-20.0"},{"group":"hexagon_tri","fractal_assignment":["../images/org_blu.png","../images/pnk_blu.png","../images/blu_wht.png","../images/cyn_red.png","../images/gry_blk.png","../images/ylw_slt.png"],"mutagen_generator_assignment":[0,1],"goal":3,"start":1,"action_noise":0.2,"location_history":"[1,5,4,0,5,4,2,1,3]","action_history":"[1,0,0,1,1,1,0,0]","mutagen_history":"[1,0,0,1,1,1,0,0]","location_rts":"[3239,409,443,969,602,896,820,1023]","trial_type":"fractal-mutation","trial_index":125,"time_elapsed":2793500,"internal_node_id":"0.0-5.0-21.0"},{"group":"hexagon_tri","fractal_assignment":["../images/org_blu.png","../images/pnk_blu.png","../images/blu_wht.png","../images/cyn_red.png","../images/gry_blk.png","../images/ylw_slt.png"],"mutagen_generator_assignment":[0,1],"goal":2,"start":3,"action_noise":0.2,"location_history":"[3,4,2]","action_history":"[1,1]","mutagen_history":"[1,1]","location_rts":"[3571,650]","trial_type":"fractal-mutation","trial_index":126,"time_elapsed":2803426,"internal_node_id":"0.0-5.0-22.0"},{"group":"hexagon_tri","fractal_assignment":["../images/org_blu.png","../images/pnk_blu.png","../images/blu_wht.png","../images/cyn_red.png","../images/gry_blk.png","../images/ylw_slt.png"],"mutagen_generator_assignment":[0,1],"goal":0,"start":2,"action_noise":0.2,"location_history":"[2,3,2,3,4,2,1,3,2,1,5,0]","action_history":"[0,0,1,1,0,0,0,0,0,1,1]","mutagen_history":"[0,0,1,1,0,0,0,0,0,1,1]","location_rts":"[1920,1115,738,889,702,642,2838,677,495,425,637]","trial_type":"fractal-mutation","trial_index":127,"time_elapsed":2829957,"internal_node_id":"0.0-5.0-23.0"},{"group":"hexagon_tri","fractal_assignment":["../images/org_blu.png","../images/pnk_blu.png","../images/blu_wht.png","../images/cyn_red.png","../images/gry_blk.png","../images/ylw_slt.png"],"mutagen_generator_assignment":[0,1],"goal":3,"start":0,"action_noise":0.2,"location_history":"[0,5,0,5,4,0,5,4,2,3]","action_history":"[0,1,1,0,0,0,1,1,1]","mutagen_history":"[0,1,1,0,0,0,1,1,1]","location_rts":"[3780,422,575,1602,1411,673,478,356,673]","trial_type":"fractal-mutation","trial_index":128,"time_elapsed":2853200,"internal_node_id":"0.0-5.0-24.0"},{"group":"hexagon_tri","fractal_assignment":["../images/org_blu.png","../images/pnk_blu.png","../images/blu_wht.png","../images/cyn_red.png","../images/gry_blk.png","../images/ylw_slt.png"],"mutagen_generator_assignment":[0,1],"goal":1,"start":3,"action_noise":0.2,"location_history":"[3,4,0,5,4,0,1]","action_history":"[1,0,0,0,0,0]","mutagen_history":"[1,0,0,0,0,0]","location_rts":"[2116,468,459,721,575,839]","trial_type":"fractal-mutation","trial_index":129,"time_elapsed":2868474,"internal_node_id":"0.0-5.0-25.0"},{"group":"hexagon_tri","fractal_assignment":["../images/org_blu.png","../images/pnk_blu.png","../images/blu_wht.png","../images/cyn_red.png","../images/gry_blk.png","../images/ylw_slt.png"],"mutagen_generator_assignment":[0,1],"goal":2,"start":1,"action_noise":0.2,"location_history":"[1,3,4,0,1,5,0,5,4,2]","action_history":"[1,1,1,1,1,0,0,0,0]","mutagen_history":"[1,1,1,1,1,0,0,0,0]","location_rts":"[1913,1399,516,453,721,562,1346,849,663]","trial_type":"fractal-mutation","trial_index":130,"time_elapsed":2890424,"internal_node_id":"0.0-5.0-26.0"},{"group":"hexagon_tri","fractal_assignment":["../images/org_blu.png","../images/pnk_blu.png","../images/blu_wht.png","../images/cyn_red.png","../images/gry_blk.png","../images/ylw_slt.png"],"mutagen_generator_assignment":[0,1],"goal":5,"start":2,"action_noise":0.2,"location_history":"[2,1,5]","action_history":"[0,1]","mutagen_history":"[0,1]","location_rts":"[1718,941]","trial_type":"fractal-mutation","trial_index":131,"time_elapsed":2898810,"internal_node_id":"0.0-5.0-27.0"},{"group":"hexagon_tri","fractal_assignment":["../images/org_blu.png","../images/pnk_blu.png","../images/blu_wht.png","../images/cyn_red.png","../images/gry_blk.png","../images/ylw_slt.png"],"mutagen_generator_assignment":[0,1],"goal":4,"start":5,"action_noise":0.2,"location_history":"[5,0,1,5,0,1,3,2,3,4]","action_history":"[0,1,1,1,1,1,1,1,1]","mutagen_history":"[0,1,1,1,1,1,1,1,1]","location_rts":"[1751,1266,832,545,708,460,733,524,478]","trial_type":"fractal-mutation","trial_index":132,"time_elapsed":2919501,"internal_node_id":"0.0-5.0-28.0"},{"group":"hexagon_tri","fractal_assignment":["../images/org_blu.png","../images/pnk_blu.png","../images/blu_wht.png","../images/cyn_red.png","../images/gry_blk.png","../images/ylw_slt.png"],"mutagen_generator_assignment":[0,1],"goal":5,"start":4,"action_noise":0.2,"location_history":"[4,2,1,3,2,3,4,2,3,4,2,3,4,2,3,4,2,3,2,1,5]","action_history":"[0,1,0,0,0,1,1,1,1,1,0,0,1,1,1,1,1,0,0,1]","mutagen_history":"[0,1,0,0,0,1,1,1,1,1,0,0,1,1,1,1,1,0,0,1]","location_rts":"[2394,1187,11417,932,608,672,422,413,386,468,1217,666,497,649,420,364,417,957,528,1409]","trial_type":"fractal-mutation","trial_index":133,"time_elapsed":2970705,"internal_node_id":"0.0-5.0-29.0"},{"group":"hexagon_tri","fractal_assignment":["../images/org_blu.png","../images/pnk_blu.png","../images/blu_wht.png","../images/cyn_red.png","../images/gry_blk.png","../images/ylw_slt.png"],"mutagen_generator_assignment":[0,1],"goal":3,"start":5,"action_noise":0.2,"location_history":"[5,0,1,5,0,5,0,5,4,0,5,4,2,3]","action_history":"[1,1,1,1,0,0,0,0,0,0,0,1,1]","mutagen_history":"[1,1,1,1,0,0,0,0,0,0,0,1,1]","location_rts":"[4132,1815,527,366,564,815,559,492,1264,662,491,681,482]","trial_type":"fractal-mutation","trial_index":134,"time_elapsed":3001166,"internal_node_id":"0.0-5.0-30.0"},{"group":"hexagon_tri","fractal_assignment":["../images/org_blu.png","../images/pnk_blu.png","../images/blu_wht.png","../images/cyn_red.png","../images/gry_blk.png","../images/ylw_slt.png"],"mutagen_generator_assignment":[0,1],"goal":0,"start":3,"action_noise":0.2,"location_history":"[3,2,1,3,4,0]","action_history":"[0,0,0,0,0]","mutagen_history":"[0,0,0,0,0]","location_rts":"[2877,1936,410,466,793]","trial_type":"fractal-mutation","trial_index":135,"time_elapsed":3016598,"internal_node_id":"0.0-5.0-31.0"},{"group":"hexagon_tri","fractal_assignment":["../images/org_blu.png","../images/pnk_blu.png","../images/blu_wht.png","../images/cyn_red.png","../images/gry_blk.png","../images/ylw_slt.png"],"mutagen_generator_assignment":[0,1],"goal":4,"start":0,"action_noise":0.2,"location_history":"[0,1,5,4]","action_history":"[1,1,0]","mutagen_history":"[1,1,0]","location_rts":"[21197,1154,2053]","trial_type":"fractal-mutation","trial_index":136,"time_elapsed":3047893,"internal_node_id":"0.0-5.0-32.0"},{"group":"hexagon_tri","fractal_assignment":["../images/org_blu.png","../images/pnk_blu.png","../images/blu_wht.png","../images/cyn_red.png","../images/gry_blk.png","../images/ylw_slt.png"],"mutagen_generator_assignment":[0,1],"goal":1,"start":4,"action_noise":0.2,"location_history":"[4,2,3,4,0,5,0,1]","action_history":"[1,1,1,0,0,1,1]","mutagen_history":"[1,1,1,0,0,1,1]","location_rts":"[2873,495,596,499,594,806,682]","trial_type":"fractal-mutation","trial_index":137,"time_elapsed":3065697,"internal_node_id":"0.0-5.0-33.0"},{"group":"hexagon_tri","fractal_assignment":["../images/org_blu.png","../images/pnk_blu.png","../images/blu_wht.png","../images/cyn_red.png","../images/gry_blk.png","../images/ylw_slt.png"],"mutagen_generator_assignment":[0,1],"goal":2,"start":1,"action_noise":0.2,"location_history":"[1,3,4,2]","action_history":"[0,1,1]","mutagen_history":"[0,1,1]","location_rts":"[3154,686,421]","trial_type":"fractal-mutation","trial_index":138,"time_elapsed":3076796,"internal_node_id":"0.0-5.0-34.0"},{"group":"hexagon_tri","fractal_assignment":["../images/org_blu.png","../images/pnk_blu.png","../images/blu_wht.png","../images/cyn_red.png","../images/gry_blk.png","../images/ylw_slt.png"],"mutagen_generator_assignment":[0,1],"goal":0,"start":2,"action_noise":0.2,"location_history":"[2,1,5,4,0]","action_history":"[0,0,0,0]","mutagen_history":"[0,0,0,0]","location_rts":"[1337,1186,688,414]","trial_type":"fractal-mutation","trial_index":139,"time_elapsed":3088240,"internal_node_id":"0.0-5.0-35.0"},{"group":"hexagon_tri","fractal_assignment":["../images/org_blu.png","../images/pnk_blu.png","../images/blu_wht.png","../images/cyn_red.png","../images/gry_blk.png","../images/ylw_slt.png"],"mutagen_generator_assignment":[0,1],"goal":5,"start":0,"action_noise":0.2,"location_history":"[0,1,3,2,1,3,2,1,5]","action_history":"[1,0,0,0,0,0,0,1]","mutagen_history":"[1,0,0,0,0,0,0,1]","location_rts":"[4986,1824,685,718,871,450,446,779]","trial_type":"fractal-mutation","trial_index":140,"time_elapsed":3111124,"internal_node_id":"0.0-5.0-36.0"},{"group":"hexagon_tri","fractal_assignment":["../images/org_blu.png","../images/pnk_blu.png","../images/blu_wht.png","../images/cyn_red.png","../images/gry_blk.png","../images/ylw_slt.png"],"mutagen_generator_assignment":[0,1],"goal":2,"start":5,"action_noise":0.2,"location_history":"[5,4,2]","action_history":"[0,0]","mutagen_history":"[0,0]","location_rts":"[2182,759]","trial_type":"fractal-mutation","trial_index":141,"time_elapsed":3119759,"internal_node_id":"0.0-5.0-37.0"},{"group":"hexagon_tri","fractal_assignment":["../images/org_blu.png","../images/pnk_blu.png","../images/blu_wht.png","../images/cyn_red.png","../images/gry_blk.png","../images/ylw_slt.png"],"mutagen_generator_assignment":[0,1],"goal":1,"start":2,"action_noise":0.2,"location_history":"[2,1]","action_history":"[0]","mutagen_history":"[0]","location_rts":"[5119]","trial_type":"fractal-mutation","trial_index":142,"time_elapsed":3129493,"internal_node_id":"0.0-5.0-38.0"},{"group":"hexagon_tri","fractal_assignment":["../images/org_blu.png","../images/pnk_blu.png","../images/blu_wht.png","../images/cyn_red.png","../images/gry_blk.png","../images/ylw_slt.png"],"mutagen_generator_assignment":[0,1],"goal":4,"start":1,"action_noise":0.2,"location_history":"[1,3,4]","action_history":"[0,1]","mutagen_history":"[0,1]","location_rts":"[1798,893]","trial_type":"fractal-mutation","trial_index":143,"time_elapsed":3137896,"internal_node_id":"0.0-5.0-39.0"},{"group":"hexagon_tri","fractal_assignment":["../images/org_blu.png","../images/pnk_blu.png","../images/blu_wht.png","../images/cyn_red.png","../images/gry_blk.png","../images/ylw_slt.png"],"mutagen_generator_assignment":[0,1],"goal":3,"start":4,"action_noise":0.2,"location_history":"[4,0,5,0,1,5,0,5,4,0,5,0,1,5,0,5,0,1,5,0,1,3]","action_history":"[0,1,1,1,1,1,1,0,0,0,1,1,1,1,1,1,1,1,1,0,0]","mutagen_history":"[0,1,1,1,1,1,1,0,0,0,1,1,1,1,1,1,1,1,1,0,0]","location_rts":"[2416,1478,519,668,1412,521,545,653,2585,895,634,447,397,490,592,395,363,442,529,426,702]","trial_type":"fractal-mutation","trial_index":144,"time_elapsed":3181484,"internal_node_id":"0.0-5.0-40.0"},{"group":"hexagon_tri","fractal_assignment":["../images/org_blu.png","../images/pnk_blu.png","../images/blu_wht.png","../images/cyn_red.png","../images/gry_blk.png","../images/ylw_slt.png"],"mutagen_generator_assignment":[0,1],"goal":5,"start":3,"action_noise":0.2,"location_history":"[3,2,1,3,4,2,3,2,1,5]","action_history":"[1,0,1,1,1,1,0,0,1]","mutagen_history":"[1,0,1,1,1,1,0,0,1]","location_rts":"[1971,891,1155,632,702,743,898,824,12514]","trial_type":"fractal-mutation","trial_index":145,"time_elapsed":3215180,"internal_node_id":"0.0-5.0-41.0"},{"group":"hexagon_tri","fractal_assignment":["../images/org_blu.png","../images/pnk_blu.png","../images/blu_wht.png","../images/cyn_red.png","../images/gry_blk.png","../images/ylw_slt.png"],"mutagen_generator_assignment":[0,1],"goal":3,"start":5,"action_noise":0.2,"location_history":"[5,4,2,3]","action_history":"[0,1,1]","mutagen_history":"[0,1,1]","location_rts":"[4026,761,6667]","trial_type":"fractal-mutation","trial_index":146,"time_elapsed":3233622,"internal_node_id":"0.0-5.0-42.0"},{"group":"hexagon_tri","fractal_assignment":["../images/org_blu.png","../images/pnk_blu.png","../images/blu_wht.png","../images/cyn_red.png","../images/gry_blk.png","../images/ylw_slt.png"],"mutagen_generator_assignment":[0,1],"goal":0,"start":3,"action_noise":0.2,"location_history":"[3,2,1,5,4,0]","action_history":"[0,0,1,1,0]","mutagen_history":"[0,0,1,1,0]","location_rts":"[2941,992,748,517,647]","trial_type":"fractal-mutation","trial_index":147,"time_elapsed":3248371,"internal_node_id":"0.0-5.0-43.0"},{"group":"hexagon_tri","fractal_assignment":["../images/org_blu.png","../images/pnk_blu.png","../images/blu_wht.png","../images/cyn_red.png","../images/gry_blk.png","../images/ylw_slt.png"],"mutagen_generator_assignment":[0,1],"goal":2,"start":0,"action_noise":0.2,"location_history":"[0,1,3,4,2]","action_history":"[1,0,1,1]","mutagen_history":"[1,0,1,1]","location_rts":"[1685,16252,1037,407]","trial_type":"fractal-mutation","trial_index":148,"time_elapsed":3275621,"internal_node_id":"0.0-5.0-44.0"},{"group":"hexagon_tri","fractal_assignment":["../images/org_blu.png","../images/pnk_blu.png","../images/blu_wht.png","../images/cyn_red.png","../images/gry_blk.png","../images/ylw_slt.png"],"mutagen_generator_assignment":[0,1],"goal":4,"start":2,"action_noise":0.2,"location_history":"[2,1,3,4]","action_history":"[0,0,1]","mutagen_history":"[0,0,1]","location_rts":"[1518,502,897]","trial_type":"fractal-mutation","trial_index":149,"time_elapsed":3285307,"internal_node_id":"0.0-5.0-45.0"},{"group":"hexagon_tri","fractal_assignment":["../images/org_blu.png","../images/pnk_blu.png","../images/blu_wht.png","../images/cyn_red.png","../images/gry_blk.png","../images/ylw_slt.png"],"mutagen_generator_assignment":[0,1],"goal":1,"start":4,"action_noise":0.2,"location_history":"[4,0,5,0,5,0,1]","action_history":"[0,0,1,1,1,1]","mutagen_history":"[0,0,1,1,1,1]","location_rts":"[732,513,393,789,641,480]","trial_type":"fractal-mutation","trial_index":150,"time_elapsed":3298977,"internal_node_id":"0.0-5.0-46.0"},{"group":"hexagon_tri","fractal_assignment":["../images/org_blu.png","../images/pnk_blu.png","../images/blu_wht.png","../images/cyn_red.png","../images/gry_blk.png","../images/ylw_slt.png"],"mutagen_generator_assignment":[0,1],"goal":4,"start":1,"action_noise":0.2,"location_history":"[1,3,4]","action_history":"[0,1]","mutagen_history":"[0,1]","location_rts":"[1370,1102]","trial_type":"fractal-mutation","trial_index":151,"time_elapsed":3307119,"internal_node_id":"0.0-5.0-47.0"},{"group":"hexagon_tri","fractal_assignment":["../images/org_blu.png","../images/pnk_blu.png","../images/blu_wht.png","../images/cyn_red.png","../images/gry_blk.png","../images/ylw_slt.png"],"mutagen_generator_assignment":[0,1],"goal":1,"start":4,"action_noise":0.2,"location_history":"[4,0,1]","action_history":"[1,1]","mutagen_history":"[1,1]","location_rts":"[2664,644]","trial_type":"fractal-mutation","trial_index":152,"time_elapsed":3316123,"internal_node_id":"0.0-5.0-48.0"},{"group":"hexagon_tri","fractal_assignment":["../images/org_blu.png","../images/pnk_blu.png","../images/blu_wht.png","../images/cyn_red.png","../images/gry_blk.png","../images/ylw_slt.png"],"mutagen_generator_assignment":[0,1],"goal":3,"start":1,"action_noise":0.2,"location_history":"[1,3]","action_history":"[0]","mutagen_history":"[0]","location_rts":"[638]","trial_type":"fractal-mutation","trial_index":153,"time_elapsed":3321349,"internal_node_id":"0.0-5.0-49.0"},{"group":"hexagon_tri","fractal_assignment":["../images/org_blu.png","../images/pnk_blu.png","../images/blu_wht.png","../images/cyn_red.png","../images/gry_blk.png","../images/ylw_slt.png"],"mutagen_generator_assignment":[0,1],"goal":5,"start":3,"action_noise":0.2,"location_history":"[3,4,2,1,3,2,1,5]","action_history":"[1,0,0,0,0,0,1]","mutagen_history":"[1,0,0,0,0,0,1]","location_rts":"[1423,2344,892,735,620,536,486]","trial_type":"fractal-mutation","trial_index":154,"time_elapsed":3339607,"internal_node_id":"0.0-5.0-50.0"},{"group":"hexagon_tri","fractal_assignment":["../images/org_blu.png","../images/pnk_blu.png","../images/blu_wht.png","../images/cyn_red.png","../images/gry_blk.png","../images/ylw_slt.png"],"mutagen_generator_assignment":[0,1],"goal":0,"start":5,"action_noise":0.2,"location_history":"[5,4,2,3,2,3,4,0]","action_history":"[0,0,0,0,1,1,1]","mutagen_history":"[0,0,0,0,1,1,1]","location_rts":"[16142,1217,375,521,425,355,384]","trial_type":"fractal-mutation","trial_index":155,"time_elapsed":3370105,"internal_node_id":"0.0-5.0-51.0"},{"group":"hexagon_tri","fractal_assignment":["../images/org_blu.png","../images/pnk_blu.png","../images/blu_wht.png","../images/cyn_red.png","../images/gry_blk.png","../images/ylw_slt.png"],"mutagen_generator_assignment":[0,1],"goal":2,"start":0,"action_noise":0.2,"location_history":"[0,5,0,5,4,2]","action_history":"[0,1,1,1,1]","mutagen_history":"[0,1,1,1,1]","location_rts":"[820,621,441,360,479]","trial_type":"fractal-mutation","trial_index":156,"time_elapsed":3381766,"internal_node_id":"0.0-5.0-52.0"},{"group":"hexagon_tri","fractal_assignment":["../images/org_blu.png","../images/pnk_blu.png","../images/blu_wht.png","../images/cyn_red.png","../images/gry_blk.png","../images/ylw_slt.png"],"mutagen_generator_assignment":[0,1],"goal":1,"start":2,"action_noise":0.2,"location_history":"[2,3,4,2,3,4,0,5,0,1]","action_history":"[0,1,1,1,1,1,1,1,1]","mutagen_history":"[0,1,1,1,1,1,1,1,1]","location_rts":"[677,810,612,592,408,406,718,491,429]","trial_type":"fractal-mutation","trial_index":157,"time_elapsed":3400236,"internal_node_id":"0.0-5.0-53.0"},{"group":"hexagon_tri","fractal_assignment":["../images/org_blu.png","../images/pnk_blu.png","../images/blu_wht.png","../images/cyn_red.png","../images/gry_blk.png","../images/ylw_slt.png"],"mutagen_generator_assignment":[0,1],"goal":2,"start":1,"action_noise":0.2,"location_history":"[1,3,4,0,1,5,0,1,5,0,5,0,5,4,2]","action_history":"[0,1,1,1,1,1,1,1,1,0,1,1,0,0]","mutagen_history":"[0,1,1,1,1,1,1,1,1,0,1,1,0,0]","location_rts":"[1466,513,527,462,389,536,429,439,742,473,466,524,520,327]","trial_type":"fractal-mutation","trial_index":158,"time_elapsed":3426669,"internal_node_id":"0.0-5.0-54.0"},{"group":"hexagon_tri","fractal_assignment":["../images/org_blu.png","../images/pnk_blu.png","../images/blu_wht.png","../images/cyn_red.png","../images/gry_blk.png","../images/ylw_slt.png"],"mutagen_generator_assignment":[0,1],"goal":5,"start":2,"action_noise":0.2,"location_history":"[2,1,5]","action_history":"[0,1]","mutagen_history":"[0,1]","location_rts":"[1641,1517]","trial_type":"fractal-mutation","trial_index":159,"time_elapsed":3435507,"internal_node_id":"0.0-5.0-55.0"},{"group":"hexagon_tri","fractal_assignment":["../images/org_blu.png","../images/pnk_blu.png","../images/blu_wht.png","../images/cyn_red.png","../images/gry_blk.png","../images/ylw_slt.png"],"mutagen_generator_assignment":[0,1],"goal":4,"start":5,"action_noise":0.2,"location_history":"[5,4]","action_history":"[0]","mutagen_history":"[0]","location_rts":"[1095]","trial_type":"fractal-mutation","trial_index":160,"time_elapsed":3441187,"internal_node_id":"0.0-5.0-56.0"},{"group":"hexagon_tri","fractal_assignment":["../images/org_blu.png","../images/pnk_blu.png","../images/blu_wht.png","../images/cyn_red.png","../images/gry_blk.png","../images/ylw_slt.png"],"mutagen_generator_assignment":[0,1],"goal":3,"start":4,"action_noise":0.2,"location_history":"[4,2,1,5,4,2,3]","action_history":"[1,1,1,1,1,1]","mutagen_history":"[1,1,1,1,1,1]","location_rts":"[1319,542,523,361,338,306]","trial_type":"fractal-mutation","trial_index":161,"time_elapsed":3454650,"internal_node_id":"0.0-5.0-57.0"},{"group":"hexagon_tri","fractal_assignment":["../images/org_blu.png","../images/pnk_blu.png","../images/blu_wht.png","../images/cyn_red.png","../images/gry_blk.png","../images/ylw_slt.png"],"mutagen_generator_assignment":[0,1],"goal":0,"start":3,"action_noise":0.2,"location_history":"[3,2,1,3,2,1,3,4,0]","action_history":"[0,0,0,0,0,0,0,0]","mutagen_history":"[0,0,0,0,0,0,0,0]","location_rts":"[1042,708,688,419,425,535,403,454]","trial_type":"fractal-mutation","trial_index":162,"time_elapsed":3471409,"internal_node_id":"0.0-5.0-58.0"},{"group":"hexagon_tri","fractal_assignment":["../images/org_blu.png","../images/pnk_blu.png","../images/blu_wht.png","../images/cyn_red.png","../images/gry_blk.png","../images/ylw_slt.png"],"mutagen_generator_assignment":[0,1],"goal":2,"start":0,"action_noise":0.2,"location_history":"[0,5,4,0,1,5,4,2]","action_history":"[1,1,0,1,1,1,1]","mutagen_history":"[1,1,0,1,1,1,1]","location_rts":"[1352,671,666,523,520,447,386]","trial_type":"fractal-mutation","trial_index":163,"time_elapsed":3487156,"internal_node_id":"0.0-5.0-59.0"},{"group":"hexagon_tri","fractal_assignment":["../images/org_blu.png","../images/pnk_blu.png","../images/blu_wht.png","../images/cyn_red.png","../images/gry_blk.png","../images/ylw_slt.png"],"mutagen_generator_assignment":[0,1],"goal":1,"start":2,"action_noise":0.2,"location_history":"[2,1]","action_history":"[0]","mutagen_history":"[0]","location_rts":"[1122]","trial_type":"fractal-mutation","trial_index":164,"time_elapsed":3492897,"internal_node_id":"0.0-5.0-60.0"},{"group":"hexagon_tri","fractal_assignment":["../images/org_blu.png","../images/pnk_blu.png","../images/blu_wht.png","../images/cyn_red.png","../images/gry_blk.png","../images/ylw_slt.png"],"mutagen_generator_assignment":[0,1],"goal":0,"start":1,"action_noise":0.2,"location_history":"[1,3,4,2,1,3,2,1,5,4,0]","action_history":"[0,1,1,1,0,0,0,0,0,0]","mutagen_history":"[0,1,1,1,0,0,0,0,0,0]","location_rts":"[1039,640,441,514,640,321,308,338,348,404]","trial_type":"fractal-mutation","trial_index":165,"time_elapsed":3512173,"internal_node_id":"0.0-5.0-61.0"},{"group":"hexagon_tri","fractal_assignment":["../images/org_blu.png","../images/pnk_blu.png","../images/blu_wht.png","../images/cyn_red.png","../images/gry_blk.png","../images/ylw_slt.png"],"mutagen_generator_assignment":[0,1],"goal":3,"start":0,"action_noise":0.2,"location_history":"[0,5,4,0,1,5,0,5,4,0,5,4,2,3]","action_history":"[0,0,1,1,1,1,1,1,1,0,0,1,1]","mutagen_history":"[0,0,1,1,1,1,1,1,1,0,0,1,1]","location_rts":"[1031,1163,610,482,316,383,278,360,399,708,487,574,532]","trial_type":"fractal-mutation","trial_index":166,"time_elapsed":3537193,"internal_node_id":"0.0-5.0-62.0"},{"group":"hexagon_tri","fractal_assignment":["../images/org_blu.png","../images/pnk_blu.png","../images/blu_wht.png","../images/cyn_red.png","../images/gry_blk.png","../images/ylw_slt.png"],"mutagen_generator_assignment":[0,1],"goal":5,"start":3,"action_noise":0.2,"location_history":"[3,2,3,2,3,2,3,2,1,5]","action_history":"[0,1,1,1,1,1,0,0,0]","mutagen_history":"[0,1,1,1,1,1,0,0,0]","location_rts":"[595,1005,470,278,367,366,404,376,314]","trial_type":"fractal-mutation","trial_index":167,"time_elapsed":3554745,"internal_node_id":"0.0-5.0-63.0"},{"group":"hexagon_tri","fractal_assignment":["../images/org_blu.png","../images/pnk_blu.png","../images/blu_wht.png","../images/cyn_red.png","../images/gry_blk.png","../images/ylw_slt.png"],"mutagen_generator_assignment":[0,1],"goal":4,"start":5,"action_noise":0.2,"location_history":"[5,4]","action_history":"[0]","mutagen_history":"[0]","location_rts":"[626]","trial_type":"fractal-mutation","trial_index":168,"time_elapsed":3559950,"internal_node_id":"0.0-5.0-64.0"},{"group":"hexagon_tri","fractal_assignment":["../images/org_blu.png","../images/pnk_blu.png","../images/blu_wht.png","../images/cyn_red.png","../images/gry_blk.png","../images/ylw_slt.png"],"mutagen_generator_assignment":[0,1],"goal":1,"start":4,"action_noise":0.2,"location_history":"[4,2,1]","action_history":"[1,0]","mutagen_history":"[1,0]","location_rts":"[967,732]","trial_type":"fractal-mutation","trial_index":169,"time_elapsed":3567316,"internal_node_id":"0.0-5.0-65.0"},{"group":"hexagon_tri","fractal_assignment":["../images/org_blu.png","../images/pnk_blu.png","../images/blu_wht.png","../images/cyn_red.png","../images/gry_blk.png","../images/ylw_slt.png"],"mutagen_generator_assignment":[0,1],"goal":5,"start":1,"action_noise":0.2,"location_history":"[1,3,2,3,4,2,3,4,0,1,3,2,1,3,2,1,5]","action_history":"[0,0,0,1,1,1,1,0,1,1,0,0,0,0,0,1]","mutagen_history":"[0,0,0,1,1,1,1,0,1,1,0,0,0,0,0,1]","location_rts":"[1200,1545,452,591,484,427,372,639,414,1159,973,483,740,526,438,710]","trial_type":"fractal-mutation","trial_index":170,"time_elapsed":3599444,"internal_node_id":"0.0-5.0-66.0"},{"group":"hexagon_tri","fractal_assignment":["../images/org_blu.png","../images/pnk_blu.png","../images/blu_wht.png","../images/cyn_red.png","../images/gry_blk.png","../images/ylw_slt.png"],"mutagen_generator_assignment":[0,1],"goal":2,"start":5,"action_noise":0.2,"location_history":"[5,0,5,4,2]","action_history":"[1,1,1,1]","mutagen_history":"[1,1,1,1]","location_rts":"[1555,798,965,1188]","trial_type":"fractal-mutation","trial_index":171,"time_elapsed":3611867,"internal_node_id":"0.0-5.0-67.0"},{"group":"hexagon_tri","fractal_assignment":["../images/org_blu.png","../images/pnk_blu.png","../images/blu_wht.png","../images/cyn_red.png","../images/gry_blk.png","../images/ylw_slt.png"],"mutagen_generator_assignment":[0,1],"goal":3,"start":2,"action_noise":0.2,"location_history":"[2,1,3]","action_history":"[1,1]","mutagen_history":"[1,1]","location_rts":"[1353,680]","trial_type":"fractal-mutation","trial_index":172,"time_elapsed":3619630,"internal_node_id":"0.0-5.0-68.0"},{"group":"hexagon_tri","fractal_assignment":["../images/org_blu.png","../images/pnk_blu.png","../images/blu_wht.png","../images/cyn_red.png","../images/gry_blk.png","../images/ylw_slt.png"],"mutagen_generator_assignment":[0,1],"goal":4,"start":3,"action_noise":0.2,"location_history":"[3,4]","action_history":"[1]","mutagen_history":"[1]","location_rts":"[2117]","trial_type":"fractal-mutation","trial_index":173,"time_elapsed":3626344,"internal_node_id":"0.0-5.0-69.0"},{"group":"hexagon_tri","fractal_assignment":["../images/org_blu.png","../images/pnk_blu.png","../images/blu_wht.png","../images/cyn_red.png","../images/gry_blk.png","../images/ylw_slt.png"],"mutagen_generator_assignment":[0,1],"goal":0,"start":4,"action_noise":0.2,"location_history":"[4,0]","action_history":"[0]","mutagen_history":"[0]","location_rts":"[878]","trial_type":"fractal-mutation","trial_index":174,"time_elapsed":3631799,"internal_node_id":"0.0-5.0-70.0"},{"group":"hexagon_tri","fractal_assignment":["../images/org_blu.png","../images/pnk_blu.png","../images/blu_wht.png","../images/cyn_red.png","../images/gry_blk.png","../images/ylw_slt.png"],"mutagen_generator_assignment":[0,1],"goal":5,"start":0,"action_noise":0.2,"location_history":"[0,1,3,4,2,3,4,2,3,4,2,1,5]","action_history":"[1,1,1,1,1,1,1,1,0,0,0,1]","mutagen_history":"[1,1,1,1,1,1,1,1,0,0,0,1]","location_rts":"[1831,716,698,1117,618,354,464,645,607,1039,519,748]","trial_type":"fractal-mutation","trial_index":175,"time_elapsed":3657710,"internal_node_id":"0.0-5.0-71.0"},{"group":"hexagon_tri","fractal_assignment":["../images/org_blu.png","../images/pnk_blu.png","../images/blu_wht.png","../images/cyn_red.png","../images/gry_blk.png","../images/ylw_slt.png"],"mutagen_generator_assignment":[0,1],"goal":0,"start":5,"action_noise":0.2,"location_history":"[5,4,0]","action_history":"[0,0]","mutagen_history":"[0,0]","location_rts":"[1827,1048]","trial_type":"fractal-mutation","trial_index":176,"time_elapsed":3666250,"internal_node_id":"0.0-5.0-72.0"},{"group":"hexagon_tri","fractal_assignment":["../images/org_blu.png","../images/pnk_blu.png","../images/blu_wht.png","../images/cyn_red.png","../images/gry_blk.png","../images/ylw_slt.png"],"mutagen_generator_assignment":[0,1],"goal":3,"start":0,"action_noise":0.2,"location_history":"[0,5,0,5,4,2,3]","action_history":"[0,0,0,1,1,1]","mutagen_history":"[0,0,0,1,1,1]","location_rts":"[1187,510,641,768,960,594]","trial_type":"fractal-mutation","trial_index":177,"time_elapsed":3680937,"internal_node_id":"0.0-5.0-73.0"},{"group":"hexagon_tri","fractal_assignment":["../images/org_blu.png","../images/pnk_blu.png","../images/blu_wht.png","../images/cyn_red.png","../images/gry_blk.png","../images/ylw_slt.png"],"mutagen_generator_assignment":[0,1],"goal":1,"start":3,"action_noise":0.2,"location_history":"[3,4,2,1]","action_history":"[1,1,0]","mutagen_history":"[1,1,0]","location_rts":"[1317,550,425]","trial_type":"fractal-mutation","trial_index":178,"time_elapsed":3690121,"internal_node_id":"0.0-5.0-74.0"},{"group":"hexagon_tri","fractal_assignment":["../images/org_blu.png","../images/pnk_blu.png","../images/blu_wht.png","../images/cyn_red.png","../images/gry_blk.png","../images/ylw_slt.png"],"mutagen_generator_assignment":[0,1],"goal":2,"start":1,"action_noise":0.2,"location_history":"[1,5,0,5,0,1,5,4,0,5,4,2]","action_history":"[0,1,1,1,1,1,0,0,0,0,1]","mutagen_history":"[0,1,1,1,1,1,0,0,0,0,1]","location_rts":"[1271,439,400,511,430,714,663,401,524,622,769]","trial_type":"fractal-mutation","trial_index":179,"time_elapsed":3712405,"internal_node_id":"0.0-5.0-75.0"},{"group":"hexagon_tri","fractal_assignment":["../images/org_blu.png","../images/pnk_blu.png","../images/blu_wht.png","../images/cyn_red.png","../images/gry_blk.png","../images/ylw_slt.png"],"mutagen_generator_assignment":[0,1],"goal":4,"start":2,"action_noise":0.2,"location_history":"[2,1,3,2,1,3,4]","action_history":"[1,0,0,0,1,1]","mutagen_history":"[1,0,0,0,1,1]","location_rts":"[1118,1257,664,496,587,480]","trial_type":"fractal-mutation","trial_index":180,"time_elapsed":3727081,"internal_node_id":"0.0-5.0-76.0"},{"group":"hexagon_tri","fractal_assignment":["../images/org_blu.png","../images/pnk_blu.png","../images/blu_wht.png","../images/cyn_red.png","../images/gry_blk.png","../images/ylw_slt.png"],"mutagen_generator_assignment":[0,1],"goal":3,"start":4,"action_noise":0.2,"location_history":"[4,0,1,3]","action_history":"[0,1,1]","mutagen_history":"[0,1,1]","location_rts":"[587,469,411]","trial_type":"fractal-mutation","trial_index":181,"time_elapsed":3735338,"internal_node_id":"0.0-5.0-77.0"},{"group":"hexagon_tri","fractal_assignment":["../images/org_blu.png","../images/pnk_blu.png","../images/blu_wht.png","../images/cyn_red.png","../images/gry_blk.png","../images/ylw_slt.png"],"mutagen_generator_assignment":[0,1],"goal":0,"start":3,"action_noise":0.2,"location_history":"[3,2,3,2,1,3,2,1,3,2,1,5,0]","action_history":"[0,1,1,1,1,0,0,0,0,0,1,1]","mutagen_history":"[0,1,1,1,1,0,0,0,0,0,1,1]","location_rts":"[861,979,613,506,1270,698,382,117,409,422,528,640]","trial_type":"fractal-mutation","trial_index":182,"time_elapsed":3759279,"internal_node_id":"0.0-5.0-78.0"},{"group":"hexagon_tri","fractal_assignment":["../images/org_blu.png","../images/pnk_blu.png","../images/blu_wht.png","../images/cyn_red.png","../images/gry_blk.png","../images/ylw_slt.png"],"mutagen_generator_assignment":[0,1],"goal":4,"start":0,"action_noise":0.2,"location_history":"[0,5,4]","action_history":"[0,0]","mutagen_history":"[0,0]","location_rts":"[848,535]","trial_type":"fractal-mutation","trial_index":183,"time_elapsed":3766350,"internal_node_id":"0.0-5.0-79.0"},{"group":"hexagon_tri","fractal_assignment":["../images/org_blu.png","../images/pnk_blu.png","../images/blu_wht.png","../images/cyn_red.png","../images/gry_blk.png","../images/ylw_slt.png"],"mutagen_generator_assignment":[0,1],"goal":5,"start":4,"action_noise":0.2,"location_history":"[4,2,1,3,2,1,5]","action_history":"[1,1,0,0,0,1]","mutagen_history":"[1,1,0,0,0,1]","location_rts":"[875,607,346,925,470,666]","trial_type":"fractal-mutation","trial_index":184,"time_elapsed":3780326,"internal_node_id":"0.0-5.0-80.0"},{"group":"hexagon_tri","fractal_assignment":["../images/org_blu.png","../images/pnk_blu.png","../images/blu_wht.png","../images/cyn_red.png","../images/gry_blk.png","../images/ylw_slt.png"],"mutagen_generator_assignment":[0,1],"goal":1,"start":5,"action_noise":0.2,"location_history":"[5,0,1]","action_history":"[1,1]","mutagen_history":"[1,1]","location_rts":"[1515,718]","trial_type":"fractal-mutation","trial_index":185,"time_elapsed":3788291,"internal_node_id":"0.0-5.0-81.0"},{"group":"hexagon_tri","fractal_assignment":["../images/org_blu.png","../images/pnk_blu.png","../images/blu_wht.png","../images/cyn_red.png","../images/gry_blk.png","../images/ylw_slt.png"],"mutagen_generator_assignment":[0,1],"goal":2,"start":1,"action_noise":0.2,"location_history":"[1,3,4,2]","action_history":"[0,1,1]","mutagen_history":"[0,1,1]","location_rts":"[1036,468,427]","trial_type":"fractal-mutation","trial_index":186,"time_elapsed":3796997,"internal_node_id":"0.0-5.0-82.0"},{"group":"hexagon_tri","fractal_assignment":["../images/org_blu.png","../images/pnk_blu.png","../images/blu_wht.png","../images/cyn_red.png","../images/gry_blk.png","../images/ylw_slt.png"],"mutagen_generator_assignment":[0,1],"goal":4,"start":2,"action_noise":0.2,"location_history":"[2,1,5,0,5,4]","action_history":"[0,1,1,0,0]","mutagen_history":"[0,1,1,0,0]","location_rts":"[626,629,369,476,492]","trial_type":"fractal-mutation","trial_index":187,"time_elapsed":3808594,"internal_node_id":"0.0-5.0-83.0"},{"group":"hexagon_tri","fractal_assignment":["../images/org_blu.png","../images/pnk_blu.png","../images/blu_wht.png","../images/cyn_red.png","../images/gry_blk.png","../images/ylw_slt.png"],"mutagen_generator_assignment":[0,1],"goal":0,"start":4,"action_noise":0.2,"location_history":"[4,0]","action_history":"[0]","mutagen_history":"[0]","location_rts":"[1898]","trial_type":"fractal-mutation","trial_index":188,"time_elapsed":3815070,"internal_node_id":"0.0-5.0-84.0"},{"group":"hexagon_tri","fractal_assignment":["../images/org_blu.png","../images/pnk_blu.png","../images/blu_wht.png","../images/cyn_red.png","../images/gry_blk.png","../images/ylw_slt.png"],"mutagen_generator_assignment":[0,1],"goal":5,"start":0,"action_noise":0.2,"location_history":"[0,5]","action_history":"[0]","mutagen_history":"[0]","location_rts":"[483]","trial_type":"fractal-mutation","trial_index":189,"time_elapsed":3820131,"internal_node_id":"0.0-5.0-85.0"},{"group":"hexagon_tri","fractal_assignment":["../images/org_blu.png","../images/pnk_blu.png","../images/blu_wht.png","../images/cyn_red.png","../images/gry_blk.png","../images/ylw_slt.png"],"mutagen_generator_assignment":[0,1],"goal":3,"start":5,"action_noise":0.2,"location_history":"[5,4,0,5,4,2,3]","action_history":"[0,0,0,1,1,1]","mutagen_history":"[0,0,0,1,1,1]","location_rts":"[7299,11029,3176,821,346,394]","trial_type":"fractal-mutation","trial_index":190,"time_elapsed":3854175,"internal_node_id":"0.0-5.0-86.0"},{"group":"hexagon_tri","fractal_assignment":["../images/org_blu.png","../images/pnk_blu.png","../images/blu_wht.png","../images/cyn_red.png","../images/gry_blk.png","../images/ylw_slt.png"],"mutagen_generator_assignment":[0,1],"goal":1,"start":3,"action_noise":0.2,"location_history":"[3,4,2,1]","action_history":"[1,1,0]","mutagen_history":"[1,1,0]","location_rts":"[1193,980,842]","trial_type":"fractal-mutation","trial_index":191,"time_elapsed":3864077,"internal_node_id":"0.0-5.0-87.0"},{"group":"hexagon_tri","fractal_assignment":["../images/org_blu.png","../images/pnk_blu.png","../images/blu_wht.png","../images/cyn_red.png","../images/gry_blk.png","../images/ylw_slt.png"],"mutagen_generator_assignment":[0,1],"goal":2,"start":1,"action_noise":0.2,"location_history":"[1,3,4,2]","action_history":"[0,0,0]","mutagen_history":"[0,0,0]","location_rts":"[710,954,681]","trial_type":"fractal-mutation","trial_index":192,"time_elapsed":3873107,"internal_node_id":"0.0-5.0-88.0"},{"group":"hexagon_tri","fractal_assignment":["../images/org_blu.png","../images/pnk_blu.png","../images/blu_wht.png","../images/cyn_red.png","../images/gry_blk.png","../images/ylw_slt.png"],"mutagen_generator_assignment":[0,1],"goal":0,"start":2,"action_noise":0.2,"location_history":"[2,3,2,1,3,4,0]","action_history":"[1,0,0,0,0,1]","mutagen_history":"[1,0,0,0,0,1]","location_rts":"[804,431,414,325,621,516]","trial_type":"fractal-mutation","trial_index":193,"time_elapsed":3886108,"internal_node_id":"0.0-5.0-89.0"},{"group":"hexagon_tri","fractal_assignment":["../images/org_blu.png","../images/pnk_blu.png","../images/blu_wht.png","../images/cyn_red.png","../images/gry_blk.png","../images/ylw_slt.png"],"mutagen_generator_assignment":[0,1],"goal":5,"start":0,"action_noise":0.2,"location_history":"[0,1,3,4,0,5]","action_history":"[0,1,0,0,0]","mutagen_history":"[0,1,0,0,0]","location_rts":"[657,984,636,450,815]","trial_type":"fractal-mutation","trial_index":194,"time_elapsed":3898556,"internal_node_id":"0.0-5.0-90.0"},{"group":"hexagon_tri","fractal_assignment":["../images/org_blu.png","../images/pnk_blu.png","../images/blu_wht.png","../images/cyn_red.png","../images/gry_blk.png","../images/ylw_slt.png"],"mutagen_generator_assignment":[0,1],"goal":1,"start":5,"action_noise":0.2,"location_history":"[5,0,1]","action_history":"[1,1]","mutagen_history":"[1,1]","location_rts":"[4653,630]","trial_type":"fractal-mutation","trial_index":195,"time_elapsed":3909476,"internal_node_id":"0.0-5.0-91.0"},{"group":"hexagon_tri","fractal_assignment":["../images/org_blu.png","../images/pnk_blu.png","../images/blu_wht.png","../images/cyn_red.png","../images/gry_blk.png","../images/ylw_slt.png"],"mutagen_generator_assignment":[0,1],"goal":3,"start":1,"action_noise":0.2,"location_history":"[1,3]","action_history":"[0]","mutagen_history":"[0]","location_rts":"[1428]","trial_type":"fractal-mutation","trial_index":196,"time_elapsed":3915610,"internal_node_id":"0.0-5.0-92.0"},{"group":"hexagon_tri","fractal_assignment":["../images/org_blu.png","../images/pnk_blu.png","../images/blu_wht.png","../images/cyn_red.png","../images/gry_blk.png","../images/ylw_slt.png"],"mutagen_generator_assignment":[0,1],"goal":4,"start":3,"action_noise":0.2,"location_history":"[3,2,3,4]","action_history":"[0,1,1]","mutagen_history":"[0,1,1]","location_rts":"[3519,1192,439]","trial_type":"fractal-mutation","trial_index":197,"time_elapsed":3927479,"internal_node_id":"0.0-5.0-93.0"},{"group":"hexagon_tri","fractal_assignment":["../images/org_blu.png","../images/pnk_blu.png","../images/blu_wht.png","../images/cyn_red.png","../images/gry_blk.png","../images/ylw_slt.png"],"mutagen_generator_assignment":[0,1],"goal":2,"start":4,"action_noise":0.2,"location_history":"[4,0,5,4,0,1,3,4,2]","action_history":"[0,1,1,1,1,1,1,1]","mutagen_history":"[0,1,1,1,1,1,1,1]","location_rts":"[448,898,375,340,358,547,479,454]","trial_type":"fractal-mutation","trial_index":198,"time_elapsed":3943654,"internal_node_id":"0.0-5.0-94.0"},{"group":"hexagon_tri","fractal_assignment":["../images/org_blu.png","../images/pnk_blu.png","../images/blu_wht.png","../images/cyn_red.png","../images/gry_blk.png","../images/ylw_slt.png"],"mutagen_generator_assignment":[0,1],"goal":4,"start":2,"action_noise":0.2,"location_history":"[2,3,4]","action_history":"[0,1]","mutagen_history":"[0,1]","location_rts":"[18587,1492]","trial_type":"fractal-mutation","trial_index":199,"time_elapsed":3969468,"internal_node_id":"0.0-5.0-95.0"},{"group":"hexagon_tri","fractal_assignment":["../images/org_blu.png","../images/pnk_blu.png","../images/blu_wht.png","../images/cyn_red.png","../images/gry_blk.png","../images/ylw_slt.png"],"mutagen_generator_assignment":[0,1],"goal":0,"start":4,"action_noise":0.2,"location_history":"[4,2,3,4,2,3,4,0]","action_history":"[0,1,1,1,1,1,0]","mutagen_history":"[0,1,1,1,1,1,0]","location_rts":"[2135,1136,287,461,541,437,442]","trial_type":"fractal-mutation","trial_index":200,"time_elapsed":3985979,"internal_node_id":"0.0-5.0-96.0"},{"group":"hexagon_tri","fractal_assignment":["../images/org_blu.png","../images/pnk_blu.png","../images/blu_wht.png","../images/cyn_red.png","../images/gry_blk.png","../images/ylw_slt.png"],"mutagen_generator_assignment":[0,1],"goal":5,"start":0,"action_noise":0.2,"location_history":"[0,5]","action_history":"[1]","mutagen_history":"[1]","location_rts":"[807]","trial_type":"fractal-mutation","trial_index":201,"time_elapsed":3991391,"internal_node_id":"0.0-5.0-97.0"},{"group":"hexagon_tri","fractal_assignment":["../images/org_blu.png","../images/pnk_blu.png","../images/blu_wht.png","../images/cyn_red.png","../images/gry_blk.png","../images/ylw_slt.png"],"mutagen_generator_assignment":[0,1],"goal":1,"start":5,"action_noise":0.2,"location_history":"[5,0,5,0,1]","action_history":"[0,0,1,1]","mutagen_history":"[0,0,1,1]","location_rts":"[538,765,806,433]","trial_type":"fractal-mutation","trial_index":202,"time_elapsed":4001818,"internal_node_id":"0.0-5.0-98.0"},{"group":"hexagon_tri","fractal_assignment":["../images/org_blu.png","../images/pnk_blu.png","../images/blu_wht.png","../images/cyn_red.png","../images/gry_blk.png","../images/ylw_slt.png"],"mutagen_generator_assignment":[0,1],"goal":3,"start":1,"action_noise":0.2,"location_history":"[1,3]","action_history":"[0]","mutagen_history":"[0]","location_rts":"[545]","trial_type":"fractal-mutation","trial_index":203,"time_elapsed":4006952,"internal_node_id":"0.0-5.0-99.0"},{"view_history":"[{\"page_index\":0,\"viewing_time\":4834}]","rt":4836,"trial_type":"instructions","trial_index":204,"time_elapsed":4012791,"internal_node_id":"0.0-6.0"},{"rt":4663,"responses":"{\"Q0\":\"nope\"}","trial_type":"survey-text","trial_index":205,"time_elapsed":4018476,"internal_node_id":"0.0-7.0"}]