[{"view_history":"[{\"page_index\":0,\"viewing_time\":13993},{\"page_index\":1,\"viewing_time\":14472},{\"page_index\":2,\"viewing_time\":15579},{\"page_index\":3,\"viewing_time\":4812}]","rt":48856,"trial_type":"instructions","trial_index":0,"time_elapsed":48856,"internal_node_id":"0.0-0.0"},{"view_history":"[{\"page_index\":0,\"viewing_time\":2048},{\"page_index\":1,\"viewing_time\":26526}]","rt":28574,"trial_type":"instructions","trial_index":1,"time_elapsed":78432,"internal_node_id":"0.0-1.0"},{"group":"hexagon_bi","room_assignment":["yellow","grey","purple","blue","green","red"],"door_color_assignment":["white","black"],"door_generator_assignment":[0,1],"goal":4,"start":0,"action_noise":0.15,"location_history":"[0,1,0,5,0,5,4]","action_history":"[1,1,0,0,0,1]","door_history":"[1,1,0,0,0,1]","location_rts":"[5596,2160,3251,1891,1586,782]","trial_type":"two-door-navigation","trial_index":2,"time_elapsed":103368,"internal_node_id":"0.0-2.0-0.0"},{"group":"hexagon_bi","room_assignment":["yellow","grey","purple","blue","green","red"],"door_color_assignment":["white","black"],"door_generator_assignment":[0,1],"goal":3,"start":4,"action_noise":0.15,"location_history":"[4,5,0,5,4,3]","action_history":"[1,0,0,1,0]","door_history":"[1,0,0,1,0]","location_rts":"[2642,696,4113,427,1959]","trial_type":"two-door-navigation","trial_index":3,"time_elapsed":121841,"internal_node_id":"0.0-2.0-1.0"},{"group":"hexagon_bi","room_assignment":["yellow","grey","purple","blue","green","red"],"door_color_assignment":["white","black"],"door_generator_assignment":[0,1],"goal":5,"start":3,"action_noise":0.15,"location_history":"[3,4,5]","action_history":"[0,1]","door_history":"[0,1]","location_rts":"[5920,1166]","trial_type":"two-door-navigation","trial_index":4,"time_elapsed":134488,"internal_node_id":"0.0-2.0-2.0"},{"group":"hexagon_bi","room_assignment":["yellow","grey","purple","blue","green","red"],"door_color_assignment":["white","black"],"door_generator_assignment":[0,1],"goal":2,"start":5,"action_noise":0.15,"location_history":"[5,4,3,4,3,2]","action_history":"[1,0,0,0,1]","door_history":"[1,0,0,0,1]","location_rts":"[2326,493,979,1013,580]","trial_type":"two-door-navigation","trial_index":5,"time_elapsed":148510,"internal_node_id":"0.0-2.0-3.0"},{"group":"hexagon_bi","room_assignment":["yellow","grey","purple","blue","green","red"],"door_color_assignment":["white","black"],"door_generator_assignment":[0,1],"goal":1,"start":2,"action_noise":0.15,"location_history":"[2,1]","action_history":"[0]","door_history":"[0]","location_rts":"[3172]","trial_type":"two-door-navigation","trial_index":6,"time_elapsed":156211,"internal_node_id":"0.0-2.0-4.0"},{"group":"hexagon_bi","room_assignment":["yellow","grey","purple","blue","green","red"],"door_color_assignment":["white","black"],"door_generator_assignment":[0,1],"goal":4,"start":1,"action_noise":0.15,"location_history":"[1,2,3,4]","action_history":"[0,1,0]","door_history":"[0,1,0]","location_rts":"[4810,431,2571]","trial_type":"two-door-navigation","trial_index":7,"time_elapsed":170611,"internal_node_id":"0.0-2.0-5.0"},{"group":"hexagon_bi","room_assignment":["yellow","grey","purple","blue","green","red"],"door_color_assignment":["white","black"],"door_generator_assignment":[0,1],"goal":1,"start":4,"action_noise":0.15,"location_history":"[4,5,0,1]","action_history":"[1,0,1]","door_history":"[1,0,1]","location_rts":"[2516,568,4776]","trial_type":"two-door-navigation","trial_index":8,"time_elapsed":185054,"internal_node_id":"0.0-2.0-6.0"},{"group":"hexagon_bi","room_assignment":["yellow","grey","purple","blue","green","red"],"door_color_assignment":["white","black"],"door_generator_assignment":[0,1],"goal":5,"start":1,"action_noise":0.15,"location_history":"[1,2,1,0,1,2,3,2,3,4,3,4,3,2,3,4,5]","action_history":"[0,0,0,1,0,1,1,1,0,0,0,1,0,1,0,1]","door_history":"[0,0,0,1,0,1,1,1,0,0,0,1,0,1,0,1]","location_rts":"[1849,1364,281,924,2104,1197,681,259,275,968,290,255,1330,2292,870,2812]","trial_type":"two-door-navigation","trial_index":9,"time_elapsed":222729,"internal_node_id":"0.0-2.0-7.0"},{"group":"hexagon_bi","room_assignment":["yellow","grey","purple","blue","green","red"],"door_color_assignment":["white","black"],"door_generator_assignment":[0,1],"goal":0,"start":5,"action_noise":0.15,"location_history":"[5,0]","action_history":"[0]","door_history":"[0]","location_rts":"[2887]","trial_type":"two-door-navigation","trial_index":10,"time_elapsed":230145,"internal_node_id":"0.0-2.0-8.0"},{"group":"hexagon_bi","room_assignment":["yellow","grey","purple","blue","green","red"],"door_color_assignment":["white","black"],"door_generator_assignment":[0,1],"goal":2,"start":0,"action_noise":0.15,"location_history":"[0,5,4,5,0,1,0,5,4,3,2]","action_history":"[0,1,1,1,0,1,0,1,0,1]","door_history":"[0,1,1,1,0,1,0,1,0,1]","location_rts":"[21185,428,599,235,3848,1149,1824,767,1307,1160]","trial_type":"two-door-navigation","trial_index":11,"time_elapsed":276402,"internal_node_id":"0.0-2.0-9.0"},{"group":"hexagon_bi","room_assignment":["yellow","grey","purple","blue","green","red"],"door_color_assignment":["white","black"],"door_generator_assignment":[0,1],"goal":3,"start":2,"action_noise":0.15,"location_history":"[2,1,0,5,4,3]","action_history":"[0,1,0,1,0]","door_history":"[0,1,0,1,0]","location_rts":"[1834,1173,2820,1120,1464]","trial_type":"two-door-navigation","trial_index":12,"time_elapsed":293448,"internal_node_id":"0.0-2.0-10.0"},{"group":"hexagon_bi","room_assignment":["yellow","grey","purple","blue","green","red"],"door_color_assignment":["white","black"],"door_generator_assignment":[0,1],"goal":0,"start":3,"action_noise":0.15,"location_history":"[3,4,5,0]","action_history":"[0,1,0]","door_history":"[0,1,0]","location_rts":"[1473,723,631]","trial_type":"two-door-navigation","trial_index":13,"time_elapsed":302864,"internal_node_id":"0.0-2.0-11.0"},{"group":"hexagon_bi","room_assignment":["yellow","grey","purple","blue","green","red"],"door_color_assignment":["white","black"],"door_generator_assignment":[0,1],"goal":2,"start":0,"action_noise":0.15,"location_history":"[0,5,0,1,2]","action_history":"[1,0,1,0]","door_history":"[1,0,1,0]","location_rts":"[1338,927,855,713]","trial_type":"two-door-navigation","trial_index":14,"time_elapsed":314305,"internal_node_id":"0.0-2.0-12.0"},{"group":"hexagon_bi","room_assignment":["yellow","grey","purple","blue","green","red"],"door_color_assignment":["white","black"],"door_generator_assignment":[0,1],"goal":5,"start":2,"action_noise":0.15,"location_history":"[2,3,2,3,2,1,0,1,2,1,2,1,0,5]","action_history":"[1,0,1,1,0,1,1,0,0,0,0,1,1]","door_history":"[1,0,1,1,0,1,1,0,0,0,0,1,1]","location_rts":"[1595,1025,1477,827,639,1154,3650,830,738,623,437,446,1367]","trial_type":"two-door-navigation","trial_index":15,"time_elapsed":345955,"internal_node_id":"0.0-2.0-13.0"},{"group":"hexagon_bi","room_assignment":["yellow","grey","purple","blue","green","red"],"door_color_assignment":["white","black"],"door_generator_assignment":[0,1],"goal":4,"start":5,"action_noise":0.15,"location_history":"[5,4]","action_history":"[1]","door_history":"[1]","location_rts":"[1585]","trial_type":"two-door-navigation","trial_index":16,"time_elapsed":352075,"internal_node_id":"0.0-2.0-14.0"},{"group":"hexagon_bi","room_assignment":["yellow","grey","purple","blue","green","red"],"door_color_assignment":["white","black"],"door_generator_assignment":[0,1],"goal":3,"start":4,"action_noise":0.15,"location_history":"[4,3]","action_history":"[1]","door_history":"[1]","location_rts":"[3047]","trial_type":"two-door-navigation","trial_index":17,"time_elapsed":359652,"internal_node_id":"0.0-2.0-15.0"},{"group":"hexagon_bi","room_assignment":["yellow","grey","purple","blue","green","red"],"door_color_assignment":["white","black"],"door_generator_assignment":[0,1],"goal":1,"start":3,"action_noise":0.15,"location_history":"[3,2,1]","action_history":"[1,0]","door_history":"[1,0]","location_rts":"[1260,1301]","trial_type":"two-door-navigation","trial_index":18,"time_elapsed":367773,"internal_node_id":"0.0-2.0-16.0"},{"group":"hexagon_bi","room_assignment":["yellow","grey","purple","blue","green","red"],"door_color_assignment":["white","black"],"door_generator_assignment":[0,1],"goal":5,"start":1,"action_noise":0.15,"location_history":"[1,2,3,4,5]","action_history":"[0,1,0,1]","door_history":"[0,1,0,1]","location_rts":"[1378,579,1187,960]","trial_type":"two-door-navigation","trial_index":19,"time_elapsed":379481,"internal_node_id":"0.0-2.0-17.0"},{"group":"hexagon_bi","room_assignment":["yellow","grey","purple","blue","green","red"],"door_color_assignment":["white","black"],"door_generator_assignment":[0,1],"goal":4,"start":5,"action_noise":0.15,"location_history":"[5,0,1,2,1,2,1,2,3,4]","action_history":"[0,1,0,0,0,1,0,1,0]","door_history":"[0,1,0,0,0,1,0,1,0]","location_rts":"[1201,723,896,633,273,310,1448,887,906]","trial_type":"two-door-navigation","trial_index":20,"time_elapsed":399488,"internal_node_id":"0.0-2.0-18.0"},{"group":"hexagon_bi","room_assignment":["yellow","grey","purple","blue","green","red"],"door_color_assignment":["white","black"],"door_generator_assignment":[0,1],"goal":0,"start":4,"action_noise":0.15,"location_history":"[4,3,2,1,0]","action_history":"[0,1,0,1]","door_history":"[0,1,0,1]","location_rts":"[2048,348,662,765]","trial_type":"two-door-navigation","trial_index":21,"time_elapsed":410916,"internal_node_id":"0.0-2.0-19.0"},{"group":"hexagon_bi","room_assignment":["yellow","grey","purple","blue","green","red"],"door_color_assignment":["white","black"],"door_generator_assignment":[0,1],"goal":1,"start":0,"action_noise":0.15,"location_history":"[0,1]","action_history":"[1]","door_history":"[1]","location_rts":"[1995]","trial_type":"two-door-navigation","trial_index":22,"time_elapsed":417437,"internal_node_id":"0.0-2.0-20.0"},{"group":"hexagon_bi","room_assignment":["yellow","grey","purple","blue","green","red"],"door_color_assignment":["white","black"],"door_generator_assignment":[0,1],"goal":3,"start":1,"action_noise":0.15,"location_history":"[1,0,5,4,3]","action_history":"[1,0,1,0]","door_history":"[1,0,1,0]","location_rts":"[1776,523,1328,899]","trial_type":"two-door-navigation","trial_index":23,"time_elapsed":429570,"internal_node_id":"0.0-2.0-21.0"},{"group":"hexagon_bi","room_assignment":["yellow","grey","purple","blue","green","red"],"door_color_assignment":["white","black"],"door_generator_assignment":[0,1],"goal":2,"start":3,"action_noise":0.15,"location_history":"[3,2]","action_history":"[1]","door_history":"[1]","location_rts":"[1017]","trial_type":"two-door-navigation","trial_index":24,"time_elapsed":435124,"internal_node_id":"0.0-2.0-22.0"},{"group":"hexagon_bi","room_assignment":["yellow","grey","purple","blue","green","red"],"door_color_assignment":["white","black"],"door_generator_assignment":[0,1],"goal":0,"start":2,"action_noise":0.15,"location_history":"[2,1,0]","action_history":"[0,1]","door_history":"[0,1]","location_rts":"[1279,580]","trial_type":"two-door-navigation","trial_index":25,"time_elapsed":442543,"internal_node_id":"0.0-2.0-23.0"},{"group":"hexagon_bi","room_assignment":["yellow","grey","purple","blue","green","red"],"door_color_assignment":["white","black"],"door_generator_assignment":[0,1],"goal":3,"start":0,"action_noise":0.15,"location_history":"[0,1,2,3]","action_history":"[1,0,1]","door_history":"[1,0,1]","location_rts":"[1788,803,825]","trial_type":"two-door-navigation","trial_index":26,"time_elapsed":452541,"internal_node_id":"0.0-2.0-24.0"},{"group":"hexagon_bi","room_assignment":["yellow","grey","purple","blue","green","red"],"door_color_assignment":["white","black"],"door_generator_assignment":[0,1],"goal":1,"start":3,"action_noise":0.15,"location_history":"[3,4,5,0,1]","action_history":"[0,1,0,1]","door_history":"[0,1,0,1]","location_rts":"[4310,864,647,1533]","trial_type":"two-door-navigation","trial_index":27,"time_elapsed":467499,"internal_node_id":"0.0-2.0-25.0"},{"group":"hexagon_bi","room_assignment":["yellow","grey","purple","blue","green","red"],"door_color_assignment":["white","black"],"door_generator_assignment":[0,1],"goal":2,"start":1,"action_noise":0.15,"location_history":"[1,2]","action_history":"[0]","door_history":"[0]","location_rts":"[2010]","trial_type":"two-door-navigation","trial_index":28,"time_elapsed":474039,"internal_node_id":"0.0-2.0-26.0"},{"group":"hexagon_bi","room_assignment":["yellow","grey","purple","blue","green","red"],"door_color_assignment":["white","black"],"door_generator_assignment":[0,1],"goal":5,"start":2,"action_noise":0.15,"location_history":"[2,1,0,5]","action_history":"[0,1,0]","door_history":"[0,1,0]","location_rts":"[1862,490,877]","trial_type":"two-door-navigation","trial_index":29,"time_elapsed":483845,"internal_node_id":"0.0-2.0-27.0"},{"group":"hexagon_bi","room_assignment":["yellow","grey","purple","blue","green","red"],"door_color_assignment":["white","black"],"door_generator_assignment":[0,1],"goal":4,"start":5,"action_noise":0.15,"location_history":"[5,0,5,4]","action_history":"[1,0,1]","door_history":"[1,0,1]","location_rts":"[4722,1002,1285]","trial_type":"two-door-navigation","trial_index":30,"time_elapsed":497441,"internal_node_id":"0.0-2.0-28.0"},{"group":"hexagon_bi","room_assignment":["yellow","grey","purple","blue","green","red"],"door_color_assignment":["white","black"],"door_generator_assignment":[0,1],"goal":5,"start":4,"action_noise":0.15,"location_history":"[4,3,2,1,2,3,2,3,2,1,0,1,2,3,4,5]","action_history":"[0,1,0,0,1,1,1,0,0,1,1,0,1,0,1]","door_history":"[0,1,0,0,1,1,1,0,0,1,1,0,1,0,1]","location_rts":"[9253,1913,1493,1391,500,673,288,376,2252,620,1149,1730,1227,844,2567]","trial_type":"two-door-navigation","trial_index":31,"time_elapsed":542610,"internal_node_id":"0.0-2.0-29.0"},{"group":"hexagon_bi","room_assignment":["yellow","grey","purple","blue","green","red"],"door_color_assignment":["white","black"],"door_generator_assignment":[0,1],"goal":3,"start":5,"action_noise":0.15,"location_history":"[5,4,3]","action_history":"[1,0]","door_history":"[1,0]","location_rts":"[6950,429]","trial_type":"two-door-navigation","trial_index":32,"time_elapsed":555551,"internal_node_id":"0.0-2.0-30.0"},{"group":"hexagon_bi","room_assignment":["yellow","grey","purple","blue","green","red"],"door_color_assignment":["white","black"],"door_generator_assignment":[0,1],"goal":0,"start":3,"action_noise":0.15,"location_history":"[3,4,3,2,1,2,3,2,3,2,3,2,1,2,3,4,5,0]","action_history":"[0,0,1,0,1,0,1,0,1,1,1,0,0,1,0,1,0]","door_history":"[0,0,1,0,1,0,1,0,1,1,1,0,0,1,0,1,0]","location_rts":"[2184,1407,944,1424,1633,1120,1497,2165,3411,3873,1519,33238,7083,345,46239,23472,21570]","trial_type":"two-door-navigation","trial_index":33,"time_elapsed":729644,"internal_node_id":"0.0-2.0-31.0"},{"group":"hexagon_bi","room_assignment":["yellow","grey","purple","blue","green","red"],"door_color_assignment":["white","black"],"door_generator_assignment":[0,1],"goal":4,"start":0,"action_noise":0.15,"location_history":"[0,5,4]","action_history":"[0,1]","door_history":"[0,1]","location_rts":"[15932,16959]","trial_type":"two-door-navigation","trial_index":34,"time_elapsed":768083,"internal_node_id":"0.0-2.0-32.0"},{"group":"hexagon_bi","room_assignment":["yellow","grey","purple","blue","green","red"],"door_color_assignment":["white","black"],"door_generator_assignment":[0,1],"goal":1,"start":4,"action_noise":0.15,"location_history":"[4,3,2,1]","action_history":"[0,1,0]","door_history":"[0,1,0]","location_rts":"[18891,2759,8983]","trial_type":"two-door-navigation","trial_index":35,"time_elapsed":805295,"internal_node_id":"0.0-2.0-33.0"},{"group":"hexagon_bi","room_assignment":["yellow","grey","purple","blue","green","red"],"door_color_assignment":["white","black"],"door_generator_assignment":[0,1],"goal":2,"start":1,"action_noise":0.15,"location_history":"[1,0,1,0,1,2]","action_history":"[1,1,0,1,0]","door_history":"[1,1,0,1,0]","location_rts":"[21082,9107,15991,16788,840]","trial_type":"two-door-navigation","trial_index":36,"time_elapsed":877737,"internal_node_id":"0.0-2.0-34.0"},{"group":"hexagon_bi","room_assignment":["yellow","grey","purple","blue","green","red"],"door_color_assignment":["white","black"],"door_generator_assignment":[0,1],"goal":0,"start":2,"action_noise":0.15,"location_history":"[2,1,0]","action_history":"[0,1]","door_history":"[0,1]","location_rts":"[15820,447]","trial_type":"two-door-navigation","trial_index":37,"time_elapsed":899556,"internal_node_id":"0.0-2.0-35.0"},{"group":"hexagon_bi","room_assignment":["yellow","grey","purple","blue","green","red"],"door_color_assignment":["white","black"],"door_generator_assignment":[0,1],"goal":5,"start":0,"action_noise":0.15,"location_history":"[0,5]","action_history":"[0]","door_history":"[0]","location_rts":"[3950]","trial_type":"two-door-navigation","trial_index":38,"time_elapsed":908033,"internal_node_id":"0.0-2.0-36.0"},{"group":"hexagon_bi","room_assignment":["yellow","grey","purple","blue","green","red"],"door_color_assignment":["white","black"],"door_generator_assignment":[0,1],"goal":2,"start":5,"action_noise":0.15,"location_history":"[5,0,1,2]","action_history":"[0,1,0]","door_history":"[0,1,0]","location_rts":"[40340,4747,8238]","trial_type":"two-door-navigation","trial_index":39,"time_elapsed":967943,"internal_node_id":"0.0-2.0-37.0"},{"group":"hexagon_bi","room_assignment":["yellow","grey","purple","blue","green","red"],"door_color_assignment":["white","black"],"door_generator_assignment":[0,1],"goal":1,"start":2,"action_noise":0.15,"location_history":"[2,1]","action_history":"[0]","door_history":"[0]","location_rts":"[9443]","trial_type":"two-door-navigation","trial_index":40,"time_elapsed":981917,"internal_node_id":"0.0-2.0-38.0"},{"group":"hexagon_bi","room_assignment":["yellow","grey","purple","blue","green","red"],"door_color_assignment":["white","black"],"door_generator_assignment":[0,1],"goal":4,"start":1,"action_noise":0.15,"location_history":"[1,2,3,4]","action_history":"[0,1,0]","door_history":"[0,1,0]","location_rts":"[32492,459,4619]","trial_type":"two-door-navigation","trial_index":41,"time_elapsed":1026067,"internal_node_id":"0.0-2.0-39.0"},{"group":"hexagon_bi","room_assignment":["yellow","grey","purple","blue","green","red"],"door_color_assignment":["white","black"],"door_generator_assignment":[0,1],"goal":3,"start":4,"action_noise":0.15,"location_history":"[4,3]","action_history":"[0]","door_history":"[0]","location_rts":"[4513]","trial_type":"two-door-navigation","trial_index":42,"time_elapsed":1035107,"internal_node_id":"0.0-2.0-40.0"},{"group":"hexagon_bi","room_assignment":["yellow","grey","purple","blue","green","red"],"door_color_assignment":["white","black"],"door_generator_assignment":[0,1],"goal":5,"start":3,"action_noise":0.15,"location_history":"[3,2,1,0,5]","action_history":"[0,0,1,0]","door_history":"[0,0,1,0]","location_rts":"[33834,9099,7925,8161]","trial_type":"two-door-navigation","trial_index":43,"time_elapsed":1101750,"internal_node_id":"0.0-2.0-41.0"},{"group":"hexagon_bi","room_assignment":["yellow","grey","purple","blue","green","red"],"door_color_assignment":["white","black"],"door_generator_assignment":[0,1],"goal":3,"start":5,"action_noise":0.15,"location_history":"[5,0,5,4,5,0,1,2,3]","action_history":"[0,0,0,0,0,1,0,1]","door_history":"[0,0,0,0,0,1,0,1]","location_rts":"[8944,13632,1322,3032,1195,5042,5521,1680]","trial_type":"two-door-navigation","trial_index":44,"time_elapsed":1153828,"internal_node_id":"0.0-2.0-42.0"},{"group":"hexagon_bi","room_assignment":["yellow","grey","purple","blue","green","red"],"door_color_assignment":["white","black"],"door_generator_assignment":[0,1],"goal":0,"start":3,"action_noise":0.15,"location_history":"[3,4,3,4,3,2,1,0]","action_history":"[0,0,0,0,1,0,1]","door_history":"[0,0,0,0,1,0,1]","location_rts":"[4834,7655,1601,1310,459,2710,878]","trial_type":"two-door-navigation","trial_index":45,"time_elapsed":1183954,"internal_node_id":"0.0-2.0-43.0"},{"group":"hexagon_bi","room_assignment":["yellow","grey","purple","blue","green","red"],"door_color_assignment":["white","black"],"door_generator_assignment":[0,1],"goal":2,"start":0,"action_noise":0.15,"location_history":"[0,1,2]","action_history":"[1,0]","door_history":"[1,0]","location_rts":"[1609,2353]","trial_type":"two-door-navigation","trial_index":46,"time_elapsed":1193474,"internal_node_id":"0.0-2.0-44.0"},{"group":"hexagon_bi","room_assignment":["yellow","grey","purple","blue","green","red"],"door_color_assignment":["white","black"],"door_generator_assignment":[0,1],"goal":4,"start":2,"action_noise":0.15,"location_history":"[2,3,4]","action_history":"[1,0]","door_history":"[1,0]","location_rts":"[2052,1337]","trial_type":"two-door-navigation","trial_index":47,"time_elapsed":1202413,"internal_node_id":"0.0-2.0-45.0"},{"group":"hexagon_bi","room_assignment":["yellow","grey","purple","blue","green","red"],"door_color_assignment":["white","black"],"door_generator_assignment":[0,1],"goal":1,"start":4,"action_noise":0.15,"location_history":"[4,3,2,1]","action_history":"[0,1,0]","door_history":"[0,1,0]","location_rts":"[408352,9721,1617]","trial_type":"two-door-navigation","trial_index":48,"time_elapsed":1628677,"internal_node_id":"0.0-2.0-46.0"},{"group":"hexagon_bi","room_assignment":["yellow","grey","purple","blue","green","red"],"door_color_assignment":["white","black"],"door_generator_assignment":[0,1],"goal":4,"start":1,"action_noise":0.15,"location_history":"[1,2,1,0,5,4]","action_history":"[1,0,1,0,1]","door_history":"[1,0,1,0,1]","location_rts":"[6206,1383,1124,2947,290]","trial_type":"two-door-navigation","trial_index":49,"time_elapsed":1649265,"internal_node_id":"0.0-2.0-47.0"},{"group":"hexagon_bi","room_assignment":["yellow","grey","purple","blue","green","red"],"door_color_assignment":["white","black"],"door_generator_assignment":[0,1],"goal":3,"start":4,"action_noise":0.15,"location_history":"[4,3]","action_history":"[0]","door_history":"[0]","location_rts":"[4441]","trial_type":"two-door-navigation","trial_index":50,"time_elapsed":1658233,"internal_node_id":"0.0-2.0-48.0"},{"group":"hexagon_bi","room_assignment":["yellow","grey","purple","blue","green","red"],"door_color_assignment":["white","black"],"door_generator_assignment":[0,1],"goal":5,"start":3,"action_noise":0.15,"location_history":"[3,4,3,4,3,4,3,2,1,0,5]","action_history":"[0,0,0,1,0,1,1,0,1,0]","door_history":"[0,0,0,1,0,1,1,0,1,0]","location_rts":"[9263,1715,216,231,591,1034,370,619,569,4324]","trial_type":"two-door-navigation","trial_index":51,"time_elapsed":1690911,"internal_node_id":"0.0-2.0-49.0"},{"view_history":"[{\"page_index\":0,\"viewing_time\":3553}]","rt":3553,"trial_type":"instructions","trial_index":52,"time_elapsed":1695465,"internal_node_id":"0.0-3.0"},{"view_history":"[{\"page_index\":0,\"viewing_time\":3373},{\"page_index\":1,\"viewing_time\":29998}]","rt":33371,"trial_type":"instructions","trial_index":53,"time_elapsed":1729836,"internal_node_id":"0.0-4.0"},{"group":"hexagon_bi","fractal_assignment":["../images/blu_wht.png","../images/org_blu.png","../images/gry_blk.png","../images/cyn_red.png","../images/pnk_blu.png","../images/ylw_slt.png"],"mutagen_generator_assignment":[1,0],"goal":4,"start":0,"action_noise":0.15,"location_history":"[0,1,2,1,2,1,0,5,4]","action_history":"[1,0,0,0,1,1,0,1]","mutagen_history":"[0,1,1,1,0,0,1,0]","location_rts":"[12000,1237,1096,2014,1020,1289,2252,1022]","trial_type":"fractal-mutation","trial_index":54,"time_elapsed":1763875,"internal_node_id":"0.0-5.0-0.0"},{"group":"hexagon_bi","fractal_assignment":["../images/blu_wht.png","../images/org_blu.png","../images/gry_blk.png","../images/cyn_red.png","../images/pnk_blu.png","../images/ylw_slt.png"],"mutagen_generator_assignment":[1,0],"goal":3,"start":4,"action_noise":0.15,"location_history":"[4,3]","action_history":"[0]","mutagen_history":"[1]","location_rts":"[2225]","trial_type":"fractal-mutation","trial_index":55,"time_elapsed":1770693,"internal_node_id":"0.0-5.0-1.0"},{"group":"hexagon_bi","fractal_assignment":["../images/blu_wht.png","../images/org_blu.png","../images/gry_blk.png","../images/cyn_red.png","../images/pnk_blu.png","../images/ylw_slt.png"],"mutagen_generator_assignment":[1,0],"goal":5,"start":3,"action_noise":0.15,"location_history":"[3,2,3,2,3,4,5]","action_history":"[1,1,1,0,0,0]","mutagen_history":"[0,0,0,1,1,1]","location_rts":"[2472,709,861,326,366,778]","trial_type":"fractal-mutation","trial_index":56,"time_elapsed":1786149,"internal_node_id":"0.0-5.0-2.0"},{"group":"hexagon_bi","fractal_assignment":["../images/blu_wht.png","../images/org_blu.png","../images/gry_blk.png","../images/cyn_red.png","../images/pnk_blu.png","../images/ylw_slt.png"],"mutagen_generator_assignment":[1,0],"goal":2,"start":5,"action_noise":0.15,"location_history":"[5,4,5,0,5,4,3,4,3,2]","action_history":"[1,1,1,0,1,0,0,0,1]","mutagen_history":"[0,0,0,1,0,1,1,1,0]","location_rts":"[2256,415,472,1156,690,441,504,435,971]","trial_type":"fractal-mutation","trial_index":57,"time_elapsed":1806626,"internal_node_id":"0.0-5.0-3.0"},{"group":"hexagon_bi","fractal_assignment":["../images/blu_wht.png","../images/org_blu.png","../images/gry_blk.png","../images/cyn_red.png","../images/pnk_blu.png","../images/ylw_slt.png"],"mutagen_generator_assignment":[1,0],"goal":1,"start":2,"action_noise":0.15,"location_history":"[2,3,2,1]","action_history":"[1,1,0]","mutagen_history":"[0,0,1]","location_rts":"[1513,1129,866]","trial_type":"fractal-mutation","trial_index":58,"time_elapsed":1816839,"internal_node_id":"0.0-5.0-4.0"},{"group":"hexagon_bi","fractal_assignment":["../images/blu_wht.png","../images/org_blu.png","../images/gry_blk.png","../images/cyn_red.png","../images/pnk_blu.png","../images/ylw_slt.png"],"mutagen_generator_assignment":[1,0],"goal":4,"start":1,"action_noise":0.15,"location_history":"[1,0,1,0,1,0,5,0,1,0,1,2,1,0,5,0,5,4]","action_history":"[1,1,1,1,0,0,0,0,1,1,0,0,1,0,0,0,1]","mutagen_history":"[0,0,0,0,1,1,1,1,0,0,1,1,0,1,1,1,0]","location_rts":"[3449,668,599,316,273,457,803,776,259,1920,291,1773,1352,2136,343,605,457]","trial_type":"fractal-mutation","trial_index":59,"time_elapsed":1855034,"internal_node_id":"0.0-5.0-5.0"},{"group":"hexagon_bi","fractal_assignment":["../images/blu_wht.png","../images/org_blu.png","../images/gry_blk.png","../images/cyn_red.png","../images/pnk_blu.png","../images/ylw_slt.png"],"mutagen_generator_assignment":[1,0],"goal":1,"start":4,"action_noise":0.15,"location_history":"[4,5,4,3,2,3,2,1]","action_history":"[1,1,0,1,1,1,0]","mutagen_history":"[0,0,1,0,0,0,1]","location_rts":"[1486,411,685,511,510,716,269]","trial_type":"fractal-mutation","trial_index":60,"time_elapsed":1870568,"internal_node_id":"0.0-5.0-6.0"},{"group":"hexagon_bi","fractal_assignment":["../images/blu_wht.png","../images/org_blu.png","../images/gry_blk.png","../images/cyn_red.png","../images/pnk_blu.png","../images/ylw_slt.png"],"mutagen_generator_assignment":[1,0],"goal":5,"start":1,"action_noise":0.15,"location_history":"[1,2,1,2,1,0,5]","action_history":"[0,1,0,0,0,0]","mutagen_history":"[1,0,1,1,1,1]","location_rts":"[1601,777,827,268,695,940]","trial_type":"fractal-mutation","trial_index":61,"time_elapsed":1885660,"internal_node_id":"0.0-5.0-7.0"},{"group":"hexagon_bi","fractal_assignment":["../images/blu_wht.png","../images/org_blu.png","../images/gry_blk.png","../images/cyn_red.png","../images/pnk_blu.png","../images/ylw_slt.png"],"mutagen_generator_assignment":[1,0],"goal":0,"start":5,"action_noise":0.15,"location_history":"[5,4,5,4,5,0]","action_history":"[1,1,1,1,0]","mutagen_history":"[0,0,0,0,1]","location_rts":"[1562,292,314,380,308]","trial_type":"fractal-mutation","trial_index":62,"time_elapsed":1897328,"internal_node_id":"0.0-5.0-8.0"},{"group":"hexagon_bi","fractal_assignment":["../images/blu_wht.png","../images/org_blu.png","../images/gry_blk.png","../images/cyn_red.png","../images/pnk_blu.png","../images/ylw_slt.png"],"mutagen_generator_assignment":[1,0],"goal":2,"start":0,"action_noise":0.15,"location_history":"[0,5,4,3,4,5,0,5,4,5,4,5,4,5,0,1,2]","action_history":"[0,0,0,0,0,0,0,1,0,1,1,1,1,0,1,0]","mutagen_history":"[1,1,1,1,1,1,1,0,1,0,0,0,0,1,0,1]","location_rts":"[1595,582,724,538,1326,557,3161,1408,643,783,278,646,643,458,1404,423]","trial_type":"fractal-mutation","trial_index":63,"time_elapsed":1933187,"internal_node_id":"0.0-5.0-9.0"},{"group":"hexagon_bi","fractal_assignment":["../images/blu_wht.png","../images/org_blu.png","../images/gry_blk.png","../images/cyn_red.png","../images/pnk_blu.png","../images/ylw_slt.png"],"mutagen_generator_assignment":[1,0],"goal":3,"start":2,"action_noise":0.15,"location_history":"[2,1,0,5,0,1,0,1,2,1,0,1,0,1,0,5,0,5,0,1,0,5,4,3]","action_history":"[0,1,0,1,1,1,1,0,0,1,1,1,1,1,0,0,0,0,0,1,0,1,0]","mutagen_history":"[1,0,1,0,0,0,0,1,1,0,0,0,0,0,1,1,1,1,1,0,1,0,1]","location_rts":"[1448,771,668,280,415,1564,625,267,1258,1472,408,482,626,464,322,436,1067,442,404,277,609,620,1256]","trial_type":"fractal-mutation","trial_index":64,"time_elapsed":1977500,"internal_node_id":"0.0-5.0-10.0"},{"group":"hexagon_bi","fractal_assignment":["../images/blu_wht.png","../images/org_blu.png","../images/gry_blk.png","../images/cyn_red.png","../images/pnk_blu.png","../images/ylw_slt.png"],"mutagen_generator_assignment":[1,0],"goal":0,"start":3,"action_noise":0.15,"location_history":"[3,2,3,2,1,0]","action_history":"[1,1,1,0,1]","mutagen_history":"[0,0,0,1,0]","location_rts":"[1630,285,278,628,486]","trial_type":"fractal-mutation","trial_index":65,"time_elapsed":1989614,"internal_node_id":"0.0-5.0-11.0"},{"group":"hexagon_bi","fractal_assignment":["../images/blu_wht.png","../images/org_blu.png","../images/gry_blk.png","../images/cyn_red.png","../images/pnk_blu.png","../images/ylw_slt.png"],"mutagen_generator_assignment":[1,0],"goal":2,"start":0,"action_noise":0.15,"location_history":"[0,1,2]","action_history":"[1,0]","mutagen_history":"[0,1]","location_rts":"[11155,467]","trial_type":"fractal-mutation","trial_index":66,"time_elapsed":2006878,"internal_node_id":"0.0-5.0-12.0"},{"group":"hexagon_bi","fractal_assignment":["../images/blu_wht.png","../images/org_blu.png","../images/gry_blk.png","../images/cyn_red.png","../images/pnk_blu.png","../images/ylw_slt.png"],"mutagen_generator_assignment":[1,0],"goal":5,"start":2,"action_noise":0.15,"location_history":"[2,1,2,3,4,3,2,3,4,3,2,3,2,1,2,1,0,5]","action_history":"[0,0,1,0,0,1,1,1,0,1,1,1,0,0,0,1,0]","mutagen_history":"[1,1,0,1,1,0,0,0,1,0,0,0,1,1,1,0,1]","location_rts":"[1866,412,984,634,897,1272,502,615,817,753,1581,698,786,1593,776,555,1463]","trial_type":"fractal-mutation","trial_index":67,"time_elapsed":2044795,"internal_node_id":"0.0-5.0-13.0"},{"group":"hexagon_bi","fractal_assignment":["../images/blu_wht.png","../images/org_blu.png","../images/gry_blk.png","../images/cyn_red.png","../images/pnk_blu.png","../images/ylw_slt.png"],"mutagen_generator_assignment":[1,0],"goal":4,"start":5,"action_noise":0.15,"location_history":"[5,0,5,0,1,2,3,2,1,0,5,0,5,0,1,0,1,2,1,2,3,2,1,2,3,2,3,4]","action_history":"[0,0,1,1,0,0,1,1,0,0,0,0,1,1,1,1,0,0,0,1,1,0,1,1,1,1,0]","mutagen_history":"[1,1,0,0,1,1,0,0,1,1,1,1,0,0,0,0,1,1,1,0,0,1,0,0,0,0,1]","location_rts":"[1426,1755,782,970,442,963,1065,1132,1044,772,893,846,487,1006,1074,809,312,1654,1178,1093,2153,517,606,638,864,455,603]","trial_type":"fractal-mutation","trial_index":68,"time_elapsed":2102694,"internal_node_id":"0.0-5.0-14.0"},{"group":"hexagon_bi","fractal_assignment":["../images/blu_wht.png","../images/org_blu.png","../images/gry_blk.png","../images/cyn_red.png","../images/pnk_blu.png","../images/ylw_slt.png"],"mutagen_generator_assignment":[1,0],"goal":3,"start":4,"action_noise":0.15,"location_history":"[4,3]","action_history":"[0]","mutagen_history":"[1]","location_rts":"[1583]","trial_type":"fractal-mutation","trial_index":69,"time_elapsed":2108864,"internal_node_id":"0.0-5.0-15.0"},{"group":"hexagon_bi","fractal_assignment":["../images/blu_wht.png","../images/org_blu.png","../images/gry_blk.png","../images/cyn_red.png","../images/pnk_blu.png","../images/ylw_slt.png"],"mutagen_generator_assignment":[1,0],"goal":1,"start":3,"action_noise":0.15,"location_history":"[3,4,5,0,1]","action_history":"[1,1,0,1]","mutagen_history":"[0,0,1,0]","location_rts":"[1419,591,1086,620]","trial_type":"fractal-mutation","trial_index":70,"time_elapsed":2120329,"internal_node_id":"0.0-5.0-16.0"},{"group":"hexagon_bi","fractal_assignment":["../images/blu_wht.png","../images/org_blu.png","../images/gry_blk.png","../images/cyn_red.png","../images/pnk_blu.png","../images/ylw_slt.png"],"mutagen_generator_assignment":[1,0],"goal":5,"start":1,"action_noise":0.15,"location_history":"[1,0,5]","action_history":"[1,0]","mutagen_history":"[0,1]","location_rts":"[1901,535]","trial_type":"fractal-mutation","trial_index":71,"time_elapsed":2128406,"internal_node_id":"0.0-5.0-17.0"},{"group":"hexagon_bi","fractal_assignment":["../images/blu_wht.png","../images/org_blu.png","../images/gry_blk.png","../images/cyn_red.png","../images/pnk_blu.png","../images/ylw_slt.png"],"mutagen_generator_assignment":[1,0],"goal":4,"start":5,"action_noise":0.15,"location_history":"[5,0,1,2,1,2,3,4]","action_history":"[0,1,0,1,0,1,0]","mutagen_history":"[1,0,1,0,1,0,1]","location_rts":"[2445,1519,762,529,798,397,446]","trial_type":"fractal-mutation","trial_index":72,"time_elapsed":2146320,"internal_node_id":"0.0-5.0-18.0"},{"group":"hexagon_bi","fractal_assignment":["../images/blu_wht.png","../images/org_blu.png","../images/gry_blk.png","../images/cyn_red.png","../images/pnk_blu.png","../images/ylw_slt.png"],"mutagen_generator_assignment":[1,0],"goal":0,"start":4,"action_noise":0.15,"location_history":"[4,3,2,3,2,1,0]","action_history":"[1,1,1,1,0,1]","mutagen_history":"[0,0,0,0,1,0]","location_rts":"[1530,411,437,558,517,314]","trial_type":"fractal-mutation","trial_index":73,"time_elapsed":2159946,"internal_node_id":"0.0-5.0-19.0"},{"group":"hexagon_bi","fractal_assignment":["../images/blu_wht.png","../images/org_blu.png","../images/gry_blk.png","../images/cyn_red.png","../images/pnk_blu.png","../images/ylw_slt.png"],"mutagen_generator_assignment":[1,0],"goal":1,"start":0,"action_noise":0.15,"location_history":"[0,5,4,5,0,5,4,5,0,5,0,5,4,5,0,1]","action_history":"[0,1,1,0,0,1,1,1,0,0,0,1,1,1,1]","mutagen_history":"[1,0,0,1,1,0,0,0,1,1,1,0,0,0,0]","location_rts":"[2810,233,750,647,884,298,778,693,510,279,683,257,1018,1020,810]","trial_type":"fractal-mutation","trial_index":74,"time_elapsed":2191126,"internal_node_id":"0.0-5.0-20.0"},{"group":"hexagon_bi","fractal_assignment":["../images/blu_wht.png","../images/org_blu.png","../images/gry_blk.png","../images/cyn_red.png","../images/pnk_blu.png","../images/ylw_slt.png"],"mutagen_generator_assignment":[1,0],"goal":3,"start":1,"action_noise":0.15,"location_history":"[1,2,1,0,1,2,3]","action_history":"[0,0,1,1,0,1]","mutagen_history":"[1,1,0,0,1,0]","location_rts":"[1895,1503,599,579,292,1124]","trial_type":"fractal-mutation","trial_index":75,"time_elapsed":2207035,"internal_node_id":"0.0-5.0-21.0"},{"group":"hexagon_bi","fractal_assignment":["../images/blu_wht.png","../images/org_blu.png","../images/gry_blk.png","../images/cyn_red.png","../images/pnk_blu.png","../images/ylw_slt.png"],"mutagen_generator_assignment":[1,0],"goal":2,"start":3,"action_noise":0.15,"location_history":"[3,2]","action_history":"[1]","mutagen_history":"[0]","location_rts":"[1475]","trial_type":"fractal-mutation","trial_index":76,"time_elapsed":2213070,"internal_node_id":"0.0-5.0-22.0"},{"group":"hexagon_bi","fractal_assignment":["../images/blu_wht.png","../images/org_blu.png","../images/gry_blk.png","../images/cyn_red.png","../images/pnk_blu.png","../images/ylw_slt.png"],"mutagen_generator_assignment":[1,0],"goal":0,"start":2,"action_noise":0.15,"location_history":"[2,3,2,3,2,1,2,3,4,3,4,3,2,1,0]","action_history":"[1,1,1,1,0,1,1,0,0,0,1,1,0,1]","mutagen_history":"[0,0,0,0,1,0,0,1,1,1,0,0,1,0]","location_rts":"[1116,666,407,556,323,397,525,1205,1031,819,263,503,1055,333]","trial_type":"fractal-mutation","trial_index":77,"time_elapsed":2240698,"internal_node_id":"0.0-5.0-23.0"},{"group":"hexagon_bi","fractal_assignment":["../images/blu_wht.png","../images/org_blu.png","../images/gry_blk.png","../images/cyn_red.png","../images/pnk_blu.png","../images/ylw_slt.png"],"mutagen_generator_assignment":[1,0],"goal":3,"start":0,"action_noise":0.15,"location_history":"[0,1,0,5,0,5,4,3]","action_history":"[1,0,0,1,1,1,0]","mutagen_history":"[0,1,1,0,0,0,1]","location_rts":"[2212,290,658,371,648,382,1072]","trial_type":"fractal-mutation","trial_index":78,"time_elapsed":2257311,"internal_node_id":"0.0-5.0-24.0"},{"group":"hexagon_bi","fractal_assignment":["../images/blu_wht.png","../images/org_blu.png","../images/gry_blk.png","../images/cyn_red.png","../images/pnk_blu.png","../images/ylw_slt.png"],"mutagen_generator_assignment":[1,0],"goal":1,"start":3,"action_noise":0.15,"location_history":"[3,2,1]","action_history":"[1,0]","mutagen_history":"[0,1]","location_rts":"[1635,516]","trial_type":"fractal-mutation","trial_index":79,"time_elapsed":2265098,"internal_node_id":"0.0-5.0-25.0"},{"group":"hexagon_bi","fractal_assignment":["../images/blu_wht.png","../images/org_blu.png","../images/gry_blk.png","../images/cyn_red.png","../images/pnk_blu.png","../images/ylw_slt.png"],"mutagen_generator_assignment":[1,0],"goal":2,"start":1,"action_noise":0.15,"location_history":"[1,0,5,4,5,4,3,2]","action_history":"[1,0,1,1,1,0,1]","mutagen_history":"[0,1,0,0,0,1,0]","location_rts":"[1138,1977,300,733,961,896,405]","trial_type":"fractal-mutation","trial_index":80,"time_elapsed":2282451,"internal_node_id":"0.0-5.0-26.0"},{"group":"hexagon_bi","fractal_assignment":["../images/blu_wht.png","../images/org_blu.png","../images/gry_blk.png","../images/cyn_red.png","../images/pnk_blu.png","../images/ylw_slt.png"],"mutagen_generator_assignment":[1,0],"goal":5,"start":2,"action_noise":0.15,"location_history":"[2,3,4,5]","action_history":"[1,0,1]","mutagen_history":"[0,1,0]","location_rts":"[2455,1865,487]","trial_type":"fractal-mutation","trial_index":81,"time_elapsed":2293954,"internal_node_id":"0.0-5.0-27.0"},{"group":"hexagon_bi","fractal_assignment":["../images/blu_wht.png","../images/org_blu.png","../images/gry_blk.png","../images/cyn_red.png","../images/pnk_blu.png","../images/ylw_slt.png"],"mutagen_generator_assignment":[1,0],"goal":4,"start":5,"action_noise":0.15,"location_history":"[5,0,1,0,1,0,5,0,1,0,1,2,3,4]","action_history":"[0,1,1,0,1,0,0,0,1,1,1,0,0]","mutagen_history":"[1,0,0,1,0,1,1,1,0,0,0,1,1]","location_rts":"[1943,1133,262,338,523,559,228,660,513,495,489,696,1931]","trial_type":"fractal-mutation","trial_index":82,"time_elapsed":2321151,"internal_node_id":"0.0-5.0-28.0"},{"group":"hexagon_bi","fractal_assignment":["../images/blu_wht.png","../images/org_blu.png","../images/gry_blk.png","../images/cyn_red.png","../images/pnk_blu.png","../images/ylw_slt.png"],"mutagen_generator_assignment":[1,0],"goal":5,"start":4,"action_noise":0.15,"location_history":"[4,3,2,1,0,1,0,1,2,3,2,3,2,3,4,5]","action_history":"[1,1,0,1,0,1,1,0,1,1,1,1,0,0,1]","mutagen_history":"[0,0,1,0,1,0,0,1,0,0,0,0,1,1,0]","location_rts":"[1415,594,602,637,823,849,466,527,1077,635,415,512,424,598,408]","trial_type":"fractal-mutation","trial_index":83,"time_elapsed":2350582,"internal_node_id":"0.0-5.0-29.0"},{"group":"hexagon_bi","fractal_assignment":["../images/blu_wht.png","../images/org_blu.png","../images/gry_blk.png","../images/cyn_red.png","../images/pnk_blu.png","../images/ylw_slt.png"],"mutagen_generator_assignment":[1,0],"goal":3,"start":5,"action_noise":0.15,"location_history":"[5,0,1,2,1,0,1,2,1,2,1,2,3]","action_history":"[0,1,0,0,1,1,0,0,0,0,0,1]","mutagen_history":"[1,0,1,1,0,0,1,1,1,1,1,0]","location_rts":"[1472,1099,630,653,704,539,416,413,734,843,622,272]","trial_type":"fractal-mutation","trial_index":84,"time_elapsed":2375382,"internal_node_id":"0.0-5.0-30.0"},{"group":"hexagon_bi","fractal_assignment":["../images/blu_wht.png","../images/org_blu.png","../images/gry_blk.png","../images/cyn_red.png","../images/pnk_blu.png","../images/ylw_slt.png"],"mutagen_generator_assignment":[1,0],"goal":0,"start":3,"action_noise":0.15,"location_history":"[3,4,5,0]","action_history":"[0,1,1]","mutagen_history":"[1,0,0]","location_rts":"[3894,405,813]","trial_type":"fractal-mutation","trial_index":85,"time_elapsed":2387186,"internal_node_id":"0.0-5.0-31.0"},{"group":"hexagon_bi","fractal_assignment":["../images/blu_wht.png","../images/org_blu.png","../images/gry_blk.png","../images/cyn_red.png","../images/pnk_blu.png","../images/ylw_slt.png"],"mutagen_generator_assignment":[1,0],"goal":4,"start":0,"action_noise":0.15,"location_history":"[0,5,4]","action_history":"[0,1]","mutagen_history":"[1,0]","location_rts":"[961,493]","trial_type":"fractal-mutation","trial_index":86,"time_elapsed":2394282,"internal_node_id":"0.0-5.0-32.0"},{"group":"hexagon_bi","fractal_assignment":["../images/blu_wht.png","../images/org_blu.png","../images/gry_blk.png","../images/cyn_red.png","../images/pnk_blu.png","../images/ylw_slt.png"],"mutagen_generator_assignment":[1,0],"goal":1,"start":4,"action_noise":0.15,"location_history":"[4,5,0,1]","action_history":"[1,0,1]","mutagen_history":"[0,1,0]","location_rts":"[1442,534,685]","trial_type":"fractal-mutation","trial_index":87,"time_elapsed":2403636,"internal_node_id":"0.0-5.0-33.0"},{"group":"hexagon_bi","fractal_assignment":["../images/blu_wht.png","../images/org_blu.png","../images/gry_blk.png","../images/cyn_red.png","../images/pnk_blu.png","../images/ylw_slt.png"],"mutagen_generator_assignment":[1,0],"goal":2,"start":1,"action_noise":0.15,"location_history":"[1,2]","action_history":"[0]","mutagen_history":"[1]","location_rts":"[1488]","trial_type":"fractal-mutation","trial_index":88,"time_elapsed":2409716,"internal_node_id":"0.0-5.0-34.0"},{"group":"hexagon_bi","fractal_assignment":["../images/blu_wht.png","../images/org_blu.png","../images/gry_blk.png","../images/cyn_red.png","../images/pnk_blu.png","../images/ylw_slt.png"],"mutagen_generator_assignment":[1,0],"goal":0,"start":2,"action_noise":0.15,"location_history":"[2,1,2,3,2,1,0]","action_history":"[1,1,1,1,0,1]","mutagen_history":"[0,0,0,0,1,0]","location_rts":"[1165,363,491,560,403,381]","trial_type":"fractal-mutation","trial_index":89,"time_elapsed":2422936,"internal_node_id":"0.0-5.0-35.0"},{"group":"hexagon_bi","fractal_assignment":["../images/blu_wht.png","../images/org_blu.png","../images/gry_blk.png","../images/cyn_red.png","../images/pnk_blu.png","../images/ylw_slt.png"],"mutagen_generator_assignment":[1,0],"goal":5,"start":0,"action_noise":0.15,"location_history":"[0,1,2,1,2,1,2,1,0,1,0,1,0,5]","action_history":"[1,0,1,0,0,1,0,0,1,0,0,1,0]","mutagen_history":"[0,1,0,1,1,0,1,1,0,1,1,0,1]","location_rts":"[2808,536,500,665,350,484,636,644,767,826,644,786,527]","trial_type":"fractal-mutation","trial_index":90,"time_elapsed":2450571,"internal_node_id":"0.0-5.0-36.0"},{"group":"hexagon_bi","fractal_assignment":["../images/blu_wht.png","../images/org_blu.png","../images/gry_blk.png","../images/cyn_red.png","../images/pnk_blu.png","../images/ylw_slt.png"],"mutagen_generator_assignment":[1,0],"goal":2,"start":5,"action_noise":0.15,"location_history":"[5,0,5,4,5,0,5,0,5,4,3,2]","action_history":"[0,0,1,1,0,0,0,0,1,1,1]","mutagen_history":"[1,1,0,0,1,1,1,1,0,0,0]","location_rts":"[2307,1055,557,926,1029,706,551,779,386,1366,1032]","trial_type":"fractal-mutation","trial_index":91,"time_elapsed":2476543,"internal_node_id":"0.0-5.0-37.0"},{"group":"hexagon_bi","fractal_assignment":["../images/blu_wht.png","../images/org_blu.png","../images/gry_blk.png","../images/cyn_red.png","../images/pnk_blu.png","../images/ylw_slt.png"],"mutagen_generator_assignment":[1,0],"goal":1,"start":2,"action_noise":0.15,"location_history":"[2,1]","action_history":"[0]","mutagen_history":"[1]","location_rts":"[2215]","trial_type":"fractal-mutation","trial_index":92,"time_elapsed":2483349,"internal_node_id":"0.0-5.0-38.0"},{"group":"hexagon_bi","fractal_assignment":["../images/blu_wht.png","../images/org_blu.png","../images/gry_blk.png","../images/cyn_red.png","../images/pnk_blu.png","../images/ylw_slt.png"],"mutagen_generator_assignment":[1,0],"goal":4,"start":1,"action_noise":0.15,"location_history":"[1,2,1,2,1,0,5,0,1,2,3,2,3,4]","action_history":"[0,1,0,0,1,0,0,1,0,1,1,1,0]","mutagen_history":"[1,0,1,1,0,1,1,0,1,0,0,0,1]","location_rts":"[980,648,947,422,695,282,355,650,544,732,602,613,720]","trial_type":"fractal-mutation","trial_index":93,"time_elapsed":2508979,"internal_node_id":"0.0-5.0-39.0"},{"group":"hexagon_bi","fractal_assignment":["../images/blu_wht.png","../images/org_blu.png","../images/gry_blk.png","../images/cyn_red.png","../images/pnk_blu.png","../images/ylw_slt.png"],"mutagen_generator_assignment":[1,0],"goal":3,"start":4,"action_noise":0.15,"location_history":"[4,5,0,5,0,1,2,1,2,3]","action_history":"[1,0,0,1,1,0,0,0,1]","mutagen_history":"[0,1,1,0,0,1,1,1,0]","location_rts":"[1740,2267,787,267,604,480,487,849,421]","trial_type":"fractal-mutation","trial_index":94,"time_elapsed":2530054,"internal_node_id":"0.0-5.0-40.0"},{"group":"hexagon_bi","fractal_assignment":["../images/blu_wht.png","../images/org_blu.png","../images/gry_blk.png","../images/cyn_red.png","../images/pnk_blu.png","../images/ylw_slt.png"],"mutagen_generator_assignment":[1,0],"goal":5,"start":3,"action_noise":0.15,"location_history":"[3,4,5]","action_history":"[1,1]","mutagen_history":"[0,0]","location_rts":"[1936,828]","trial_type":"fractal-mutation","trial_index":95,"time_elapsed":2538434,"internal_node_id":"0.0-5.0-41.0"},{"group":"hexagon_bi","fractal_assignment":["../images/blu_wht.png","../images/org_blu.png","../images/gry_blk.png","../images/cyn_red.png","../images/pnk_blu.png","../images/ylw_slt.png"],"mutagen_generator_assignment":[1,0],"goal":3,"start":5,"action_noise":0.15,"location_history":"[5,4,5,0,5,4,5,0,1,2,1,2,3]","action_history":"[0,1,0,0,1,0,1,1,0,0,1,1]","mutagen_history":"[1,0,1,1,0,1,0,0,1,1,0,0]","location_rts":"[2521,939,1245,1124,297,1426,1011,497,1085,1519,1104,582]","trial_type":"fractal-mutation","trial_index":96,"time_elapsed":2568157,"internal_node_id":"0.0-5.0-42.0"},{"group":"hexagon_bi","fractal_assignment":["../images/blu_wht.png","../images/org_blu.png","../images/gry_blk.png","../images/cyn_red.png","../images/pnk_blu.png","../images/ylw_slt.png"],"mutagen_generator_assignment":[1,0],"goal":0,"start":3,"action_noise":0.15,"location_history":"[3,2,1,0]","action_history":"[1,0,1]","mutagen_history":"[0,1,0]","location_rts":"[1444,303,299]","trial_type":"fractal-mutation","trial_index":97,"time_elapsed":2576906,"internal_node_id":"0.0-5.0-43.0"},{"group":"hexagon_bi","fractal_assignment":["../images/blu_wht.png","../images/org_blu.png","../images/gry_blk.png","../images/cyn_red.png","../images/pnk_blu.png","../images/ylw_slt.png"],"mutagen_generator_assignment":[1,0],"goal":2,"start":0,"action_noise":0.15,"location_history":"[0,1,2]","action_history":"[1,0]","mutagen_history":"[0,1]","location_rts":"[3342,269]","trial_type":"fractal-mutation","trial_index":98,"time_elapsed":2586169,"internal_node_id":"0.0-5.0-44.0"},{"group":"hexagon_bi","fractal_assignment":["../images/blu_wht.png","../images/org_blu.png","../images/gry_blk.png","../images/cyn_red.png","../images/pnk_blu.png","../images/ylw_slt.png"],"mutagen_generator_assignment":[1,0],"goal":4,"start":2,"action_noise":0.15,"location_history":"[2,3,4]","action_history":"[0,1]","mutagen_history":"[1,0]","location_rts":"[1433,568]","trial_type":"fractal-mutation","trial_index":99,"time_elapsed":2593818,"internal_node_id":"0.0-5.0-45.0"},{"group":"hexagon_bi","fractal_assignment":["../images/blu_wht.png","../images/org_blu.png","../images/gry_blk.png","../images/cyn_red.png","../images/pnk_blu.png","../images/ylw_slt.png"],"mutagen_generator_assignment":[1,0],"goal":1,"start":4,"action_noise":0.15,"location_history":"[4,5,4,5,0,1]","action_history":"[1,1,1,0,1]","mutagen_history":"[0,0,0,1,0]","location_rts":"[1484,432,662,731,519]","trial_type":"fractal-mutation","trial_index":100,"time_elapsed":2606453,"internal_node_id":"0.0-5.0-46.0"},{"group":"hexagon_bi","fractal_assignment":["../images/blu_wht.png","../images/org_blu.png","../images/gry_blk.png","../images/cyn_red.png","../images/pnk_blu.png","../images/ylw_slt.png"],"mutagen_generator_assignment":[1,0],"goal":4,"start":1,"action_noise":0.15,"location_history":"[1,2,1,2,3,2,1,0,5,0,5,4]","action_history":"[0,0,0,1,1,1,1,1,0,0,1]","mutagen_history":"[1,1,1,0,0,0,0,0,1,1,0]","location_rts":"[1372,982,781,376,1369,1126,874,589,282,684,311]","trial_type":"fractal-mutation","trial_index":101,"time_elapsed":2630468,"internal_node_id":"0.0-5.0-47.0"},{"group":"hexagon_bi","fractal_assignment":["../images/blu_wht.png","../images/org_blu.png","../images/gry_blk.png","../images/cyn_red.png","../images/pnk_blu.png","../images/ylw_slt.png"],"mutagen_generator_assignment":[1,0],"goal":3,"start":4,"action_noise":0.15,"location_history":"[4,3]","action_history":"[0]","mutagen_history":"[1]","location_rts":"[3135]","trial_type":"fractal-mutation","trial_index":102,"time_elapsed":2638194,"internal_node_id":"0.0-5.0-48.0"},{"group":"hexagon_bi","fractal_assignment":["../images/blu_wht.png","../images/org_blu.png","../images/gry_blk.png","../images/cyn_red.png","../images/pnk_blu.png","../images/ylw_slt.png"],"mutagen_generator_assignment":[1,0],"goal":5,"start":3,"action_noise":0.15,"location_history":"[3,4,5]","action_history":"[0,1]","mutagen_history":"[1,0]","location_rts":"[2257,793]","trial_type":"fractal-mutation","trial_index":103,"time_elapsed":2646888,"internal_node_id":"0.0-5.0-49.0"},{"view_history":"[{\"page_index\":0,\"viewing_time\":10076}]","rt":10076,"trial_type":"instructions","trial_index":104,"time_elapsed":2657965,"internal_node_id":"0.0-6.0"},{"rt":7381,"responses":"{\"Q0\":\"Thanks for the opportunity to participate; I wish you success with your research! Also, please note that on December 15th amazon forced all users to begin using the new worker site. One of the many changes is the inability for workers to see the \\\"Auto Approval\\\" time set by requesters. Many workers use this information to aid in deciding whether or not to do a HIT. Please consider including the Auto Approval time in your HIT descriptions.\"}","trial_type":"survey-text","trial_index":105,"time_elapsed":2666350,"internal_node_id":"0.0-7.0"}]