[{"view_history":"[{\"page_index\":0,\"viewing_time\":5066},{\"page_index\":1,\"viewing_time\":11216},{\"page_index\":2,\"viewing_time\":14428},{\"page_index\":3,\"viewing_time\":8098}]","rt":38810,"trial_type":"instructions","trial_index":0,"time_elapsed":38810,"internal_node_id":"0.0-0.0"},{"view_history":"[{\"page_index\":0,\"viewing_time\":3494},{\"page_index\":1,\"viewing_time\":43264}]","rt":46760,"trial_type":"instructions","trial_index":1,"time_elapsed":86572,"internal_node_id":"0.0-1.0"},{"group":"hexagon_tri","room_assignment":["green","yellow","blue","red","purple","grey"],"door_color_assignment":["black","white"],"door_generator_assignment":[0,1],"goal":4,"start":0,"action_noise":0.15,"location_history":"[0,5,0,5,0,5,0,1,3,4]","action_history":"[0,1,0,1,0,1,1,1,1]","door_history":"[0,1,0,1,0,1,1,1,1]","location_rts":"[2978,3641,10727,2165,1255,1894,848,945,672]","trial_type":"two-door-navigation","trial_index":2,"time_elapsed":124298,"internal_node_id":"0.0-2.0-0.0"},{"group":"hexagon_tri","room_assignment":["green","yellow","blue","red","purple","grey"],"door_color_assignment":["black","white"],"door_generator_assignment":[0,1],"goal":3,"start":4,"action_noise":0.15,"location_history":"[4,2,3]","action_history":"[1,1]","door_history":"[1,1]","location_rts":"[3589,608]","trial_type":"two-door-navigation","trial_index":3,"time_elapsed":134001,"internal_node_id":"0.0-2.0-1.0"},{"group":"hexagon_tri","room_assignment":["green","yellow","blue","red","purple","grey"],"door_color_assignment":["black","white"],"door_generator_assignment":[0,1],"goal":5,"start":3,"action_noise":0.15,"location_history":"[3,2,1,5]","action_history":"[1,1,1]","door_history":"[1,1,1]","location_rts":"[5380,333,516]","trial_type":"two-door-navigation","trial_index":4,"time_elapsed":146735,"internal_node_id":"0.0-2.0-2.0"},{"group":"hexagon_tri","room_assignment":["green","yellow","blue","red","purple","grey"],"door_color_assignment":["black","white"],"door_generator_assignment":[0,1],"goal":2,"start":5,"action_noise":0.15,"location_history":"[5,0,1,3,2]","action_history":"[1,1,1,1]","door_history":"[1,1,1,1]","location_rts":"[2552,438,471,430]","trial_type":"two-door-navigation","trial_index":5,"time_elapsed":158133,"internal_node_id":"0.0-2.0-3.0"},{"group":"hexagon_tri","room_assignment":["green","yellow","blue","red","purple","grey"],"door_color_assignment":["black","white"],"door_generator_assignment":[0,1],"goal":1,"start":2,"action_noise":0.15,"location_history":"[2,3,4,2,3,4,0,1]","action_history":"[1,1,1,1,1,1,1]","door_history":"[1,1,1,1,1,1,1]","location_rts":"[2036,419,400,494,708,475,435]","trial_type":"two-door-navigation","trial_index":6,"time_elapsed":173682,"internal_node_id":"0.0-2.0-4.0"},{"group":"hexagon_tri","room_assignment":["green","yellow","blue","red","purple","grey"],"door_color_assignment":["black","white"],"door_generator_assignment":[0,1],"goal":4,"start":1,"action_noise":0.15,"location_history":"[1,5,0,5,0,1,5,4]","action_history":"[1,1,1,1,1,1,1]","door_history":"[1,1,1,1,1,1,1]","location_rts":"[2696,349,291,604,464,452,687]","trial_type":"two-door-navigation","trial_index":7,"time_elapsed":189776,"internal_node_id":"0.0-2.0-5.0"},{"group":"hexagon_tri","room_assignment":["green","yellow","blue","red","purple","grey"],"door_color_assignment":["black","white"],"door_generator_assignment":[0,1],"goal":1,"start":4,"action_noise":0.15,"location_history":"[4,2,3,4,2,3,2,3,4,2,3,4,2,3,4,0,5,0,1]","action_history":"[1,1,1,1,1,1,1,1,1,1,1,1,1,1,1,1,1,1]","door_history":"[1,1,1,1,1,1,1,1,1,1,1,1,1,1,1,1,1,1]","location_rts":"[1070,303,384,383,404,391,459,393,414,344,395,398,583,445,400,856,576,669]","trial_type":"two-door-navigation","trial_index":8,"time_elapsed":220257,"internal_node_id":"0.0-2.0-6.0"},{"group":"hexagon_tri","room_assignment":["green","yellow","blue","red","purple","grey"],"door_color_assignment":["black","white"],"door_generator_assignment":[0,1],"goal":5,"start":1,"action_noise":0.15,"location_history":"[1,5]","action_history":"[1]","door_history":"[1]","location_rts":"[6496]","trial_type":"two-door-navigation","trial_index":9,"time_elapsed":231276,"internal_node_id":"0.0-2.0-7.0"},{"group":"hexagon_tri","room_assignment":["green","yellow","blue","red","purple","grey"],"door_color_assignment":["black","white"],"door_generator_assignment":[0,1],"goal":0,"start":5,"action_noise":0.15,"location_history":"[5,0]","action_history":"[1]","door_history":"[1]","location_rts":"[3132]","trial_type":"two-door-navigation","trial_index":10,"time_elapsed":238914,"internal_node_id":"0.0-2.0-8.0"},{"group":"hexagon_tri","room_assignment":["green","yellow","blue","red","purple","grey"],"door_color_assignment":["black","white"],"door_generator_assignment":[0,1],"goal":2,"start":0,"action_noise":0.15,"location_history":"[0,1,5,0,1,5,0,5,0,1,5,0,5,4,0,1,5,4,0,1,5,4,0,5,4,0,1,3,4,2]","action_history":"[1,1,1,1,1,1,1,1,1,1,1,1,1,1,1,1,1,1,1,1,0,0,0,0,0,0,0,1,1]","door_history":"[1,1,1,1,1,1,1,1,1,1,1,1,1,1,1,1,1,1,1,1,0,0,0,0,0,0,0,1,1]","location_rts":"[1359,398,371,1027,440,402,434,1143,1058,435,460,374,492,423,524,399,389,383,520,363,427,499,448,431,512,690,470,914,420]","trial_type":"two-door-navigation","trial_index":11,"time_elapsed":287718,"internal_node_id":"0.0-2.0-9.0"},{"group":"hexagon_tri","room_assignment":["green","yellow","blue","red","purple","grey"],"door_color_assignment":["black","white"],"door_generator_assignment":[0,1],"goal":3,"start":2,"action_noise":0.15,"location_history":"[2,3]","action_history":"[1]","door_history":"[1]","location_rts":"[4785]","trial_type":"two-door-navigation","trial_index":12,"time_elapsed":297006,"internal_node_id":"0.0-2.0-10.0"},{"group":"hexagon_tri","room_assignment":["green","yellow","blue","red","purple","grey"],"door_color_assignment":["black","white"],"door_generator_assignment":[0,1],"goal":0,"start":3,"action_noise":0.15,"location_history":"[3,4,2,3,4,2,3,2,1,3,2,3,2,3,4,0]","action_history":"[1,1,1,1,1,1,0,0,0,0,1,1,1,1,1]","door_history":"[1,1,1,1,1,1,0,0,0,0,1,1,1,1,1]","location_rts":"[3885,1278,2031,1406,742,1505,1607,400,359,452,1720,367,386,335,303]","trial_type":"two-door-navigation","trial_index":13,"time_elapsed":332407,"internal_node_id":"0.0-2.0-11.0"},{"group":"hexagon_tri","room_assignment":["green","yellow","blue","red","purple","grey"],"door_color_assignment":["black","white"],"door_generator_assignment":[0,1],"goal":2,"start":0,"action_noise":0.15,"location_history":"[0,5,0,5,0,5,0,1,5,0,1,5,4,0,1,3,2]","action_history":"[1,1,1,1,1,1,1,1,1,1,1,0,0,0,0,0]","door_history":"[1,1,1,1,1,1,1,1,1,1,1,0,0,0,0,0]","location_rts":"[2490,1061,1133,799,772,579,569,574,633,399,759,898,688,419,557,483]","trial_type":"two-door-navigation","trial_index":14,"time_elapsed":364756,"internal_node_id":"0.0-2.0-12.0"},{"group":"hexagon_tri","room_assignment":["green","yellow","blue","red","purple","grey"],"door_color_assignment":["black","white"],"door_generator_assignment":[0,1],"goal":5,"start":2,"action_noise":0.15,"location_history":"[2,1,3,2,1,3,4,0,5]","action_history":"[0,0,0,0,0,0,0,0]","door_history":"[0,0,0,0,0,0,0,0]","location_rts":"[1942,506,437,476,400,512,888,563]","trial_type":"two-door-navigation","trial_index":15,"time_elapsed":382085,"internal_node_id":"0.0-2.0-13.0"},{"group":"hexagon_tri","room_assignment":["green","yellow","blue","red","purple","grey"],"door_color_assignment":["black","white"],"door_generator_assignment":[0,1],"goal":4,"start":5,"action_noise":0.15,"location_history":"[5,0,1,5,0,5,0,1,3,4]","action_history":"[0,0,0,0,0,0,1,1,1]","door_history":"[0,0,0,0,0,0,1,1,1]","location_rts":"[421,206,358,290,153,287,293,314,621]","trial_type":"two-door-navigation","trial_index":16,"time_elapsed":397554,"internal_node_id":"0.0-2.0-14.0"},{"group":"hexagon_tri","room_assignment":["green","yellow","blue","red","purple","grey"],"door_color_assignment":["black","white"],"door_generator_assignment":[0,1],"goal":3,"start":4,"action_noise":0.15,"location_history":"[4,2,1,5,0,1,5,0,1,3]","action_history":"[1,1,1,1,1,1,1,1,0]","door_history":"[1,1,1,1,1,1,1,1,0]","location_rts":"[2096,445,405,425,395,433,371,392,459]","trial_type":"two-door-navigation","trial_index":17,"time_elapsed":415488,"internal_node_id":"0.0-2.0-15.0"},{"group":"hexagon_tri","room_assignment":["green","yellow","blue","red","purple","grey"],"door_color_assignment":["black","white"],"door_generator_assignment":[0,1],"goal":1,"start":3,"action_noise":0.15,"location_history":"[3,4,2,3,4,2,3,4,2,3,4,2,3,2,1]","action_history":"[1,1,1,1,1,1,1,1,1,1,1,1,0,0]","door_history":"[1,1,1,1,1,1,1,1,1,1,1,1,0,0]","location_rts":"[1518,433,590,371,370,441,375,358,366,366,476,403,544,471]","trial_type":"two-door-navigation","trial_index":18,"time_elapsed":440159,"internal_node_id":"0.0-2.0-16.0"},{"group":"hexagon_tri","room_assignment":["green","yellow","blue","red","purple","grey"],"door_color_assignment":["black","white"],"door_generator_assignment":[0,1],"goal":5,"start":1,"action_noise":0.15,"location_history":"[1,3,2,1,3,2,1,3,4,0,1,5]","action_history":"[0,0,0,0,0,0,0,1,1,1,1]","door_history":"[0,0,0,0,0,0,0,1,1,1,1]","location_rts":"[1595,327,530,1019,505,697,352,355,336,393,397]","trial_type":"two-door-navigation","trial_index":19,"time_elapsed":461259,"internal_node_id":"0.0-2.0-17.0"},{"group":"hexagon_tri","room_assignment":["green","yellow","blue","red","purple","grey"],"door_color_assignment":["black","white"],"door_generator_assignment":[0,1],"goal":4,"start":5,"action_noise":0.15,"location_history":"[5,4]","action_history":"[0]","door_history":"[0]","location_rts":"[1848]","trial_type":"two-door-navigation","trial_index":20,"time_elapsed":467612,"internal_node_id":"0.0-2.0-18.0"},{"group":"hexagon_tri","room_assignment":["green","yellow","blue","red","purple","grey"],"door_color_assignment":["black","white"],"door_generator_assignment":[0,1],"goal":0,"start":4,"action_noise":0.15,"location_history":"[4,2,3,2,1,5,0]","action_history":"[1,1,1,1,1,1]","door_history":"[1,1,1,1,1,1]","location_rts":"[1542,373,490,366,375,364]","trial_type":"two-door-navigation","trial_index":21,"time_elapsed":480704,"internal_node_id":"0.0-2.0-19.0"},{"group":"hexagon_tri","room_assignment":["green","yellow","blue","red","purple","grey"],"door_color_assignment":["black","white"],"door_generator_assignment":[0,1],"goal":1,"start":0,"action_noise":0.15,"location_history":"[0,5,4,2,1]","action_history":"[0,0,0,0]","door_history":"[0,0,0,0]","location_rts":"[966,365,372,405]","trial_type":"two-door-navigation","trial_index":22,"time_elapsed":490319,"internal_node_id":"0.0-2.0-20.0"},{"group":"hexagon_tri","room_assignment":["green","yellow","blue","red","purple","grey"],"door_color_assignment":["black","white"],"door_generator_assignment":[0,1],"goal":3,"start":1,"action_noise":0.15,"location_history":"[1,3]","action_history":"[0]","door_history":"[0]","location_rts":"[3385]","trial_type":"two-door-navigation","trial_index":23,"time_elapsed":498209,"internal_node_id":"0.0-2.0-21.0"},{"group":"hexagon_tri","room_assignment":["green","yellow","blue","red","purple","grey"],"door_color_assignment":["black","white"],"door_generator_assignment":[0,1],"goal":2,"start":3,"action_noise":0.15,"location_history":"[3,4,2]","action_history":"[1,1]","door_history":"[1,1]","location_rts":"[2007,449]","trial_type":"two-door-navigation","trial_index":24,"time_elapsed":506175,"internal_node_id":"0.0-2.0-22.0"},{"group":"hexagon_tri","room_assignment":["green","yellow","blue","red","purple","grey"],"door_color_assignment":["black","white"],"door_generator_assignment":[0,1],"goal":0,"start":2,"action_noise":0.15,"location_history":"[2,3,4,2,3,4,2,3,4,2,3,4,2,1,5,0]","action_history":"[1,1,1,1,1,1,1,1,1,1,1,1,1,1,1]","door_history":"[1,1,1,1,1,1,1,1,1,1,1,1,1,1,1]","location_rts":"[1748,357,328,378,495,584,454,430,395,495,420,389,504,500,470]","trial_type":"two-door-navigation","trial_index":25,"time_elapsed":532664,"internal_node_id":"0.0-2.0-23.0"},{"group":"hexagon_tri","room_assignment":["green","yellow","blue","red","purple","grey"],"door_color_assignment":["black","white"],"door_generator_assignment":[0,1],"goal":3,"start":0,"action_noise":0.15,"location_history":"[0,5,4,0,5,0,5,0,1,3]","action_history":"[0,0,0,0,0,0,0,0,0]","door_history":"[0,0,0,0,0,0,0,0,0]","location_rts":"[1315,366,441,391,394,395,363,341,305]","trial_type":"two-door-navigation","trial_index":26,"time_elapsed":549550,"internal_node_id":"0.0-2.0-24.0"},{"group":"hexagon_tri","room_assignment":["green","yellow","blue","red","purple","grey"],"door_color_assignment":["black","white"],"door_generator_assignment":[0,1],"goal":1,"start":3,"action_noise":0.15,"location_history":"[3,2,1]","action_history":"[0,0]","door_history":"[0,0]","location_rts":"[816,321]","trial_type":"two-door-navigation","trial_index":27,"time_elapsed":556191,"internal_node_id":"0.0-2.0-25.0"},{"group":"hexagon_tri","room_assignment":["green","yellow","blue","red","purple","grey"],"door_color_assignment":["black","white"],"door_generator_assignment":[0,1],"goal":2,"start":1,"action_noise":0.15,"location_history":"[1,5,0,1,3,4,0,1,5,0,1,3,2]","action_history":"[1,1,1,1,1,1,1,1,1,1,0,0]","door_history":"[1,1,1,1,1,1,1,1,1,1,0,0]","location_rts":"[1223,333,253,296,266,356,332,290,356,348,776,382]","trial_type":"two-door-navigation","trial_index":28,"time_elapsed":576954,"internal_node_id":"0.0-2.0-26.0"},{"group":"hexagon_tri","room_assignment":["green","yellow","blue","red","purple","grey"],"door_color_assignment":["black","white"],"door_generator_assignment":[0,1],"goal":5,"start":2,"action_noise":0.15,"location_history":"[2,3,2,1,3,2,1,3,2,3,2,3,4,2,3,4,2,3,4,2,1,3,2,1,3,2,1,3,2,1,3,2,1,3,2,1,5]","action_history":"[0,0,0,0,0,0,0,0,1,1,1,1,1,1,1,1,1,1,1,1,0,0,0,0,0,0,0,0,0,0,0,0,0,1,1,1]","door_history":"[0,0,0,0,0,0,0,0,1,1,1,1,1,1,1,1,1,1,1,1,0,0,0,0,0,0,0,0,0,0,0,0,0,1,1,1]","location_rts":"[2577,390,666,373,351,398,385,372,418,344,475,283,381,405,292,312,390,332,352,352,498,483,399,362,337,247,255,261,289,272,280,296,343,277,282,307]","trial_type":"two-door-navigation","trial_index":29,"time_elapsed":631639,"internal_node_id":"0.0-2.0-27.0"},{"group":"hexagon_tri","room_assignment":["green","yellow","blue","red","purple","grey"],"door_color_assignment":["black","white"],"door_generator_assignment":[0,1],"goal":4,"start":5,"action_noise":0.15,"location_history":"[5,4]","action_history":"[0]","door_history":"[0]","location_rts":"[1630]","trial_type":"two-door-navigation","trial_index":30,"time_elapsed":637774,"internal_node_id":"0.0-2.0-28.0"},{"group":"hexagon_tri","room_assignment":["green","yellow","blue","red","purple","grey"],"door_color_assignment":["black","white"],"door_generator_assignment":[0,1],"goal":5,"start":4,"action_noise":0.15,"location_history":"[4,0,1,5]","action_history":"[1,1,0]","door_history":"[1,1,0]","location_rts":"[4953,150,238]","trial_type":"two-door-navigation","trial_index":31,"time_elapsed":649626,"internal_node_id":"0.0-2.0-29.0"},{"group":"hexagon_tri","room_assignment":["green","yellow","blue","red","purple","grey"],"door_color_assignment":["black","white"],"door_generator_assignment":[0,1],"goal":3,"start":5,"action_noise":0.15,"location_history":"[5,4,0,5,4,2,1,3]","action_history":"[0,0,0,0,1,0,0]","door_history":"[0,0,0,0,1,0,0]","location_rts":"[931,371,395,371,481,340,300]","trial_type":"two-door-navigation","trial_index":32,"time_elapsed":663350,"internal_node_id":"0.0-2.0-30.0"},{"group":"hexagon_tri","room_assignment":["green","yellow","blue","red","purple","grey"],"door_color_assignment":["black","white"],"door_generator_assignment":[0,1],"goal":0,"start":3,"action_noise":0.15,"location_history":"[3,4,0]","action_history":"[0,0]","door_history":"[0,0]","location_rts":"[913,470]","trial_type":"two-door-navigation","trial_index":33,"time_elapsed":670245,"internal_node_id":"0.0-2.0-31.0"},{"group":"hexagon_tri","room_assignment":["green","yellow","blue","red","purple","grey"],"door_color_assignment":["black","white"],"door_generator_assignment":[0,1],"goal":4,"start":0,"action_noise":0.15,"location_history":"[0,1,3,2,1,3,4]","action_history":"[1,0,0,0,0,0]","door_history":"[1,0,0,0,0,0]","location_rts":"[1290,735,430,308,349,390]","trial_type":"two-door-navigation","trial_index":34,"time_elapsed":683262,"internal_node_id":"0.0-2.0-32.0"},{"group":"hexagon_tri","room_assignment":["green","yellow","blue","red","purple","grey"],"door_color_assignment":["black","white"],"door_generator_assignment":[0,1],"goal":1,"start":4,"action_noise":0.15,"location_history":"[4,0,5,0,5,4,0,5,4,0,5,4,2,1]","action_history":"[0,0,0,0,0,0,0,0,0,0,0,1,1]","door_history":"[0,0,0,0,0,0,0,0,0,0,0,1,1]","location_rts":"[889,404,339,453,365,338,397,368,307,317,375,244,234]","trial_type":"two-door-navigation","trial_index":35,"time_elapsed":704827,"internal_node_id":"0.0-2.0-33.0"},{"group":"hexagon_tri","room_assignment":["green","yellow","blue","red","purple","grey"],"door_color_assignment":["black","white"],"door_generator_assignment":[0,1],"goal":2,"start":1,"action_noise":0.15,"location_history":"[1,3,2]","action_history":"[0,0]","door_history":"[0,0]","location_rts":"[812,319]","trial_type":"two-door-navigation","trial_index":36,"time_elapsed":711465,"internal_node_id":"0.0-2.0-34.0"},{"group":"hexagon_tri","room_assignment":["green","yellow","blue","red","purple","grey"],"door_color_assignment":["black","white"],"door_generator_assignment":[0,1],"goal":0,"start":2,"action_noise":0.15,"location_history":"[2,3,4,0]","action_history":"[1,1,1]","door_history":"[1,1,1]","location_rts":"[1916,253,242]","trial_type":"two-door-navigation","trial_index":37,"time_elapsed":720402,"internal_node_id":"0.0-2.0-35.0"},{"group":"hexagon_tri","room_assignment":["green","yellow","blue","red","purple","grey"],"door_color_assignment":["black","white"],"door_generator_assignment":[0,1],"goal":5,"start":0,"action_noise":0.15,"location_history":"[0,5]","action_history":"[0]","door_history":"[0]","location_rts":"[3113]","trial_type":"two-door-navigation","trial_index":38,"time_elapsed":728017,"internal_node_id":"0.0-2.0-36.0"},{"group":"hexagon_tri","room_assignment":["green","yellow","blue","red","purple","grey"],"door_color_assignment":["black","white"],"door_generator_assignment":[0,1],"goal":2,"start":5,"action_noise":0.15,"location_history":"[5,4,0,1,3,2]","action_history":"[0,0,0,0,0]","door_history":"[0,0,0,0,0]","location_rts":"[647,318,592,367,421]","trial_type":"two-door-navigation","trial_index":39,"time_elapsed":738876,"internal_node_id":"0.0-2.0-37.0"},{"group":"hexagon_tri","room_assignment":["green","yellow","blue","red","purple","grey"],"door_color_assignment":["black","white"],"door_generator_assignment":[0,1],"goal":1,"start":2,"action_noise":0.15,"location_history":"[2,1]","action_history":"[0]","door_history":"[0]","location_rts":"[2058]","trial_type":"two-door-navigation","trial_index":40,"time_elapsed":745442,"internal_node_id":"0.0-2.0-38.0"},{"group":"hexagon_tri","room_assignment":["green","yellow","blue","red","purple","grey"],"door_color_assignment":["black","white"],"door_generator_assignment":[0,1],"goal":4,"start":1,"action_noise":0.15,"location_history":"[1,3,2,1,3,2,3,2,1,5,0,5,4]","action_history":"[0,0,0,0,0,0,0,0,0,0,0,0]","door_history":"[0,0,0,0,0,0,0,0,0,0,0,0]","location_rts":"[894,372,488,398,424,378,527,451,457,475,404,420]","trial_type":"two-door-navigation","trial_index":41,"time_elapsed":766659,"internal_node_id":"0.0-2.0-39.0"},{"group":"hexagon_tri","room_assignment":["green","yellow","blue","red","purple","grey"],"door_color_assignment":["black","white"],"door_generator_assignment":[0,1],"goal":3,"start":4,"action_noise":0.15,"location_history":"[4,0,5,0,5,4,2,1,3]","action_history":"[0,0,0,0,0,0,0,0]","door_history":"[0,0,0,0,0,0,0,0]","location_rts":"[865,377,335,366,358,368,398,307]","trial_type":"two-door-navigation","trial_index":42,"time_elapsed":781548,"internal_node_id":"0.0-2.0-40.0"},{"group":"hexagon_tri","room_assignment":["green","yellow","blue","red","purple","grey"],"door_color_assignment":["black","white"],"door_generator_assignment":[0,1],"goal":5,"start":3,"action_noise":0.15,"location_history":"[3,4,2,1,5]","action_history":"[0,1,0,1]","door_history":"[0,1,0,1]","location_rts":"[1048,382,321,482]","trial_type":"two-door-navigation","trial_index":43,"time_elapsed":791370,"internal_node_id":"0.0-2.0-41.0"},{"group":"hexagon_tri","room_assignment":["green","yellow","blue","red","purple","grey"],"door_color_assignment":["black","white"],"door_generator_assignment":[0,1],"goal":3,"start":5,"action_noise":0.15,"location_history":"[5,4,2,3]","action_history":"[0,0,0]","door_history":"[0,0,0]","location_rts":"[509,499,370]","trial_type":"two-door-navigation","trial_index":44,"time_elapsed":799260,"internal_node_id":"0.0-2.0-42.0"},{"group":"hexagon_tri","room_assignment":["green","yellow","blue","red","purple","grey"],"door_color_assignment":["black","white"],"door_generator_assignment":[0,1],"goal":0,"start":3,"action_noise":0.15,"location_history":"[3,4,2,1,5,4,2,3,2,1,3,2,3,2,3,2,1,3,4,0]","action_history":"[1,1,1,1,1,1,1,0,0,0,0,1,0,1,0,0,0,1,0]","door_history":"[1,1,1,1,1,1,1,0,0,0,0,1,0,1,0,0,0,1,0]","location_rts":"[3025,359,373,411,412,382,381,743,389,386,334,681,389,388,369,336,385,724,302]","trial_type":"two-door-navigation","trial_index":45,"time_elapsed":832604,"internal_node_id":"0.0-2.0-43.0"},{"group":"hexagon_tri","room_assignment":["green","yellow","blue","red","purple","grey"],"door_color_assignment":["black","white"],"door_generator_assignment":[0,1],"goal":2,"start":0,"action_noise":0.15,"location_history":"[0,1,3,4,2]","action_history":"[1,0,1,0]","door_history":"[1,0,1,0]","location_rts":"[1426,379,237,216]","trial_type":"two-door-navigation","trial_index":46,"time_elapsed":842371,"internal_node_id":"0.0-2.0-44.0"},{"group":"hexagon_tri","room_assignment":["green","yellow","blue","red","purple","grey"],"door_color_assignment":["black","white"],"door_generator_assignment":[0,1],"goal":4,"start":2,"action_noise":0.15,"location_history":"[2,3,2,1,3,2,1,3,2,1,3,2,1,3,4]","action_history":"[1,0,0,0,0,0,0,0,0,0,0,0,0,1]","door_history":"[1,0,0,0,0,0,0,0,0,0,0,0,0,1]","location_rts":"[934,337,1051,302,333,400,313,296,398,347,308,287,290,729]","trial_type":"two-door-navigation","trial_index":47,"time_elapsed":866394,"internal_node_id":"0.0-2.0-45.0"},{"group":"hexagon_tri","room_assignment":["green","yellow","blue","red","purple","grey"],"door_color_assignment":["black","white"],"door_generator_assignment":[0,1],"goal":1,"start":4,"action_noise":0.15,"location_history":"[4,0,5,0,1]","action_history":"[0,0,1,1]","door_history":"[0,0,1,1]","location_rts":"[1320,808,535,417]","trial_type":"two-door-navigation","trial_index":48,"time_elapsed":877020,"internal_node_id":"0.0-2.0-46.0"},{"group":"hexagon_tri","room_assignment":["green","yellow","blue","red","purple","grey"],"door_color_assignment":["black","white"],"door_generator_assignment":[0,1],"goal":4,"start":1,"action_noise":0.15,"location_history":"[1,5,4]","action_history":"[0,0]","door_history":"[0,0]","location_rts":"[679,446]","trial_type":"two-door-navigation","trial_index":49,"time_elapsed":883661,"internal_node_id":"0.0-2.0-47.0"},{"group":"hexagon_tri","room_assignment":["green","yellow","blue","red","purple","grey"],"door_color_assignment":["black","white"],"door_generator_assignment":[0,1],"goal":3,"start":4,"action_noise":0.15,"location_history":"[4,0,5,4,2,3]","action_history":"[0,0,0,1,1]","door_history":"[0,0,0,1,1]","location_rts":"[727,241,260,794,382]","trial_type":"two-door-navigation","trial_index":50,"time_elapsed":894691,"internal_node_id":"0.0-2.0-48.0"},{"group":"hexagon_tri","room_assignment":["green","yellow","blue","red","purple","grey"],"door_color_assignment":["black","white"],"door_generator_assignment":[0,1],"goal":5,"start":3,"action_noise":0.15,"location_history":"[3,2,3,2,1,3,4,0,5]","action_history":"[0,1,0,1,0,1,0,0]","door_history":"[0,1,0,1,0,1,0,0]","location_rts":"[1035,256,277,252,286,500,330,164]","trial_type":"two-door-navigation","trial_index":51,"time_elapsed":909570,"internal_node_id":"0.0-2.0-49.0"},{"view_history":"[{\"page_index\":0,\"viewing_time\":3030}]","rt":3030,"trial_type":"instructions","trial_index":52,"time_elapsed":913600,"internal_node_id":"0.0-3.0"},{"view_history":"[{\"page_index\":0,\"viewing_time\":2284},{\"page_index\":1,\"viewing_time\":27832}]","rt":30116,"trial_type":"instructions","trial_index":53,"time_elapsed":944737,"internal_node_id":"0.0-4.0"},{"group":"hexagon_tri","fractal_assignment":["../images/ylw_slt.png","../images/gry_blk.png","../images/blu_wht.png","../images/pnk_blu.png","../images/org_blu.png","../images/cyn_red.png"],"mutagen_generator_assignment":[1,0],"goal":4,"start":0,"action_noise":0.15,"location_history":"[0,1,3,4]","action_history":"[1,0,1]","mutagen_history":"[0,1,0]","location_rts":"[5446,3342,1102]","trial_type":"fractal-mutation","trial_index":54,"time_elapsed":963763,"internal_node_id":"0.0-5.0-0.0"},{"group":"hexagon_tri","fractal_assignment":["../images/ylw_slt.png","../images/gry_blk.png","../images/blu_wht.png","../images/pnk_blu.png","../images/org_blu.png","../images/cyn_red.png"],"mutagen_generator_assignment":[1,0],"goal":3,"start":4,"action_noise":0.15,"location_history":"[4,0,5,0,5,0,1,5,0,5,0,1,5,0,5,0,5,0,5,0,1,5,0,5,4,0,5,4,2,3]","action_history":"[0,0,0,0,1,1,1,1,0,1,1,1,1,1,1,1,1,1,1,1,1,0,0,0,0,0,0,1,1]","mutagen_history":"[1,1,1,1,0,0,0,0,1,0,0,0,0,0,0,0,0,0,0,0,0,1,1,1,1,1,1,0,0]","location_rts":"[1378,902,1539,579,547,808,538,521,553,883,557,535,475,579,468,444,424,772,349,376,560,465,448,326,354,534,455,772,831]","trial_type":"fractal-mutation","trial_index":55,"time_elapsed":1015252,"internal_node_id":"0.0-5.0-1.0"},{"group":"hexagon_tri","fractal_assignment":["../images/ylw_slt.png","../images/gry_blk.png","../images/blu_wht.png","../images/pnk_blu.png","../images/org_blu.png","../images/cyn_red.png"],"mutagen_generator_assignment":[1,0],"goal":5,"start":3,"action_noise":0.15,"location_history":"[3,2,3,4,2,1,3,2,3,2,1,3,4,2,1,3,2,1,3,2,1,5]","action_history":"[1,1,1,1,0,0,0,0,1,0,0,0,1,0,0,0,0,0,0,0,0]","mutagen_history":"[0,0,0,0,1,1,1,1,0,1,1,1,0,1,1,1,1,1,1,1,1]","location_rts":"[2079,549,701,434,466,390,440,600,838,788,331,451,1354,499,369,421,419,539,472,435,420]","trial_type":"fractal-mutation","trial_index":56,"time_elapsed":1053315,"internal_node_id":"0.0-5.0-2.0"},{"group":"hexagon_tri","fractal_assignment":["../images/ylw_slt.png","../images/gry_blk.png","../images/blu_wht.png","../images/pnk_blu.png","../images/org_blu.png","../images/cyn_red.png"],"mutagen_generator_assignment":[1,0],"goal":2,"start":5,"action_noise":0.15,"location_history":"[5,0,1,3,4,2]","action_history":"[1,1,1,1,0]","mutagen_history":"[0,0,0,0,1]","location_rts":"[988,421,426,379,487]","trial_type":"fractal-mutation","trial_index":57,"time_elapsed":1064649,"internal_node_id":"0.0-5.0-3.0"},{"group":"hexagon_tri","fractal_assignment":["../images/ylw_slt.png","../images/gry_blk.png","../images/blu_wht.png","../images/pnk_blu.png","../images/org_blu.png","../images/cyn_red.png"],"mutagen_generator_assignment":[1,0],"goal":1,"start":2,"action_noise":0.15,"location_history":"[2,3,4,0,5,4,0,5,0,1]","action_history":"[1,1,0,0,0,0,0,1,1]","mutagen_history":"[0,0,1,1,1,1,1,0,0]","location_rts":"[493,470,329,363,420,451,466,872,957]","trial_type":"fractal-mutation","trial_index":58,"time_elapsed":1082635,"internal_node_id":"0.0-5.0-4.0"},{"group":"hexagon_tri","fractal_assignment":["../images/ylw_slt.png","../images/gry_blk.png","../images/blu_wht.png","../images/pnk_blu.png","../images/org_blu.png","../images/cyn_red.png"],"mutagen_generator_assignment":[1,0],"goal":4,"start":1,"action_noise":0.15,"location_history":"[1,5,4]","action_history":"[1,0]","mutagen_history":"[0,1]","location_rts":"[959,778]","trial_type":"fractal-mutation","trial_index":59,"time_elapsed":1090014,"internal_node_id":"0.0-5.0-5.0"},{"group":"hexagon_tri","fractal_assignment":["../images/ylw_slt.png","../images/gry_blk.png","../images/blu_wht.png","../images/pnk_blu.png","../images/org_blu.png","../images/cyn_red.png"],"mutagen_generator_assignment":[1,0],"goal":1,"start":4,"action_noise":0.15,"location_history":"[4,2,1]","action_history":"[1,0]","mutagen_history":"[0,1]","location_rts":"[448,611]","trial_type":"fractal-mutation","trial_index":60,"time_elapsed":1096654,"internal_node_id":"0.0-5.0-6.0"},{"group":"hexagon_tri","fractal_assignment":["../images/ylw_slt.png","../images/gry_blk.png","../images/blu_wht.png","../images/pnk_blu.png","../images/org_blu.png","../images/cyn_red.png"],"mutagen_generator_assignment":[1,0],"goal":5,"start":1,"action_noise":0.15,"location_history":"[1,3,2,1,3,2,1,3,4,2,3,2,1,3,2,1,3,2,3,2,1,3,2,1,3,4,0,5]","action_history":"[1,0,0,1,0,0,0,1,0,1,0,0,0,0,0,0,0,1,0,1,0,0,0,0,1,0,0]","mutagen_history":"[0,1,1,0,1,1,1,0,1,0,1,1,1,1,1,1,1,0,1,0,1,1,1,1,0,1,1]","location_rts":"[440,496,385,718,504,1001,790,410,1159,654,1204,381,439,2587,3445,1791,798,523,1384,951,901,713,552,953,780,1195,416]","trial_type":"fractal-mutation","trial_index":61,"time_elapsed":1153458,"internal_node_id":"0.0-5.0-7.0"},{"group":"hexagon_tri","fractal_assignment":["../images/ylw_slt.png","../images/gry_blk.png","../images/blu_wht.png","../images/pnk_blu.png","../images/org_blu.png","../images/cyn_red.png"],"mutagen_generator_assignment":[1,0],"goal":0,"start":5,"action_noise":0.15,"location_history":"[5,0]","action_history":"[0]","mutagen_history":"[1]","location_rts":"[978]","trial_type":"fractal-mutation","trial_index":62,"time_elapsed":1158950,"internal_node_id":"0.0-5.0-8.0"},{"group":"hexagon_tri","fractal_assignment":["../images/ylw_slt.png","../images/gry_blk.png","../images/blu_wht.png","../images/pnk_blu.png","../images/org_blu.png","../images/cyn_red.png"],"mutagen_generator_assignment":[1,0],"goal":2,"start":0,"action_noise":0.15,"location_history":"[0,1,3,2]","action_history":"[1,0,0]","mutagen_history":"[0,1,1]","location_rts":"[2644,821,504]","trial_type":"fractal-mutation","trial_index":63,"time_elapsed":1169487,"internal_node_id":"0.0-5.0-9.0"},{"group":"hexagon_tri","fractal_assignment":["../images/ylw_slt.png","../images/gry_blk.png","../images/blu_wht.png","../images/pnk_blu.png","../images/org_blu.png","../images/cyn_red.png"],"mutagen_generator_assignment":[1,0],"goal":3,"start":2,"action_noise":0.15,"location_history":"[2,3]","action_history":"[0]","mutagen_history":"[1]","location_rts":"[695]","trial_type":"fractal-mutation","trial_index":64,"time_elapsed":1174761,"internal_node_id":"0.0-5.0-10.0"},{"group":"hexagon_tri","fractal_assignment":["../images/ylw_slt.png","../images/gry_blk.png","../images/blu_wht.png","../images/pnk_blu.png","../images/org_blu.png","../images/cyn_red.png"],"mutagen_generator_assignment":[1,0],"goal":0,"start":3,"action_noise":0.15,"location_history":"[3,2,3,2,3,2,3,4,0]","action_history":"[0,1,0,1,1,1,1,0]","mutagen_history":"[1,0,1,0,0,0,0,1]","location_rts":"[793,422,357,416,548,514,506,351]","trial_type":"fractal-mutation","trial_index":65,"time_elapsed":1190361,"internal_node_id":"0.0-5.0-11.0"},{"group":"hexagon_tri","fractal_assignment":["../images/ylw_slt.png","../images/gry_blk.png","../images/blu_wht.png","../images/pnk_blu.png","../images/org_blu.png","../images/cyn_red.png"],"mutagen_generator_assignment":[1,0],"goal":2,"start":0,"action_noise":0.15,"location_history":"[0,1,3,2]","action_history":"[1,0,0]","mutagen_history":"[0,1,1]","location_rts":"[1159,354,473]","trial_type":"fractal-mutation","trial_index":66,"time_elapsed":1198938,"internal_node_id":"0.0-5.0-12.0"},{"group":"hexagon_tri","fractal_assignment":["../images/ylw_slt.png","../images/gry_blk.png","../images/blu_wht.png","../images/pnk_blu.png","../images/org_blu.png","../images/cyn_red.png"],"mutagen_generator_assignment":[1,0],"goal":5,"start":2,"action_noise":0.15,"location_history":"[2,3,2,1,5]","action_history":"[0,0,1,1]","mutagen_history":"[1,1,0,0]","location_rts":"[700,666,366,597]","trial_type":"fractal-mutation","trial_index":67,"time_elapsed":1208828,"internal_node_id":"0.0-5.0-13.0"},{"group":"hexagon_tri","fractal_assignment":["../images/ylw_slt.png","../images/gry_blk.png","../images/blu_wht.png","../images/pnk_blu.png","../images/org_blu.png","../images/cyn_red.png"],"mutagen_generator_assignment":[1,0],"goal":4,"start":5,"action_noise":0.15,"location_history":"[5,4]","action_history":"[0]","mutagen_history":"[1]","location_rts":"[2341]","trial_type":"fractal-mutation","trial_index":68,"time_elapsed":1215737,"internal_node_id":"0.0-5.0-14.0"},{"group":"hexagon_tri","fractal_assignment":["../images/ylw_slt.png","../images/gry_blk.png","../images/blu_wht.png","../images/pnk_blu.png","../images/org_blu.png","../images/cyn_red.png"],"mutagen_generator_assignment":[1,0],"goal":3,"start":4,"action_noise":0.15,"location_history":"[4,2,1,3]","action_history":"[0,0,0]","mutagen_history":"[1,1,1]","location_rts":"[2570,574,515]","trial_type":"fractal-mutation","trial_index":69,"time_elapsed":1225950,"internal_node_id":"0.0-5.0-15.0"},{"group":"hexagon_tri","fractal_assignment":["../images/ylw_slt.png","../images/gry_blk.png","../images/blu_wht.png","../images/pnk_blu.png","../images/org_blu.png","../images/cyn_red.png"],"mutagen_generator_assignment":[1,0],"goal":1,"start":3,"action_noise":0.15,"location_history":"[3,2,3,4,0,5,0,1]","action_history":"[0,1,0,0,0,1,1]","mutagen_history":"[1,0,1,1,1,0,0]","location_rts":"[1112,1523,617,482,817,493,755]","trial_type":"fractal-mutation","trial_index":70,"time_elapsed":1242368,"internal_node_id":"0.0-5.0-16.0"},{"group":"hexagon_tri","fractal_assignment":["../images/ylw_slt.png","../images/gry_blk.png","../images/blu_wht.png","../images/pnk_blu.png","../images/org_blu.png","../images/cyn_red.png"],"mutagen_generator_assignment":[1,0],"goal":5,"start":1,"action_noise":0.15,"location_history":"[1,5]","action_history":"[1]","mutagen_history":"[0]","location_rts":"[1742]","trial_type":"fractal-mutation","trial_index":71,"time_elapsed":1248622,"internal_node_id":"0.0-5.0-17.0"},{"group":"hexagon_tri","fractal_assignment":["../images/ylw_slt.png","../images/gry_blk.png","../images/blu_wht.png","../images/pnk_blu.png","../images/org_blu.png","../images/cyn_red.png"],"mutagen_generator_assignment":[1,0],"goal":4,"start":5,"action_noise":0.15,"location_history":"[5,4]","action_history":"[0]","mutagen_history":"[1]","location_rts":"[799]","trial_type":"fractal-mutation","trial_index":72,"time_elapsed":1253939,"internal_node_id":"0.0-5.0-18.0"},{"group":"hexagon_tri","fractal_assignment":["../images/ylw_slt.png","../images/gry_blk.png","../images/blu_wht.png","../images/pnk_blu.png","../images/org_blu.png","../images/cyn_red.png"],"mutagen_generator_assignment":[1,0],"goal":0,"start":4,"action_noise":0.15,"location_history":"[4,2,1,3,4,2,3,4,0]","action_history":"[0,0,0,1,0,0,1,0]","mutagen_history":"[1,1,1,0,1,1,0,1]","location_rts":"[1284,484,523,444,698,407,660,571]","trial_type":"fractal-mutation","trial_index":73,"time_elapsed":1270713,"internal_node_id":"0.0-5.0-19.0"},{"group":"hexagon_tri","fractal_assignment":["../images/ylw_slt.png","../images/gry_blk.png","../images/blu_wht.png","../images/pnk_blu.png","../images/org_blu.png","../images/cyn_red.png"],"mutagen_generator_assignment":[1,0],"goal":1,"start":0,"action_noise":0.15,"location_history":"[0,5,0,1]","action_history":"[0,1,1]","mutagen_history":"[1,0,0]","location_rts":"[1726,453,587]","trial_type":"fractal-mutation","trial_index":74,"time_elapsed":1280046,"internal_node_id":"0.0-5.0-20.0"},{"group":"hexagon_tri","fractal_assignment":["../images/ylw_slt.png","../images/gry_blk.png","../images/blu_wht.png","../images/pnk_blu.png","../images/org_blu.png","../images/cyn_red.png"],"mutagen_generator_assignment":[1,0],"goal":3,"start":1,"action_noise":0.15,"location_history":"[1,3]","action_history":"[0]","mutagen_history":"[1]","location_rts":"[991]","trial_type":"fractal-mutation","trial_index":75,"time_elapsed":1285566,"internal_node_id":"0.0-5.0-21.0"},{"group":"hexagon_tri","fractal_assignment":["../images/ylw_slt.png","../images/gry_blk.png","../images/blu_wht.png","../images/pnk_blu.png","../images/org_blu.png","../images/cyn_red.png"],"mutagen_generator_assignment":[1,0],"goal":2,"start":3,"action_noise":0.15,"location_history":"[3,2]","action_history":"[0]","mutagen_history":"[1]","location_rts":"[817]","trial_type":"fractal-mutation","trial_index":76,"time_elapsed":1290902,"internal_node_id":"0.0-5.0-22.0"},{"group":"hexagon_tri","fractal_assignment":["../images/ylw_slt.png","../images/gry_blk.png","../images/blu_wht.png","../images/pnk_blu.png","../images/org_blu.png","../images/cyn_red.png"],"mutagen_generator_assignment":[1,0],"goal":0,"start":2,"action_noise":0.15,"location_history":"[2,1,5,0]","action_history":"[0,1,1]","mutagen_history":"[1,0,0]","location_rts":"[663,383,450]","trial_type":"fractal-mutation","trial_index":77,"time_elapsed":1298938,"internal_node_id":"0.0-5.0-23.0"},{"group":"hexagon_tri","fractal_assignment":["../images/ylw_slt.png","../images/gry_blk.png","../images/blu_wht.png","../images/pnk_blu.png","../images/org_blu.png","../images/cyn_red.png"],"mutagen_generator_assignment":[1,0],"goal":3,"start":0,"action_noise":0.15,"location_history":"[0,5,0,1,5,4,0,5,4,2,3]","action_history":"[0,0,1,1,1,0,0,0,1,1]","mutagen_history":"[1,1,0,0,0,1,1,1,0,0]","location_rts":"[541,481,368,406,593,485,501,595,752,980]","trial_type":"fractal-mutation","trial_index":78,"time_elapsed":1318260,"internal_node_id":"0.0-5.0-24.0"},{"group":"hexagon_tri","fractal_assignment":["../images/ylw_slt.png","../images/gry_blk.png","../images/blu_wht.png","../images/pnk_blu.png","../images/org_blu.png","../images/cyn_red.png"],"mutagen_generator_assignment":[1,0],"goal":1,"start":3,"action_noise":0.15,"location_history":"[3,2,3,4,0,5,4,2,3,2,3,4,0,5,0,1]","action_history":"[0,1,0,0,0,0,1,1,0,0,1,0,0,1,1]","mutagen_history":"[1,0,1,1,1,1,0,0,1,1,0,1,1,0,0]","location_rts":"[301,441,468,447,771,524,857,494,518,591,462,407,430,449,327]","trial_type":"fractal-mutation","trial_index":79,"time_elapsed":1344483,"internal_node_id":"0.0-5.0-25.0"},{"group":"hexagon_tri","fractal_assignment":["../images/ylw_slt.png","../images/gry_blk.png","../images/blu_wht.png","../images/pnk_blu.png","../images/org_blu.png","../images/cyn_red.png"],"mutagen_generator_assignment":[1,0],"goal":2,"start":1,"action_noise":0.15,"location_history":"[1,3,4,0,5,4,0,5,4,0,1,5,4,0,5,0,5,4,0,1,5,4,2]","action_history":"[0,1,0,0,0,0,0,0,0,1,0,0,0,1,1,0,0,0,1,1,0,1]","mutagen_history":"[1,0,1,1,1,1,1,1,1,0,1,1,1,0,0,1,1,1,0,0,1,0]","location_rts":"[524,587,420,547,583,570,603,642,822,577,1142,534,533,435,446,475,482,452,397,368,470,819]","trial_type":"fractal-mutation","trial_index":80,"time_elapsed":1382777,"internal_node_id":"0.0-5.0-26.0"},{"group":"hexagon_tri","fractal_assignment":["../images/ylw_slt.png","../images/gry_blk.png","../images/blu_wht.png","../images/pnk_blu.png","../images/org_blu.png","../images/cyn_red.png"],"mutagen_generator_assignment":[1,0],"goal":5,"start":2,"action_noise":0.15,"location_history":"[2,3,2,1,5]","action_history":"[1,0,0,1]","mutagen_history":"[0,1,1,0]","location_rts":"[625,401,511,784]","trial_type":"fractal-mutation","trial_index":81,"time_elapsed":1392640,"internal_node_id":"0.0-5.0-27.0"},{"group":"hexagon_tri","fractal_assignment":["../images/ylw_slt.png","../images/gry_blk.png","../images/blu_wht.png","../images/pnk_blu.png","../images/org_blu.png","../images/cyn_red.png"],"mutagen_generator_assignment":[1,0],"goal":4,"start":5,"action_noise":0.15,"location_history":"[5,0,5,0,1,3,2,3,2,3,2,1,3,4]","action_history":"[1,0,1,1,0,1,1,1,1,0,0,0,1]","mutagen_history":"[0,1,0,0,1,0,0,0,0,1,1,1,0]","location_rts":"[1349,588,998,510,1082,814,439,586,501,504,408,457,758]","trial_type":"fractal-mutation","trial_index":82,"time_elapsed":1418250,"internal_node_id":"0.0-5.0-28.0"},{"group":"hexagon_tri","fractal_assignment":["../images/ylw_slt.png","../images/gry_blk.png","../images/blu_wht.png","../images/pnk_blu.png","../images/org_blu.png","../images/cyn_red.png"],"mutagen_generator_assignment":[1,0],"goal":5,"start":4,"action_noise":0.15,"location_history":"[4,0,1,3,2,1,3,2,3,4,2,1,3,2,1,5]","action_history":"[0,1,0,0,1,1,0,0,1,1,0,0,0,0,1]","mutagen_history":"[1,0,1,1,0,0,1,1,0,0,1,1,1,1,0]","location_rts":"[1017,825,508,493,654,697,544,810,657,996,498,684,568,502,583]","trial_type":"fractal-mutation","trial_index":83,"time_elapsed":1446964,"internal_node_id":"0.0-5.0-29.0"},{"group":"hexagon_tri","fractal_assignment":["../images/ylw_slt.png","../images/gry_blk.png","../images/blu_wht.png","../images/pnk_blu.png","../images/org_blu.png","../images/cyn_red.png"],"mutagen_generator_assignment":[1,0],"goal":3,"start":5,"action_noise":0.15,"location_history":"[5,4,0,5,4,2,3]","action_history":"[0,0,0,0,1,1]","mutagen_history":"[1,1,1,1,0,0]","location_rts":"[796,476,511,810,727,594]","trial_type":"fractal-mutation","trial_index":84,"time_elapsed":1460602,"internal_node_id":"0.0-5.0-30.0"},{"group":"hexagon_tri","fractal_assignment":["../images/ylw_slt.png","../images/gry_blk.png","../images/blu_wht.png","../images/pnk_blu.png","../images/org_blu.png","../images/cyn_red.png"],"mutagen_generator_assignment":[1,0],"goal":0,"start":3,"action_noise":0.15,"location_history":"[3,4,0]","action_history":"[1,0]","mutagen_history":"[0,1]","location_rts":"[588,477]","trial_type":"fractal-mutation","trial_index":85,"time_elapsed":1467186,"internal_node_id":"0.0-5.0-31.0"},{"group":"hexagon_tri","fractal_assignment":["../images/ylw_slt.png","../images/gry_blk.png","../images/blu_wht.png","../images/pnk_blu.png","../images/org_blu.png","../images/cyn_red.png"],"mutagen_generator_assignment":[1,0],"goal":4,"start":0,"action_noise":0.15,"location_history":"[0,1,5,0,5,4]","action_history":"[1,1,0,0,0]","mutagen_history":"[0,0,1,1,1]","location_rts":"[596,539,536,703,753]","trial_type":"fractal-mutation","trial_index":86,"time_elapsed":1478890,"internal_node_id":"0.0-5.0-32.0"},{"group":"hexagon_tri","fractal_assignment":["../images/ylw_slt.png","../images/gry_blk.png","../images/blu_wht.png","../images/pnk_blu.png","../images/org_blu.png","../images/cyn_red.png"],"mutagen_generator_assignment":[1,0],"goal":1,"start":4,"action_noise":0.15,"location_history":"[4,2,3,2,1]","action_history":"[1,1,0,0]","mutagen_history":"[0,0,1,1]","location_rts":"[546,538,460,417]","trial_type":"fractal-mutation","trial_index":87,"time_elapsed":1488393,"internal_node_id":"0.0-5.0-33.0"},{"group":"hexagon_tri","fractal_assignment":["../images/ylw_slt.png","../images/gry_blk.png","../images/blu_wht.png","../images/pnk_blu.png","../images/org_blu.png","../images/cyn_red.png"],"mutagen_generator_assignment":[1,0],"goal":2,"start":1,"action_noise":0.15,"location_history":"[1,5,4,2]","action_history":"[0,0,1]","mutagen_history":"[1,1,0]","location_rts":"[712,470,552]","trial_type":"fractal-mutation","trial_index":88,"time_elapsed":1496664,"internal_node_id":"0.0-5.0-34.0"},{"group":"hexagon_tri","fractal_assignment":["../images/ylw_slt.png","../images/gry_blk.png","../images/blu_wht.png","../images/pnk_blu.png","../images/org_blu.png","../images/cyn_red.png"],"mutagen_generator_assignment":[1,0],"goal":0,"start":2,"action_noise":0.15,"location_history":"[2,1,3,4,0]","action_history":"[0,1,1,0]","mutagen_history":"[1,0,0,1]","location_rts":"[495,633,573,557]","trial_type":"fractal-mutation","trial_index":89,"time_elapsed":1506479,"internal_node_id":"0.0-5.0-35.0"},{"group":"hexagon_tri","fractal_assignment":["../images/ylw_slt.png","../images/gry_blk.png","../images/blu_wht.png","../images/pnk_blu.png","../images/org_blu.png","../images/cyn_red.png"],"mutagen_generator_assignment":[1,0],"goal":5,"start":0,"action_noise":0.15,"location_history":"[0,1,5]","action_history":"[1,0]","mutagen_history":"[0,1]","location_rts":"[1366,388]","trial_type":"fractal-mutation","trial_index":90,"time_elapsed":1513756,"internal_node_id":"0.0-5.0-36.0"},{"group":"hexagon_tri","fractal_assignment":["../images/ylw_slt.png","../images/gry_blk.png","../images/blu_wht.png","../images/pnk_blu.png","../images/org_blu.png","../images/cyn_red.png"],"mutagen_generator_assignment":[1,0],"goal":2,"start":5,"action_noise":0.15,"location_history":"[5,4,2]","action_history":"[0,1]","mutagen_history":"[1,0]","location_rts":"[465,628]","trial_type":"fractal-mutation","trial_index":91,"time_elapsed":1520361,"internal_node_id":"0.0-5.0-37.0"},{"group":"hexagon_tri","fractal_assignment":["../images/ylw_slt.png","../images/gry_blk.png","../images/blu_wht.png","../images/pnk_blu.png","../images/org_blu.png","../images/cyn_red.png"],"mutagen_generator_assignment":[1,0],"goal":1,"start":2,"action_noise":0.15,"location_history":"[2,1]","action_history":"[0]","mutagen_history":"[1]","location_rts":"[573]","trial_type":"fractal-mutation","trial_index":92,"time_elapsed":1525463,"internal_node_id":"0.0-5.0-38.0"},{"group":"hexagon_tri","fractal_assignment":["../images/ylw_slt.png","../images/gry_blk.png","../images/blu_wht.png","../images/pnk_blu.png","../images/org_blu.png","../images/cyn_red.png"],"mutagen_generator_assignment":[1,0],"goal":4,"start":1,"action_noise":0.15,"location_history":"[1,3,4]","action_history":"[0,1]","mutagen_history":"[1,0]","location_rts":"[395,372]","trial_type":"fractal-mutation","trial_index":93,"time_elapsed":1531761,"internal_node_id":"0.0-5.0-39.0"},{"group":"hexagon_tri","fractal_assignment":["../images/ylw_slt.png","../images/gry_blk.png","../images/blu_wht.png","../images/pnk_blu.png","../images/org_blu.png","../images/cyn_red.png"],"mutagen_generator_assignment":[1,0],"goal":3,"start":4,"action_noise":0.15,"location_history":"[4,0,1,3]","action_history":"[0,1,0]","mutagen_history":"[1,0,1]","location_rts":"[446,404,526]","trial_type":"fractal-mutation","trial_index":94,"time_elapsed":1539748,"internal_node_id":"0.0-5.0-40.0"},{"group":"hexagon_tri","fractal_assignment":["../images/ylw_slt.png","../images/gry_blk.png","../images/blu_wht.png","../images/pnk_blu.png","../images/org_blu.png","../images/cyn_red.png"],"mutagen_generator_assignment":[1,0],"goal":5,"start":3,"action_noise":0.15,"location_history":"[3,2,3,4,0,1,5]","action_history":"[0,1,0,0,0,0]","mutagen_history":"[1,0,1,1,1,1]","location_rts":"[356,491,403,704,436,528]","trial_type":"fractal-mutation","trial_index":95,"time_elapsed":1552274,"internal_node_id":"0.0-5.0-41.0"},{"group":"hexagon_tri","fractal_assignment":["../images/ylw_slt.png","../images/gry_blk.png","../images/blu_wht.png","../images/pnk_blu.png","../images/org_blu.png","../images/cyn_red.png"],"mutagen_generator_assignment":[1,0],"goal":3,"start":5,"action_noise":0.15,"location_history":"[5,0,5,4,0,5,4,0,5,4,0,5,4,0,5,4,0,5,0,5,4,0,1,3]","action_history":"[1,0,0,0,0,0,0,0,0,0,0,1,0,0,0,0,0,1,0,0,0,1,0]","mutagen_history":"[0,1,1,1,1,1,1,1,1,1,1,0,1,1,1,1,1,0,1,1,1,0,1]","location_rts":"[435,452,427,432,460,461,506,546,573,534,664,700,439,401,479,442,560,362,398,366,340,299,505]","trial_type":"fractal-mutation","trial_index":96,"time_elapsed":1589922,"internal_node_id":"0.0-5.0-42.0"},{"group":"hexagon_tri","fractal_assignment":["../images/ylw_slt.png","../images/gry_blk.png","../images/blu_wht.png","../images/pnk_blu.png","../images/org_blu.png","../images/cyn_red.png"],"mutagen_generator_assignment":[1,0],"goal":0,"start":3,"action_noise":0.15,"location_history":"[3,4,0]","action_history":"[1,0]","mutagen_history":"[0,1]","location_rts":"[1387,618]","trial_type":"fractal-mutation","trial_index":97,"time_elapsed":1597452,"internal_node_id":"0.0-5.0-43.0"},{"group":"hexagon_tri","fractal_assignment":["../images/ylw_slt.png","../images/gry_blk.png","../images/blu_wht.png","../images/pnk_blu.png","../images/org_blu.png","../images/cyn_red.png"],"mutagen_generator_assignment":[1,0],"goal":2,"start":0,"action_noise":0.15,"location_history":"[0,5,0,5,4,0,5,0,5,4,0,1,5,4,0,5,4,2]","action_history":"[0,1,0,0,0,0,1,0,0,0,0,1,0,0,0,0,1]","mutagen_history":"[1,0,1,1,1,1,0,1,1,1,1,0,1,1,1,1,0]","location_rts":"[908,727,461,414,462,539,567,715,352,399,393,866,525,370,835,701,958]","trial_type":"fractal-mutation","trial_index":98,"time_elapsed":1628411,"internal_node_id":"0.0-5.0-44.0"},{"group":"hexagon_tri","fractal_assignment":["../images/ylw_slt.png","../images/gry_blk.png","../images/blu_wht.png","../images/pnk_blu.png","../images/org_blu.png","../images/cyn_red.png"],"mutagen_generator_assignment":[1,0],"goal":4,"start":2,"action_noise":0.15,"location_history":"[2,1,3,2,3,2,1,3,4]","action_history":"[1,0,0,1,1,0,0,0]","mutagen_history":"[0,1,1,0,0,1,1,1]","location_rts":"[842,597,532,654,513,743,369,431]","trial_type":"fractal-mutation","trial_index":99,"time_elapsed":1644699,"internal_node_id":"0.0-5.0-45.0"},{"group":"hexagon_tri","fractal_assignment":["../images/ylw_slt.png","../images/gry_blk.png","../images/blu_wht.png","../images/pnk_blu.png","../images/org_blu.png","../images/cyn_red.png"],"mutagen_generator_assignment":[1,0],"goal":1,"start":4,"action_noise":0.15,"location_history":"[4,2,1]","action_history":"[1,0]","mutagen_history":"[0,1]","location_rts":"[766,742]","trial_type":"fractal-mutation","trial_index":100,"time_elapsed":1651727,"internal_node_id":"0.0-5.0-46.0"},{"group":"hexagon_tri","fractal_assignment":["../images/ylw_slt.png","../images/gry_blk.png","../images/blu_wht.png","../images/pnk_blu.png","../images/org_blu.png","../images/cyn_red.png"],"mutagen_generator_assignment":[1,0],"goal":4,"start":1,"action_noise":0.15,"location_history":"[1,3,4]","action_history":"[0,1]","mutagen_history":"[1,0]","location_rts":"[575,568]","trial_type":"fractal-mutation","trial_index":101,"time_elapsed":1658397,"internal_node_id":"0.0-5.0-47.0"},{"group":"hexagon_tri","fractal_assignment":["../images/ylw_slt.png","../images/gry_blk.png","../images/blu_wht.png","../images/pnk_blu.png","../images/org_blu.png","../images/cyn_red.png"],"mutagen_generator_assignment":[1,0],"goal":3,"start":4,"action_noise":0.15,"location_history":"[4,0,5,4,0,5,4,2,1,3]","action_history":"[0,0,0,0,0,1,0,0,0]","mutagen_history":"[1,1,1,1,1,0,1,1,1]","location_rts":"[688,584,669,609,639,855,1562,637,726]","trial_type":"fractal-mutation","trial_index":102,"time_elapsed":1678000,"internal_node_id":"0.0-5.0-48.0"},{"group":"hexagon_tri","fractal_assignment":["../images/ylw_slt.png","../images/gry_blk.png","../images/blu_wht.png","../images/pnk_blu.png","../images/org_blu.png","../images/cyn_red.png"],"mutagen_generator_assignment":[1,0],"goal":5,"start":3,"action_noise":0.15,"location_history":"[3,4,0,1,5]","action_history":"[1,0,0,1]","mutagen_history":"[0,1,1,0]","location_rts":"[1056,915,906,510]","trial_type":"fractal-mutation","trial_index":103,"time_elapsed":1688932,"internal_node_id":"0.0-5.0-49.0"},{"view_history":"[{\"page_index\":0,\"viewing_time\":9795}]","rt":9796,"trial_type":"instructions","trial_index":104,"time_elapsed":1699728,"internal_node_id":"0.0-6.0"},{"rt":42373,"responses":"{\"Q0\":\"I don't have the strongest memory but I did my best.  The second task was interesting in that, opposed to having memorized the patterns, I think I began to know them on a more subconscious level?\"}","trial_type":"survey-text","trial_index":105,"time_elapsed":1743110,"internal_node_id":"0.0-7.0"}]