[{"view_history":"[{\"page_index\":0,\"viewing_time\":6438},{\"page_index\":1,\"viewing_time\":12420},{\"page_index\":2,\"viewing_time\":22236},{\"page_index\":3,\"viewing_time\":7212}]","rt":48308,"trial_type":"instructions","trial_index":0,"time_elapsed":48308,"internal_node_id":"0.0-0.0"},{"view_history":"[{\"page_index\":0,\"viewing_time\":6506},{\"page_index\":1,\"viewing_time\":38560}]","rt":45066,"trial_type":"instructions","trial_index":1,"time_elapsed":94386,"internal_node_id":"0.0-1.0"},{"group":"hexagon_bi","room_assignment":["purple","green","grey","yellow","blue","red"],"door_color_assignment":["black","white"],"door_generator_assignment":[1,0],"goal":4,"start":0,"action_noise":0.15,"location_history":"[0,5,4]","action_history":"[0,1]","door_history":"[1,0]","location_rts":"[2972,1908]","trial_type":"two-door-navigation","trial_index":2,"time_elapsed":105044,"internal_node_id":"0.0-2.0-0.0"},{"group":"hexagon_bi","room_assignment":["purple","green","grey","yellow","blue","red"],"door_color_assignment":["black","white"],"door_generator_assignment":[1,0],"goal":3,"start":4,"action_noise":0.15,"location_history":"[4,3]","action_history":"[0]","door_history":"[1]","location_rts":"[1522]","trial_type":"two-door-navigation","trial_index":3,"time_elapsed":111224,"internal_node_id":"0.0-2.0-1.0"},{"group":"hexagon_bi","room_assignment":["purple","green","grey","yellow","blue","red"],"door_color_assignment":["black","white"],"door_generator_assignment":[1,0],"goal":5,"start":3,"action_noise":0.15,"location_history":"[3,4,5]","action_history":"[0,1]","door_history":"[1,0]","location_rts":"[2180,958]","trial_type":"two-door-navigation","trial_index":4,"time_elapsed":120170,"internal_node_id":"0.0-2.0-2.0"},{"group":"hexagon_bi","room_assignment":["purple","green","grey","yellow","blue","red"],"door_color_assignment":["black","white"],"door_generator_assignment":[1,0],"goal":2,"start":5,"action_noise":0.15,"location_history":"[5,0,5,4,5,4,3,4,5,0,5,0,5,0,1,2]","action_history":"[0,0,1,1,1,0,0,1,0,0,0,1,1,0,0]","door_history":"[1,1,0,0,0,1,1,0,1,1,1,0,0,1,1]","location_rts":"[1620,940,1044,660,876,472,750,768,356,1630,1210,666,896,832,1038]","trial_type":"two-door-navigation","trial_index":5,"time_elapsed":154318,"internal_node_id":"0.0-2.0-3.0"},{"group":"hexagon_bi","room_assignment":["purple","green","grey","yellow","blue","red"],"door_color_assignment":["black","white"],"door_generator_assignment":[1,0],"goal":1,"start":2,"action_noise":0.15,"location_history":"[2,1]","action_history":"[0]","door_history":"[1]","location_rts":"[1708]","trial_type":"two-door-navigation","trial_index":6,"time_elapsed":160698,"internal_node_id":"0.0-2.0-4.0"},{"group":"hexagon_bi","room_assignment":["purple","green","grey","yellow","blue","red"],"door_color_assignment":["black","white"],"door_generator_assignment":[1,0],"goal":4,"start":1,"action_noise":0.15,"location_history":"[1,0,1,2,1,0,1,0,1,2,1,0,1,0,5,0,5,4]","action_history":"[1,1,0,0,1,1,0,1,0,0,1,1,1,0,0,0,1]","door_history":"[0,0,1,1,0,0,1,0,1,1,0,0,0,1,1,1,0]","location_rts":"[1212,558,820,1400,662,436,316,918,518,912,462,442,506,356,362,1080,400]","trial_type":"two-door-navigation","trial_index":7,"time_elapsed":194852,"internal_node_id":"0.0-2.0-5.0"},{"group":"hexagon_bi","room_assignment":["purple","green","grey","yellow","blue","red"],"door_color_assignment":["black","white"],"door_generator_assignment":[1,0],"goal":1,"start":4,"action_noise":0.15,"location_history":"[4,5,0,5,4,5,0,5,4,3,2,1]","action_history":"[1,0,0,1,1,0,0,1,0,1,0]","door_history":"[0,1,1,0,0,1,1,0,1,0,1]","location_rts":"[1364,582,418,460,440,1542,564,936,728,1310,590]","trial_type":"two-door-navigation","trial_index":8,"time_elapsed":219732,"internal_node_id":"0.0-2.0-6.0"},{"group":"hexagon_bi","room_assignment":["purple","green","grey","yellow","blue","red"],"door_color_assignment":["black","white"],"door_generator_assignment":[1,0],"goal":5,"start":1,"action_noise":0.15,"location_history":"[1,0,1,2,3,2,3,4,5]","action_history":"[1,1,0,1,1,1,0,1]","door_history":"[0,0,1,0,0,0,1,0]","location_rts":"[972,646,880,600,436,1338,324,838]","trial_type":"two-door-navigation","trial_index":9,"time_elapsed":238232,"internal_node_id":"0.0-2.0-7.0"},{"group":"hexagon_bi","room_assignment":["purple","green","grey","yellow","blue","red"],"door_color_assignment":["black","white"],"door_generator_assignment":[1,0],"goal":0,"start":5,"action_noise":0.15,"location_history":"[5,0]","action_history":"[0]","door_history":"[1]","location_rts":"[1220]","trial_type":"two-door-navigation","trial_index":10,"time_elapsed":244102,"internal_node_id":"0.0-2.0-8.0"},{"group":"hexagon_bi","room_assignment":["purple","green","grey","yellow","blue","red"],"door_color_assignment":["black","white"],"door_generator_assignment":[1,0],"goal":2,"start":0,"action_noise":0.15,"location_history":"[0,5,0,1,0,5,4,5,4,3,2]","action_history":"[0,0,1,1,0,1,1,0,0,1]","door_history":"[1,1,0,0,1,0,0,1,1,0]","location_rts":"[1690,978,478,714,436,400,1200,644,608,940]","trial_type":"two-door-navigation","trial_index":11,"time_elapsed":266940,"internal_node_id":"0.0-2.0-9.0"},{"group":"hexagon_bi","room_assignment":["purple","green","grey","yellow","blue","red"],"door_color_assignment":["black","white"],"door_generator_assignment":[1,0],"goal":3,"start":2,"action_noise":0.15,"location_history":"[2,3]","action_history":"[0]","door_history":"[1]","location_rts":"[1608]","trial_type":"two-door-navigation","trial_index":12,"time_elapsed":273212,"internal_node_id":"0.0-2.0-10.0"},{"group":"hexagon_bi","room_assignment":["purple","green","grey","yellow","blue","red"],"door_color_assignment":["black","white"],"door_generator_assignment":[1,0],"goal":0,"start":3,"action_noise":0.15,"location_history":"[3,2,3,4,3,2,3,2,1,2,1,0]","action_history":"[1,1,0,0,1,1,1,0,0,0,1]","door_history":"[0,0,1,1,0,0,0,1,1,1,0]","location_rts":"[14136,468,400,524,460,476,946,398,514,1150,354]","trial_type":"two-door-navigation","trial_index":13,"time_elapsed":308950,"internal_node_id":"0.0-2.0-11.0"},{"group":"hexagon_bi","room_assignment":["purple","green","grey","yellow","blue","red"],"door_color_assignment":["black","white"],"door_generator_assignment":[1,0],"goal":2,"start":0,"action_noise":0.15,"location_history":"[0,5,0,1,0,1,0,1,2]","action_history":"[0,0,1,0,1,1,1,0]","door_history":"[1,1,0,1,0,0,0,1]","location_rts":"[1414,1554,718,1070,532,510,816,744]","trial_type":"two-door-navigation","trial_index":14,"time_elapsed":328876,"internal_node_id":"0.0-2.0-12.0"},{"group":"hexagon_bi","room_assignment":["purple","green","grey","yellow","blue","red"],"door_color_assignment":["black","white"],"door_generator_assignment":[1,0],"goal":5,"start":2,"action_noise":0.15,"location_history":"[2,3,4,5]","action_history":"[1,0,1]","door_history":"[0,1,0]","location_rts":"[4982,942,524]","trial_type":"two-door-navigation","trial_index":15,"time_elapsed":342222,"internal_node_id":"0.0-2.0-13.0"},{"group":"hexagon_bi","room_assignment":["purple","green","grey","yellow","blue","red"],"door_color_assignment":["black","white"],"door_generator_assignment":[1,0],"goal":4,"start":5,"action_noise":0.15,"location_history":"[5,4]","action_history":"[1]","door_history":"[0]","location_rts":"[1230]","trial_type":"two-door-navigation","trial_index":16,"time_elapsed":348100,"internal_node_id":"0.0-2.0-14.0"},{"group":"hexagon_bi","room_assignment":["purple","green","grey","yellow","blue","red"],"door_color_assignment":["black","white"],"door_generator_assignment":[1,0],"goal":3,"start":4,"action_noise":0.15,"location_history":"[4,3]","action_history":"[0]","door_history":"[1]","location_rts":"[1396]","trial_type":"two-door-navigation","trial_index":17,"time_elapsed":354150,"internal_node_id":"0.0-2.0-15.0"},{"group":"hexagon_bi","room_assignment":["purple","green","grey","yellow","blue","red"],"door_color_assignment":["black","white"],"door_generator_assignment":[1,0],"goal":1,"start":3,"action_noise":0.15,"location_history":"[3,2,3,4,3,4,3,4,5,0,1]","action_history":"[1,1,0,1,0,0,1,1,0,1]","door_history":"[0,0,1,0,1,1,0,0,1,0]","location_rts":"[4226,484,772,546,1046,570,614,496,522,768]","trial_type":"two-door-navigation","trial_index":18,"time_elapsed":378994,"internal_node_id":"0.0-2.0-16.0"},{"group":"hexagon_bi","room_assignment":["purple","green","grey","yellow","blue","red"],"door_color_assignment":["black","white"],"door_generator_assignment":[1,0],"goal":5,"start":1,"action_noise":0.15,"location_history":"[1,2,3,2,1,0,5]","action_history":"[0,1,1,0,1,1]","door_history":"[1,0,0,1,0,0]","location_rts":"[9098,392,396,674,456,546]","trial_type":"two-door-navigation","trial_index":19,"time_elapsed":400826,"internal_node_id":"0.0-2.0-17.0"},{"group":"hexagon_bi","room_assignment":["purple","green","grey","yellow","blue","red"],"door_color_assignment":["black","white"],"door_generator_assignment":[1,0],"goal":4,"start":5,"action_noise":0.15,"location_history":"[5,4]","action_history":"[1]","door_history":"[0]","location_rts":"[1194]","trial_type":"two-door-navigation","trial_index":20,"time_elapsed":406674,"internal_node_id":"0.0-2.0-18.0"},{"group":"hexagon_bi","room_assignment":["purple","green","grey","yellow","blue","red"],"door_color_assignment":["black","white"],"door_generator_assignment":[1,0],"goal":0,"start":4,"action_noise":0.15,"location_history":"[4,3,4,5,0]","action_history":"[0,1,1,0]","door_history":"[1,0,0,1]","location_rts":"[1274,874,530,676]","trial_type":"two-door-navigation","trial_index":21,"time_elapsed":418050,"internal_node_id":"0.0-2.0-19.0"},{"group":"hexagon_bi","room_assignment":["purple","green","grey","yellow","blue","red"],"door_color_assignment":["black","white"],"door_generator_assignment":[1,0],"goal":1,"start":0,"action_noise":0.15,"location_history":"[0,5,4,5,0,1]","action_history":"[0,1,1,0,1]","door_history":"[1,0,0,1,0]","location_rts":"[1712,580,424,326,1654]","trial_type":"two-door-navigation","trial_index":22,"time_elapsed":431908,"internal_node_id":"0.0-2.0-20.0"},{"group":"hexagon_bi","room_assignment":["purple","green","grey","yellow","blue","red"],"door_color_assignment":["black","white"],"door_generator_assignment":[1,0],"goal":3,"start":1,"action_noise":0.15,"location_history":"[1,2,3]","action_history":"[0,1]","door_history":"[1,0]","location_rts":"[1792,754]","trial_type":"two-door-navigation","trial_index":23,"time_elapsed":440238,"internal_node_id":"0.0-2.0-21.0"},{"group":"hexagon_bi","room_assignment":["purple","green","grey","yellow","blue","red"],"door_color_assignment":["black","white"],"door_generator_assignment":[1,0],"goal":2,"start":3,"action_noise":0.15,"location_history":"[3,4,5,4,5,0,1,2]","action_history":"[0,1,0,0,0,1,0]","door_history":"[1,0,1,1,1,0,1]","location_rts":"[1410,788,302,640,1142,556,1130]","trial_type":"two-door-navigation","trial_index":24,"time_elapsed":457642,"internal_node_id":"0.0-2.0-22.0"},{"group":"hexagon_bi","room_assignment":["purple","green","grey","yellow","blue","red"],"door_color_assignment":["black","white"],"door_generator_assignment":[1,0],"goal":0,"start":2,"action_noise":0.15,"location_history":"[2,3,4,3,4,3,2,3,2,3,2,1,0]","action_history":"[1,1,0,0,0,1,1,0,1,1,0,1]","door_history":"[0,0,1,1,1,0,0,1,0,0,1,0]","location_rts":"[2092,902,614,1080,1000,578,910,632,400,496,1456,1310]","trial_type":"two-door-navigation","trial_index":25,"time_elapsed":486136,"internal_node_id":"0.0-2.0-23.0"},{"group":"hexagon_bi","room_assignment":["purple","green","grey","yellow","blue","red"],"door_color_assignment":["black","white"],"door_generator_assignment":[1,0],"goal":3,"start":0,"action_noise":0.15,"location_history":"[0,5,0,1,0,5,0,5,0,1,2,3]","action_history":"[0,0,1,0,1,0,0,1,1,0,1]","door_history":"[1,1,0,1,0,1,1,0,0,1,0]","location_rts":"[4204,1126,480,1000,792,1086,5618,506,1452,496,1114]","trial_type":"two-door-navigation","trial_index":26,"time_elapsed":519932,"internal_node_id":"0.0-2.0-24.0"},{"group":"hexagon_bi","room_assignment":["purple","green","grey","yellow","blue","red"],"door_color_assignment":["black","white"],"door_generator_assignment":[1,0],"goal":1,"start":3,"action_noise":0.15,"location_history":"[3,4,5,4,3,4,3,2,1]","action_history":"[0,1,1,0,1,0,1,0]","door_history":"[1,0,0,1,0,1,0,1]","location_rts":"[1234,618,622,612,852,882,2250,844]","trial_type":"two-door-navigation","trial_index":27,"time_elapsed":540406,"internal_node_id":"0.0-2.0-25.0"},{"group":"hexagon_bi","room_assignment":["purple","green","grey","yellow","blue","red"],"door_color_assignment":["black","white"],"door_generator_assignment":[1,0],"goal":2,"start":1,"action_noise":0.15,"location_history":"[1,2]","action_history":"[0]","door_history":"[1]","location_rts":"[1432]","trial_type":"two-door-navigation","trial_index":28,"time_elapsed":546510,"internal_node_id":"0.0-2.0-26.0"},{"group":"hexagon_bi","room_assignment":["purple","green","grey","yellow","blue","red"],"door_color_assignment":["black","white"],"door_generator_assignment":[1,0],"goal":5,"start":2,"action_noise":0.15,"location_history":"[2,3,4,5]","action_history":"[1,0,1]","door_history":"[0,1,0]","location_rts":"[1200,950,504]","trial_type":"two-door-navigation","trial_index":29,"time_elapsed":556062,"internal_node_id":"0.0-2.0-27.0"},{"group":"hexagon_bi","room_assignment":["purple","green","grey","yellow","blue","red"],"door_color_assignment":["black","white"],"door_generator_assignment":[1,0],"goal":4,"start":5,"action_noise":0.15,"location_history":"[5,0,5,0,1,2,3,2,1,2,1,0,1,2,3,2,3,4]","action_history":"[1,1,1,1,0,1,1,0,1,0,1,1,0,1,1,1,0]","door_history":"[0,0,0,0,1,0,0,1,0,1,0,0,1,0,0,0,1]","location_rts":"[1162,1314,1224,810,1204,574,494,440,390,39946,666,472,1002,862,520,1032,404]","trial_type":"two-door-navigation","trial_index":30,"time_elapsed":631014,"internal_node_id":"0.0-2.0-28.0"},{"group":"hexagon_bi","room_assignment":["purple","green","grey","yellow","blue","red"],"door_color_assignment":["black","white"],"door_generator_assignment":[1,0],"goal":5,"start":4,"action_noise":0.15,"location_history":"[4,5]","action_history":"[1]","door_history":"[0]","location_rts":"[1406]","trial_type":"two-door-navigation","trial_index":31,"time_elapsed":637080,"internal_node_id":"0.0-2.0-29.0"},{"group":"hexagon_bi","room_assignment":["purple","green","grey","yellow","blue","red"],"door_color_assignment":["black","white"],"door_generator_assignment":[1,0],"goal":3,"start":5,"action_noise":0.15,"location_history":"[5,0,1,0,1,2,3]","action_history":"[0,1,0,1,0,1]","door_history":"[1,0,1,0,1,0]","location_rts":"[9640,5686,488,650,926,1102]","trial_type":"two-door-navigation","trial_index":32,"time_elapsed":665796,"internal_node_id":"0.0-2.0-30.0"},{"group":"hexagon_bi","room_assignment":["purple","green","grey","yellow","blue","red"],"door_color_assignment":["black","white"],"door_generator_assignment":[1,0],"goal":0,"start":3,"action_noise":0.15,"location_history":"[3,4,3,2,3,2,3,4,5,0]","action_history":"[0,1,1,0,1,1,1,1,0]","door_history":"[1,0,0,1,0,0,0,0,1]","location_rts":"[6068,1130,442,760,638,478,748,528,352]","trial_type":"two-door-navigation","trial_index":33,"time_elapsed":690620,"internal_node_id":"0.0-2.0-31.0"},{"group":"hexagon_bi","room_assignment":["purple","green","grey","yellow","blue","red"],"door_color_assignment":["black","white"],"door_generator_assignment":[1,0],"goal":4,"start":0,"action_noise":0.15,"location_history":"[0,1,0,5,4]","action_history":"[1,1,0,1]","door_history":"[0,0,1,0]","location_rts":"[8098,696,446,648]","trial_type":"two-door-navigation","trial_index":34,"time_elapsed":708522,"internal_node_id":"0.0-2.0-32.0"},{"group":"hexagon_bi","room_assignment":["purple","green","grey","yellow","blue","red"],"door_color_assignment":["black","white"],"door_generator_assignment":[1,0],"goal":1,"start":4,"action_noise":0.15,"location_history":"[4,3,2,3,2,1]","action_history":"[0,1,1,0,0]","door_history":"[1,0,0,1,1]","location_rts":"[1450,772,1392,506,634]","trial_type":"two-door-navigation","trial_index":35,"time_elapsed":722466,"internal_node_id":"0.0-2.0-33.0"},{"group":"hexagon_bi","room_assignment":["purple","green","grey","yellow","blue","red"],"door_color_assignment":["black","white"],"door_generator_assignment":[1,0],"goal":2,"start":1,"action_noise":0.15,"location_history":"[1,0,5,0,1,2]","action_history":"[1,1,0,1,0]","door_history":"[0,0,1,0,1]","location_rts":"[8828,1260,1740,858,480]","trial_type":"two-door-navigation","trial_index":36,"time_elapsed":744786,"internal_node_id":"0.0-2.0-34.0"},{"group":"hexagon_bi","room_assignment":["purple","green","grey","yellow","blue","red"],"door_color_assignment":["black","white"],"door_generator_assignment":[1,0],"goal":0,"start":2,"action_noise":0.15,"location_history":"[2,3,2,3,4,5,0]","action_history":"[0,1,1,0,1,0]","door_history":"[1,0,0,1,0,1]","location_rts":"[1722,504,924,634,1936,6200]","trial_type":"two-door-navigation","trial_index":37,"time_elapsed":767000,"internal_node_id":"0.0-2.0-35.0"},{"group":"hexagon_bi","room_assignment":["purple","green","grey","yellow","blue","red"],"door_color_assignment":["black","white"],"door_generator_assignment":[1,0],"goal":5,"start":0,"action_noise":0.15,"location_history":"[0,5]","action_history":"[0]","door_history":"[1]","location_rts":"[1854]","trial_type":"two-door-navigation","trial_index":38,"time_elapsed":773496,"internal_node_id":"0.0-2.0-36.0"},{"group":"hexagon_bi","room_assignment":["purple","green","grey","yellow","blue","red"],"door_color_assignment":["black","white"],"door_generator_assignment":[1,0],"goal":2,"start":5,"action_noise":0.15,"location_history":"[5,4,3,2]","action_history":"[1,0,0]","door_history":"[0,1,1]","location_rts":"[1384,452,848]","trial_type":"two-door-navigation","trial_index":39,"time_elapsed":783062,"internal_node_id":"0.0-2.0-37.0"},{"group":"hexagon_bi","room_assignment":["purple","green","grey","yellow","blue","red"],"door_color_assignment":["black","white"],"door_generator_assignment":[1,0],"goal":1,"start":2,"action_noise":0.15,"location_history":"[2,1]","action_history":"[0]","door_history":"[1]","location_rts":"[1018]","trial_type":"two-door-navigation","trial_index":40,"time_elapsed":788740,"internal_node_id":"0.0-2.0-38.0"},{"group":"hexagon_bi","room_assignment":["purple","green","grey","yellow","blue","red"],"door_color_assignment":["black","white"],"door_generator_assignment":[1,0],"goal":4,"start":1,"action_noise":0.15,"location_history":"[1,0,5,4]","action_history":"[1,0,1]","door_history":"[0,1,0]","location_rts":"[6732,1054,1544]","trial_type":"two-door-navigation","trial_index":41,"time_elapsed":804980,"internal_node_id":"0.0-2.0-39.0"},{"group":"hexagon_bi","room_assignment":["purple","green","grey","yellow","blue","red"],"door_color_assignment":["black","white"],"door_generator_assignment":[1,0],"goal":3,"start":4,"action_noise":0.15,"location_history":"[4,3]","action_history":"[0]","door_history":"[1]","location_rts":"[1230]","trial_type":"two-door-navigation","trial_index":42,"time_elapsed":810852,"internal_node_id":"0.0-2.0-40.0"},{"group":"hexagon_bi","room_assignment":["purple","green","grey","yellow","blue","red"],"door_color_assignment":["black","white"],"door_generator_assignment":[1,0],"goal":5,"start":3,"action_noise":0.15,"location_history":"[3,2,1,0,5]","action_history":"[1,0,1,0]","door_history":"[0,1,0,1]","location_rts":"[2012,1362,936,1294]","trial_type":"two-door-navigation","trial_index":43,"time_elapsed":824468,"internal_node_id":"0.0-2.0-41.0"},{"group":"hexagon_bi","room_assignment":["purple","green","grey","yellow","blue","red"],"door_color_assignment":["black","white"],"door_generator_assignment":[1,0],"goal":3,"start":5,"action_noise":0.15,"location_history":"[5,4,5,0,5,4,5,0,1,2,1,0,1,0,1,0,5,4,3]","action_history":"[0,1,0,0,1,1,0,1,0,1,1,0,1,1,1,0,0,0]","door_history":"[1,0,1,1,0,0,1,0,1,0,0,1,0,0,0,1,1,1]","location_rts":"[5680,1324,638,474,560,746,304,318,490,850,1618,862,908,3888,1080,496,1268,1580]","trial_type":"two-door-navigation","trial_index":44,"time_elapsed":871430,"internal_node_id":"0.0-2.0-42.0"},{"group":"hexagon_bi","room_assignment":["purple","green","grey","yellow","blue","red"],"door_color_assignment":["black","white"],"door_generator_assignment":[1,0],"goal":0,"start":3,"action_noise":0.15,"location_history":"[3,2,3,4,5,0]","action_history":"[1,1,0,1,0]","door_history":"[0,0,1,0,1]","location_rts":"[3162,1272,952,5614,1092]","trial_type":"two-door-navigation","trial_index":45,"time_elapsed":892658,"internal_node_id":"0.0-2.0-43.0"},{"group":"hexagon_bi","room_assignment":["purple","green","grey","yellow","blue","red"],"door_color_assignment":["black","white"],"door_generator_assignment":[1,0],"goal":2,"start":0,"action_noise":0.15,"location_history":"[0,5,0,1,2]","action_history":"[0,0,1,0]","door_history":"[1,1,0,1]","location_rts":"[8154,1368,654,908]","trial_type":"two-door-navigation","trial_index":46,"time_elapsed":911770,"internal_node_id":"0.0-2.0-44.0"},{"group":"hexagon_bi","room_assignment":["purple","green","grey","yellow","blue","red"],"door_color_assignment":["black","white"],"door_generator_assignment":[1,0],"goal":4,"start":2,"action_noise":0.15,"location_history":"[2,3,2,3,2,3,4]","action_history":"[1,1,0,1,1,0]","door_history":"[0,0,1,0,0,1]","location_rts":"[38860,1006,862,534,712,208]","trial_type":"two-door-navigation","trial_index":47,"time_elapsed":964218,"internal_node_id":"0.0-2.0-45.0"},{"group":"hexagon_bi","room_assignment":["purple","green","grey","yellow","blue","red"],"door_color_assignment":["black","white"],"door_generator_assignment":[1,0],"goal":1,"start":4,"action_noise":0.15,"location_history":"[4,5,4,5,0,1]","action_history":"[1,0,0,0,1]","door_history":"[0,1,1,1,0]","location_rts":"[1562,1128,716,542,860]","trial_type":"two-door-navigation","trial_index":48,"time_elapsed":978142,"internal_node_id":"0.0-2.0-46.0"},{"group":"hexagon_bi","room_assignment":["purple","green","grey","yellow","blue","red"],"door_color_assignment":["black","white"],"door_generator_assignment":[1,0],"goal":4,"start":1,"action_noise":0.15,"location_history":"[1,2,3,4]","action_history":"[0,1,0]","door_history":"[1,0,1]","location_rts":"[3730,1022,968]","trial_type":"two-door-navigation","trial_index":49,"time_elapsed":990816,"internal_node_id":"0.0-2.0-47.0"},{"group":"hexagon_bi","room_assignment":["purple","green","grey","yellow","blue","red"],"door_color_assignment":["black","white"],"door_generator_assignment":[1,0],"goal":3,"start":4,"action_noise":0.15,"location_history":"[4,5,4,3]","action_history":"[0,1,1]","door_history":"[1,0,0]","location_rts":"[1390,1182,462]","trial_type":"two-door-navigation","trial_index":50,"time_elapsed":1000800,"internal_node_id":"0.0-2.0-48.0"},{"group":"hexagon_bi","room_assignment":["purple","green","grey","yellow","blue","red"],"door_color_assignment":["black","white"],"door_generator_assignment":[1,0],"goal":5,"start":3,"action_noise":0.15,"location_history":"[3,4,5]","action_history":"[0,1]","door_history":"[1,0]","location_rts":"[902,660]","trial_type":"two-door-navigation","trial_index":51,"time_elapsed":1008126,"internal_node_id":"0.0-2.0-49.0"},{"view_history":"[{\"page_index\":0,\"viewing_time\":3098}]","rt":3100,"trial_type":"instructions","trial_index":52,"time_elapsed":1012242,"internal_node_id":"0.0-3.0"},{"view_history":"[{\"page_index\":0,\"viewing_time\":3716},{\"page_index\":1,\"viewing_time\":21870}]","rt":25586,"trial_type":"instructions","trial_index":53,"time_elapsed":1038836,"internal_node_id":"0.0-4.0"},{"group":"hexagon_tri","fractal_assignment":["../images/gry_blk.png","../images/blu_wht.png","../images/org_blu.png","../images/ylw_slt.png","../images/cyn_red.png","../images/pnk_blu.png"],"mutagen_generator_assignment":[0,1],"goal":4,"start":0,"action_noise":0.15,"location_history":"[0,1,5,4]","action_history":"[0,1,1]","mutagen_history":"[0,1,1]","location_rts":"[6980,1544,918]","trial_type":"fractal-mutation","trial_index":54,"time_elapsed":1055218,"internal_node_id":"0.0-5.0-0.0"},{"group":"hexagon_tri","fractal_assignment":["../images/gry_blk.png","../images/blu_wht.png","../images/org_blu.png","../images/ylw_slt.png","../images/cyn_red.png","../images/pnk_blu.png"],"mutagen_generator_assignment":[0,1],"goal":3,"start":4,"action_noise":0.15,"location_history":"[4,0,1,5,4,2,3]","action_history":"[0,0,1,1,1,1]","mutagen_history":"[0,0,1,1,1,1]","location_rts":"[1404,850,584,786,632,1076]","trial_type":"fractal-mutation","trial_index":55,"time_elapsed":1070900,"internal_node_id":"0.0-5.0-1.0"},{"group":"hexagon_tri","fractal_assignment":["../images/gry_blk.png","../images/blu_wht.png","../images/org_blu.png","../images/ylw_slt.png","../images/cyn_red.png","../images/pnk_blu.png"],"mutagen_generator_assignment":[0,1],"goal":5,"start":3,"action_noise":0.15,"location_history":"[3,4,2,1,3,2,1,5]","action_history":"[1,1,1,0,0,0,0]","mutagen_history":"[1,1,1,0,0,0,0]","location_rts":"[2052,674,442,748,488,540,522]","trial_type":"fractal-mutation","trial_index":56,"time_elapsed":1087882,"internal_node_id":"0.0-5.0-2.0"},{"group":"hexagon_tri","fractal_assignment":["../images/gry_blk.png","../images/blu_wht.png","../images/org_blu.png","../images/ylw_slt.png","../images/cyn_red.png","../images/pnk_blu.png"],"mutagen_generator_assignment":[0,1],"goal":2,"start":5,"action_noise":0.15,"location_history":"[5,0,5,0,5,4,2]","action_history":"[1,0,0,0,0,1]","mutagen_history":"[1,0,0,0,0,1]","location_rts":"[3068,288,458,438,420,408]","trial_type":"fractal-mutation","trial_index":57,"time_elapsed":1103286,"internal_node_id":"0.0-5.0-3.0"},{"group":"hexagon_tri","fractal_assignment":["../images/gry_blk.png","../images/blu_wht.png","../images/org_blu.png","../images/ylw_slt.png","../images/cyn_red.png","../images/pnk_blu.png"],"mutagen_generator_assignment":[0,1],"goal":1,"start":2,"action_noise":0.15,"location_history":"[2,3,2,3,4,2,3,2,3,2,1]","action_history":"[0,0,1,1,1,1,0,0,0,0]","mutagen_history":"[0,0,1,1,1,1,0,0,0,0]","location_rts":"[2106,434,360,448,312,428,282,502,658,574]","trial_type":"fractal-mutation","trial_index":58,"time_elapsed":1124266,"internal_node_id":"0.0-5.0-4.0"},{"group":"hexagon_tri","fractal_assignment":["../images/gry_blk.png","../images/blu_wht.png","../images/org_blu.png","../images/ylw_slt.png","../images/cyn_red.png","../images/pnk_blu.png"],"mutagen_generator_assignment":[0,1],"goal":4,"start":1,"action_noise":0.15,"location_history":"[1,3,4]","action_history":"[0,1]","mutagen_history":"[0,1]","location_rts":"[4114,312]","trial_type":"fractal-mutation","trial_index":59,"time_elapsed":1134482,"internal_node_id":"0.0-5.0-5.0"},{"group":"hexagon_tri","fractal_assignment":["../images/gry_blk.png","../images/blu_wht.png","../images/org_blu.png","../images/ylw_slt.png","../images/cyn_red.png","../images/pnk_blu.png"],"mutagen_generator_assignment":[0,1],"goal":1,"start":4,"action_noise":0.15,"location_history":"[4,2,3,4,2,1]","action_history":"[1,1,1,1,0]","mutagen_history":"[1,1,1,1,0]","location_rts":"[1454,392,398,524,434]","trial_type":"fractal-mutation","trial_index":60,"time_elapsed":1146900,"internal_node_id":"0.0-5.0-6.0"},{"group":"hexagon_tri","fractal_assignment":["../images/gry_blk.png","../images/blu_wht.png","../images/org_blu.png","../images/ylw_slt.png","../images/cyn_red.png","../images/pnk_blu.png"],"mutagen_generator_assignment":[0,1],"goal":5,"start":1,"action_noise":0.15,"location_history":"[1,3,4,0,5]","action_history":"[1,1,1,0]","mutagen_history":"[1,1,1,0]","location_rts":"[1888,428,470,634]","trial_type":"fractal-mutation","trial_index":61,"time_elapsed":1158434,"internal_node_id":"0.0-5.0-7.0"},{"group":"hexagon_tri","fractal_assignment":["../images/gry_blk.png","../images/blu_wht.png","../images/org_blu.png","../images/ylw_slt.png","../images/cyn_red.png","../images/pnk_blu.png"],"mutagen_generator_assignment":[0,1],"goal":0,"start":5,"action_noise":0.15,"location_history":"[5,4,0]","action_history":"[0,0]","mutagen_history":"[0,0]","location_rts":"[1268,382]","trial_type":"fractal-mutation","trial_index":62,"time_elapsed":1165864,"internal_node_id":"0.0-5.0-8.0"},{"group":"hexagon_tri","fractal_assignment":["../images/gry_blk.png","../images/blu_wht.png","../images/org_blu.png","../images/ylw_slt.png","../images/cyn_red.png","../images/pnk_blu.png"],"mutagen_generator_assignment":[0,1],"goal":2,"start":0,"action_noise":0.15,"location_history":"[0,1,5,0,5,4,0,1,5,0,1,3,4,0,1,5,4,0,5,0,1,3,4,0,1,3,2]","action_history":"[1,1,0,0,0,0,1,1,1,1,0,1,0,1,1,0,0,0,1,1,0,0,0,1,0,1]","mutagen_history":"[1,1,0,0,0,0,1,1,1,1,0,1,0,1,1,0,0,0,1,1,0,0,0,1,0,1]","location_rts":"[956,692,188,450,404,476,324,394,326,402,228,248,344,606,402,314,740,484,510,440,472,276,626,470,752,822]","trial_type":"fractal-mutation","trial_index":63,"time_elapsed":1211202,"internal_node_id":"0.0-5.0-9.0"},{"group":"hexagon_tri","fractal_assignment":["../images/gry_blk.png","../images/blu_wht.png","../images/org_blu.png","../images/ylw_slt.png","../images/cyn_red.png","../images/pnk_blu.png"],"mutagen_generator_assignment":[0,1],"goal":3,"start":2,"action_noise":0.15,"location_history":"[2,3]","action_history":"[1]","mutagen_history":"[1]","location_rts":"[1036]","trial_type":"fractal-mutation","trial_index":64,"time_elapsed":1216900,"internal_node_id":"0.0-5.0-10.0"},{"group":"hexagon_tri","fractal_assignment":["../images/gry_blk.png","../images/blu_wht.png","../images/org_blu.png","../images/ylw_slt.png","../images/cyn_red.png","../images/pnk_blu.png"],"mutagen_generator_assignment":[0,1],"goal":0,"start":3,"action_noise":0.15,"location_history":"[3,4,2,3,2,1,3,4,2,1,3,2,3,4,0]","action_history":"[0,1,1,0,0,0,1,1,0,0,0,1,1,0]","mutagen_history":"[0,1,1,0,0,0,1,1,0,0,0,1,1,0]","location_rts":"[864,422,432,438,408,456,406,442,352,442,414,360,536,462]","trial_type":"fractal-mutation","trial_index":65,"time_elapsed":1242724,"internal_node_id":"0.0-5.0-11.0"},{"group":"hexagon_tri","fractal_assignment":["../images/gry_blk.png","../images/blu_wht.png","../images/org_blu.png","../images/ylw_slt.png","../images/cyn_red.png","../images/pnk_blu.png"],"mutagen_generator_assignment":[0,1],"goal":2,"start":0,"action_noise":0.15,"location_history":"[0,5,4,0,5,0,1,5,4,0,1,3,2]","action_history":"[1,0,0,0,1,1,0,0,1,1,0,0]","mutagen_history":"[1,0,0,0,1,1,0,0,1,1,0,0]","location_rts":"[1094,400,564,604,272,548,578,436,1004,394,326,386]","trial_type":"fractal-mutation","trial_index":66,"time_elapsed":1266520,"internal_node_id":"0.0-5.0-12.0"},{"group":"hexagon_tri","fractal_assignment":["../images/gry_blk.png","../images/blu_wht.png","../images/org_blu.png","../images/ylw_slt.png","../images/cyn_red.png","../images/pnk_blu.png"],"mutagen_generator_assignment":[0,1],"goal":5,"start":2,"action_noise":0.15,"location_history":"[2,3,4,0,5]","action_history":"[1,1,0,0]","mutagen_history":"[1,1,0,0]","location_rts":"[982,666,174,428]","trial_type":"fractal-mutation","trial_index":67,"time_elapsed":1276842,"internal_node_id":"0.0-5.0-13.0"},{"group":"hexagon_tri","fractal_assignment":["../images/gry_blk.png","../images/blu_wht.png","../images/org_blu.png","../images/ylw_slt.png","../images/cyn_red.png","../images/pnk_blu.png"],"mutagen_generator_assignment":[0,1],"goal":4,"start":5,"action_noise":0.15,"location_history":"[5,0,5,4]","action_history":"[1,0,1]","mutagen_history":"[1,0,1]","location_rts":"[1632,266,4052]","trial_type":"fractal-mutation","trial_index":68,"time_elapsed":1289636,"internal_node_id":"0.0-5.0-14.0"},{"group":"hexagon_tri","fractal_assignment":["../images/gry_blk.png","../images/blu_wht.png","../images/org_blu.png","../images/ylw_slt.png","../images/cyn_red.png","../images/pnk_blu.png"],"mutagen_generator_assignment":[0,1],"goal":3,"start":4,"action_noise":0.15,"location_history":"[4,0,1,5,0,5,4,2,1,3]","action_history":"[0,1,1,0,0,1,1,0,0]","mutagen_history":"[0,1,1,0,0,1,1,0,0]","location_rts":"[986,298,332,142,488,602,532,390,496]","trial_type":"fractal-mutation","trial_index":69,"time_elapsed":1307664,"internal_node_id":"0.0-5.0-15.0"},{"group":"hexagon_tri","fractal_assignment":["../images/gry_blk.png","../images/blu_wht.png","../images/org_blu.png","../images/ylw_slt.png","../images/cyn_red.png","../images/pnk_blu.png"],"mutagen_generator_assignment":[0,1],"goal":1,"start":3,"action_noise":0.15,"location_history":"[3,2,3,4,2,3,4,2,3,2,1]","action_history":"[0,1,1,1,0,0,1,1,0,0]","mutagen_history":"[0,1,1,1,0,0,1,1,0,0]","location_rts":"[1122,420,388,540,232,434,512,582,400,734]","trial_type":"fractal-mutation","trial_index":70,"time_elapsed":1327896,"internal_node_id":"0.0-5.0-16.0"},{"group":"hexagon_tri","fractal_assignment":["../images/gry_blk.png","../images/blu_wht.png","../images/org_blu.png","../images/ylw_slt.png","../images/cyn_red.png","../images/pnk_blu.png"],"mutagen_generator_assignment":[0,1],"goal":5,"start":1,"action_noise":0.15,"location_history":"[1,5]","action_history":"[1]","mutagen_history":"[1]","location_rts":"[1148]","trial_type":"fractal-mutation","trial_index":71,"time_elapsed":1333710,"internal_node_id":"0.0-5.0-17.0"},{"group":"hexagon_tri","fractal_assignment":["../images/gry_blk.png","../images/blu_wht.png","../images/org_blu.png","../images/ylw_slt.png","../images/cyn_red.png","../images/pnk_blu.png"],"mutagen_generator_assignment":[0,1],"goal":4,"start":5,"action_noise":0.15,"location_history":"[5,0,1,5,4]","action_history":"[0,1,1,0]","mutagen_history":"[0,1,1,0]","location_rts":"[1254,370,480,430]","trial_type":"fractal-mutation","trial_index":72,"time_elapsed":1344308,"internal_node_id":"0.0-5.0-18.0"},{"group":"hexagon_tri","fractal_assignment":["../images/gry_blk.png","../images/blu_wht.png","../images/org_blu.png","../images/ylw_slt.png","../images/cyn_red.png","../images/pnk_blu.png"],"mutagen_generator_assignment":[0,1],"goal":0,"start":4,"action_noise":0.15,"location_history":"[4,0]","action_history":"[1]","mutagen_history":"[1]","location_rts":"[1460]","trial_type":"fractal-mutation","trial_index":73,"time_elapsed":1350436,"internal_node_id":"0.0-5.0-19.0"},{"group":"hexagon_tri","fractal_assignment":["../images/gry_blk.png","../images/blu_wht.png","../images/org_blu.png","../images/ylw_slt.png","../images/cyn_red.png","../images/pnk_blu.png"],"mutagen_generator_assignment":[0,1],"goal":1,"start":0,"action_noise":0.15,"location_history":"[0,5,0,5,4,2,1]","action_history":"[0,1,0,0,1,0]","mutagen_history":"[0,1,0,0,1,0]","location_rts":"[1362,1188,484,840,3328,590]","trial_type":"fractal-mutation","trial_index":74,"time_elapsed":1368572,"internal_node_id":"0.0-5.0-20.0"},{"group":"hexagon_tri","fractal_assignment":["../images/gry_blk.png","../images/blu_wht.png","../images/org_blu.png","../images/ylw_slt.png","../images/cyn_red.png","../images/pnk_blu.png"],"mutagen_generator_assignment":[0,1],"goal":3,"start":1,"action_noise":0.15,"location_history":"[1,5,4,0,1,5,4,2,3]","action_history":"[1,0,0,1,1,0,0,1]","mutagen_history":"[1,0,0,1,1,0,0,1]","location_rts":"[1068,428,380,414,562,474,596,422]","trial_type":"fractal-mutation","trial_index":75,"time_elapsed":1385480,"internal_node_id":"0.0-5.0-21.0"},{"group":"hexagon_tri","fractal_assignment":["../images/gry_blk.png","../images/blu_wht.png","../images/org_blu.png","../images/ylw_slt.png","../images/cyn_red.png","../images/pnk_blu.png"],"mutagen_generator_assignment":[0,1],"goal":2,"start":3,"action_noise":0.15,"location_history":"[3,2]","action_history":"[0]","mutagen_history":"[0]","location_rts":"[1012]","trial_type":"fractal-mutation","trial_index":76,"time_elapsed":1391162,"internal_node_id":"0.0-5.0-22.0"},{"group":"hexagon_tri","fractal_assignment":["../images/gry_blk.png","../images/blu_wht.png","../images/org_blu.png","../images/ylw_slt.png","../images/cyn_red.png","../images/pnk_blu.png"],"mutagen_generator_assignment":[0,1],"goal":0,"start":2,"action_noise":0.15,"location_history":"[2,1,5,4,0]","action_history":"[0,1,0,1]","mutagen_history":"[0,1,0,1]","location_rts":"[1416,432,422,478]","trial_type":"fractal-mutation","trial_index":77,"time_elapsed":1401968,"internal_node_id":"0.0-5.0-23.0"},{"group":"hexagon_tri","fractal_assignment":["../images/gry_blk.png","../images/blu_wht.png","../images/org_blu.png","../images/ylw_slt.png","../images/cyn_red.png","../images/pnk_blu.png"],"mutagen_generator_assignment":[0,1],"goal":3,"start":0,"action_noise":0.15,"location_history":"[0,5,4,0,5,0,1,5,4,0,5,0,5,4,2,3]","action_history":"[1,0,0,1,1,0,1,0,0,0,1,0,0,1,1]","mutagen_history":"[1,0,0,1,1,0,1,0,0,0,1,0,0,1,1]","location_rts":"[1584,284,536,462,646,628,886,620,634,806,442,510,670,590,1056]","trial_type":"fractal-mutation","trial_index":78,"time_elapsed":1432880,"internal_node_id":"0.0-5.0-24.0"},{"group":"hexagon_tri","fractal_assignment":["../images/gry_blk.png","../images/blu_wht.png","../images/org_blu.png","../images/ylw_slt.png","../images/cyn_red.png","../images/pnk_blu.png"],"mutagen_generator_assignment":[0,1],"goal":1,"start":3,"action_noise":0.15,"location_history":"[3,2,3,4,0,5,4,2,3,4,2,1]","action_history":"[0,1,1,0,0,0,1,1,1,0,0]","mutagen_history":"[0,1,1,0,0,0,1,1,1,0,0]","location_rts":"[1250,986,930,510,832,854,316,394,978,370,716]","trial_type":"fractal-mutation","trial_index":79,"time_elapsed":1457020,"internal_node_id":"0.0-5.0-25.0"},{"group":"hexagon_tri","fractal_assignment":["../images/gry_blk.png","../images/blu_wht.png","../images/org_blu.png","../images/ylw_slt.png","../images/cyn_red.png","../images/pnk_blu.png"],"mutagen_generator_assignment":[0,1],"goal":2,"start":1,"action_noise":0.15,"location_history":"[1,3,4,0,5,0,5,0,1,3,2]","action_history":"[0,1,0,0,1,0,1,1,0,0]","mutagen_history":"[0,1,0,0,1,0,1,1,0,0]","location_rts":"[1578,402,430,602,612,734,660,336,552,340]","trial_type":"fractal-mutation","trial_index":80,"time_elapsed":1478160,"internal_node_id":"0.0-5.0-26.0"},{"group":"hexagon_tri","fractal_assignment":["../images/gry_blk.png","../images/blu_wht.png","../images/org_blu.png","../images/ylw_slt.png","../images/cyn_red.png","../images/pnk_blu.png"],"mutagen_generator_assignment":[0,1],"goal":5,"start":2,"action_noise":0.15,"location_history":"[2,3,2,1,5]","action_history":"[1,0,0,1]","mutagen_history":"[1,0,0,1]","location_rts":"[2008,382,544,608]","trial_type":"fractal-mutation","trial_index":81,"time_elapsed":1489742,"internal_node_id":"0.0-5.0-27.0"},{"group":"hexagon_tri","fractal_assignment":["../images/gry_blk.png","../images/blu_wht.png","../images/org_blu.png","../images/ylw_slt.png","../images/cyn_red.png","../images/pnk_blu.png"],"mutagen_generator_assignment":[0,1],"goal":4,"start":5,"action_noise":0.15,"location_history":"[5,0,5,4]","action_history":"[1,0,0]","mutagen_history":"[1,0,0]","location_rts":"[1502,362,694]","trial_type":"fractal-mutation","trial_index":82,"time_elapsed":1499266,"internal_node_id":"0.0-5.0-28.0"},{"group":"hexagon_tri","fractal_assignment":["../images/gry_blk.png","../images/blu_wht.png","../images/org_blu.png","../images/ylw_slt.png","../images/cyn_red.png","../images/pnk_blu.png"],"mutagen_generator_assignment":[0,1],"goal":5,"start":4,"action_noise":0.15,"location_history":"[4,0,1,3,4,0,1,3,2,1,5]","action_history":"[0,1,0,0,0,1,1,0,0,1]","mutagen_history":"[0,1,0,0,0,1,1,0,0,1]","location_rts":"[818,628,556,406,480,322,556,540,528,632]","trial_type":"fractal-mutation","trial_index":83,"time_elapsed":1519606,"internal_node_id":"0.0-5.0-29.0"},{"group":"hexagon_tri","fractal_assignment":["../images/gry_blk.png","../images/blu_wht.png","../images/org_blu.png","../images/ylw_slt.png","../images/cyn_red.png","../images/pnk_blu.png"],"mutagen_generator_assignment":[0,1],"goal":3,"start":5,"action_noise":0.15,"location_history":"[5,0,5,0,5,4,2,3]","action_history":"[0,0,1,0,0,1,1]","mutagen_history":"[0,0,1,0,0,1,1]","location_rts":"[1344,2724,4586,500,676,348,602]","trial_type":"fractal-mutation","trial_index":84,"time_elapsed":1541758,"internal_node_id":"0.0-5.0-30.0"},{"group":"hexagon_tri","fractal_assignment":["../images/gry_blk.png","../images/blu_wht.png","../images/org_blu.png","../images/ylw_slt.png","../images/cyn_red.png","../images/pnk_blu.png"],"mutagen_generator_assignment":[0,1],"goal":0,"start":3,"action_noise":0.15,"location_history":"[3,4,0]","action_history":"[0,0]","mutagen_history":"[0,0]","location_rts":"[1398,496]","trial_type":"fractal-mutation","trial_index":85,"time_elapsed":1549480,"internal_node_id":"0.0-5.0-31.0"},{"group":"hexagon_tri","fractal_assignment":["../images/gry_blk.png","../images/blu_wht.png","../images/org_blu.png","../images/ylw_slt.png","../images/cyn_red.png","../images/pnk_blu.png"],"mutagen_generator_assignment":[0,1],"goal":4,"start":0,"action_noise":0.15,"location_history":"[0,5,0,1,3,2,3,2,1,3,4]","action_history":"[0,1,0,0,0,1,0,0,0,1]","mutagen_history":"[0,1,0,0,0,1,0,0,0,1]","location_rts":"[1332,770,406,320,240,644,410,456,474,586]","trial_type":"fractal-mutation","trial_index":86,"time_elapsed":1570032,"internal_node_id":"0.0-5.0-32.0"},{"group":"hexagon_tri","fractal_assignment":["../images/gry_blk.png","../images/blu_wht.png","../images/org_blu.png","../images/ylw_slt.png","../images/cyn_red.png","../images/pnk_blu.png"],"mutagen_generator_assignment":[0,1],"goal":1,"start":4,"action_noise":0.15,"location_history":"[4,0,1]","action_history":"[0,1]","mutagen_history":"[0,1]","location_rts":"[1344,714]","trial_type":"fractal-mutation","trial_index":87,"time_elapsed":1577910,"internal_node_id":"0.0-5.0-33.0"},{"group":"hexagon_tri","fractal_assignment":["../images/gry_blk.png","../images/blu_wht.png","../images/org_blu.png","../images/ylw_slt.png","../images/cyn_red.png","../images/pnk_blu.png"],"mutagen_generator_assignment":[0,1],"goal":2,"start":1,"action_noise":0.15,"location_history":"[1,5,4,0,5,0,1,3,2]","action_history":"[1,0,0,0,1,1,0,0]","mutagen_history":"[1,0,0,0,1,1,0,0]","location_rts":"[2440,1256,658,500,268,632,1050,726]","trial_type":"fractal-mutation","trial_index":88,"time_elapsed":1598018,"internal_node_id":"0.0-5.0-34.0"},{"group":"hexagon_tri","fractal_assignment":["../images/gry_blk.png","../images/blu_wht.png","../images/org_blu.png","../images/ylw_slt.png","../images/cyn_red.png","../images/pnk_blu.png"],"mutagen_generator_assignment":[0,1],"goal":0,"start":2,"action_noise":0.15,"location_history":"[2,3,2,3,4,0]","action_history":"[1,0,1,1,0]","mutagen_history":"[1,0,1,1,0]","location_rts":"[1302,650,802,1186,1098]","trial_type":"fractal-mutation","trial_index":89,"time_elapsed":1612236,"internal_node_id":"0.0-5.0-35.0"},{"group":"hexagon_tri","fractal_assignment":["../images/gry_blk.png","../images/blu_wht.png","../images/org_blu.png","../images/ylw_slt.png","../images/cyn_red.png","../images/pnk_blu.png"],"mutagen_generator_assignment":[0,1],"goal":5,"start":0,"action_noise":0.15,"location_history":"[0,5]","action_history":"[1]","mutagen_history":"[1]","location_rts":"[1198]","trial_type":"fractal-mutation","trial_index":90,"time_elapsed":1618110,"internal_node_id":"0.0-5.0-36.0"},{"group":"hexagon_tri","fractal_assignment":["../images/gry_blk.png","../images/blu_wht.png","../images/org_blu.png","../images/ylw_slt.png","../images/cyn_red.png","../images/pnk_blu.png"],"mutagen_generator_assignment":[0,1],"goal":2,"start":5,"action_noise":0.15,"location_history":"[5,4,2]","action_history":"[1,1]","mutagen_history":"[1,1]","location_rts":"[1432,528]","trial_type":"fractal-mutation","trial_index":91,"time_elapsed":1625866,"internal_node_id":"0.0-5.0-37.0"},{"group":"hexagon_tri","fractal_assignment":["../images/gry_blk.png","../images/blu_wht.png","../images/org_blu.png","../images/ylw_slt.png","../images/cyn_red.png","../images/pnk_blu.png"],"mutagen_generator_assignment":[0,1],"goal":1,"start":2,"action_noise":0.15,"location_history":"[2,1]","action_history":"[0]","mutagen_history":"[0]","location_rts":"[1728]","trial_type":"fractal-mutation","trial_index":92,"time_elapsed":1632264,"internal_node_id":"0.0-5.0-38.0"},{"group":"hexagon_tri","fractal_assignment":["../images/gry_blk.png","../images/blu_wht.png","../images/org_blu.png","../images/ylw_slt.png","../images/cyn_red.png","../images/pnk_blu.png"],"mutagen_generator_assignment":[0,1],"goal":4,"start":1,"action_noise":0.15,"location_history":"[1,5,0,5,4]","action_history":"[1,0,0,0]","mutagen_history":"[1,0,0,0]","location_rts":"[1122,602,596,436]","trial_type":"fractal-mutation","trial_index":93,"time_elapsed":1643116,"internal_node_id":"0.0-5.0-39.0"},{"group":"hexagon_tri","fractal_assignment":["../images/gry_blk.png","../images/blu_wht.png","../images/org_blu.png","../images/ylw_slt.png","../images/cyn_red.png","../images/pnk_blu.png"],"mutagen_generator_assignment":[0,1],"goal":3,"start":4,"action_noise":0.15,"location_history":"[4,2,1,5,0,1,3]","action_history":"[1,1,1,1,1,0]","mutagen_history":"[1,1,1,1,1,0]","location_rts":"[1160,656,450,546,766,648]","trial_type":"fractal-mutation","trial_index":94,"time_elapsed":1657742,"internal_node_id":"0.0-5.0-40.0"},{"group":"hexagon_tri","fractal_assignment":["../images/gry_blk.png","../images/blu_wht.png","../images/org_blu.png","../images/ylw_slt.png","../images/cyn_red.png","../images/pnk_blu.png"],"mutagen_generator_assignment":[0,1],"goal":5,"start":3,"action_noise":0.15,"location_history":"[3,4,0,5]","action_history":"[1,0,0]","mutagen_history":"[1,0,0]","location_rts":"[1262,486,580]","trial_type":"fractal-mutation","trial_index":95,"time_elapsed":1667034,"internal_node_id":"0.0-5.0-41.0"},{"group":"hexagon_tri","fractal_assignment":["../images/gry_blk.png","../images/blu_wht.png","../images/org_blu.png","../images/ylw_slt.png","../images/cyn_red.png","../images/pnk_blu.png"],"mutagen_generator_assignment":[0,1],"goal":3,"start":5,"action_noise":0.15,"location_history":"[5,4,2,3]","action_history":"[1,1,1]","mutagen_history":"[1,1,1]","location_rts":"[1018,718,758]","trial_type":"fractal-mutation","trial_index":96,"time_elapsed":1676452,"internal_node_id":"0.0-5.0-42.0"},{"group":"hexagon_tri","fractal_assignment":["../images/gry_blk.png","../images/blu_wht.png","../images/org_blu.png","../images/ylw_slt.png","../images/cyn_red.png","../images/pnk_blu.png"],"mutagen_generator_assignment":[0,1],"goal":0,"start":3,"action_noise":0.15,"location_history":"[3,4,2,3,4,0]","action_history":"[0,1,1,1,0]","mutagen_history":"[0,1,1,1,0]","location_rts":"[812,466,528,1426,440]","trial_type":"fractal-mutation","trial_index":97,"time_elapsed":1689358,"internal_node_id":"0.0-5.0-43.0"},{"group":"hexagon_tri","fractal_assignment":["../images/gry_blk.png","../images/blu_wht.png","../images/org_blu.png","../images/ylw_slt.png","../images/cyn_red.png","../images/pnk_blu.png"],"mutagen_generator_assignment":[0,1],"goal":2,"start":0,"action_noise":0.15,"location_history":"[0,1,5,4,0,1,3,2]","action_history":"[1,1,0,1,1,0,0]","mutagen_history":"[1,1,0,1,1,0,0]","location_rts":"[9566,588,666,944,1332,602,980]","trial_type":"fractal-mutation","trial_index":98,"time_elapsed":1715506,"internal_node_id":"0.0-5.0-44.0"},{"group":"hexagon_tri","fractal_assignment":["../images/gry_blk.png","../images/blu_wht.png","../images/org_blu.png","../images/ylw_slt.png","../images/cyn_red.png","../images/pnk_blu.png"],"mutagen_generator_assignment":[0,1],"goal":4,"start":2,"action_noise":0.15,"location_history":"[2,3,4]","action_history":"[1,1]","mutagen_history":"[1,1]","location_rts":"[1142,554]","trial_type":"fractal-mutation","trial_index":99,"time_elapsed":1723006,"internal_node_id":"0.0-5.0-45.0"},{"group":"hexagon_tri","fractal_assignment":["../images/gry_blk.png","../images/blu_wht.png","../images/org_blu.png","../images/ylw_slt.png","../images/cyn_red.png","../images/pnk_blu.png"],"mutagen_generator_assignment":[0,1],"goal":1,"start":4,"action_noise":0.15,"location_history":"[4,0,1]","action_history":"[0,0]","mutagen_history":"[0,0]","location_rts":"[944,594]","trial_type":"fractal-mutation","trial_index":100,"time_elapsed":1730336,"internal_node_id":"0.0-5.0-46.0"},{"group":"hexagon_tri","fractal_assignment":["../images/gry_blk.png","../images/blu_wht.png","../images/org_blu.png","../images/ylw_slt.png","../images/cyn_red.png","../images/pnk_blu.png"],"mutagen_generator_assignment":[0,1],"goal":4,"start":1,"action_noise":0.15,"location_history":"[1,5,4]","action_history":"[1,0]","mutagen_history":"[1,0]","location_rts":"[1148,902]","trial_type":"fractal-mutation","trial_index":101,"time_elapsed":1738172,"internal_node_id":"0.0-5.0-47.0"},{"group":"hexagon_tri","fractal_assignment":["../images/gry_blk.png","../images/blu_wht.png","../images/org_blu.png","../images/ylw_slt.png","../images/cyn_red.png","../images/pnk_blu.png"],"mutagen_generator_assignment":[0,1],"goal":3,"start":4,"action_noise":0.15,"location_history":"[4,0,1,5,0,5,4,2,1,5,4,0,5,0,5,4,0,1,3]","action_history":"[0,1,1,1,0,0,1,1,1,0,0,0,1,0,0,1,1,0]","mutagen_history":"[0,1,1,1,0,0,1,1,1,0,0,0,1,0,0,1,1,0]","location_rts":"[780,1258,562,2796,648,498,782,492,454,370,568,478,558,574,564,538,468,856]","trial_type":"fractal-mutation","trial_index":102,"time_elapsed":1775306,"internal_node_id":"0.0-5.0-48.0"},{"group":"hexagon_tri","fractal_assignment":["../images/gry_blk.png","../images/blu_wht.png","../images/org_blu.png","../images/ylw_slt.png","../images/cyn_red.png","../images/pnk_blu.png"],"mutagen_generator_assignment":[0,1],"goal":5,"start":3,"action_noise":0.15,"location_history":"[3,4,0,5]","action_history":"[1,0,0]","mutagen_history":"[1,0,0]","location_rts":"[1534,602,764]","trial_type":"fractal-mutation","trial_index":103,"time_elapsed":1785128,"internal_node_id":"0.0-5.0-49.0"},{"view_history":"[{\"page_index\":0,\"viewing_time\":5852}]","rt":5852,"trial_type":"instructions","trial_index":104,"time_elapsed":1791992,"internal_node_id":"0.0-6.0"},{"rt":11504,"responses":"{\"Q0\":\"Interesting and engaging hit. Looking forward to next ones. Thanks\"}","trial_type":"survey-text","trial_index":105,"time_elapsed":1804516,"internal_node_id":"0.0-7.0"}]