[{"view_history":"[{\"page_index\":0,\"viewing_time\":39217},{\"page_index\":1,\"viewing_time\":8892},{\"page_index\":2,\"viewing_time\":12314},{\"page_index\":3,\"viewing_time\":6925}]","rt":67349,"trial_type":"instructions","trial_index":0,"time_elapsed":67351,"internal_node_id":"0.0-0.0"},{"view_history":"[{\"page_index\":0,\"viewing_time\":4570},{\"page_index\":1,\"viewing_time\":11020}]","rt":15591,"trial_type":"instructions","trial_index":1,"time_elapsed":83942,"internal_node_id":"0.0-1.0"},{"group":"hexagon_tri","room_assignment":["purple","red","grey","green","yellow","blue"],"door_color_assignment":["white","black"],"door_generator_assignment":[1,0],"goal":4,"start":0,"action_noise":0.15,"location_history":"[0,1,3,2,3,2,3,4]","action_history":"[1,0,0,1,0,1,1]","door_history":"[0,1,1,0,1,0,0]","location_rts":"[2808,1339,67,1053,237,1210,733]","trial_type":"two-door-navigation","trial_index":2,"time_elapsed":102046,"internal_node_id":"0.0-2.0-0.0"},{"group":"hexagon_tri","room_assignment":["purple","red","grey","green","yellow","blue"],"door_color_assignment":["white","black"],"door_generator_assignment":[1,0],"goal":3,"start":4,"action_noise":0.15,"location_history":"[4,0,5,4,0,5,4,2,3]","action_history":"[0,0,0,0,0,0,1,1]","door_history":"[1,1,1,1,1,1,0,0]","location_rts":"[1549,209,106,13,583,197,349,191]","trial_type":"two-door-navigation","trial_index":3,"time_elapsed":116923,"internal_node_id":"0.0-2.0-1.0"},{"group":"hexagon_tri","room_assignment":["purple","red","grey","green","yellow","blue"],"door_color_assignment":["white","black"],"door_generator_assignment":[1,0],"goal":5,"start":3,"action_noise":0.15,"location_history":"[3,4,2,3,4,2,1,3,4,0,1,5]","action_history":"[1,1,0,1,0,0,0,0,1,1,1]","door_history":"[0,0,1,0,1,1,1,1,0,0,0]","location_rts":"[1223,767,672,595,563,315,675,616,697,682,1047]","trial_type":"two-door-navigation","trial_index":4,"time_elapsed":139514,"internal_node_id":"0.0-2.0-2.0"},{"group":"hexagon_tri","room_assignment":["purple","red","grey","green","yellow","blue"],"door_color_assignment":["white","black"],"door_generator_assignment":[1,0],"goal":2,"start":5,"action_noise":0.15,"location_history":"[5,4,0,5,0,5,4,0,5,0,5,0,5,0,1,3,4,2]","action_history":"[1,0,0,0,0,0,0,0,0,0,0,0,1,1,1,1,1]","door_history":"[0,1,1,1,1,1,1,1,1,1,1,1,0,0,0,0,0]","location_rts":"[1131,638,603,624,834,622,563,727,728,1054,16,690,823,1157,52,953,978]","trial_type":"two-door-navigation","trial_index":5,"time_elapsed":172561,"internal_node_id":"0.0-2.0-3.0"},{"group":"hexagon_tri","room_assignment":["purple","red","grey","green","yellow","blue"],"door_color_assignment":["white","black"],"door_generator_assignment":[1,0],"goal":1,"start":2,"action_noise":0.15,"location_history":"[2,3,2,1]","action_history":"[0,0,0]","door_history":"[1,1,1]","location_rts":"[1389,401,240]","trial_type":"two-door-navigation","trial_index":6,"time_elapsed":181158,"internal_node_id":"0.0-2.0-4.0"},{"group":"hexagon_tri","room_assignment":["purple","red","grey","green","yellow","blue"],"door_color_assignment":["white","black"],"door_generator_assignment":[1,0],"goal":4,"start":1,"action_noise":0.15,"location_history":"[1,3,4]","action_history":"[1,1]","door_history":"[0,0]","location_rts":"[958,245]","trial_type":"two-door-navigation","trial_index":7,"time_elapsed":187907,"internal_node_id":"0.0-2.0-5.0"},{"group":"hexagon_tri","room_assignment":["purple","red","grey","green","yellow","blue"],"door_color_assignment":["white","black"],"door_generator_assignment":[1,0],"goal":1,"start":4,"action_noise":0.15,"location_history":"[4,2,3,4,2,1]","action_history":"[1,1,1,1,0]","door_history":"[0,0,0,0,1]","location_rts":"[1228,34,793,175,319]","trial_type":"two-door-navigation","trial_index":8,"time_elapsed":199057,"internal_node_id":"0.0-2.0-6.0"},{"group":"hexagon_tri","room_assignment":["purple","red","grey","green","yellow","blue"],"door_color_assignment":["white","black"],"door_generator_assignment":[1,0],"goal":5,"start":1,"action_noise":0.15,"location_history":"[1,5]","action_history":"[1]","door_history":"[0]","location_rts":"[5184]","trial_type":"two-door-navigation","trial_index":9,"time_elapsed":208767,"internal_node_id":"0.0-2.0-7.0"},{"group":"hexagon_tri","room_assignment":["purple","red","grey","green","yellow","blue"],"door_color_assignment":["white","black"],"door_generator_assignment":[1,0],"goal":0,"start":5,"action_noise":0.15,"location_history":"[5,4,2,3,2,3,2,1,5,0]","action_history":"[1,1,1,0,0,0,0,1,1]","door_history":"[0,0,0,1,1,1,1,0,0]","location_rts":"[659,1049,378,2494,769,2771,847,1405,111]","trial_type":"two-door-navigation","trial_index":10,"time_elapsed":231946,"internal_node_id":"0.0-2.0-8.0"},{"group":"hexagon_tri","room_assignment":["purple","red","grey","green","yellow","blue"],"door_color_assignment":["white","black"],"door_generator_assignment":[1,0],"goal":2,"start":0,"action_noise":0.15,"location_history":"[0,5,4,0,5,4,0,5,4,0,1,5,0,1,5,0,1,5,4,2]","action_history":"[0,0,0,0,0,0,0,0,1,1,1,1,1,1,1,1,1,0,1]","door_history":"[1,1,1,1,1,1,1,1,0,0,0,0,0,0,0,0,0,1,0]","location_rts":"[1315,121,429,774,1039,345,267,8,810,171,481,138,215,29994,1420,8959,2727,2096,2157]","trial_type":"two-door-navigation","trial_index":11,"time_elapsed":308293,"internal_node_id":"0.0-2.0-9.0"},{"group":"hexagon_tri","room_assignment":["purple","red","grey","green","yellow","blue"],"door_color_assignment":["white","black"],"door_generator_assignment":[1,0],"goal":3,"start":2,"action_noise":0.15,"location_history":"[2,3]","action_history":"[1]","door_history":"[0]","location_rts":"[7163]","trial_type":"two-door-navigation","trial_index":12,"time_elapsed":319981,"internal_node_id":"0.0-2.0-10.0"},{"group":"hexagon_tri","room_assignment":["purple","red","grey","green","yellow","blue"],"door_color_assignment":["white","black"],"door_generator_assignment":[1,0],"goal":0,"start":3,"action_noise":0.15,"location_history":"[3,4,2,3,4,2,1,5,0]","action_history":"[1,1,1,1,1,0,1,1]","door_history":"[0,0,0,0,0,1,0,0]","location_rts":"[1464,396,430,2235,624,1934,3814,223]","trial_type":"two-door-navigation","trial_index":13,"time_elapsed":342762,"internal_node_id":"0.0-2.0-11.0"},{"group":"hexagon_tri","room_assignment":["purple","red","grey","green","yellow","blue"],"door_color_assignment":["white","black"],"door_generator_assignment":[1,0],"goal":2,"start":0,"action_noise":0.15,"location_history":"[0,1,5,0,1,5,4,0,1,3,4,0,5,0,1,5,0,5,4,0,1,3,4,2]","action_history":"[1,1,1,1,1,0,0,1,0,1,0,0,1,1,1,1,1,0,0,1,0,1,1]","door_history":"[0,0,0,0,0,1,1,0,1,0,1,1,0,0,0,0,0,1,1,0,1,0,0]","location_rts":"[867,63,288,123,42,222,110,748,320,88,165,774,101,35,663,527,647,517,40,863,1231,422,691]","trial_type":"two-door-navigation","trial_index":14,"time_elapsed":379277,"internal_node_id":"0.0-2.0-12.0"},{"group":"hexagon_tri","room_assignment":["purple","red","grey","green","yellow","blue"],"door_color_assignment":["white","black"],"door_generator_assignment":[1,0],"goal":5,"start":2,"action_noise":0.15,"location_history":"[2,3,4,0,5]","action_history":"[1,1,1,0]","door_history":"[0,0,0,1]","location_rts":"[994,231,78,419]","trial_type":"two-door-navigation","trial_index":15,"time_elapsed":388590,"internal_node_id":"0.0-2.0-13.0"},{"group":"hexagon_tri","room_assignment":["purple","red","grey","green","yellow","blue"],"door_color_assignment":["white","black"],"door_generator_assignment":[1,0],"goal":4,"start":5,"action_noise":0.15,"location_history":"[5,0,1,5,0,5,4]","action_history":"[1,1,1,1,0,0]","door_history":"[0,0,0,0,1,1]","location_rts":"[1155,104,129,660,525,842]","trial_type":"two-door-navigation","trial_index":16,"time_elapsed":401621,"internal_node_id":"0.0-2.0-14.0"},{"group":"hexagon_tri","room_assignment":["purple","red","grey","green","yellow","blue"],"door_color_assignment":["white","black"],"door_generator_assignment":[1,0],"goal":3,"start":4,"action_noise":0.15,"location_history":"[4,0,1,5,4,0,5,4,0,1,5,4,0,1,5,0,5,4,2,3]","action_history":"[0,0,1,0,0,0,0,0,1,1,0,0,1,1,1,0,0,1,1]","door_history":"[1,1,0,1,1,1,1,1,0,0,1,1,0,0,0,1,1,0,0]","location_rts":"[1118,1212,546,187,667,22,61,604,434,253,563,681,816,628,731,642,758,521,661]","trial_type":"two-door-navigation","trial_index":17,"time_elapsed":435618,"internal_node_id":"0.0-2.0-15.0"},{"group":"hexagon_tri","room_assignment":["purple","red","grey","green","yellow","blue"],"door_color_assignment":["white","black"],"door_generator_assignment":[1,0],"goal":1,"start":3,"action_noise":0.15,"location_history":"[3,2,3,4,2,3,4,2,3,2,3,2,3,4,2,1]","action_history":"[0,1,1,1,1,1,1,1,0,1,1,1,1,1,0]","door_history":"[1,0,0,0,0,0,0,0,1,0,0,0,0,0,1]","location_rts":"[3523,515,583,66,106,3818,24155,783,1197,1132,936,168,742,129,1031]","trial_type":"two-door-navigation","trial_index":18,"time_elapsed":493318,"internal_node_id":"0.0-2.0-16.0"},{"group":"hexagon_tri","room_assignment":["purple","red","grey","green","yellow","blue"],"door_color_assignment":["white","black"],"door_generator_assignment":[1,0],"goal":5,"start":1,"action_noise":0.15,"location_history":"[1,5]","action_history":"[1]","door_history":"[0]","location_rts":"[1969]","trial_type":"two-door-navigation","trial_index":19,"time_elapsed":499815,"internal_node_id":"0.0-2.0-17.0"},{"group":"hexagon_tri","room_assignment":["purple","red","grey","green","yellow","blue"],"door_color_assignment":["white","black"],"door_generator_assignment":[1,0],"goal":4,"start":5,"action_noise":0.15,"location_history":"[5,0,1,5,0,1,5,0,5,0,5,4]","action_history":"[1,1,1,0,1,1,1,0,1,1,1]","door_history":"[0,0,0,1,0,0,0,1,0,0,0]","location_rts":"[1029,581,330,359,2745,1875,283,348,339,620,562]","trial_type":"two-door-navigation","trial_index":20,"time_elapsed":523615,"internal_node_id":"0.0-2.0-18.0"},{"group":"hexagon_tri","room_assignment":["purple","red","grey","green","yellow","blue"],"door_color_assignment":["white","black"],"door_generator_assignment":[1,0],"goal":0,"start":4,"action_noise":0.15,"location_history":"[4,2,1,3,2,3,4,2,3,4,2,1,5,4,0]","action_history":"[1,1,0,1,1,1,1,1,1,1,1,1,0,0]","door_history":"[0,0,1,0,0,0,0,0,0,0,0,0,1,1]","location_rts":"[648,465,294,424,727,140,647,452,294,377,660,682,752,1166]","trial_type":"two-door-navigation","trial_index":21,"time_elapsed":549119,"internal_node_id":"0.0-2.0-19.0"},{"group":"hexagon_tri","room_assignment":["purple","red","grey","green","yellow","blue"],"door_color_assignment":["white","black"],"door_generator_assignment":[1,0],"goal":1,"start":0,"action_noise":0.15,"location_history":"[0,1]","action_history":"[1]","door_history":"[0]","location_rts":"[1232]","trial_type":"two-door-navigation","trial_index":22,"time_elapsed":554880,"internal_node_id":"0.0-2.0-20.0"},{"group":"hexagon_tri","room_assignment":["purple","red","grey","green","yellow","blue"],"door_color_assignment":["white","black"],"door_generator_assignment":[1,0],"goal":3,"start":1,"action_noise":0.15,"location_history":"[1,5,0,1,5,0,1,5,0,5,0,5,0,5,0,1,5,0,1,5,0,1,3]","action_history":"[1,1,1,1,1,1,1,1,0,1,1,1,1,1,1,1,1,1,1,1,0,0]","door_history":"[0,0,0,0,0,0,0,0,1,0,0,0,0,0,0,0,0,0,0,0,1,1]","location_rts":"[801,501,1766,208,94,396,167,1047,1488,714,788,650,896,260,341,858,259,167,35,878,562,802]","trial_type":"two-door-navigation","trial_index":23,"time_elapsed":594493,"internal_node_id":"0.0-2.0-21.0"},{"group":"hexagon_tri","room_assignment":["purple","red","grey","green","yellow","blue"],"door_color_assignment":["white","black"],"door_generator_assignment":[1,0],"goal":2,"start":3,"action_noise":0.15,"location_history":"[3,4,2]","action_history":"[1,1]","door_history":"[0,0]","location_rts":"[4096,272]","trial_type":"two-door-navigation","trial_index":24,"time_elapsed":604409,"internal_node_id":"0.0-2.0-22.0"},{"group":"hexagon_tri","room_assignment":["purple","red","grey","green","yellow","blue"],"door_color_assignment":["white","black"],"door_generator_assignment":[1,0],"goal":0,"start":2,"action_noise":0.15,"location_history":"[2,3,4,0]","action_history":"[1,1,1]","door_history":"[0,0,0]","location_rts":"[823,595,297]","trial_type":"two-door-navigation","trial_index":25,"time_elapsed":612689,"internal_node_id":"0.0-2.0-23.0"},{"group":"hexagon_tri","room_assignment":["purple","red","grey","green","yellow","blue"],"door_color_assignment":["white","black"],"door_generator_assignment":[1,0],"goal":3,"start":0,"action_noise":0.15,"location_history":"[0,1,5,4,2,3]","action_history":"[1,1,0,1,1]","door_history":"[0,0,1,0,0]","location_rts":"[1652,492,49,580,341]","trial_type":"two-door-navigation","trial_index":26,"time_elapsed":624411,"internal_node_id":"0.0-2.0-24.0"},{"group":"hexagon_tri","room_assignment":["purple","red","grey","green","yellow","blue"],"door_color_assignment":["white","black"],"door_generator_assignment":[1,0],"goal":1,"start":3,"action_noise":0.15,"location_history":"[3,4,2,3,4,0,5,0,1]","action_history":"[1,1,1,1,0,0,1,1]","door_history":"[0,0,0,0,1,1,0,0]","location_rts":"[1162,625,637,502,418,681,696,579]","trial_type":"two-door-navigation","trial_index":27,"time_elapsed":641412,"internal_node_id":"0.0-2.0-25.0"},{"group":"hexagon_tri","room_assignment":["purple","red","grey","green","yellow","blue"],"door_color_assignment":["white","black"],"door_generator_assignment":[1,0],"goal":2,"start":1,"action_noise":0.15,"location_history":"[1,5,4,2]","action_history":"[1,1,1]","door_history":"[0,0,0]","location_rts":"[6206,171,15206]","trial_type":"two-door-navigation","trial_index":28,"time_elapsed":669563,"internal_node_id":"0.0-2.0-26.0"},{"group":"hexagon_tri","room_assignment":["purple","red","grey","green","yellow","blue"],"door_color_assignment":["white","black"],"door_generator_assignment":[1,0],"goal":5,"start":2,"action_noise":0.15,"location_history":"[2,3,2,3,4,2,3,4,2,3,2,3,4,2,1,5]","action_history":"[1,0,1,1,1,1,1,1,1,0,0,1,0,0,1]","door_history":"[0,1,0,0,0,0,0,0,0,1,1,0,1,1,0]","location_rts":"[1139,448,138,801,6344,722,878,717,1018,888,1321,467,747,551,3123]","trial_type":"two-door-navigation","trial_index":29,"time_elapsed":707660,"internal_node_id":"0.0-2.0-27.0"},{"group":"hexagon_tri","room_assignment":["purple","red","grey","green","yellow","blue"],"door_color_assignment":["white","black"],"door_generator_assignment":[1,0],"goal":4,"start":5,"action_noise":0.15,"location_history":"[5,4]","action_history":"[0]","door_history":"[1]","location_rts":"[701]","trial_type":"two-door-navigation","trial_index":30,"time_elapsed":712887,"internal_node_id":"0.0-2.0-28.0"},{"group":"hexagon_tri","room_assignment":["purple","red","grey","green","yellow","blue"],"door_color_assignment":["white","black"],"door_generator_assignment":[1,0],"goal":5,"start":4,"action_noise":0.15,"location_history":"[4,0,5]","action_history":"[1,0]","door_history":"[0,1]","location_rts":"[915,279]","trial_type":"two-door-navigation","trial_index":31,"time_elapsed":719624,"internal_node_id":"0.0-2.0-29.0"},{"group":"hexagon_tri","room_assignment":["purple","red","grey","green","yellow","blue"],"door_color_assignment":["white","black"],"door_generator_assignment":[1,0],"goal":3,"start":5,"action_noise":0.15,"location_history":"[5,0,1,5,4,2,1,5,0,5,4,2,1,5,0,1,3]","action_history":"[1,1,1,0,1,0,0,1,1,0,1,0,0,1,1,1]","door_history":"[0,0,0,1,0,1,1,0,0,1,0,1,1,0,0,0]","location_rts":"[1191,92,153,348,1765,329,1069,444,99,663,385,33,692,719,85,383]","trial_type":"two-door-navigation","trial_index":32,"time_elapsed":747894,"internal_node_id":"0.0-2.0-30.0"},{"group":"hexagon_tri","room_assignment":["purple","red","grey","green","yellow","blue"],"door_color_assignment":["white","black"],"door_generator_assignment":[1,0],"goal":0,"start":3,"action_noise":0.15,"location_history":"[3,4,0]","action_history":"[1,0]","door_history":"[0,1]","location_rts":"[883,789]","trial_type":"two-door-navigation","trial_index":33,"time_elapsed":755108,"internal_node_id":"0.0-2.0-31.0"},{"group":"hexagon_tri","room_assignment":["purple","red","grey","green","yellow","blue"],"door_color_assignment":["white","black"],"door_generator_assignment":[1,0],"goal":4,"start":0,"action_noise":0.15,"location_history":"[0,1,3,4]","action_history":"[1,0,1]","door_history":"[0,1,0]","location_rts":"[1270,649,878]","trial_type":"two-door-navigation","trial_index":34,"time_elapsed":764465,"internal_node_id":"0.0-2.0-32.0"},{"group":"hexagon_tri","room_assignment":["purple","red","grey","green","yellow","blue"],"door_color_assignment":["white","black"],"door_generator_assignment":[1,0],"goal":1,"start":4,"action_noise":0.15,"location_history":"[4,0,1]","action_history":"[0,1]","door_history":"[1,0]","location_rts":"[1014,665]","trial_type":"two-door-navigation","trial_index":35,"time_elapsed":771686,"internal_node_id":"0.0-2.0-33.0"},{"group":"hexagon_tri","room_assignment":["purple","red","grey","green","yellow","blue"],"door_color_assignment":["white","black"],"door_generator_assignment":[1,0],"goal":2,"start":1,"action_noise":0.15,"location_history":"[1,3,2]","action_history":"[0,0]","door_history":"[1,1]","location_rts":"[1271,1377]","trial_type":"two-door-navigation","trial_index":36,"time_elapsed":779881,"internal_node_id":"0.0-2.0-34.0"},{"group":"hexagon_tri","room_assignment":["purple","red","grey","green","yellow","blue"],"door_color_assignment":["white","black"],"door_generator_assignment":[1,0],"goal":0,"start":2,"action_noise":0.15,"location_history":"[2,1,5,4,2,3,2,1,5,0]","action_history":"[1,0,0,1,1,0,0,1,1]","door_history":"[0,1,1,0,0,1,1,0,0]","location_rts":"[1676,697,847,538,350,591,310,594,530]","trial_type":"two-door-navigation","trial_index":37,"time_elapsed":798701,"internal_node_id":"0.0-2.0-35.0"},{"group":"hexagon_tri","room_assignment":["purple","red","grey","green","yellow","blue"],"door_color_assignment":["white","black"],"door_generator_assignment":[1,0],"goal":5,"start":0,"action_noise":0.15,"location_history":"[0,1,5]","action_history":"[1,1]","door_history":"[0,0]","location_rts":"[2027,7]","trial_type":"two-door-navigation","trial_index":38,"time_elapsed":806279,"internal_node_id":"0.0-2.0-36.0"},{"group":"hexagon_tri","room_assignment":["purple","red","grey","green","yellow","blue"],"door_color_assignment":["white","black"],"door_generator_assignment":[1,0],"goal":2,"start":5,"action_noise":0.15,"location_history":"[5,4,0,1,5,4,0,5,4,2]","action_history":"[0,0,1,1,0,0,0,0,1]","door_history":"[1,1,0,0,1,1,1,1,0]","location_rts":"[2111,31,78,428,566,650,798,12,733]","trial_type":"two-door-navigation","trial_index":39,"time_elapsed":824370,"internal_node_id":"0.0-2.0-37.0"},{"group":"hexagon_tri","room_assignment":["purple","red","grey","green","yellow","blue"],"door_color_assignment":["white","black"],"door_generator_assignment":[1,0],"goal":1,"start":2,"action_noise":0.15,"location_history":"[2,1]","action_history":"[1]","door_history":"[0]","location_rts":"[4646]","trial_type":"two-door-navigation","trial_index":40,"time_elapsed":833542,"internal_node_id":"0.0-2.0-38.0"},{"group":"hexagon_tri","room_assignment":["purple","red","grey","green","yellow","blue"],"door_color_assignment":["white","black"],"door_generator_assignment":[1,0],"goal":4,"start":1,"action_noise":0.15,"location_history":"[1,5,0,5,4]","action_history":"[1,1,0,0]","door_history":"[0,0,1,1]","location_rts":"[766,513,351,95]","trial_type":"two-door-navigation","trial_index":41,"time_elapsed":842849,"internal_node_id":"0.0-2.0-39.0"},{"group":"hexagon_tri","room_assignment":["purple","red","grey","green","yellow","blue"],"door_color_assignment":["white","black"],"door_generator_assignment":[1,0],"goal":3,"start":4,"action_noise":0.15,"location_history":"[4,2,1,5,0,5,0,1,3]","action_history":"[1,0,1,0,0,1,1,0]","door_history":"[0,1,0,1,1,0,0,1]","location_rts":"[1190,9,20,761,1921,155,734,117]","trial_type":"two-door-navigation","trial_index":42,"time_elapsed":859419,"internal_node_id":"0.0-2.0-40.0"},{"group":"hexagon_tri","room_assignment":["purple","red","grey","green","yellow","blue"],"door_color_assignment":["white","black"],"door_generator_assignment":[1,0],"goal":5,"start":3,"action_noise":0.15,"location_history":"[3,2,1,3,2,3,4,2,3,4,2,3,2,3,4,0,1,5]","action_history":"[0,1,1,0,0,1,1,1,1,1,1,0,1,1,0,1,1]","door_history":"[1,0,0,1,1,0,0,0,0,0,0,1,0,0,1,0,0]","location_rts":"[6760,271,682,1615,690,271,479,1312,813,1277,2824,11381,73,692,1614,3217,1481]","trial_type":"two-door-navigation","trial_index":43,"time_elapsed":915726,"internal_node_id":"0.0-2.0-41.0"},{"group":"hexagon_tri","room_assignment":["purple","red","grey","green","yellow","blue"],"door_color_assignment":["white","black"],"door_generator_assignment":[1,0],"goal":3,"start":5,"action_noise":0.15,"location_history":"[5,4,0,1,3]","action_history":"[0,0,1,1]","door_history":"[1,1,0,0]","location_rts":"[2233,393,264,637]","trial_type":"two-door-navigation","trial_index":44,"time_elapsed":926837,"internal_node_id":"0.0-2.0-42.0"},{"group":"hexagon_tri","room_assignment":["purple","red","grey","green","yellow","blue"],"door_color_assignment":["white","black"],"door_generator_assignment":[1,0],"goal":0,"start":3,"action_noise":0.15,"location_history":"[3,4,2,1,3,4,0]","action_history":"[1,1,0,0,1,1]","door_history":"[0,0,1,1,0,0]","location_rts":"[841,164,304,251,170,122]","trial_type":"two-door-navigation","trial_index":45,"time_elapsed":938318,"internal_node_id":"0.0-2.0-43.0"},{"group":"hexagon_tri","room_assignment":["purple","red","grey","green","yellow","blue"],"door_color_assignment":["white","black"],"door_generator_assignment":[1,0],"goal":2,"start":0,"action_noise":0.15,"location_history":"[0,1,5,4,0,1,3,2]","action_history":"[1,1,0,0,1,0,0]","door_history":"[0,0,1,1,0,1,1]","location_rts":"[1004,37,1002,349,695,744,182]","trial_type":"two-door-navigation","trial_index":46,"time_elapsed":953000,"internal_node_id":"0.0-2.0-44.0"},{"group":"hexagon_tri","room_assignment":["purple","red","grey","green","yellow","blue"],"door_color_assignment":["white","black"],"door_generator_assignment":[1,0],"goal":4,"start":2,"action_noise":0.15,"location_history":"[2,1,3,4]","action_history":"[0,0,1]","door_history":"[1,1,0]","location_rts":"[1688,882,66]","trial_type":"two-door-navigation","trial_index":47,"time_elapsed":962202,"internal_node_id":"0.0-2.0-45.0"},{"group":"hexagon_tri","room_assignment":["purple","red","grey","green","yellow","blue"],"door_color_assignment":["white","black"],"door_generator_assignment":[1,0],"goal":1,"start":4,"action_noise":0.15,"location_history":"[4,2,3,2,1]","action_history":"[1,1,0,0]","door_history":"[0,0,1,1]","location_rts":"[1175,570,338,836]","trial_type":"two-door-navigation","trial_index":48,"time_elapsed":972714,"internal_node_id":"0.0-2.0-46.0"},{"group":"hexagon_tri","room_assignment":["purple","red","grey","green","yellow","blue"],"door_color_assignment":["white","black"],"door_generator_assignment":[1,0],"goal":4,"start":1,"action_noise":0.15,"location_history":"[1,5,0,5,4]","action_history":"[1,1,0,0]","door_history":"[0,0,1,1]","location_rts":"[1315,557,568,549]","trial_type":"two-door-navigation","trial_index":49,"time_elapsed":983287,"internal_node_id":"0.0-2.0-47.0"},{"group":"hexagon_tri","room_assignment":["purple","red","grey","green","yellow","blue"],"door_color_assignment":["white","black"],"door_generator_assignment":[1,0],"goal":3,"start":4,"action_noise":0.15,"location_history":"[4,2,3]","action_history":"[1,1]","door_history":"[0,0]","location_rts":"[1048,785]","trial_type":"two-door-navigation","trial_index":50,"time_elapsed":990662,"internal_node_id":"0.0-2.0-48.0"},{"group":"hexagon_tri","room_assignment":["purple","red","grey","green","yellow","blue"],"door_color_assignment":["white","black"],"door_generator_assignment":[1,0],"goal":5,"start":3,"action_noise":0.15,"location_history":"[3,2,3,4,0,1,3,2,1,5]","action_history":"[0,0,0,0,1,1,0,0,1]","door_history":"[1,1,1,1,0,0,1,1,0]","location_rts":"[1212,97,610,328,538,163,255,371,777]","trial_type":"two-door-navigation","trial_index":51,"time_elapsed":1007701,"internal_node_id":"0.0-2.0-49.0"},{"view_history":"[{\"page_index\":0,\"viewing_time\":3601}]","rt":3602,"trial_type":"instructions","trial_index":52,"time_elapsed":1012305,"internal_node_id":"0.0-3.0"},{"view_history":"[{\"page_index\":0,\"viewing_time\":3613},{\"page_index\":1,\"viewing_time\":86428}]","rt":90041,"trial_type":"instructions","trial_index":53,"time_elapsed":1103348,"internal_node_id":"0.0-4.0"},{"group":"hexagon_bi","fractal_assignment":["../images/org_blu.png","../images/gry_blk.png","../images/ylw_slt.png","../images/blu_wht.png","../images/pnk_blu.png","../images/cyn_red.png"],"mutagen_generator_assignment":[1,0],"goal":4,"start":0,"action_noise":0.15,"location_history":"[0,1,2,1,2,1,2,1,0,1,0,5,4]","action_history":"[1,0,1,1,0,0,0,1,1,1,0,1]","mutagen_history":"[0,1,0,0,1,1,1,0,0,0,1,0]","location_rts":"[7778,1429,1256,679,544,686,334,258,685,410,765,2690]","trial_type":"fractal-mutation","trial_index":54,"time_elapsed":1136796,"internal_node_id":"0.0-5.0-0.0"},{"group":"hexagon_bi","fractal_assignment":["../images/org_blu.png","../images/gry_blk.png","../images/ylw_slt.png","../images/blu_wht.png","../images/pnk_blu.png","../images/cyn_red.png"],"mutagen_generator_assignment":[1,0],"goal":3,"start":4,"action_noise":0.15,"location_history":"[4,3]","action_history":"[0]","mutagen_history":"[1]","location_rts":"[843]","trial_type":"fractal-mutation","trial_index":55,"time_elapsed":1142197,"internal_node_id":"0.0-5.0-1.0"},{"group":"hexagon_bi","fractal_assignment":["../images/org_blu.png","../images/gry_blk.png","../images/ylw_slt.png","../images/blu_wht.png","../images/pnk_blu.png","../images/cyn_red.png"],"mutagen_generator_assignment":[1,0],"goal":5,"start":3,"action_noise":0.15,"location_history":"[3,2,1,0,1,0,5]","action_history":"[1,0,1,1,1,0]","mutagen_history":"[0,1,0,0,0,1]","location_rts":"[5092,7918,310,186,589,735]","trial_type":"fractal-mutation","trial_index":56,"time_elapsed":1166735,"internal_node_id":"0.0-5.0-2.0"},{"group":"hexagon_bi","fractal_assignment":["../images/org_blu.png","../images/gry_blk.png","../images/ylw_slt.png","../images/blu_wht.png","../images/pnk_blu.png","../images/cyn_red.png"],"mutagen_generator_assignment":[1,0],"goal":2,"start":5,"action_noise":0.15,"location_history":"[5,4,5,0,5,4,5,4,3,2]","action_history":"[1,1,0,0,1,1,1,0,0]","mutagen_history":"[0,0,1,1,0,0,0,1,1]","location_rts":"[2013,540,177,672,765,903,1444,3583,43]","trial_type":"fractal-mutation","trial_index":57,"time_elapsed":1189666,"internal_node_id":"0.0-5.0-3.0"},{"group":"hexagon_bi","fractal_assignment":["../images/org_blu.png","../images/gry_blk.png","../images/ylw_slt.png","../images/blu_wht.png","../images/pnk_blu.png","../images/cyn_red.png"],"mutagen_generator_assignment":[1,0],"goal":1,"start":2,"action_noise":0.15,"location_history":"[2,3,2,1]","action_history":"[1,1,0]","mutagen_history":"[0,0,1]","location_rts":"[1267,1062,560]","trial_type":"fractal-mutation","trial_index":58,"time_elapsed":1199157,"internal_node_id":"0.0-5.0-4.0"},{"group":"hexagon_bi","fractal_assignment":["../images/org_blu.png","../images/gry_blk.png","../images/ylw_slt.png","../images/blu_wht.png","../images/pnk_blu.png","../images/cyn_red.png"],"mutagen_generator_assignment":[1,0],"goal":4,"start":1,"action_noise":0.15,"location_history":"[1,0,1,0,5,0,1,0,1,2,3,4]","action_history":"[1,1,1,0,0,1,1,0,0,1,1]","mutagen_history":"[0,0,0,1,1,0,0,1,1,0,0]","location_rts":"[800,1051,481,1006,443,997,130,1635,732,683,287]","trial_type":"fractal-mutation","trial_index":59,"time_elapsed":1222262,"internal_node_id":"0.0-5.0-5.0"},{"group":"hexagon_bi","fractal_assignment":["../images/org_blu.png","../images/gry_blk.png","../images/ylw_slt.png","../images/blu_wht.png","../images/pnk_blu.png","../images/cyn_red.png"],"mutagen_generator_assignment":[1,0],"goal":1,"start":4,"action_noise":0.15,"location_history":"[4,5,0,1]","action_history":"[1,1,1]","mutagen_history":"[0,0,0]","location_rts":"[1772,650,383]","trial_type":"fractal-mutation","trial_index":60,"time_elapsed":1231657,"internal_node_id":"0.0-5.0-6.0"},{"group":"hexagon_bi","fractal_assignment":["../images/org_blu.png","../images/gry_blk.png","../images/ylw_slt.png","../images/blu_wht.png","../images/pnk_blu.png","../images/cyn_red.png"],"mutagen_generator_assignment":[1,0],"goal":5,"start":1,"action_noise":0.15,"location_history":"[1,0,5]","action_history":"[1,1]","mutagen_history":"[0,0]","location_rts":"[792,505]","trial_type":"fractal-mutation","trial_index":61,"time_elapsed":1238516,"internal_node_id":"0.0-5.0-7.0"},{"group":"hexagon_bi","fractal_assignment":["../images/org_blu.png","../images/gry_blk.png","../images/ylw_slt.png","../images/blu_wht.png","../images/pnk_blu.png","../images/cyn_red.png"],"mutagen_generator_assignment":[1,0],"goal":0,"start":5,"action_noise":0.15,"location_history":"[5,4,3,2,3,2,1,2,1,0]","action_history":"[1,0,1,1,1,0,0,1,1]","mutagen_history":"[0,1,0,0,0,1,1,0,0]","location_rts":"[3146,600,597,424,755,749,390,958,1072]","trial_type":"fractal-mutation","trial_index":62,"time_elapsed":1259984,"internal_node_id":"0.0-5.0-8.0"},{"group":"hexagon_bi","fractal_assignment":["../images/org_blu.png","../images/gry_blk.png","../images/ylw_slt.png","../images/blu_wht.png","../images/pnk_blu.png","../images/cyn_red.png"],"mutagen_generator_assignment":[1,0],"goal":2,"start":0,"action_noise":0.15,"location_history":"[0,1,2]","action_history":"[1,0]","mutagen_history":"[0,1]","location_rts":"[1142,977]","trial_type":"fractal-mutation","trial_index":63,"time_elapsed":1267670,"internal_node_id":"0.0-5.0-9.0"},{"group":"hexagon_bi","fractal_assignment":["../images/org_blu.png","../images/gry_blk.png","../images/ylw_slt.png","../images/blu_wht.png","../images/pnk_blu.png","../images/cyn_red.png"],"mutagen_generator_assignment":[1,0],"goal":3,"start":2,"action_noise":0.15,"location_history":"[2,3]","action_history":"[1]","mutagen_history":"[0]","location_rts":"[1528]","trial_type":"fractal-mutation","trial_index":64,"time_elapsed":1273728,"internal_node_id":"0.0-5.0-10.0"},{"group":"hexagon_bi","fractal_assignment":["../images/org_blu.png","../images/gry_blk.png","../images/ylw_slt.png","../images/blu_wht.png","../images/pnk_blu.png","../images/cyn_red.png"],"mutagen_generator_assignment":[1,0],"goal":0,"start":3,"action_noise":0.15,"location_history":"[3,2,1,0]","action_history":"[1,0,0]","mutagen_history":"[0,1,1]","location_rts":"[684,1054,737]","trial_type":"fractal-mutation","trial_index":65,"time_elapsed":1282805,"internal_node_id":"0.0-5.0-11.0"},{"group":"hexagon_bi","fractal_assignment":["../images/org_blu.png","../images/gry_blk.png","../images/ylw_slt.png","../images/blu_wht.png","../images/pnk_blu.png","../images/cyn_red.png"],"mutagen_generator_assignment":[1,0],"goal":2,"start":0,"action_noise":0.15,"location_history":"[0,1,0,1,2]","action_history":"[1,1,1,0]","mutagen_history":"[0,0,0,1]","location_rts":"[1086,887,114,1147]","trial_type":"fractal-mutation","trial_index":66,"time_elapsed":1293676,"internal_node_id":"0.0-5.0-12.0"},{"group":"hexagon_bi","fractal_assignment":["../images/org_blu.png","../images/gry_blk.png","../images/ylw_slt.png","../images/blu_wht.png","../images/pnk_blu.png","../images/cyn_red.png"],"mutagen_generator_assignment":[1,0],"goal":5,"start":2,"action_noise":0.15,"location_history":"[2,3,2,3,4,3,2,1,2,3,2,3,2,1,2,3,2,3,4,3,2,3,2,1,0,1,0,5]","action_history":"[1,1,1,0,0,1,1,1,1,0,1,1,0,1,1,1,1,0,0,1,1,1,0,0,1,1,1]","mutagen_history":"[0,0,0,1,1,0,0,0,0,1,0,0,1,0,0,0,0,1,1,0,0,0,1,1,0,0,0]","location_rts":"[2316,95,640,827,1382,36,902,1494,848,689,538,605,615,385,482,4817,370,382,190,568,1111,304,707,31,531,388,309]","trial_type":"fractal-mutation","trial_index":67,"time_elapsed":1346583,"internal_node_id":"0.0-5.0-13.0"},{"group":"hexagon_bi","fractal_assignment":["../images/org_blu.png","../images/gry_blk.png","../images/ylw_slt.png","../images/blu_wht.png","../images/pnk_blu.png","../images/cyn_red.png"],"mutagen_generator_assignment":[1,0],"goal":4,"start":5,"action_noise":0.15,"location_history":"[5,4]","action_history":"[1]","mutagen_history":"[0]","location_rts":"[1247]","trial_type":"fractal-mutation","trial_index":68,"time_elapsed":1352363,"internal_node_id":"0.0-5.0-14.0"},{"group":"hexagon_bi","fractal_assignment":["../images/org_blu.png","../images/gry_blk.png","../images/ylw_slt.png","../images/blu_wht.png","../images/pnk_blu.png","../images/cyn_red.png"],"mutagen_generator_assignment":[1,0],"goal":3,"start":4,"action_noise":0.15,"location_history":"[4,3]","action_history":"[0]","mutagen_history":"[1]","location_rts":"[824]","trial_type":"fractal-mutation","trial_index":69,"time_elapsed":1357728,"internal_node_id":"0.0-5.0-15.0"},{"group":"hexagon_bi","fractal_assignment":["../images/org_blu.png","../images/gry_blk.png","../images/ylw_slt.png","../images/blu_wht.png","../images/pnk_blu.png","../images/cyn_red.png"],"mutagen_generator_assignment":[1,0],"goal":1,"start":3,"action_noise":0.15,"location_history":"[3,2,1]","action_history":"[1,1]","mutagen_history":"[0,0]","location_rts":"[2966,567]","trial_type":"fractal-mutation","trial_index":70,"time_elapsed":1366827,"internal_node_id":"0.0-5.0-16.0"},{"group":"hexagon_bi","fractal_assignment":["../images/org_blu.png","../images/gry_blk.png","../images/ylw_slt.png","../images/blu_wht.png","../images/pnk_blu.png","../images/cyn_red.png"],"mutagen_generator_assignment":[1,0],"goal":5,"start":1,"action_noise":0.15,"location_history":"[1,0,5]","action_history":"[1,1]","mutagen_history":"[0,0]","location_rts":"[912,68]","trial_type":"fractal-mutation","trial_index":71,"time_elapsed":1373364,"internal_node_id":"0.0-5.0-17.0"},{"group":"hexagon_bi","fractal_assignment":["../images/org_blu.png","../images/gry_blk.png","../images/ylw_slt.png","../images/blu_wht.png","../images/pnk_blu.png","../images/cyn_red.png"],"mutagen_generator_assignment":[1,0],"goal":4,"start":5,"action_noise":0.15,"location_history":"[5,0,5,4]","action_history":"[0,0,1]","mutagen_history":"[1,1,0]","location_rts":"[1195,341,160]","trial_type":"fractal-mutation","trial_index":72,"time_elapsed":1381667,"internal_node_id":"0.0-5.0-18.0"},{"group":"hexagon_bi","fractal_assignment":["../images/org_blu.png","../images/gry_blk.png","../images/ylw_slt.png","../images/blu_wht.png","../images/pnk_blu.png","../images/cyn_red.png"],"mutagen_generator_assignment":[1,0],"goal":0,"start":4,"action_noise":0.15,"location_history":"[4,3,2,3,2,3,4,5,4,5,4,5,0]","action_history":"[0,1,1,0,1,0,1,1,1,1,1,0]","mutagen_history":"[1,0,0,1,0,1,0,0,0,0,0,1]","location_rts":"[1293,702,171,1234,1097,1944,1030,1879,865,746,372,126]","trial_type":"fractal-mutation","trial_index":73,"time_elapsed":1409004,"internal_node_id":"0.0-5.0-19.0"},{"group":"hexagon_bi","fractal_assignment":["../images/org_blu.png","../images/gry_blk.png","../images/ylw_slt.png","../images/blu_wht.png","../images/pnk_blu.png","../images/cyn_red.png"],"mutagen_generator_assignment":[1,0],"goal":1,"start":0,"action_noise":0.15,"location_history":"[0,5,4,5,4,5,4,3,2,1]","action_history":"[1,1,1,1,1,1,0,0,0]","mutagen_history":"[0,0,0,0,0,0,1,1,1]","location_rts":"[385,640,653,1466,2003,407,666,305,683]","trial_type":"fractal-mutation","trial_index":74,"time_elapsed":1428997,"internal_node_id":"0.0-5.0-20.0"},{"group":"hexagon_bi","fractal_assignment":["../images/org_blu.png","../images/gry_blk.png","../images/ylw_slt.png","../images/blu_wht.png","../images/pnk_blu.png","../images/cyn_red.png"],"mutagen_generator_assignment":[1,0],"goal":3,"start":1,"action_noise":0.15,"location_history":"[1,0,1,2,3]","action_history":"[1,1,0,0]","mutagen_history":"[0,0,1,1]","location_rts":"[1201,104,1331,628]","trial_type":"fractal-mutation","trial_index":75,"time_elapsed":1439900,"internal_node_id":"0.0-5.0-21.0"},{"group":"hexagon_bi","fractal_assignment":["../images/org_blu.png","../images/gry_blk.png","../images/ylw_slt.png","../images/blu_wht.png","../images/pnk_blu.png","../images/cyn_red.png"],"mutagen_generator_assignment":[1,0],"goal":2,"start":3,"action_noise":0.15,"location_history":"[3,2]","action_history":"[1]","mutagen_history":"[0]","location_rts":"[1099]","trial_type":"fractal-mutation","trial_index":76,"time_elapsed":1445533,"internal_node_id":"0.0-5.0-22.0"},{"group":"hexagon_bi","fractal_assignment":["../images/org_blu.png","../images/gry_blk.png","../images/ylw_slt.png","../images/blu_wht.png","../images/pnk_blu.png","../images/cyn_red.png"],"mutagen_generator_assignment":[1,0],"goal":0,"start":2,"action_noise":0.15,"location_history":"[2,1,0]","action_history":"[0,1]","mutagen_history":"[1,0]","location_rts":"[1073,988]","trial_type":"fractal-mutation","trial_index":77,"time_elapsed":1453154,"internal_node_id":"0.0-5.0-23.0"},{"group":"hexagon_bi","fractal_assignment":["../images/org_blu.png","../images/gry_blk.png","../images/ylw_slt.png","../images/blu_wht.png","../images/pnk_blu.png","../images/cyn_red.png"],"mutagen_generator_assignment":[1,0],"goal":3,"start":0,"action_noise":0.15,"location_history":"[0,1,2,1,0,1,0,5,4,3]","action_history":"[1,0,1,1,1,0,0,1,0]","mutagen_history":"[0,1,0,0,0,1,1,0,1]","location_rts":"[1718,670,535,646,767,1040,164,730,108]","trial_type":"fractal-mutation","trial_index":78,"time_elapsed":1472330,"internal_node_id":"0.0-5.0-24.0"},{"group":"hexagon_bi","fractal_assignment":["../images/org_blu.png","../images/gry_blk.png","../images/ylw_slt.png","../images/blu_wht.png","../images/pnk_blu.png","../images/cyn_red.png"],"mutagen_generator_assignment":[1,0],"goal":1,"start":3,"action_noise":0.15,"location_history":"[3,2,3,4,5,4,3,2,3,4,3,4,5,4,5,4,5,0,1]","action_history":"[1,1,0,1,1,0,1,1,0,1,0,1,0,1,0,1,0,1]","mutagen_history":"[0,0,1,0,0,1,0,0,1,0,1,0,1,0,1,0,1,0]","location_rts":"[724,171,287,902,6,2814,724,833,332,624,698,385,321,607,94,119,128,261]","trial_type":"fractal-mutation","trial_index":79,"time_elapsed":1504453,"internal_node_id":"0.0-5.0-25.0"},{"group":"hexagon_bi","fractal_assignment":["../images/org_blu.png","../images/gry_blk.png","../images/ylw_slt.png","../images/blu_wht.png","../images/pnk_blu.png","../images/cyn_red.png"],"mutagen_generator_assignment":[1,0],"goal":2,"start":1,"action_noise":0.15,"location_history":"[1,0,5,4,3,4,5,4,5,4,5,0,1,0,1,2]","action_history":"[1,0,1,0,1,0,1,1,0,1,0,1,1,1,1]","mutagen_history":"[0,1,0,1,0,1,0,0,1,0,1,0,0,0,0]","location_rts":"[731,933,500,636,824,738,1277,1061,636,709,1123,442,806,236,694]","trial_type":"fractal-mutation","trial_index":80,"time_elapsed":1534786,"internal_node_id":"0.0-5.0-26.0"},{"group":"hexagon_bi","fractal_assignment":["../images/org_blu.png","../images/gry_blk.png","../images/ylw_slt.png","../images/blu_wht.png","../images/pnk_blu.png","../images/cyn_red.png"],"mutagen_generator_assignment":[1,0],"goal":5,"start":2,"action_noise":0.15,"location_history":"[2,3,4,3,2,3,4,5]","action_history":"[1,0,0,1,1,0,1]","mutagen_history":"[0,1,1,0,0,1,0]","location_rts":"[3292,150,367,414,80,556,334]","trial_type":"fractal-mutation","trial_index":81,"time_elapsed":1550713,"internal_node_id":"0.0-5.0-27.0"},{"group":"hexagon_bi","fractal_assignment":["../images/org_blu.png","../images/gry_blk.png","../images/ylw_slt.png","../images/blu_wht.png","../images/pnk_blu.png","../images/cyn_red.png"],"mutagen_generator_assignment":[1,0],"goal":4,"start":5,"action_noise":0.15,"location_history":"[5,4]","action_history":"[1]","mutagen_history":"[0]","location_rts":"[643]","trial_type":"fractal-mutation","trial_index":82,"time_elapsed":1555888,"internal_node_id":"0.0-5.0-28.0"},{"group":"hexagon_bi","fractal_assignment":["../images/org_blu.png","../images/gry_blk.png","../images/ylw_slt.png","../images/blu_wht.png","../images/pnk_blu.png","../images/cyn_red.png"],"mutagen_generator_assignment":[1,0],"goal":5,"start":4,"action_noise":0.15,"location_history":"[4,5]","action_history":"[1]","mutagen_history":"[0]","location_rts":"[6457]","trial_type":"fractal-mutation","trial_index":83,"time_elapsed":1566875,"internal_node_id":"0.0-5.0-29.0"},{"group":"hexagon_bi","fractal_assignment":["../images/org_blu.png","../images/gry_blk.png","../images/ylw_slt.png","../images/blu_wht.png","../images/pnk_blu.png","../images/cyn_red.png"],"mutagen_generator_assignment":[1,0],"goal":3,"start":5,"action_noise":0.15,"location_history":"[5,4,5,0,5,4,3]","action_history":"[1,0,1,0,1,0]","mutagen_history":"[0,1,0,1,0,1]","location_rts":"[2302,778,276,228,431,101]","trial_type":"fractal-mutation","trial_index":84,"time_elapsed":1580694,"internal_node_id":"0.0-5.0-30.0"},{"group":"hexagon_bi","fractal_assignment":["../images/org_blu.png","../images/gry_blk.png","../images/ylw_slt.png","../images/blu_wht.png","../images/pnk_blu.png","../images/cyn_red.png"],"mutagen_generator_assignment":[1,0],"goal":0,"start":3,"action_noise":0.15,"location_history":"[3,2,1,0]","action_history":"[1,0,1]","mutagen_history":"[0,1,0]","location_rts":"[1190,34243,4399]","trial_type":"fractal-mutation","trial_index":85,"time_elapsed":1627127,"internal_node_id":"0.0-5.0-31.0"},{"group":"hexagon_bi","fractal_assignment":["../images/org_blu.png","../images/gry_blk.png","../images/ylw_slt.png","../images/blu_wht.png","../images/pnk_blu.png","../images/cyn_red.png"],"mutagen_generator_assignment":[1,0],"goal":4,"start":0,"action_noise":0.15,"location_history":"[0,1,2,3,4]","action_history":"[1,0,1,1]","mutagen_history":"[0,1,0,0]","location_rts":"[1566,890,1005,725]","trial_type":"fractal-mutation","trial_index":86,"time_elapsed":1638951,"internal_node_id":"0.0-5.0-32.0"},{"group":"hexagon_bi","fractal_assignment":["../images/org_blu.png","../images/gry_blk.png","../images/ylw_slt.png","../images/blu_wht.png","../images/pnk_blu.png","../images/cyn_red.png"],"mutagen_generator_assignment":[1,0],"goal":1,"start":4,"action_noise":0.15,"location_history":"[4,3,4,3,4,5,4,5,4,5,0,5,4,3,2,3,4,5,4,3,2,3,4,5,0,5,4,3,4,5,0,1]","action_history":"[1,0,0,0,1,1,1,1,1,1,0,1,0,1,1,0,0,1,0,1,1,0,1,0,0,1,0,0,1,0,1]","mutagen_history":"[0,1,1,1,0,0,0,0,0,0,1,0,1,0,0,1,1,0,1,0,0,1,0,1,1,0,1,1,0,1,0]","location_rts":"[5282,829,26,670,553,2346,261,158,188,9343,750,6775,9308,607,144,70,48,916,49,822,78,776,791,88,350,1090,437,45,648,107,56]","trial_type":"fractal-mutation","trial_index":87,"time_elapsed":1718048,"internal_node_id":"0.0-5.0-33.0"},{"group":"hexagon_bi","fractal_assignment":["../images/org_blu.png","../images/gry_blk.png","../images/ylw_slt.png","../images/blu_wht.png","../images/pnk_blu.png","../images/cyn_red.png"],"mutagen_generator_assignment":[1,0],"goal":2,"start":1,"action_noise":0.15,"location_history":"[1,0,5,0,5,0,5,4,3,2]","action_history":"[1,0,0,0,1,1,0,0,1]","mutagen_history":"[0,1,1,1,0,0,1,1,0]","location_rts":"[1047,876,95,935,1011,255,731,121,93]","trial_type":"fractal-mutation","trial_index":88,"time_elapsed":1736003,"internal_node_id":"0.0-5.0-34.0"},{"group":"hexagon_bi","fractal_assignment":["../images/org_blu.png","../images/gry_blk.png","../images/ylw_slt.png","../images/blu_wht.png","../images/pnk_blu.png","../images/cyn_red.png"],"mutagen_generator_assignment":[1,0],"goal":0,"start":2,"action_noise":0.15,"location_history":"[2,1,2,3,2,3,4,3,4,3,4,5,0]","action_history":"[0,0,1,1,1,1,0,0,0,0,1,0]","mutagen_history":"[1,1,0,0,0,0,1,1,1,1,0,1]","location_rts":"[2050,36,821,8,417,685,558,639,298,664,235,727]","trial_type":"fractal-mutation","trial_index":89,"time_elapsed":1759027,"internal_node_id":"0.0-5.0-35.0"},{"group":"hexagon_bi","fractal_assignment":["../images/org_blu.png","../images/gry_blk.png","../images/ylw_slt.png","../images/blu_wht.png","../images/pnk_blu.png","../images/cyn_red.png"],"mutagen_generator_assignment":[1,0],"goal":5,"start":0,"action_noise":0.15,"location_history":"[0,5]","action_history":"[0]","mutagen_history":"[1]","location_rts":"[645]","trial_type":"fractal-mutation","trial_index":90,"time_elapsed":1764211,"internal_node_id":"0.0-5.0-36.0"},{"group":"hexagon_bi","fractal_assignment":["../images/org_blu.png","../images/gry_blk.png","../images/ylw_slt.png","../images/blu_wht.png","../images/pnk_blu.png","../images/cyn_red.png"],"mutagen_generator_assignment":[1,0],"goal":2,"start":5,"action_noise":0.15,"location_history":"[5,4,3,2]","action_history":"[1,0,1]","mutagen_history":"[0,1,0]","location_rts":"[762,384,316]","trial_type":"fractal-mutation","trial_index":91,"time_elapsed":1772265,"internal_node_id":"0.0-5.0-37.0"},{"group":"hexagon_bi","fractal_assignment":["../images/org_blu.png","../images/gry_blk.png","../images/ylw_slt.png","../images/blu_wht.png","../images/pnk_blu.png","../images/cyn_red.png"],"mutagen_generator_assignment":[1,0],"goal":1,"start":2,"action_noise":0.15,"location_history":"[2,3,4,3,4,3,2,1]","action_history":"[1,0,0,0,1,1,0]","mutagen_history":"[0,1,1,1,0,0,1]","location_rts":"[15446,621,439,89,399,532,99]","trial_type":"fractal-mutation","trial_index":92,"time_elapsed":1800622,"internal_node_id":"0.0-5.0-38.0"},{"group":"hexagon_bi","fractal_assignment":["../images/org_blu.png","../images/gry_blk.png","../images/ylw_slt.png","../images/blu_wht.png","../images/pnk_blu.png","../images/cyn_red.png"],"mutagen_generator_assignment":[1,0],"goal":4,"start":1,"action_noise":0.15,"location_history":"[1,0,5,4]","action_history":"[1,0,1]","mutagen_history":"[0,1,0]","location_rts":"[21206,1376,674]","trial_type":"fractal-mutation","trial_index":93,"time_elapsed":1830482,"internal_node_id":"0.0-5.0-39.0"},{"group":"hexagon_bi","fractal_assignment":["../images/org_blu.png","../images/gry_blk.png","../images/ylw_slt.png","../images/blu_wht.png","../images/pnk_blu.png","../images/cyn_red.png"],"mutagen_generator_assignment":[1,0],"goal":3,"start":4,"action_noise":0.15,"location_history":"[4,3]","action_history":"[0]","mutagen_history":"[1]","location_rts":"[1142]","trial_type":"fractal-mutation","trial_index":94,"time_elapsed":1836166,"internal_node_id":"0.0-5.0-40.0"},{"group":"hexagon_bi","fractal_assignment":["../images/org_blu.png","../images/gry_blk.png","../images/ylw_slt.png","../images/blu_wht.png","../images/pnk_blu.png","../images/cyn_red.png"],"mutagen_generator_assignment":[1,0],"goal":5,"start":3,"action_noise":0.15,"location_history":"[3,4,5]","action_history":"[0,1]","mutagen_history":"[1,0]","location_rts":"[787,347]","trial_type":"fractal-mutation","trial_index":95,"time_elapsed":1842874,"internal_node_id":"0.0-5.0-41.0"},{"group":"hexagon_bi","fractal_assignment":["../images/org_blu.png","../images/gry_blk.png","../images/ylw_slt.png","../images/blu_wht.png","../images/pnk_blu.png","../images/cyn_red.png"],"mutagen_generator_assignment":[1,0],"goal":3,"start":5,"action_noise":0.15,"location_history":"[5,0,5,4,5,0,5,4,5,4,5,0,1,2,3]","action_history":"[0,0,1,1,0,0,1,1,1,0,0,1,1,1]","mutagen_history":"[1,1,0,0,1,1,0,0,0,1,1,0,0,0]","location_rts":"[868,776,989,249,704,759,616,904,126,355,301,237,626,230]","trial_type":"fractal-mutation","trial_index":96,"time_elapsed":1868558,"internal_node_id":"0.0-5.0-42.0"},{"group":"hexagon_bi","fractal_assignment":["../images/org_blu.png","../images/gry_blk.png","../images/ylw_slt.png","../images/blu_wht.png","../images/pnk_blu.png","../images/cyn_red.png"],"mutagen_generator_assignment":[1,0],"goal":0,"start":3,"action_noise":0.15,"location_history":"[3,4,3,4,5,4,3,4,5,4,5,4,3,2,1,2,1,2,1,2,3,2,3,2,3,4,5,0]","action_history":"[0,0,0,1,1,0,0,0,1,1,1,0,0,0,0,0,0,0,0,1,1,1,1,1,1,1,0]","mutagen_history":"[1,1,1,0,0,1,1,1,0,0,0,1,1,1,1,1,1,1,1,0,0,0,0,0,0,0,1]","location_rts":"[765,109,325,449,90,202,368,393,748,421,322,585,131,337,592,153,104,147,116,146,708,65,887,104,11,188,23]","trial_type":"fractal-mutation","trial_index":97,"time_elapsed":1908420,"internal_node_id":"0.0-5.0-43.0"},{"group":"hexagon_bi","fractal_assignment":["../images/org_blu.png","../images/gry_blk.png","../images/ylw_slt.png","../images/blu_wht.png","../images/pnk_blu.png","../images/cyn_red.png"],"mutagen_generator_assignment":[1,0],"goal":2,"start":0,"action_noise":0.15,"location_history":"[0,1,0,1,2]","action_history":"[1,1,1,1]","mutagen_history":"[0,0,0,0]","location_rts":"[1409,427,117,79]","trial_type":"fractal-mutation","trial_index":98,"time_elapsed":1918070,"internal_node_id":"0.0-5.0-44.0"},{"group":"hexagon_bi","fractal_assignment":["../images/org_blu.png","../images/gry_blk.png","../images/ylw_slt.png","../images/blu_wht.png","../images/pnk_blu.png","../images/cyn_red.png"],"mutagen_generator_assignment":[1,0],"goal":4,"start":2,"action_noise":0.15,"location_history":"[2,3,2,1,2,3,2,3,2,1,2,3,2,1,2,1,2,3,2,1,2,1,0,5,4]","action_history":"[1,1,1,0,0,1,1,1,0,0,1,1,0,0,0,0,0,1,0,0,0,1,0,1]","mutagen_history":"[0,0,0,1,1,0,0,0,1,1,0,0,1,1,1,1,1,0,1,1,1,0,1,0]","location_rts":"[643,48,169,32,45,254,7,476,11,245,176,136,208,161,232,205,164,140,123,482,171,303,96,968]","trial_type":"fractal-mutation","trial_index":99,"time_elapsed":1951868,"internal_node_id":"0.0-5.0-45.0"},{"group":"hexagon_bi","fractal_assignment":["../images/org_blu.png","../images/gry_blk.png","../images/ylw_slt.png","../images/blu_wht.png","../images/pnk_blu.png","../images/cyn_red.png"],"mutagen_generator_assignment":[1,0],"goal":1,"start":4,"action_noise":0.15,"location_history":"[4,5,4,5,4,3,2,1]","action_history":"[1,1,1,1,0,0,0]","mutagen_history":"[0,0,0,0,1,1,1]","location_rts":"[779,5,290,74,42,31,290]","trial_type":"fractal-mutation","trial_index":100,"time_elapsed":1964113,"internal_node_id":"0.0-5.0-46.0"},{"group":"hexagon_bi","fractal_assignment":["../images/org_blu.png","../images/gry_blk.png","../images/ylw_slt.png","../images/blu_wht.png","../images/pnk_blu.png","../images/cyn_red.png"],"mutagen_generator_assignment":[1,0],"goal":4,"start":1,"action_noise":0.15,"location_history":"[1,0,1,2,1,2,3,2,3,2,3,4]","action_history":"[1,1,0,0,0,1,1,1,1,1,0]","mutagen_history":"[0,0,1,1,1,0,0,0,0,0,1]","location_rts":"[1408,147,380,24,217,279,204,204,187,289,198]","trial_type":"fractal-mutation","trial_index":101,"time_elapsed":1982492,"internal_node_id":"0.0-5.0-47.0"},{"group":"hexagon_bi","fractal_assignment":["../images/org_blu.png","../images/gry_blk.png","../images/ylw_slt.png","../images/blu_wht.png","../images/pnk_blu.png","../images/cyn_red.png"],"mutagen_generator_assignment":[1,0],"goal":3,"start":4,"action_noise":0.15,"location_history":"[4,3]","action_history":"[0]","mutagen_history":"[1]","location_rts":"[639]","trial_type":"fractal-mutation","trial_index":102,"time_elapsed":1987673,"internal_node_id":"0.0-5.0-48.0"},{"group":"hexagon_bi","fractal_assignment":["../images/org_blu.png","../images/gry_blk.png","../images/ylw_slt.png","../images/blu_wht.png","../images/pnk_blu.png","../images/cyn_red.png"],"mutagen_generator_assignment":[1,0],"goal":5,"start":3,"action_noise":0.15,"location_history":"[3,2,1,2,3,2,1,2,1,2,3,2,1,2,1,0,1,2,1,2,1,0,1,0,1,2,3,4,3,4,3,2,3,2,3,2,1,2,1,0,1,0,1,0,1,0,1,0,5]","action_history":"[0,0,0,1,1,0,0,0,0,1,0,0,0,1,1,1,0,0,0,1,1,1,1,1,1,1,0,0,0,0,0,1,1,1,1,1,0,0,0,1,1,1,1,1,1,1,1,0]","mutagen_history":"[1,1,1,0,0,1,1,1,1,0,1,1,1,0,0,0,1,1,1,0,0,0,0,0,0,0,1,1,1,1,1,0,0,0,0,0,1,1,1,0,0,0,0,0,0,0,0,1]","location_rts":"[1194,19,54,178,152,42,63,610,146,165,304,16,254,370,123,168,5,28,65,247,335,312,274,11436,30,191,8,137,71,166,159,417,45,14,89,7,270,162,85,103,82,572,129,181,75,63,35,55]","trial_type":"fractal-mutation","trial_index":103,"time_elapsed":2060387,"internal_node_id":"0.0-5.0-49.0"},{"view_history":"[{\"page_index\":0,\"viewing_time\":17292}]","rt":17293,"trial_type":"instructions","trial_index":104,"time_elapsed":2078683,"internal_node_id":"0.0-6.0"},{"rt":3823,"responses":"{\"Q0\":\"\"}","trial_type":"survey-text","trial_index":105,"time_elapsed":2083512,"internal_node_id":"0.0-7.0"}]