[{"view_history":"[{\"page_index\":0,\"viewing_time\":134614},{\"page_index\":1,\"viewing_time\":22278},{\"page_index\":2,\"viewing_time\":30973},{\"page_index\":3,\"viewing_time\":677701}]","rt":865568,"trial_type":"instructions","trial_index":0,"time_elapsed":865571,"internal_node_id":"0.0-0.0"},{"view_history":"[{\"page_index\":0,\"viewing_time\":90248},{\"page_index\":1,\"viewing_time\":44342}]","rt":134591,"trial_type":"instructions","trial_index":1,"time_elapsed":1001163,"internal_node_id":"0.0-1.0"},{"group":"hexagon_bi","room_assignment":["purple","yellow","blue","red","grey","green"],"door_color_assignment":["white","black"],"door_generator_assignment":[0,1],"goal":4,"start":0,"action_noise":0.15,"location_history":"[0,5,4]","action_history":"[0,0]","door_history":"[0,0]","location_rts":"[2204,1900]","trial_type":"two-door-navigation","trial_index":2,"time_elapsed":1010840,"internal_node_id":"0.0-2.0-0.0"},{"group":"hexagon_bi","room_assignment":["purple","yellow","blue","red","grey","green"],"door_color_assignment":["white","black"],"door_generator_assignment":[0,1],"goal":3,"start":4,"action_noise":0.15,"location_history":"[4,5,0,5,0,1,0,5,0,5,4,5,4,5,4,3]","action_history":"[1,0,1,1,1,1,0,0,0,1,1,1,1,1,0]","door_history":"[1,0,1,1,1,1,0,0,0,1,1,1,1,1,0]","location_rts":"[2296,1058,1243,707,1723,1571,806,669,944,725,773,1320,405,426,435]","trial_type":"two-door-navigation","trial_index":3,"time_elapsed":1044824,"internal_node_id":"0.0-2.0-1.0"},{"group":"hexagon_bi","room_assignment":["purple","yellow","blue","red","grey","green"],"door_color_assignment":["white","black"],"door_generator_assignment":[0,1],"goal":5,"start":3,"action_noise":0.15,"location_history":"[3,2,3,2,3,4,3,2,3,4,3,4,5]","action_history":"[1,1,1,1,0,0,1,1,0,0,0,0]","door_history":"[1,1,1,1,0,0,1,1,0,0,0,0]","location_rts":"[1380,522,528,533,379,472,381,585,423,281,357,283]","trial_type":"two-door-navigation","trial_index":4,"time_elapsed":1067521,"internal_node_id":"0.0-2.0-2.0"},{"group":"hexagon_bi","room_assignment":["purple","yellow","blue","red","grey","green"],"door_color_assignment":["white","black"],"door_generator_assignment":[0,1],"goal":2,"start":5,"action_noise":0.15,"location_history":"[5,4,3,4,5,0,1,2]","action_history":"[1,0,0,0,0,1,1]","door_history":"[1,0,0,0,0,1,1]","location_rts":"[8227,932,574,192,449,724,351]","trial_type":"two-door-navigation","trial_index":5,"time_elapsed":1089670,"internal_node_id":"0.0-2.0-3.0"},{"group":"hexagon_bi","room_assignment":["purple","yellow","blue","red","grey","green"],"door_color_assignment":["white","black"],"door_generator_assignment":[0,1],"goal":1,"start":2,"action_noise":0.15,"location_history":"[2,1]","action_history":"[0]","door_history":"[0]","location_rts":"[1014]","trial_type":"two-door-navigation","trial_index":6,"time_elapsed":1095212,"internal_node_id":"0.0-2.0-4.0"},{"group":"hexagon_bi","room_assignment":["purple","yellow","blue","red","grey","green"],"door_color_assignment":["white","black"],"door_generator_assignment":[0,1],"goal":4,"start":1,"action_noise":0.15,"location_history":"[1,0,5,0,5,0,5,4]","action_history":"[1,0,0,0,0,0,0]","door_history":"[1,0,0,0,0,0,0]","location_rts":"[940,226,490,1957,476,458,436]","trial_type":"two-door-navigation","trial_index":7,"time_elapsed":1110878,"internal_node_id":"0.0-2.0-5.0"},{"group":"hexagon_bi","room_assignment":["purple","yellow","blue","red","grey","green"],"door_color_assignment":["white","black"],"door_generator_assignment":[0,1],"goal":1,"start":4,"action_noise":0.15,"location_history":"[4,5,4,5,4,3,2,3,2,1]","action_history":"[1,1,1,0,0,1,1,1,0]","door_history":"[1,1,1,0,0,1,1,1,0]","location_rts":"[335,396,395,302,376,287,417,804,382]","trial_type":"two-door-navigation","trial_index":8,"time_elapsed":1127306,"internal_node_id":"0.0-2.0-6.0"},{"group":"hexagon_bi","room_assignment":["purple","yellow","blue","red","grey","green"],"door_color_assignment":["white","black"],"door_generator_assignment":[0,1],"goal":5,"start":1,"action_noise":0.15,"location_history":"[1,2,1,2,1,2,3,2,3,2,1,0,5]","action_history":"[0,0,0,1,0,1,1,1,1,1,1,0]","door_history":"[0,0,0,1,0,1,1,1,1,1,1,0]","location_rts":"[479,242,305,275,343,384,319,357,362,421,661,571]","trial_type":"two-door-navigation","trial_index":9,"time_elapsed":1147842,"internal_node_id":"0.0-2.0-7.0"},{"group":"hexagon_bi","room_assignment":["purple","yellow","blue","red","grey","green"],"door_color_assignment":["white","black"],"door_generator_assignment":[0,1],"goal":0,"start":5,"action_noise":0.15,"location_history":"[5,0]","action_history":"[0]","door_history":"[0]","location_rts":"[999]","trial_type":"two-door-navigation","trial_index":10,"time_elapsed":1153373,"internal_node_id":"0.0-2.0-8.0"},{"group":"hexagon_bi","room_assignment":["purple","yellow","blue","red","grey","green"],"door_color_assignment":["white","black"],"door_generator_assignment":[0,1],"goal":2,"start":0,"action_noise":0.15,"location_history":"[0,5,4,5,4,3,4,5,0,1,0,5,4,5,4,5,4,5,0,1,0,1,2]","action_history":"[0,1,1,1,0,0,0,0,1,1,1,0,0,1,1,1,1,1,1,1,1,0]","door_history":"[0,1,1,1,0,0,0,0,1,1,1,0,0,1,1,1,1,1,1,1,1,0]","location_rts":"[507,447,389,333,391,419,452,411,262,408,401,293,317,225,388,320,195,345,275,366,502,540]","trial_type":"two-door-navigation","trial_index":11,"time_elapsed":1187630,"internal_node_id":"0.0-2.0-9.0"},{"group":"hexagon_bi","room_assignment":["purple","yellow","blue","red","grey","green"],"door_color_assignment":["white","black"],"door_generator_assignment":[0,1],"goal":3,"start":2,"action_noise":0.15,"location_history":"[2,1,2,3]","action_history":"[0,0,0]","door_history":"[0,0,0]","location_rts":"[338,331,283]","trial_type":"two-door-navigation","trial_index":12,"time_elapsed":1195174,"internal_node_id":"0.0-2.0-10.0"},{"group":"hexagon_bi","room_assignment":["purple","yellow","blue","red","grey","green"],"door_color_assignment":["white","black"],"door_generator_assignment":[0,1],"goal":0,"start":3,"action_noise":0.15,"location_history":"[3,2,1,2,1,0]","action_history":"[1,0,0,0,1]","door_history":"[1,0,0,0,1]","location_rts":"[415,304,366,244,300]","trial_type":"two-door-navigation","trial_index":13,"time_elapsed":1205452,"internal_node_id":"0.0-2.0-11.0"},{"group":"hexagon_bi","room_assignment":["purple","yellow","blue","red","grey","green"],"door_color_assignment":["white","black"],"door_generator_assignment":[0,1],"goal":2,"start":0,"action_noise":0.15,"location_history":"[0,5,0,1,0,1,0,1,0,5,4,5,4,5,0,5,0,1,2]","action_history":"[0,0,1,1,1,1,1,0,0,0,1,1,1,0,0,0,0,0]","door_history":"[0,0,1,1,1,1,1,0,0,0,1,1,1,0,0,0,0,0]","location_rts":"[593,746,275,321,300,308,358,161,343,288,317,293,288,324,280,188,250,650]","trial_type":"two-door-navigation","trial_index":14,"time_elapsed":1233747,"internal_node_id":"0.0-2.0-12.0"},{"group":"hexagon_bi","room_assignment":["purple","yellow","blue","red","grey","green"],"door_color_assignment":["white","black"],"door_generator_assignment":[0,1],"goal":5,"start":2,"action_noise":0.15,"location_history":"[2,3,4,3,4,3,2,3,2,3,4,3,4,3,4,3,4,3,4,3,4,3,4,5]","action_history":"[1,0,1,0,0,1,1,1,1,0,0,0,0,0,0,0,0,0,0,0,0,0,0]","door_history":"[1,0,1,0,0,1,1,1,1,0,0,0,0,0,0,0,0,0,0,0,0,0,0]","location_rts":"[730,240,495,230,254,349,545,321,102,672,286,276,27,334,502,3,593,373,298,367,339,236,287]","trial_type":"two-door-navigation","trial_index":15,"time_elapsed":1268721,"internal_node_id":"0.0-2.0-13.0"},{"group":"hexagon_bi","room_assignment":["purple","yellow","blue","red","grey","green"],"door_color_assignment":["white","black"],"door_generator_assignment":[0,1],"goal":4,"start":5,"action_noise":0.15,"location_history":"[5,4]","action_history":"[1]","door_history":"[1]","location_rts":"[983]","trial_type":"two-door-navigation","trial_index":16,"time_elapsed":1274234,"internal_node_id":"0.0-2.0-14.0"},{"group":"hexagon_bi","room_assignment":["purple","yellow","blue","red","grey","green"],"door_color_assignment":["white","black"],"door_generator_assignment":[0,1],"goal":3,"start":4,"action_noise":0.15,"location_history":"[4,3]","action_history":"[0]","door_history":"[0]","location_rts":"[1727]","trial_type":"two-door-navigation","trial_index":17,"time_elapsed":1280490,"internal_node_id":"0.0-2.0-15.0"},{"group":"hexagon_bi","room_assignment":["purple","yellow","blue","red","grey","green"],"door_color_assignment":["white","black"],"door_generator_assignment":[0,1],"goal":1,"start":3,"action_noise":0.15,"location_history":"[3,4,3,2,1]","action_history":"[0,0,0,0]","door_history":"[0,0,0,0]","location_rts":"[5011,331,1296,663]","trial_type":"two-door-navigation","trial_index":18,"time_elapsed":1295416,"internal_node_id":"0.0-2.0-16.0"},{"group":"hexagon_bi","room_assignment":["purple","yellow","blue","red","grey","green"],"door_color_assignment":["white","black"],"door_generator_assignment":[0,1],"goal":5,"start":1,"action_noise":0.15,"location_history":"[1,0,1,0,1,0,1,2,3,2,1,0,1,0,5]","action_history":"[1,1,1,1,1,1,0,0,1,0,1,0,0,0]","door_history":"[1,1,1,1,1,1,0,0,1,0,1,0,0,0]","location_rts":"[513,380,149,767,456,643,361,395,322,435,425,124,570,486]","trial_type":"two-door-navigation","trial_index":19,"time_elapsed":1319343,"internal_node_id":"0.0-2.0-17.0"},{"group":"hexagon_bi","room_assignment":["purple","yellow","blue","red","grey","green"],"door_color_assignment":["white","black"],"door_generator_assignment":[0,1],"goal":4,"start":5,"action_noise":0.15,"location_history":"[5,4]","action_history":"[1]","door_history":"[1]","location_rts":"[914]","trial_type":"two-door-navigation","trial_index":20,"time_elapsed":1324783,"internal_node_id":"0.0-2.0-18.0"},{"group":"hexagon_bi","room_assignment":["purple","yellow","blue","red","grey","green"],"door_color_assignment":["white","black"],"door_generator_assignment":[0,1],"goal":0,"start":4,"action_noise":0.15,"location_history":"[4,3,4,3,2,1,2,1,2,1,2,3,2,3,2,1,2,1,2,1,0]","action_history":"[0,0,0,1,0,0,0,0,0,1,1,1,1,1,1,0,0,0,0,1]","door_history":"[0,0,0,1,0,0,0,0,0,1,1,1,1,1,1,0,0,0,0,1]","location_rts":"[810,1428,595,530,621,478,496,79,226,479,18,50,197,157,722,680,775,1027,1063,676]","trial_type":"two-door-navigation","trial_index":21,"time_elapsed":1359949,"internal_node_id":"0.0-2.0-19.0"},{"group":"hexagon_bi","room_assignment":["purple","yellow","blue","red","grey","green"],"door_color_assignment":["white","black"],"door_generator_assignment":[0,1],"goal":1,"start":0,"action_noise":0.15,"location_history":"[0,1]","action_history":"[1]","door_history":"[1]","location_rts":"[6828]","trial_type":"two-door-navigation","trial_index":22,"time_elapsed":1371307,"internal_node_id":"0.0-2.0-20.0"},{"group":"hexagon_bi","room_assignment":["purple","yellow","blue","red","grey","green"],"door_color_assignment":["white","black"],"door_generator_assignment":[0,1],"goal":3,"start":1,"action_noise":0.15,"location_history":"[1,0,1,2,1,2,1,2,1,0,1,2,3]","action_history":"[1,1,0,0,0,0,0,0,1,1,0,1]","door_history":"[1,1,0,0,0,0,0,0,1,1,0,1]","location_rts":"[677,1416,1295,293,518,501,911,502,1213,642,2428,1235]","trial_type":"two-door-navigation","trial_index":23,"time_elapsed":1398778,"internal_node_id":"0.0-2.0-21.0"},{"group":"hexagon_bi","room_assignment":["purple","yellow","blue","red","grey","green"],"door_color_assignment":["white","black"],"door_generator_assignment":[0,1],"goal":2,"start":3,"action_noise":0.15,"location_history":"[3,4,3,2]","action_history":"[0,0,1]","door_history":"[0,0,1]","location_rts":"[40799,357,2]","trial_type":"two-door-navigation","trial_index":24,"time_elapsed":1446527,"internal_node_id":"0.0-2.0-22.0"},{"group":"hexagon_bi","room_assignment":["purple","yellow","blue","red","grey","green"],"door_color_assignment":["white","black"],"door_generator_assignment":[0,1],"goal":0,"start":2,"action_noise":0.15,"location_history":"[2,1,0]","action_history":"[0,1]","door_history":"[0,1]","location_rts":"[1002,5]","trial_type":"two-door-navigation","trial_index":25,"time_elapsed":1453097,"internal_node_id":"0.0-2.0-23.0"},{"group":"hexagon_bi","room_assignment":["purple","yellow","blue","red","grey","green"],"door_color_assignment":["white","black"],"door_generator_assignment":[0,1],"goal":3,"start":0,"action_noise":0.15,"location_history":"[0,5,4,5,0,5,4,5,4,3]","action_history":"[0,1,1,0,0,1,1,0,1]","door_history":"[0,1,1,0,0,1,1,0,1]","location_rts":"[376,243,338,371,358,349,317,676,342]","trial_type":"two-door-navigation","trial_index":26,"time_elapsed":1469253,"internal_node_id":"0.0-2.0-24.0"},{"group":"hexagon_bi","room_assignment":["purple","yellow","blue","red","grey","green"],"door_color_assignment":["white","black"],"door_generator_assignment":[0,1],"goal":1,"start":3,"action_noise":0.15,"location_history":"[3,2,3,2,3,4,3,4,5,4,5,4,5,4,3,4,3,2,3,4,3,2,1]","action_history":"[1,1,1,1,0,0,0,0,0,1,1,1,1,0,0,0,1,1,0,0,1,1]","door_history":"[1,1,1,1,0,0,0,0,0,1,1,1,1,0,0,0,1,1,0,0,1,1]","location_rts":"[423,339,381,421,290,692,490,664,823,369,451,184,1518,93,1000,12,22,329,182,317,538,406]","trial_type":"two-door-navigation","trial_index":27,"time_elapsed":1505311,"internal_node_id":"0.0-2.0-25.0"},{"group":"hexagon_bi","room_assignment":["purple","yellow","blue","red","grey","green"],"door_color_assignment":["white","black"],"door_generator_assignment":[0,1],"goal":2,"start":1,"action_noise":0.15,"location_history":"[1,0,5,4,3,4,3,4,3,2]","action_history":"[1,0,1,0,1,0,0,1,1]","door_history":"[1,0,1,0,1,0,0,1,1]","location_rts":"[958,419,163,496,660,467,536,380,424]","trial_type":"two-door-navigation","trial_index":28,"time_elapsed":1522547,"internal_node_id":"0.0-2.0-26.0"},{"group":"hexagon_bi","room_assignment":["purple","yellow","blue","red","grey","green"],"door_color_assignment":["white","black"],"door_generator_assignment":[0,1],"goal":5,"start":2,"action_noise":0.15,"location_history":"[2,3,2,1,2,3,4,5]","action_history":"[1,1,0,0,0,1,1]","door_history":"[1,1,0,0,0,1,1]","location_rts":"[3970,297,3944,417,1009,681,306]","trial_type":"two-door-navigation","trial_index":29,"time_elapsed":1543861,"internal_node_id":"0.0-2.0-27.0"},{"group":"hexagon_bi","room_assignment":["purple","yellow","blue","red","grey","green"],"door_color_assignment":["white","black"],"door_generator_assignment":[0,1],"goal":4,"start":5,"action_noise":0.15,"location_history":"[5,0,5,4]","action_history":"[0,0,1]","door_history":"[0,0,1]","location_rts":"[560,373,392]","trial_type":"two-door-navigation","trial_index":30,"time_elapsed":1551780,"internal_node_id":"0.0-2.0-28.0"},{"group":"hexagon_bi","room_assignment":["purple","yellow","blue","red","grey","green"],"door_color_assignment":["white","black"],"door_generator_assignment":[0,1],"goal":5,"start":4,"action_noise":0.15,"location_history":"[4,3,4,3,2,1,2,3,2,3,4,3,4,5]","action_history":"[0,0,0,0,0,1,1,1,1,0,0,0,1]","door_history":"[0,0,0,0,0,1,1,1,1,0,0,0,1]","location_rts":"[365,350,198,373,450,234,524,12,541,876,351,585,288]","trial_type":"two-door-navigation","trial_index":31,"time_elapsed":1573766,"internal_node_id":"0.0-2.0-29.0"},{"group":"hexagon_bi","room_assignment":["purple","yellow","blue","red","grey","green"],"door_color_assignment":["white","black"],"door_generator_assignment":[0,1],"goal":3,"start":5,"action_noise":0.15,"location_history":"[5,0,1,2,1,0,1,0,1,0,5,4,3]","action_history":"[0,1,0,0,1,1,1,1,1,0,0,0]","door_history":"[0,1,0,0,1,1,1,1,1,0,0,0]","location_rts":"[4757,557,608,434,303,295,153,159,1648,1939,1321,383]","trial_type":"two-door-navigation","trial_index":32,"time_elapsed":1602200,"internal_node_id":"0.0-2.0-30.0"},{"group":"hexagon_bi","room_assignment":["purple","yellow","blue","red","grey","green"],"door_color_assignment":["white","black"],"door_generator_assignment":[0,1],"goal":0,"start":3,"action_noise":0.15,"location_history":"[3,4,3,4,5,0]","action_history":"[0,0,0,0,0]","door_history":"[0,0,0,0,0]","location_rts":"[11833,387,287,341,236]","trial_type":"two-door-navigation","trial_index":33,"time_elapsed":1623941,"internal_node_id":"0.0-2.0-31.0"},{"group":"hexagon_bi","room_assignment":["purple","yellow","blue","red","grey","green"],"door_color_assignment":["white","black"],"door_generator_assignment":[0,1],"goal":4,"start":0,"action_noise":0.15,"location_history":"[0,5,4]","action_history":"[0,0]","door_history":"[0,0]","location_rts":"[19909,305]","trial_type":"two-door-navigation","trial_index":34,"time_elapsed":1649712,"internal_node_id":"0.0-2.0-32.0"},{"group":"hexagon_bi","room_assignment":["purple","yellow","blue","red","grey","green"],"door_color_assignment":["white","black"],"door_generator_assignment":[0,1],"goal":1,"start":4,"action_noise":0.15,"location_history":"[4,5,4,5,0,5,0,5,4,5,4,3,2,1]","action_history":"[0,1,1,0,0,0,0,1,1,1,1,1,0]","door_history":"[0,1,1,0,0,0,0,1,1,1,1,1,0]","location_rts":"[774,71,869,229,593,1051,446,235,54,796,286,261,79]","trial_type":"two-door-navigation","trial_index":35,"time_elapsed":1672330,"internal_node_id":"0.0-2.0-33.0"},{"group":"hexagon_bi","room_assignment":["purple","yellow","blue","red","grey","green"],"door_color_assignment":["white","black"],"door_generator_assignment":[0,1],"goal":2,"start":1,"action_noise":0.15,"location_history":"[1,0,5,0,5,4,3,4,3,2]","action_history":"[1,0,0,0,0,0,0,0,1]","door_history":"[1,0,0,0,0,0,0,0,1]","location_rts":"[509,258,229,265,3,103,72,309,262]","trial_type":"two-door-navigation","trial_index":36,"time_elapsed":1687078,"internal_node_id":"0.0-2.0-34.0"},{"group":"hexagon_bi","room_assignment":["purple","yellow","blue","red","grey","green"],"door_color_assignment":["white","black"],"door_generator_assignment":[0,1],"goal":0,"start":2,"action_noise":0.15,"location_history":"[2,3,4,3,2,3,2,1,2,1,2,3,4,3,4,5,0]","action_history":"[1,0,0,1,1,0,0,1,0,0,1,1,0,0,1,0]","door_history":"[1,0,0,1,1,0,0,1,0,0,1,1,0,0,1,0]","location_rts":"[371,7,465,322,126,354,346,560,501,106,246,954,527,1066,127,122]","trial_type":"two-door-navigation","trial_index":37,"time_elapsed":1713342,"internal_node_id":"0.0-2.0-35.0"},{"group":"hexagon_bi","room_assignment":["purple","yellow","blue","red","grey","green"],"door_color_assignment":["white","black"],"door_generator_assignment":[0,1],"goal":5,"start":0,"action_noise":0.15,"location_history":"[0,5]","action_history":"[0]","door_history":"[0]","location_rts":"[2930]","trial_type":"two-door-navigation","trial_index":38,"time_elapsed":1720828,"internal_node_id":"0.0-2.0-36.0"},{"group":"hexagon_bi","room_assignment":["purple","yellow","blue","red","grey","green"],"door_color_assignment":["white","black"],"door_generator_assignment":[0,1],"goal":2,"start":5,"action_noise":0.15,"location_history":"[5,4,3,4,5,4,5,0,5,0,1,0,5,0,5,0,5,0,5,0,1,2]","action_history":"[1,0,0,1,1,0,0,0,0,1,1,0,0,0,0,0,0,0,0,0,0]","door_history":"[1,0,0,1,1,0,0,0,0,1,1,0,0,0,0,0,0,0,0,0,0]","location_rts":"[16143,1100,964,187,886,354,223,364,397,387,391,205,219,893,3911,519,185,197,58,1253,1025]","trial_type":"two-door-navigation","trial_index":39,"time_elapsed":1775778,"internal_node_id":"0.0-2.0-37.0"},{"group":"hexagon_bi","room_assignment":["purple","yellow","blue","red","grey","green"],"door_color_assignment":["white","black"],"door_generator_assignment":[0,1],"goal":1,"start":2,"action_noise":0.15,"location_history":"[2,3,4,3,2,1]","action_history":"[1,0,0,1,1]","door_history":"[1,0,0,1,1]","location_rts":"[1060,266,4651,418,1220]","trial_type":"two-door-navigation","trial_index":40,"time_elapsed":1792070,"internal_node_id":"0.0-2.0-38.0"},{"group":"hexagon_bi","room_assignment":["purple","yellow","blue","red","grey","green"],"door_color_assignment":["white","black"],"door_generator_assignment":[0,1],"goal":4,"start":1,"action_noise":0.15,"location_history":"[1,2,3,2,3,2,3,2,3,2,1,2,1,2,3,4]","action_history":"[0,0,1,1,1,1,0,1,1,0,0,0,0,1,1]","door_history":"[0,0,1,1,1,1,0,1,1,0,0,0,0,1,1]","location_rts":"[2795,422,711,133,370,202,12229,818,1203,118,411,1195,455,504,519]","trial_type":"two-door-navigation","trial_index":41,"time_elapsed":1833126,"internal_node_id":"0.0-2.0-39.0"},{"group":"hexagon_bi","room_assignment":["purple","yellow","blue","red","grey","green"],"door_color_assignment":["white","black"],"door_generator_assignment":[0,1],"goal":3,"start":4,"action_noise":0.15,"location_history":"[4,3]","action_history":"[0]","door_history":"[0]","location_rts":"[4906]","trial_type":"two-door-navigation","trial_index":42,"time_elapsed":1842588,"internal_node_id":"0.0-2.0-40.0"},{"group":"hexagon_bi","room_assignment":["purple","yellow","blue","red","grey","green"],"door_color_assignment":["white","black"],"door_generator_assignment":[0,1],"goal":5,"start":3,"action_noise":0.15,"location_history":"[3,2,1,0,5]","action_history":"[1,0,0,0]","door_history":"[1,0,0,0]","location_rts":"[715,3612,1243,800]","trial_type":"two-door-navigation","trial_index":43,"time_elapsed":1856576,"internal_node_id":"0.0-2.0-41.0"},{"group":"hexagon_bi","room_assignment":["purple","yellow","blue","red","grey","green"],"door_color_assignment":["white","black"],"door_generator_assignment":[0,1],"goal":3,"start":5,"action_noise":0.15,"location_history":"[5,0,1,0,1,2,1,2,3]","action_history":"[0,1,1,0,0,0,0,1]","door_history":"[0,1,1,0,0,0,0,1]","location_rts":"[18511,689,401,266,47,409,501,409]","trial_type":"two-door-navigation","trial_index":44,"time_elapsed":1889535,"internal_node_id":"0.0-2.0-42.0"},{"group":"hexagon_bi","room_assignment":["purple","yellow","blue","red","grey","green"],"door_color_assignment":["white","black"],"door_generator_assignment":[0,1],"goal":0,"start":3,"action_noise":0.15,"location_history":"[3,4,3,2,3,2,3,4,3,2,1,2,1,2,1,0]","action_history":"[1,0,0,1,1,0,0,1,1,0,0,0,0,0,1]","door_history":"[1,0,0,1,1,0,0,1,1,0,0,0,0,0,1]","location_rts":"[506,297,805,645,2634,639,424,467,368,410,358,14,524,68,738]","trial_type":"two-door-navigation","trial_index":45,"time_elapsed":1917346,"internal_node_id":"0.0-2.0-43.0"},{"group":"hexagon_bi","room_assignment":["purple","yellow","blue","red","grey","green"],"door_color_assignment":["white","black"],"door_generator_assignment":[0,1],"goal":2,"start":0,"action_noise":0.15,"location_history":"[0,1,2]","action_history":"[1,0]","door_history":"[1,0]","location_rts":"[3805,519]","trial_type":"two-door-navigation","trial_index":46,"time_elapsed":1927231,"internal_node_id":"0.0-2.0-44.0"},{"group":"hexagon_bi","room_assignment":["purple","yellow","blue","red","grey","green"],"door_color_assignment":["white","black"],"door_generator_assignment":[0,1],"goal":4,"start":2,"action_noise":0.15,"location_history":"[2,1,0,1,0,5,0,5,0,1,0,5,4]","action_history":"[0,1,1,1,0,0,0,0,1,1,0,1]","door_history":"[0,1,1,1,0,0,0,0,1,1,0,1]","location_rts":"[454,456,163,386,431,574,1920,297,437,588,585,650]","trial_type":"two-door-navigation","trial_index":47,"time_elapsed":1950010,"internal_node_id":"0.0-2.0-45.0"},{"group":"hexagon_bi","room_assignment":["purple","yellow","blue","red","grey","green"],"door_color_assignment":["white","black"],"door_generator_assignment":[0,1],"goal":1,"start":4,"action_noise":0.15,"location_history":"[4,3,2,3,4,3,4,5,0,5,0,1]","action_history":"[0,1,1,0,0,0,1,0,0,0,1]","door_history":"[0,1,1,0,0,0,1,0,0,0,1]","location_rts":"[695,121,450,86,610,523,522,588,621,865,475]","trial_type":"two-door-navigation","trial_index":48,"time_elapsed":1970415,"internal_node_id":"0.0-2.0-46.0"},{"group":"hexagon_bi","room_assignment":["purple","yellow","blue","red","grey","green"],"door_color_assignment":["white","black"],"door_generator_assignment":[0,1],"goal":4,"start":1,"action_noise":0.15,"location_history":"[1,2,1,2,1,0,5,4]","action_history":"[0,0,0,0,1,0,0]","door_history":"[0,0,0,0,1,0,0]","location_rts":"[1518,1073,947,1065,6144,725,1150]","trial_type":"two-door-navigation","trial_index":49,"time_elapsed":1993730,"internal_node_id":"0.0-2.0-47.0"},{"group":"hexagon_bi","room_assignment":["purple","yellow","blue","red","grey","green"],"door_color_assignment":["white","black"],"door_generator_assignment":[0,1],"goal":3,"start":4,"action_noise":0.15,"location_history":"[4,5,0,5,0,1,0,1,2,1,0,5,0,5,0,1,0,1,0,5,4,3]","action_history":"[1,0,0,0,0,0,1,0,0,1,0,0,0,0,1,1,1,1,0,0,1]","door_history":"[1,0,0,0,0,0,1,0,0,1,0,0,0,0,1,1,1,1,0,0,1]","location_rts":"[931,536,570,670,397,608,1054,270,411,779,971,9345,938,571,250,421,421,3858,1262,2290,648]","trial_type":"two-door-navigation","trial_index":50,"time_elapsed":2046628,"internal_node_id":"0.0-2.0-48.0"},{"group":"hexagon_bi","room_assignment":["purple","yellow","blue","red","grey","green"],"door_color_assignment":["white","black"],"door_generator_assignment":[0,1],"goal":5,"start":3,"action_noise":0.15,"location_history":"[3,2,1,2,1,2,3,4,3,4,3,2,1,2,1,0,1,0,1,2,3,4,3,4,3,4,5]","action_history":"[0,1,1,1,0,0,1,1,0,0,1,0,0,0,0,0,1,1,1,1,0,0,0,0,1,1]","door_history":"[0,1,1,1,0,0,1,1,0,0,1,0,0,0,0,0,1,1,1,1,0,0,0,0,1,1]","location_rts":"[4152,431,515,436,761,3603,584,2076,522,745,562,574,724,696,554,498,362,768,1289,750,158,182,244,311,543,454]","trial_type":"two-door-navigation","trial_index":51,"time_elapsed":2099335,"internal_node_id":"0.0-2.0-49.0"},{"view_history":"[{\"page_index\":0,\"viewing_time\":24389}]","rt":24390,"trial_type":"instructions","trial_index":52,"time_elapsed":2124726,"internal_node_id":"0.0-3.0"},{"view_history":"[{\"page_index\":0,\"viewing_time\":39986},{\"page_index\":1,\"viewing_time\":437152}]","rt":477140,"trial_type":"instructions","trial_index":53,"time_elapsed":2602867,"internal_node_id":"0.0-4.0"},{"group":"hexagon_tri","fractal_assignment":["../images/gry_blk.png","../images/blu_wht.png","../images/org_blu.png","../images/cyn_red.png","../images/ylw_slt.png","../images/pnk_blu.png"],"mutagen_generator_assignment":[0,1],"goal":4,"start":0,"action_noise":0.15,"location_history":"[0,1,3,2,3,4]","action_history":"[1,0,0,1,1]","mutagen_history":"[1,0,0,1,1]","location_rts":"[36160,12009,5206,3052,1936]","trial_type":"fractal-mutation","trial_index":54,"time_elapsed":2671093,"internal_node_id":"0.0-5.0-0.0"},{"group":"hexagon_tri","fractal_assignment":["../images/gry_blk.png","../images/blu_wht.png","../images/org_blu.png","../images/cyn_red.png","../images/ylw_slt.png","../images/pnk_blu.png"],"mutagen_generator_assignment":[0,1],"goal":3,"start":4,"action_noise":0.15,"location_history":"[4,0,5,4,2,1,3]","action_history":"[1,0,0,1,0,0]","mutagen_history":"[1,0,0,1,0,0]","location_rts":"[3483,2969,2869,2043,924,1129]","trial_type":"fractal-mutation","trial_index":55,"time_elapsed":2695320,"internal_node_id":"0.0-5.0-1.0"},{"group":"hexagon_tri","fractal_assignment":["../images/gry_blk.png","../images/blu_wht.png","../images/org_blu.png","../images/cyn_red.png","../images/ylw_slt.png","../images/pnk_blu.png"],"mutagen_generator_assignment":[0,1],"goal":5,"start":3,"action_noise":0.15,"location_history":"[3,4,2,3,4,0,5]","action_history":"[1,1,1,1,0,0]","mutagen_history":"[1,1,1,1,0,0]","location_rts":"[1816,1760,608,1231,1156,4132]","trial_type":"fractal-mutation","trial_index":56,"time_elapsed":2717055,"internal_node_id":"0.0-5.0-2.0"},{"group":"hexagon_tri","fractal_assignment":["../images/gry_blk.png","../images/blu_wht.png","../images/org_blu.png","../images/cyn_red.png","../images/ylw_slt.png","../images/pnk_blu.png"],"mutagen_generator_assignment":[0,1],"goal":2,"start":5,"action_noise":0.15,"location_history":"[5,0,1,3,2]","action_history":"[1,1,0,0]","mutagen_history":"[1,1,0,0]","location_rts":"[1193,1653,1818,1566]","trial_type":"fractal-mutation","trial_index":57,"time_elapsed":2731690,"internal_node_id":"0.0-5.0-3.0"},{"group":"hexagon_tri","fractal_assignment":["../images/gry_blk.png","../images/blu_wht.png","../images/org_blu.png","../images/cyn_red.png","../images/ylw_slt.png","../images/pnk_blu.png"],"mutagen_generator_assignment":[0,1],"goal":1,"start":2,"action_noise":0.15,"location_history":"[2,3,2,3,4,0,5,4,2,1]","action_history":"[1,1,1,1,0,0,1,1,0]","mutagen_history":"[1,1,1,1,0,0,1,1,0]","location_rts":"[1262,1288,1142,1333,1844,2161,2438,930,1336]","trial_type":"fractal-mutation","trial_index":58,"time_elapsed":2760201,"internal_node_id":"0.0-5.0-4.0"},{"group":"hexagon_tri","fractal_assignment":["../images/gry_blk.png","../images/blu_wht.png","../images/org_blu.png","../images/cyn_red.png","../images/ylw_slt.png","../images/pnk_blu.png"],"mutagen_generator_assignment":[0,1],"goal":4,"start":1,"action_noise":0.15,"location_history":"[1,5,0,1,3,4]","action_history":"[0,1,1,0,1]","mutagen_history":"[0,1,1,0,1]","location_rts":"[253632,2876,1043,3555,5894]","trial_type":"fractal-mutation","trial_index":59,"time_elapsed":3037339,"internal_node_id":"0.0-5.0-5.0"},{"group":"hexagon_tri","fractal_assignment":["../images/gry_blk.png","../images/blu_wht.png","../images/org_blu.png","../images/cyn_red.png","../images/ylw_slt.png","../images/pnk_blu.png"],"mutagen_generator_assignment":[0,1],"goal":1,"start":4,"action_noise":0.15,"location_history":"[4,0,1]","action_history":"[0,1]","mutagen_history":"[0,1]","location_rts":"[1642,935]","trial_type":"fractal-mutation","trial_index":60,"time_elapsed":3046015,"internal_node_id":"0.0-5.0-6.0"},{"group":"hexagon_tri","fractal_assignment":["../images/gry_blk.png","../images/blu_wht.png","../images/org_blu.png","../images/cyn_red.png","../images/ylw_slt.png","../images/pnk_blu.png"],"mutagen_generator_assignment":[0,1],"goal":5,"start":1,"action_noise":0.15,"location_history":"[1,3,2,3,2,3,2,1,3,4,0,5]","action_history":"[1,0,1,1,0,0,0,0,0,0,0]","mutagen_history":"[1,0,1,1,0,0,0,0,0,0,0]","location_rts":"[944,2698,772,631,661,978,865,1031,1053,872,1315]","trial_type":"fractal-mutation","trial_index":61,"time_elapsed":3074961,"internal_node_id":"0.0-5.0-7.0"},{"group":"hexagon_tri","fractal_assignment":["../images/gry_blk.png","../images/blu_wht.png","../images/org_blu.png","../images/cyn_red.png","../images/ylw_slt.png","../images/pnk_blu.png"],"mutagen_generator_assignment":[0,1],"goal":0,"start":5,"action_noise":0.15,"location_history":"[5,0]","action_history":"[1]","mutagen_history":"[1]","location_rts":"[1008]","trial_type":"fractal-mutation","trial_index":62,"time_elapsed":3080897,"internal_node_id":"0.0-5.0-8.0"},{"group":"hexagon_tri","fractal_assignment":["../images/gry_blk.png","../images/blu_wht.png","../images/org_blu.png","../images/cyn_red.png","../images/ylw_slt.png","../images/pnk_blu.png"],"mutagen_generator_assignment":[0,1],"goal":2,"start":0,"action_noise":0.15,"location_history":"[0,1,3,2]","action_history":"[0,0,0]","mutagen_history":"[0,0,0]","location_rts":"[1506,949,1887]","trial_type":"fractal-mutation","trial_index":63,"time_elapsed":3092755,"internal_node_id":"0.0-5.0-9.0"},{"group":"hexagon_tri","fractal_assignment":["../images/gry_blk.png","../images/blu_wht.png","../images/org_blu.png","../images/cyn_red.png","../images/ylw_slt.png","../images/pnk_blu.png"],"mutagen_generator_assignment":[0,1],"goal":3,"start":2,"action_noise":0.15,"location_history":"[2,3]","action_history":"[1]","mutagen_history":"[1]","location_rts":"[918]","trial_type":"fractal-mutation","trial_index":64,"time_elapsed":3098488,"internal_node_id":"0.0-5.0-10.0"},{"group":"hexagon_tri","fractal_assignment":["../images/gry_blk.png","../images/blu_wht.png","../images/org_blu.png","../images/cyn_red.png","../images/ylw_slt.png","../images/pnk_blu.png"],"mutagen_generator_assignment":[0,1],"goal":0,"start":3,"action_noise":0.15,"location_history":"[3,4,2,3,2,1,5,4,0]","action_history":"[1,1,1,0,0,0,0,0]","mutagen_history":"[1,1,1,0,0,0,0,0]","location_rts":"[775,1320,1203,998,1150,753,1342,707]","trial_type":"fractal-mutation","trial_index":65,"time_elapsed":3120052,"internal_node_id":"0.0-5.0-11.0"},{"group":"hexagon_tri","fractal_assignment":["../images/gry_blk.png","../images/blu_wht.png","../images/org_blu.png","../images/cyn_red.png","../images/ylw_slt.png","../images/pnk_blu.png"],"mutagen_generator_assignment":[0,1],"goal":2,"start":0,"action_noise":0.15,"location_history":"[0,5,4,2]","action_history":"[1,0,1]","mutagen_history":"[1,0,1]","location_rts":"[565,848,1161]","trial_type":"fractal-mutation","trial_index":66,"time_elapsed":3130001,"internal_node_id":"0.0-5.0-12.0"},{"group":"hexagon_tri","fractal_assignment":["../images/gry_blk.png","../images/blu_wht.png","../images/org_blu.png","../images/cyn_red.png","../images/ylw_slt.png","../images/pnk_blu.png"],"mutagen_generator_assignment":[0,1],"goal":5,"start":2,"action_noise":0.15,"location_history":"[2,1,5]","action_history":"[0,1]","mutagen_history":"[0,1]","location_rts":"[931,1231]","trial_type":"fractal-mutation","trial_index":67,"time_elapsed":3138279,"internal_node_id":"0.0-5.0-13.0"},{"group":"hexagon_tri","fractal_assignment":["../images/gry_blk.png","../images/blu_wht.png","../images/org_blu.png","../images/cyn_red.png","../images/ylw_slt.png","../images/pnk_blu.png"],"mutagen_generator_assignment":[0,1],"goal":4,"start":5,"action_noise":0.15,"location_history":"[5,4]","action_history":"[0]","mutagen_history":"[0]","location_rts":"[1162]","trial_type":"fractal-mutation","trial_index":68,"time_elapsed":3144181,"internal_node_id":"0.0-5.0-14.0"},{"group":"hexagon_tri","fractal_assignment":["../images/gry_blk.png","../images/blu_wht.png","../images/org_blu.png","../images/cyn_red.png","../images/ylw_slt.png","../images/pnk_blu.png"],"mutagen_generator_assignment":[0,1],"goal":3,"start":4,"action_noise":0.15,"location_history":"[4,0,1,5,0,5,0,5,4,2,3]","action_history":"[1,1,1,1,1,1,0,0,1,1]","mutagen_history":"[1,1,1,1,1,1,0,0,1,1]","location_rts":"[537,1952,835,843,829,1164,503,1021,1311,653]","trial_type":"fractal-mutation","trial_index":69,"time_elapsed":3170077,"internal_node_id":"0.0-5.0-15.0"},{"group":"hexagon_tri","fractal_assignment":["../images/gry_blk.png","../images/blu_wht.png","../images/org_blu.png","../images/cyn_red.png","../images/ylw_slt.png","../images/pnk_blu.png"],"mutagen_generator_assignment":[0,1],"goal":1,"start":3,"action_noise":0.15,"location_history":"[3,2,1]","action_history":"[0,1]","mutagen_history":"[0,1]","location_rts":"[977,512]","trial_type":"fractal-mutation","trial_index":70,"time_elapsed":3177661,"internal_node_id":"0.0-5.0-16.0"},{"group":"hexagon_tri","fractal_assignment":["../images/gry_blk.png","../images/blu_wht.png","../images/org_blu.png","../images/cyn_red.png","../images/ylw_slt.png","../images/pnk_blu.png"],"mutagen_generator_assignment":[0,1],"goal":5,"start":1,"action_noise":0.15,"location_history":"[1,5]","action_history":"[1]","mutagen_history":"[1]","location_rts":"[1987]","trial_type":"fractal-mutation","trial_index":71,"time_elapsed":3184461,"internal_node_id":"0.0-5.0-17.0"},{"group":"hexagon_tri","fractal_assignment":["../images/gry_blk.png","../images/blu_wht.png","../images/org_blu.png","../images/cyn_red.png","../images/ylw_slt.png","../images/pnk_blu.png"],"mutagen_generator_assignment":[0,1],"goal":4,"start":5,"action_noise":0.15,"location_history":"[5,0,5,4]","action_history":"[1,0,0]","mutagen_history":"[1,0,0]","location_rts":"[1228,2513,1103]","trial_type":"fractal-mutation","trial_index":72,"time_elapsed":3196513,"internal_node_id":"0.0-5.0-18.0"},{"group":"hexagon_tri","fractal_assignment":["../images/gry_blk.png","../images/blu_wht.png","../images/org_blu.png","../images/cyn_red.png","../images/ylw_slt.png","../images/pnk_blu.png"],"mutagen_generator_assignment":[0,1],"goal":0,"start":4,"action_noise":0.15,"location_history":"[4,2,3,4,2,1,3,4,0]","action_history":"[1,0,1,1,0,1,1,1]","mutagen_history":"[1,0,1,1,0,1,1,1]","location_rts":"[1825,1776,1887,1120,3074,3624,694,898]","trial_type":"fractal-mutation","trial_index":73,"time_elapsed":3225216,"internal_node_id":"0.0-5.0-19.0"},{"group":"hexagon_tri","fractal_assignment":["../images/gry_blk.png","../images/blu_wht.png","../images/org_blu.png","../images/cyn_red.png","../images/ylw_slt.png","../images/pnk_blu.png"],"mutagen_generator_assignment":[0,1],"goal":1,"start":0,"action_noise":0.15,"location_history":"[0,1]","action_history":"[1]","mutagen_history":"[1]","location_rts":"[4022]","trial_type":"fractal-mutation","trial_index":74,"time_elapsed":3234069,"internal_node_id":"0.0-5.0-20.0"},{"group":"hexagon_tri","fractal_assignment":["../images/gry_blk.png","../images/blu_wht.png","../images/org_blu.png","../images/cyn_red.png","../images/ylw_slt.png","../images/pnk_blu.png"],"mutagen_generator_assignment":[0,1],"goal":3,"start":1,"action_noise":0.15,"location_history":"[1,3]","action_history":"[0]","mutagen_history":"[0]","location_rts":"[562]","trial_type":"fractal-mutation","trial_index":75,"time_elapsed":3239398,"internal_node_id":"0.0-5.0-21.0"},{"group":"hexagon_tri","fractal_assignment":["../images/gry_blk.png","../images/blu_wht.png","../images/org_blu.png","../images/cyn_red.png","../images/ylw_slt.png","../images/pnk_blu.png"],"mutagen_generator_assignment":[0,1],"goal":2,"start":3,"action_noise":0.15,"location_history":"[3,2]","action_history":"[1]","mutagen_history":"[1]","location_rts":"[1131]","trial_type":"fractal-mutation","trial_index":76,"time_elapsed":3245355,"internal_node_id":"0.0-5.0-22.0"},{"group":"hexagon_tri","fractal_assignment":["../images/gry_blk.png","../images/blu_wht.png","../images/org_blu.png","../images/cyn_red.png","../images/ylw_slt.png","../images/pnk_blu.png"],"mutagen_generator_assignment":[0,1],"goal":0,"start":2,"action_noise":0.15,"location_history":"[2,1,5,4,2,1,5,0]","action_history":"[1,0,0,0,0,1,1]","mutagen_history":"[1,0,0,0,0,1,1]","location_rts":"[1597,6000,1255,1759,1661,1151,3578]","trial_type":"fractal-mutation","trial_index":77,"time_elapsed":3274528,"internal_node_id":"0.0-5.0-23.0"},{"group":"hexagon_tri","fractal_assignment":["../images/gry_blk.png","../images/blu_wht.png","../images/org_blu.png","../images/cyn_red.png","../images/ylw_slt.png","../images/pnk_blu.png"],"mutagen_generator_assignment":[0,1],"goal":3,"start":0,"action_noise":0.15,"location_history":"[0,1,5,0,5,0,1,5,0,1,5,0,1,5,0,1,3]","action_history":"[1,1,1,0,1,1,1,1,1,1,1,1,1,1,0,0]","mutagen_history":"[1,1,1,0,1,1,1,1,1,1,1,1,1,1,0,0]","location_rts":"[2846,656,4684,1143,697,937,825,654,728,1654,605,848,1020,1458,835,1131]","trial_type":"fractal-mutation","trial_index":78,"time_elapsed":3319277,"internal_node_id":"0.0-5.0-24.0"},{"group":"hexagon_tri","fractal_assignment":["../images/gry_blk.png","../images/blu_wht.png","../images/org_blu.png","../images/cyn_red.png","../images/ylw_slt.png","../images/pnk_blu.png"],"mutagen_generator_assignment":[0,1],"goal":1,"start":3,"action_noise":0.15,"location_history":"[3,4,0,1]","action_history":"[1,1,1]","mutagen_history":"[1,1,1]","location_rts":"[1886,1512,976]","trial_type":"fractal-mutation","trial_index":79,"time_elapsed":3330997,"internal_node_id":"0.0-5.0-25.0"},{"group":"hexagon_tri","fractal_assignment":["../images/gry_blk.png","../images/blu_wht.png","../images/org_blu.png","../images/cyn_red.png","../images/ylw_slt.png","../images/pnk_blu.png"],"mutagen_generator_assignment":[0,1],"goal":2,"start":1,"action_noise":0.15,"location_history":"[1,3,2]","action_history":"[0,0]","mutagen_history":"[0,0]","location_rts":"[589,871]","trial_type":"fractal-mutation","trial_index":80,"time_elapsed":3338417,"internal_node_id":"0.0-5.0-26.0"},{"group":"hexagon_tri","fractal_assignment":["../images/gry_blk.png","../images/blu_wht.png","../images/org_blu.png","../images/cyn_red.png","../images/ylw_slt.png","../images/pnk_blu.png"],"mutagen_generator_assignment":[0,1],"goal":5,"start":2,"action_noise":0.15,"location_history":"[2,1,5]","action_history":"[0,0]","mutagen_history":"[0,0]","location_rts":"[1144,1525]","trial_type":"fractal-mutation","trial_index":81,"time_elapsed":3347038,"internal_node_id":"0.0-5.0-27.0"},{"group":"hexagon_tri","fractal_assignment":["../images/gry_blk.png","../images/blu_wht.png","../images/org_blu.png","../images/cyn_red.png","../images/ylw_slt.png","../images/pnk_blu.png"],"mutagen_generator_assignment":[0,1],"goal":4,"start":5,"action_noise":0.15,"location_history":"[5,0,1,3,4]","action_history":"[0,1,1,1]","mutagen_history":"[0,1,1,1]","location_rts":"[2511,1092,841,830]","trial_type":"fractal-mutation","trial_index":82,"time_elapsed":3361069,"internal_node_id":"0.0-5.0-28.0"},{"group":"hexagon_tri","fractal_assignment":["../images/gry_blk.png","../images/blu_wht.png","../images/org_blu.png","../images/cyn_red.png","../images/ylw_slt.png","../images/pnk_blu.png"],"mutagen_generator_assignment":[0,1],"goal":5,"start":4,"action_noise":0.15,"location_history":"[4,0,5]","action_history":"[0,0]","mutagen_history":"[0,0]","location_rts":"[489,895]","trial_type":"fractal-mutation","trial_index":83,"time_elapsed":3368431,"internal_node_id":"0.0-5.0-29.0"},{"group":"hexagon_tri","fractal_assignment":["../images/gry_blk.png","../images/blu_wht.png","../images/org_blu.png","../images/cyn_red.png","../images/ylw_slt.png","../images/pnk_blu.png"],"mutagen_generator_assignment":[0,1],"goal":3,"start":5,"action_noise":0.15,"location_history":"[5,0,1,5,0,5,0,5,4,0,5,0,1,3]","action_history":"[1,1,1,1,1,0,0,0,0,0,1,1,1]","mutagen_history":"[1,1,1,1,1,0,0,0,0,0,1,1,1]","location_rts":"[1243,916,625,628,587,962,2891,4512,903,972,744,1730,1192]","trial_type":"fractal-mutation","trial_index":84,"time_elapsed":3406163,"internal_node_id":"0.0-5.0-30.0"},{"group":"hexagon_tri","fractal_assignment":["../images/gry_blk.png","../images/blu_wht.png","../images/org_blu.png","../images/cyn_red.png","../images/ylw_slt.png","../images/pnk_blu.png"],"mutagen_generator_assignment":[0,1],"goal":0,"start":3,"action_noise":0.15,"location_history":"[3,4,0]","action_history":"[1,0]","mutagen_history":"[1,0]","location_rts":"[915,761]","trial_type":"fractal-mutation","trial_index":85,"time_elapsed":3413931,"internal_node_id":"0.0-5.0-31.0"},{"group":"hexagon_tri","fractal_assignment":["../images/gry_blk.png","../images/blu_wht.png","../images/org_blu.png","../images/cyn_red.png","../images/ylw_slt.png","../images/pnk_blu.png"],"mutagen_generator_assignment":[0,1],"goal":4,"start":0,"action_noise":0.15,"location_history":"[0,1,5,0,1,5,0,5,0,1,5,0,5,4]","action_history":"[1,1,1,1,1,1,1,1,1,1,0,0,0]","mutagen_history":"[1,1,1,1,1,1,1,1,1,1,0,0,0]","location_rts":"[972,980,3340,1417,2608,1969,2214,1594,1075,1181,1670,1052,638]","trial_type":"fractal-mutation","trial_index":86,"time_elapsed":3454607,"internal_node_id":"0.0-5.0-32.0"},{"group":"hexagon_tri","fractal_assignment":["../images/gry_blk.png","../images/blu_wht.png","../images/org_blu.png","../images/cyn_red.png","../images/ylw_slt.png","../images/pnk_blu.png"],"mutagen_generator_assignment":[0,1],"goal":1,"start":4,"action_noise":0.15,"location_history":"[4,0,1]","action_history":"[0,1]","mutagen_history":"[0,1]","location_rts":"[2209,620]","trial_type":"fractal-mutation","trial_index":87,"time_elapsed":3463512,"internal_node_id":"0.0-5.0-33.0"},{"group":"hexagon_tri","fractal_assignment":["../images/gry_blk.png","../images/blu_wht.png","../images/org_blu.png","../images/cyn_red.png","../images/ylw_slt.png","../images/pnk_blu.png"],"mutagen_generator_assignment":[0,1],"goal":2,"start":1,"action_noise":0.15,"location_history":"[1,5,0,1,5,4,0,1,5,4,2]","action_history":"[1,0,1,1,0,0,1,1,1,1]","mutagen_history":"[1,0,1,1,0,0,1,1,1,1]","location_rts":"[1472,896,795,782,1067,784,959,1370,884,1579]","trial_type":"fractal-mutation","trial_index":88,"time_elapsed":3489944,"internal_node_id":"0.0-5.0-34.0"},{"group":"hexagon_tri","fractal_assignment":["../images/gry_blk.png","../images/blu_wht.png","../images/org_blu.png","../images/cyn_red.png","../images/ylw_slt.png","../images/pnk_blu.png"],"mutagen_generator_assignment":[0,1],"goal":0,"start":2,"action_noise":0.15,"location_history":"[2,3,4,2,1,5,4,2,1,5,0]","action_history":"[1,1,1,0,0,0,0,0,1,1]","mutagen_history":"[1,1,1,0,0,0,0,0,1,1]","location_rts":"[1433,1300,2135,1742,2201,2725,2151,2188,1737,1264]","trial_type":"fractal-mutation","trial_index":89,"time_elapsed":3524859,"internal_node_id":"0.0-5.0-35.0"},{"group":"hexagon_tri","fractal_assignment":["../images/gry_blk.png","../images/blu_wht.png","../images/org_blu.png","../images/cyn_red.png","../images/ylw_slt.png","../images/pnk_blu.png"],"mutagen_generator_assignment":[0,1],"goal":5,"start":0,"action_noise":0.15,"location_history":"[0,5]","action_history":"[0]","mutagen_history":"[0]","location_rts":"[1596]","trial_type":"fractal-mutation","trial_index":90,"time_elapsed":3531193,"internal_node_id":"0.0-5.0-36.0"},{"group":"hexagon_tri","fractal_assignment":["../images/gry_blk.png","../images/blu_wht.png","../images/org_blu.png","../images/cyn_red.png","../images/ylw_slt.png","../images/pnk_blu.png"],"mutagen_generator_assignment":[0,1],"goal":2,"start":5,"action_noise":0.15,"location_history":"[5,0,1,3,2]","action_history":"[1,1,0,0]","mutagen_history":"[1,1,0,0]","location_rts":"[846,2173,700,1158]","trial_type":"fractal-mutation","trial_index":91,"time_elapsed":3544541,"internal_node_id":"0.0-5.0-37.0"},{"group":"hexagon_tri","fractal_assignment":["../images/gry_blk.png","../images/blu_wht.png","../images/org_blu.png","../images/cyn_red.png","../images/ylw_slt.png","../images/pnk_blu.png"],"mutagen_generator_assignment":[0,1],"goal":1,"start":2,"action_noise":0.15,"location_history":"[2,1]","action_history":"[0]","mutagen_history":"[0]","location_rts":"[1154]","trial_type":"fractal-mutation","trial_index":92,"time_elapsed":3550459,"internal_node_id":"0.0-5.0-38.0"},{"group":"hexagon_tri","fractal_assignment":["../images/gry_blk.png","../images/blu_wht.png","../images/org_blu.png","../images/cyn_red.png","../images/ylw_slt.png","../images/pnk_blu.png"],"mutagen_generator_assignment":[0,1],"goal":4,"start":1,"action_noise":0.15,"location_history":"[1,5,4]","action_history":"[1,0]","mutagen_history":"[1,0]","location_rts":"[853,1215]","trial_type":"fractal-mutation","trial_index":93,"time_elapsed":3558516,"internal_node_id":"0.0-5.0-39.0"},{"group":"hexagon_tri","fractal_assignment":["../images/gry_blk.png","../images/blu_wht.png","../images/org_blu.png","../images/cyn_red.png","../images/ylw_slt.png","../images/pnk_blu.png"],"mutagen_generator_assignment":[0,1],"goal":3,"start":4,"action_noise":0.15,"location_history":"[4,0,1,3]","action_history":"[0,1,0]","mutagen_history":"[0,1,0]","location_rts":"[1074,5254,762]","trial_type":"fractal-mutation","trial_index":94,"time_elapsed":3572866,"internal_node_id":"0.0-5.0-40.0"},{"group":"hexagon_tri","fractal_assignment":["../images/gry_blk.png","../images/blu_wht.png","../images/org_blu.png","../images/cyn_red.png","../images/ylw_slt.png","../images/pnk_blu.png"],"mutagen_generator_assignment":[0,1],"goal":5,"start":3,"action_noise":0.15,"location_history":"[3,4,0,5]","action_history":"[1,0,0]","mutagen_history":"[1,0,0]","location_rts":"[962,1858,1385]","trial_type":"fractal-mutation","trial_index":95,"time_elapsed":3584350,"internal_node_id":"0.0-5.0-41.0"},{"group":"hexagon_tri","fractal_assignment":["../images/gry_blk.png","../images/blu_wht.png","../images/org_blu.png","../images/cyn_red.png","../images/ylw_slt.png","../images/pnk_blu.png"],"mutagen_generator_assignment":[0,1],"goal":3,"start":5,"action_noise":0.15,"location_history":"[5,4,2,3]","action_history":"[0,1,0]","mutagen_history":"[0,1,0]","location_rts":"[1798,4960,2680]","trial_type":"fractal-mutation","trial_index":96,"time_elapsed":3600950,"internal_node_id":"0.0-5.0-42.0"},{"group":"hexagon_tri","fractal_assignment":["../images/gry_blk.png","../images/blu_wht.png","../images/org_blu.png","../images/cyn_red.png","../images/ylw_slt.png","../images/pnk_blu.png"],"mutagen_generator_assignment":[0,1],"goal":0,"start":3,"action_noise":0.15,"location_history":"[3,4,0]","action_history":"[1,0]","mutagen_history":"[1,0]","location_rts":"[1511,1163]","trial_type":"fractal-mutation","trial_index":97,"time_elapsed":3609663,"internal_node_id":"0.0-5.0-43.0"},{"group":"hexagon_tri","fractal_assignment":["../images/gry_blk.png","../images/blu_wht.png","../images/org_blu.png","../images/cyn_red.png","../images/ylw_slt.png","../images/pnk_blu.png"],"mutagen_generator_assignment":[0,1],"goal":2,"start":0,"action_noise":0.15,"location_history":"[0,5,0,1,5,0,1,5,4,2]","action_history":"[0,1,1,1,1,1,1,1,1]","mutagen_history":"[0,1,1,1,1,1,1,1,1]","location_rts":"[1533,3443,1108,1463,1189,1479,2206,1842,1209]","trial_type":"fractal-mutation","trial_index":98,"time_elapsed":3640021,"internal_node_id":"0.0-5.0-44.0"},{"group":"hexagon_tri","fractal_assignment":["../images/gry_blk.png","../images/blu_wht.png","../images/org_blu.png","../images/cyn_red.png","../images/ylw_slt.png","../images/pnk_blu.png"],"mutagen_generator_assignment":[0,1],"goal":4,"start":2,"action_noise":0.15,"location_history":"[2,1,3,2,1,5,0,5,4]","action_history":"[0,0,0,1,1,1,0,1]","mutagen_history":"[0,0,0,1,1,1,0,1]","location_rts":"[2547,1375,1108,1219,1850,736,652,1036]","trial_type":"fractal-mutation","trial_index":99,"time_elapsed":3664061,"internal_node_id":"0.0-5.0-45.0"},{"group":"hexagon_tri","fractal_assignment":["../images/gry_blk.png","../images/blu_wht.png","../images/org_blu.png","../images/cyn_red.png","../images/ylw_slt.png","../images/pnk_blu.png"],"mutagen_generator_assignment":[0,1],"goal":1,"start":4,"action_noise":0.15,"location_history":"[4,0,5,0,1]","action_history":"[0,0,1,1]","mutagen_history":"[0,0,1,1]","location_rts":"[1316,1155,1141,1163]","trial_type":"fractal-mutation","trial_index":100,"time_elapsed":3677370,"internal_node_id":"0.0-5.0-46.0"},{"group":"hexagon_tri","fractal_assignment":["../images/gry_blk.png","../images/blu_wht.png","../images/org_blu.png","../images/cyn_red.png","../images/ylw_slt.png","../images/pnk_blu.png"],"mutagen_generator_assignment":[0,1],"goal":4,"start":1,"action_noise":0.15,"location_history":"[1,3,4]","action_history":"[0,1]","mutagen_history":"[0,1]","location_rts":"[905,1999]","trial_type":"fractal-mutation","trial_index":101,"time_elapsed":3686247,"internal_node_id":"0.0-5.0-47.0"},{"group":"hexagon_tri","fractal_assignment":["../images/gry_blk.png","../images/blu_wht.png","../images/org_blu.png","../images/cyn_red.png","../images/ylw_slt.png","../images/pnk_blu.png"],"mutagen_generator_assignment":[0,1],"goal":3,"start":4,"action_noise":0.15,"location_history":"[4,0,5,4,0,5,0,1,5,0,1,3]","action_history":"[0,1,0,1,0,1,1,1,1,1,0]","mutagen_history":"[0,1,0,1,0,1,1,1,1,1,0]","location_rts":"[523,1795,869,1145,482,702,1431,641,1318,2048,301]","trial_type":"fractal-mutation","trial_index":102,"time_elapsed":3714522,"internal_node_id":"0.0-5.0-48.0"},{"group":"hexagon_tri","fractal_assignment":["../images/gry_blk.png","../images/blu_wht.png","../images/org_blu.png","../images/cyn_red.png","../images/ylw_slt.png","../images/pnk_blu.png"],"mutagen_generator_assignment":[0,1],"goal":5,"start":3,"action_noise":0.15,"location_history":"[3,2,1,5]","action_history":"[1,0,1]","mutagen_history":"[1,0,1]","location_rts":"[2016,1608,968]","trial_type":"fractal-mutation","trial_index":103,"time_elapsed":3726351,"internal_node_id":"0.0-5.0-49.0"},{"view_history":"[{\"page_index\":0,\"viewing_time\":31066}]","rt":31067,"trial_type":"instructions","trial_index":104,"time_elapsed":3758419,"internal_node_id":"0.0-6.0"},{"rt":25161,"responses":"{\"Q0\":\"A1QUNP6IYOQMZ5 thank you\"}","trial_type":"survey-text","trial_index":105,"time_elapsed":3784595,"internal_node_id":"0.0-7.0"}]