[{"view_history":"[{\"page_index\":0,\"viewing_time\":3701},{\"page_index\":1,\"viewing_time\":9887},{\"page_index\":2,\"viewing_time\":30271},{\"page_index\":3,\"viewing_time\":4048}]","rt":47907,"trial_type":"instructions","trial_index":0,"time_elapsed":47909,"internal_node_id":"0.0-0.0"},{"view_history":"[{\"page_index\":0,\"viewing_time\":1988},{\"page_index\":1,\"viewing_time\":24184}]","rt":26172,"trial_type":"instructions","trial_index":1,"time_elapsed":75083,"internal_node_id":"0.0-1.0"},{"group":"hexagon_bi","room_assignment":["yellow","green","purple","blue","grey","red"],"door_color_assignment":["black","white"],"door_generator_assignment":[1,0],"goal":4,"start":0,"action_noise":0.15,"location_history":"[0,1,0,5,0,1,2,1,0,5,4]","action_history":"[1,1,0,0,1,0,0,1,0,1]","door_history":"[0,0,1,1,0,1,1,0,1,0]","location_rts":"[3619,7058,1509,1355,772,627,1354,1147,754,1235]","trial_type":"two-door-navigation","trial_index":2,"time_elapsed":108233,"internal_node_id":"0.0-2.0-0.0"},{"group":"hexagon_bi","room_assignment":["yellow","green","purple","blue","grey","red"],"door_color_assignment":["black","white"],"door_generator_assignment":[1,0],"goal":3,"start":4,"action_noise":0.15,"location_history":"[4,5,0,1,0,1,2,3]","action_history":"[1,0,1,1,0,0,1]","door_history":"[0,1,0,0,1,1,0]","location_rts":"[1329,12148,754,651,1029,1269,1348]","trial_type":"two-door-navigation","trial_index":3,"time_elapsed":137407,"internal_node_id":"0.0-2.0-1.0"},{"group":"hexagon_bi","room_assignment":["yellow","green","purple","blue","grey","red"],"door_color_assignment":["black","white"],"door_generator_assignment":[1,0],"goal":5,"start":3,"action_noise":0.15,"location_history":"[3,2,1,2,1,2,1,0,5]","action_history":"[1,0,0,0,0,0,1,0]","door_history":"[0,1,1,1,1,1,0,1]","location_rts":"[1283,850,443,898,539,555,1179,1082]","trial_type":"two-door-navigation","trial_index":4,"time_elapsed":155909,"internal_node_id":"0.0-2.0-2.0"},{"group":"hexagon_bi","room_assignment":["yellow","green","purple","blue","grey","red"],"door_color_assignment":["black","white"],"door_generator_assignment":[1,0],"goal":2,"start":5,"action_noise":0.15,"location_history":"[5,4,3,4,3,2]","action_history":"[1,0,0,0,1]","door_history":"[0,1,1,1,0]","location_rts":"[2109,1200,1203,428,332]","trial_type":"two-door-navigation","trial_index":5,"time_elapsed":169790,"internal_node_id":"0.0-2.0-3.0"},{"group":"hexagon_bi","room_assignment":["yellow","green","purple","blue","grey","red"],"door_color_assignment":["black","white"],"door_generator_assignment":[1,0],"goal":1,"start":2,"action_noise":0.15,"location_history":"[2,1]","action_history":"[0]","door_history":"[1]","location_rts":"[452]","trial_type":"two-door-navigation","trial_index":6,"time_elapsed":174765,"internal_node_id":"0.0-2.0-4.0"},{"group":"hexagon_bi","room_assignment":["yellow","green","purple","blue","grey","red"],"door_color_assignment":["black","white"],"door_generator_assignment":[1,0],"goal":4,"start":1,"action_noise":0.15,"location_history":"[1,0,5,4]","action_history":"[1,0,1]","door_history":"[0,1,0]","location_rts":"[426,459,364]","trial_type":"two-door-navigation","trial_index":7,"time_elapsed":182611,"internal_node_id":"0.0-2.0-5.0"},{"group":"hexagon_bi","room_assignment":["yellow","green","purple","blue","grey","red"],"door_color_assignment":["black","white"],"door_generator_assignment":[1,0],"goal":1,"start":4,"action_noise":0.15,"location_history":"[4,3,4,3,2,3,2,3,2,3,4,3,4,5,0,1]","action_history":"[0,0,1,1,0,1,1,1,1,0,0,0,1,0,1]","door_history":"[1,1,0,0,1,0,0,0,0,1,1,1,0,1,0]","location_rts":"[1183,363,1044,309,682,580,460,427,372,1196,484,499,139,356,437]","trial_type":"two-door-navigation","trial_index":8,"time_elapsed":209951,"internal_node_id":"0.0-2.0-6.0"},{"group":"hexagon_bi","room_assignment":["yellow","green","purple","blue","grey","red"],"door_color_assignment":["black","white"],"door_generator_assignment":[1,0],"goal":5,"start":1,"action_noise":0.15,"location_history":"[1,2,3,2,3,4,3,2,1,0,5]","action_history":"[0,1,1,1,0,0,1,0,1,0]","door_history":"[1,0,0,0,1,1,0,1,0,1]","location_rts":"[620,949,858,452,573,243,667,378,510,380]","trial_type":"two-door-navigation","trial_index":9,"time_elapsed":229287,"internal_node_id":"0.0-2.0-7.0"},{"group":"hexagon_bi","room_assignment":["yellow","green","purple","blue","grey","red"],"door_color_assignment":["black","white"],"door_generator_assignment":[1,0],"goal":0,"start":5,"action_noise":0.15,"location_history":"[5,4,5,4,5,0]","action_history":"[0,1,1,1,1]","door_history":"[1,0,0,0,0]","location_rts":"[332,238,340,332,348]","trial_type":"two-door-navigation","trial_index":10,"time_elapsed":239479,"internal_node_id":"0.0-2.0-8.0"},{"group":"hexagon_bi","room_assignment":["yellow","green","purple","blue","grey","red"],"door_color_assignment":["black","white"],"door_generator_assignment":[1,0],"goal":2,"start":0,"action_noise":0.15,"location_history":"[0,1,0,1,0,1,2]","action_history":"[0,1,1,1,1,0]","door_history":"[1,0,0,0,0,1]","location_rts":"[491,106,268,396,340,203]","trial_type":"two-door-navigation","trial_index":11,"time_elapsed":250909,"internal_node_id":"0.0-2.0-9.0"},{"group":"hexagon_bi","room_assignment":["yellow","green","purple","blue","grey","red"],"door_color_assignment":["black","white"],"door_generator_assignment":[1,0],"goal":3,"start":2,"action_noise":0.15,"location_history":"[2,1,2,1,0,1,0,5,4,5,4,3]","action_history":"[0,1,0,0,1,1,0,1,1,1,0]","door_history":"[1,0,1,1,0,0,1,0,0,0,1]","location_rts":"[653,3526,85,268,165,204,16890,542,115,381,1237]","trial_type":"two-door-navigation","trial_index":12,"time_elapsed":289694,"internal_node_id":"0.0-2.0-10.0"},{"group":"hexagon_bi","room_assignment":["yellow","green","purple","blue","grey","red"],"door_color_assignment":["black","white"],"door_generator_assignment":[1,0],"goal":0,"start":3,"action_noise":0.15,"location_history":"[3,2,3,4,5,4,3,2,1,2,3,2,1,2,3,4,5,0]","action_history":"[1,0,0,1,1,0,1,0,1,1,1,0,0,1,0,1,0]","door_history":"[0,1,1,0,0,1,0,1,0,0,0,1,1,0,1,0,1]","location_rts":"[356,275,274,365,307,334,274,364,292,251,386,1099,205,269,379,301,1035]","trial_type":"two-door-navigation","trial_index":13,"time_elapsed":317310,"internal_node_id":"0.0-2.0-11.0"},{"group":"hexagon_bi","room_assignment":["yellow","green","purple","blue","grey","red"],"door_color_assignment":["black","white"],"door_generator_assignment":[1,0],"goal":2,"start":0,"action_noise":0.15,"location_history":"[0,5,0,1,2]","action_history":"[0,0,1,0]","door_history":"[1,1,0,1]","location_rts":"[804,213,275,356]","trial_type":"two-door-navigation","trial_index":14,"time_elapsed":326542,"internal_node_id":"0.0-2.0-12.0"},{"group":"hexagon_bi","room_assignment":["yellow","green","purple","blue","grey","red"],"door_color_assignment":["black","white"],"door_generator_assignment":[1,0],"goal":5,"start":2,"action_noise":0.15,"location_history":"[2,1,2,1,2,3,4,5]","action_history":"[1,1,0,0,1,0,1]","door_history":"[0,0,1,1,0,1,0]","location_rts":"[667,1052,332,258,428,324,334]","trial_type":"two-door-navigation","trial_index":15,"time_elapsed":340579,"internal_node_id":"0.0-2.0-13.0"},{"group":"hexagon_bi","room_assignment":["yellow","green","purple","blue","grey","red"],"door_color_assignment":["black","white"],"door_generator_assignment":[1,0],"goal":4,"start":5,"action_noise":0.15,"location_history":"[5,0,1,2,1,0,5,4]","action_history":"[0,1,1,0,1,0,1]","door_history":"[1,0,0,1,0,1,0]","location_rts":"[847,3278,252,668,58,243,827]","trial_type":"two-door-navigation","trial_index":16,"time_elapsed":357782,"internal_node_id":"0.0-2.0-14.0"},{"group":"hexagon_bi","room_assignment":["yellow","green","purple","blue","grey","red"],"door_color_assignment":["black","white"],"door_generator_assignment":[1,0],"goal":3,"start":4,"action_noise":0.15,"location_history":"[4,5,0,5,0,1,0,1,2,3]","action_history":"[1,0,0,0,0,1,1,0,1]","door_history":"[0,1,1,1,1,0,0,1,0]","location_rts":"[373,20,195,267,237,275,276,90,76]","trial_type":"two-door-navigation","trial_index":17,"time_elapsed":372277,"internal_node_id":"0.0-2.0-15.0"},{"group":"hexagon_bi","room_assignment":["yellow","green","purple","blue","grey","red"],"door_color_assignment":["black","white"],"door_generator_assignment":[1,0],"goal":1,"start":3,"action_noise":0.15,"location_history":"[3,2,3,2,1]","action_history":"[0,1,1,0]","door_history":"[1,0,0,1]","location_rts":"[421,435,325,132]","trial_type":"two-door-navigation","trial_index":18,"time_elapsed":381173,"internal_node_id":"0.0-2.0-16.0"},{"group":"hexagon_bi","room_assignment":["yellow","green","purple","blue","grey","red"],"door_color_assignment":["black","white"],"door_generator_assignment":[1,0],"goal":5,"start":1,"action_noise":0.15,"location_history":"[1,2,3,2,1,2,3,2,1,0,5]","action_history":"[0,1,1,0,0,1,1,0,1,0]","door_history":"[1,0,0,1,1,0,0,1,0,1]","location_rts":"[381,461,228,363,324,492,324,282,484,263]","trial_type":"two-door-navigation","trial_index":19,"time_elapsed":398479,"internal_node_id":"0.0-2.0-17.0"},{"group":"hexagon_bi","room_assignment":["yellow","green","purple","blue","grey","red"],"door_color_assignment":["black","white"],"door_generator_assignment":[1,0],"goal":4,"start":5,"action_noise":0.15,"location_history":"[5,0,1,0,5,4]","action_history":"[0,1,0,0,1]","door_history":"[1,0,1,1,0]","location_rts":"[276,117,84,172,142]","trial_type":"two-door-navigation","trial_index":20,"time_elapsed":407871,"internal_node_id":"0.0-2.0-18.0"},{"group":"hexagon_bi","room_assignment":["yellow","green","purple","blue","grey","red"],"door_color_assignment":["black","white"],"door_generator_assignment":[1,0],"goal":0,"start":4,"action_noise":0.15,"location_history":"[4,3,2,1,0]","action_history":"[1,0,0,1]","door_history":"[0,1,1,0]","location_rts":"[1076,59,186,229]","trial_type":"two-door-navigation","trial_index":21,"time_elapsed":417005,"internal_node_id":"0.0-2.0-19.0"},{"group":"hexagon_bi","room_assignment":["yellow","green","purple","blue","grey","red"],"door_color_assignment":["black","white"],"door_generator_assignment":[1,0],"goal":1,"start":0,"action_noise":0.15,"location_history":"[0,1]","action_history":"[1]","door_history":"[0]","location_rts":"[380]","trial_type":"two-door-navigation","trial_index":22,"time_elapsed":421909,"internal_node_id":"0.0-2.0-20.0"},{"group":"hexagon_bi","room_assignment":["yellow","green","purple","blue","grey","red"],"door_color_assignment":["black","white"],"door_generator_assignment":[1,0],"goal":3,"start":1,"action_noise":0.15,"location_history":"[1,2,3]","action_history":"[0,1]","door_history":"[1,0]","location_rts":"[349,508]","trial_type":"two-door-navigation","trial_index":23,"time_elapsed":428309,"internal_node_id":"0.0-2.0-21.0"},{"group":"hexagon_bi","room_assignment":["yellow","green","purple","blue","grey","red"],"door_color_assignment":["black","white"],"door_generator_assignment":[1,0],"goal":2,"start":3,"action_noise":0.15,"location_history":"[3,2]","action_history":"[1]","door_history":"[0]","location_rts":"[477]","trial_type":"two-door-navigation","trial_index":24,"time_elapsed":433310,"internal_node_id":"0.0-2.0-22.0"},{"group":"hexagon_bi","room_assignment":["yellow","green","purple","blue","grey","red"],"door_color_assignment":["black","white"],"door_generator_assignment":[1,0],"goal":0,"start":2,"action_noise":0.15,"location_history":"[2,1,0]","action_history":"[0,1]","door_history":"[1,0]","location_rts":"[331,258]","trial_type":"two-door-navigation","trial_index":25,"time_elapsed":439447,"internal_node_id":"0.0-2.0-23.0"},{"group":"hexagon_bi","room_assignment":["yellow","green","purple","blue","grey","red"],"door_color_assignment":["black","white"],"door_generator_assignment":[1,0],"goal":3,"start":0,"action_noise":0.15,"location_history":"[0,5,0,1,2,1,0,1,2,1,0,5,4,3]","action_history":"[0,1,1,0,0,1,1,0,0,1,0,1,0]","door_history":"[1,0,0,1,1,0,0,1,1,0,1,0,1]","location_rts":"[332,146,236,148,219,76,228,43,139,286,93,52,91]","trial_type":"two-door-navigation","trial_index":26,"time_elapsed":458301,"internal_node_id":"0.0-2.0-24.0"},{"group":"hexagon_bi","room_assignment":["yellow","green","purple","blue","grey","red"],"door_color_assignment":["black","white"],"door_generator_assignment":[1,0],"goal":1,"start":3,"action_noise":0.15,"location_history":"[3,4,5,0,5,0,1]","action_history":"[0,1,0,0,1,1]","door_history":"[1,0,1,1,0,0]","location_rts":"[957,117,124,156,131,124]","trial_type":"two-door-navigation","trial_index":27,"time_elapsed":469689,"internal_node_id":"0.0-2.0-25.0"},{"group":"hexagon_bi","room_assignment":["yellow","green","purple","blue","grey","red"],"door_color_assignment":["black","white"],"door_generator_assignment":[1,0],"goal":2,"start":1,"action_noise":0.15,"location_history":"[1,0,5,0,5,4,5,0,1,2]","action_history":"[1,0,0,1,1,1,0,1,0]","door_history":"[0,1,1,0,0,0,1,0,1]","location_rts":"[1369,292,195,51,203,195,84,195,53]","trial_type":"two-door-navigation","trial_index":28,"time_elapsed":485014,"internal_node_id":"0.0-2.0-26.0"},{"group":"hexagon_bi","room_assignment":["yellow","green","purple","blue","grey","red"],"door_color_assignment":["black","white"],"door_generator_assignment":[1,0],"goal":5,"start":2,"action_noise":0.15,"location_history":"[2,1,0,5]","action_history":"[0,1,0]","door_history":"[1,0,1]","location_rts":"[669,292,362]","trial_type":"two-door-navigation","trial_index":29,"time_elapsed":492901,"internal_node_id":"0.0-2.0-27.0"},{"group":"hexagon_bi","room_assignment":["yellow","green","purple","blue","grey","red"],"door_color_assignment":["black","white"],"door_generator_assignment":[1,0],"goal":4,"start":5,"action_noise":0.15,"location_history":"[5,4]","action_history":"[1]","door_history":"[0]","location_rts":"[284]","trial_type":"two-door-navigation","trial_index":30,"time_elapsed":497709,"internal_node_id":"0.0-2.0-28.0"},{"group":"hexagon_bi","room_assignment":["yellow","green","purple","blue","grey","red"],"door_color_assignment":["black","white"],"door_generator_assignment":[1,0],"goal":5,"start":4,"action_noise":0.15,"location_history":"[4,3,2,1,2,3,4,5]","action_history":"[0,1,0,0,1,0,1]","door_history":"[1,0,1,1,0,1,0]","location_rts":"[365,75,412,381,292,125,787]","trial_type":"two-door-navigation","trial_index":31,"time_elapsed":510791,"internal_node_id":"0.0-2.0-29.0"},{"group":"hexagon_bi","room_assignment":["yellow","green","purple","blue","grey","red"],"door_color_assignment":["black","white"],"door_generator_assignment":[1,0],"goal":3,"start":5,"action_noise":0.15,"location_history":"[5,4,3]","action_history":"[1,0]","door_history":"[0,1]","location_rts":"[667,308]","trial_type":"two-door-navigation","trial_index":32,"time_elapsed":517309,"internal_node_id":"0.0-2.0-30.0"},{"group":"hexagon_bi","room_assignment":["yellow","green","purple","blue","grey","red"],"door_color_assignment":["black","white"],"door_generator_assignment":[1,0],"goal":0,"start":3,"action_noise":0.15,"location_history":"[3,2,1,2,3,2,1,2,1,2,3,4,3,2,1,2,3,4,3,2,1,2,3,4,5,0]","action_history":"[1,0,0,1,0,0,1,0,0,1,1,0,1,0,0,1,1,0,1,0,0,1,0,1,0]","door_history":"[0,1,1,0,1,1,0,1,1,0,0,1,0,1,1,0,0,1,0,1,1,0,1,0,1]","location_rts":"[1524,27,238,43,117,91,83,147,148,52,91,131,358,390,276,235,318,202,402,278,242,243,267,229,261]","trial_type":"two-door-navigation","trial_index":33,"time_elapsed":552708,"internal_node_id":"0.0-2.0-31.0"},{"group":"hexagon_bi","room_assignment":["yellow","green","purple","blue","grey","red"],"door_color_assignment":["black","white"],"door_generator_assignment":[1,0],"goal":4,"start":0,"action_noise":0.15,"location_history":"[0,1,2,3,2,1,2,3,4]","action_history":"[1,0,1,1,0,0,1,0]","door_history":"[0,1,0,0,1,1,0,1]","location_rts":"[910,443,142,379,921,348,180,309]","trial_type":"two-door-navigation","trial_index":34,"time_elapsed":568005,"internal_node_id":"0.0-2.0-32.0"},{"group":"hexagon_bi","room_assignment":["yellow","green","purple","blue","grey","red"],"door_color_assignment":["black","white"],"door_generator_assignment":[1,0],"goal":1,"start":4,"action_noise":0.15,"location_history":"[4,5,0,5,4,3,4,3,2,1]","action_history":"[1,0,1,0,0,0,0,1,0]","door_history":"[0,1,0,1,1,1,1,0,1]","location_rts":"[509,180,172,165,229,251,267,187,237]","trial_type":"two-door-navigation","trial_index":35,"time_elapsed":582887,"internal_node_id":"0.0-2.0-33.0"},{"group":"hexagon_bi","room_assignment":["yellow","green","purple","blue","grey","red"],"door_color_assignment":["black","white"],"door_generator_assignment":[1,0],"goal":2,"start":1,"action_noise":0.15,"location_history":"[1,2]","action_history":"[1]","door_history":"[0]","location_rts":"[866]","trial_type":"two-door-navigation","trial_index":36,"time_elapsed":588276,"internal_node_id":"0.0-2.0-34.0"},{"group":"hexagon_bi","room_assignment":["yellow","green","purple","blue","grey","red"],"door_color_assignment":["black","white"],"door_generator_assignment":[1,0],"goal":0,"start":2,"action_noise":0.15,"location_history":"[2,1,0]","action_history":"[0,1]","door_history":"[1,0]","location_rts":"[293,66]","trial_type":"two-door-navigation","trial_index":37,"time_elapsed":594182,"internal_node_id":"0.0-2.0-35.0"},{"group":"hexagon_bi","room_assignment":["yellow","green","purple","blue","grey","red"],"door_color_assignment":["black","white"],"door_generator_assignment":[1,0],"goal":5,"start":0,"action_noise":0.15,"location_history":"[0,5]","action_history":"[0]","door_history":"[1]","location_rts":"[372]","trial_type":"two-door-navigation","trial_index":38,"time_elapsed":599077,"internal_node_id":"0.0-2.0-36.0"},{"group":"hexagon_bi","room_assignment":["yellow","green","purple","blue","grey","red"],"door_color_assignment":["black","white"],"door_generator_assignment":[1,0],"goal":2,"start":5,"action_noise":0.15,"location_history":"[5,0,1,0,1,2]","action_history":"[0,1,0,1,0]","door_history":"[1,0,1,0,1]","location_rts":"[956,180,142,1123,1965]","trial_type":"two-door-navigation","trial_index":39,"time_elapsed":612582,"internal_node_id":"0.0-2.0-37.0"},{"group":"hexagon_bi","room_assignment":["yellow","green","purple","blue","grey","red"],"door_color_assignment":["black","white"],"door_generator_assignment":[1,0],"goal":1,"start":2,"action_noise":0.15,"location_history":"[2,1]","action_history":"[0]","door_history":"[1]","location_rts":"[596]","trial_type":"two-door-navigation","trial_index":40,"time_elapsed":617702,"internal_node_id":"0.0-2.0-38.0"},{"group":"hexagon_bi","room_assignment":["yellow","green","purple","blue","grey","red"],"door_color_assignment":["black","white"],"door_generator_assignment":[1,0],"goal":4,"start":1,"action_noise":0.15,"location_history":"[1,0,5,0,1,0,5,4]","action_history":"[1,0,0,1,1,0,1]","door_history":"[0,1,1,0,0,1,0]","location_rts":"[533,171,185,140,276,220,115]","trial_type":"two-door-navigation","trial_index":41,"time_elapsed":629989,"internal_node_id":"0.0-2.0-39.0"},{"group":"hexagon_bi","room_assignment":["yellow","green","purple","blue","grey","red"],"door_color_assignment":["black","white"],"door_generator_assignment":[1,0],"goal":3,"start":4,"action_noise":0.15,"location_history":"[4,3]","action_history":"[0]","door_history":"[1]","location_rts":"[534]","trial_type":"two-door-navigation","trial_index":42,"time_elapsed":635045,"internal_node_id":"0.0-2.0-40.0"},{"group":"hexagon_bi","room_assignment":["yellow","green","purple","blue","grey","red"],"door_color_assignment":["black","white"],"door_generator_assignment":[1,0],"goal":5,"start":3,"action_noise":0.15,"location_history":"[3,2,1,2,3,4,5]","action_history":"[1,0,0,1,0,1]","door_history":"[0,1,1,0,1,0]","location_rts":"[428,103,172,134,266,127]","trial_type":"two-door-navigation","trial_index":43,"time_elapsed":645894,"internal_node_id":"0.0-2.0-41.0"},{"group":"hexagon_bi","room_assignment":["yellow","green","purple","blue","grey","red"],"door_color_assignment":["black","white"],"door_generator_assignment":[1,0],"goal":3,"start":5,"action_noise":0.15,"location_history":"[5,0,1,2,1,2,1,2,1,0,5,0,5,4,5,0,1,0,5,4,3]","action_history":"[0,1,0,0,0,1,0,1,1,0,0,0,0,1,0,1,1,0,1,1]","door_history":"[1,0,1,1,1,0,1,0,0,1,1,1,1,0,1,0,0,1,0,0]","location_rts":"[844,212,115,179,155,125,122,100,283,133,658,354,259,1018,219,308,228,219,235,195]","trial_type":"two-door-navigation","trial_index":44,"time_elapsed":675773,"internal_node_id":"0.0-2.0-42.0"},{"group":"hexagon_bi","room_assignment":["yellow","green","purple","blue","grey","red"],"door_color_assignment":["black","white"],"door_generator_assignment":[1,0],"goal":0,"start":3,"action_noise":0.15,"location_history":"[3,4,5,0]","action_history":"[0,1,0]","door_history":"[1,0,1]","location_rts":"[604,156,252]","trial_type":"two-door-navigation","trial_index":45,"time_elapsed":683351,"internal_node_id":"0.0-2.0-43.0"},{"group":"hexagon_bi","room_assignment":["yellow","green","purple","blue","grey","red"],"door_color_assignment":["black","white"],"door_generator_assignment":[1,0],"goal":2,"start":0,"action_noise":0.15,"location_history":"[0,1,0,1,0,5,0,1,2]","action_history":"[0,1,1,1,0,0,1,0]","door_history":"[1,0,0,0,1,1,0,1]","location_rts":"[596,130,187,211,60,172,243,110]","trial_type":"two-door-navigation","trial_index":46,"time_elapsed":696727,"internal_node_id":"0.0-2.0-44.0"},{"group":"hexagon_bi","room_assignment":["yellow","green","purple","blue","grey","red"],"door_color_assignment":["black","white"],"door_generator_assignment":[1,0],"goal":4,"start":2,"action_noise":0.15,"location_history":"[2,3,4]","action_history":"[1,0]","door_history":"[0,1]","location_rts":"[388,2]","trial_type":"two-door-navigation","trial_index":47,"time_elapsed":702661,"internal_node_id":"0.0-2.0-45.0"},{"group":"hexagon_bi","room_assignment":["yellow","green","purple","blue","grey","red"],"door_color_assignment":["black","white"],"door_generator_assignment":[1,0],"goal":1,"start":4,"action_noise":0.15,"location_history":"[4,5,0,5,0,1]","action_history":"[1,0,0,1,1]","door_history":"[0,1,1,0,0]","location_rts":"[323,116,147,108,309]","trial_type":"two-door-navigation","trial_index":48,"time_elapsed":712270,"internal_node_id":"0.0-2.0-46.0"},{"group":"hexagon_bi","room_assignment":["yellow","green","purple","blue","grey","red"],"door_color_assignment":["black","white"],"door_generator_assignment":[1,0],"goal":4,"start":1,"action_noise":0.15,"location_history":"[1,2,3,4]","action_history":"[0,1,1]","door_history":"[1,0,0]","location_rts":"[628,115,162]","trial_type":"two-door-navigation","trial_index":49,"time_elapsed":719741,"internal_node_id":"0.0-2.0-47.0"},{"group":"hexagon_bi","room_assignment":["yellow","green","purple","blue","grey","red"],"door_color_assignment":["black","white"],"door_generator_assignment":[1,0],"goal":3,"start":4,"action_noise":0.15,"location_history":"[4,3]","action_history":"[0]","door_history":"[1]","location_rts":"[995]","trial_type":"two-door-navigation","trial_index":50,"time_elapsed":725260,"internal_node_id":"0.0-2.0-48.0"},{"group":"hexagon_bi","room_assignment":["yellow","green","purple","blue","grey","red"],"door_color_assignment":["black","white"],"door_generator_assignment":[1,0],"goal":5,"start":3,"action_noise":0.15,"location_history":"[3,4,3,4,5]","action_history":"[1,0,0,1]","door_history":"[0,1,1,0]","location_rts":"[557,5,148,68]","trial_type":"two-door-navigation","trial_index":51,"time_elapsed":733621,"internal_node_id":"0.0-2.0-49.0"},{"view_history":"[{\"page_index\":0,\"viewing_time\":1790}]","rt":1790,"trial_type":"instructions","trial_index":52,"time_elapsed":736412,"internal_node_id":"0.0-3.0"},{"view_history":"[{\"page_index\":0,\"viewing_time\":1463},{\"page_index\":1,\"viewing_time\":9752}]","rt":11215,"trial_type":"instructions","trial_index":53,"time_elapsed":748627,"internal_node_id":"0.0-4.0"},{"group":"hexagon_bi","fractal_assignment":["../images/blu_wht.png","../images/cyn_red.png","../images/pnk_blu.png","../images/gry_blk.png","../images/org_blu.png","../images/ylw_slt.png"],"mutagen_generator_assignment":[0,1],"goal":4,"start":0,"action_noise":0.15,"location_history":"[0,5,4]","action_history":"[0,1]","mutagen_history":"[0,1]","location_rts":"[2737,428]","trial_type":"fractal-mutation","trial_index":54,"time_elapsed":757375,"internal_node_id":"0.0-5.0-0.0"},{"group":"hexagon_bi","fractal_assignment":["../images/blu_wht.png","../images/cyn_red.png","../images/pnk_blu.png","../images/gry_blk.png","../images/org_blu.png","../images/ylw_slt.png"],"mutagen_generator_assignment":[0,1],"goal":3,"start":4,"action_noise":0.15,"location_history":"[4,3]","action_history":"[0]","mutagen_history":"[0]","location_rts":"[501]","trial_type":"fractal-mutation","trial_index":55,"time_elapsed":762408,"internal_node_id":"0.0-5.0-1.0"},{"group":"hexagon_bi","fractal_assignment":["../images/blu_wht.png","../images/cyn_red.png","../images/pnk_blu.png","../images/gry_blk.png","../images/org_blu.png","../images/ylw_slt.png"],"mutagen_generator_assignment":[0,1],"goal":5,"start":3,"action_noise":0.15,"location_history":"[3,2,1,2,3,2,3,4,3,2,3,2,1,0,5]","action_history":"[1,0,0,1,1,1,0,0,1,1,0,1,1,1]","mutagen_history":"[1,0,0,1,1,1,0,0,1,1,0,1,1,1]","location_rts":"[852,183,257,210,312,96,129,147,266,164,130,347,313,269]","trial_type":"fractal-mutation","trial_index":56,"time_elapsed":784057,"internal_node_id":"0.0-5.0-2.0"},{"group":"hexagon_bi","fractal_assignment":["../images/blu_wht.png","../images/cyn_red.png","../images/pnk_blu.png","../images/gry_blk.png","../images/org_blu.png","../images/ylw_slt.png"],"mutagen_generator_assignment":[0,1],"goal":2,"start":5,"action_noise":0.15,"location_history":"[5,4,5,4,3,4,3,2]","action_history":"[0,1,1,0,0,1,1]","mutagen_history":"[0,1,1,0,0,1,1]","location_rts":"[386,162,72,121,299,131,234]","trial_type":"fractal-mutation","trial_index":57,"time_elapsed":796185,"internal_node_id":"0.0-5.0-3.0"},{"group":"hexagon_bi","fractal_assignment":["../images/blu_wht.png","../images/cyn_red.png","../images/pnk_blu.png","../images/gry_blk.png","../images/org_blu.png","../images/ylw_slt.png"],"mutagen_generator_assignment":[0,1],"goal":1,"start":2,"action_noise":0.15,"location_history":"[2,1]","action_history":"[0]","mutagen_history":"[0]","location_rts":"[394]","trial_type":"fractal-mutation","trial_index":58,"time_elapsed":801105,"internal_node_id":"0.0-5.0-4.0"},{"group":"hexagon_bi","fractal_assignment":["../images/blu_wht.png","../images/cyn_red.png","../images/pnk_blu.png","../images/gry_blk.png","../images/org_blu.png","../images/ylw_slt.png"],"mutagen_generator_assignment":[0,1],"goal":4,"start":1,"action_noise":0.15,"location_history":"[1,0,5,0,1,2,1,2,3,2,1,0,1,2,3,4]","action_history":"[1,0,0,0,1,0,0,1,1,0,1,1,0,0,0]","mutagen_history":"[1,0,0,0,1,0,0,1,1,0,1,1,0,0,0]","location_rts":"[363,207,122,218,210,217,241,251,276,157,138,204,106,154,162]","trial_type":"fractal-mutation","trial_index":59,"time_elapsed":823049,"internal_node_id":"0.0-5.0-5.0"},{"group":"hexagon_bi","fractal_assignment":["../images/blu_wht.png","../images/cyn_red.png","../images/pnk_blu.png","../images/gry_blk.png","../images/org_blu.png","../images/ylw_slt.png"],"mutagen_generator_assignment":[0,1],"goal":1,"start":4,"action_noise":0.15,"location_history":"[4,5,4,5,4,3,2,1]","action_history":"[1,0,1,0,0,1,0]","mutagen_history":"[1,0,1,0,0,1,0]","location_rts":"[410,279,176,142,114,152,183]","trial_type":"fractal-mutation","trial_index":60,"time_elapsed":835201,"internal_node_id":"0.0-5.0-6.0"},{"group":"hexagon_bi","fractal_assignment":["../images/blu_wht.png","../images/cyn_red.png","../images/pnk_blu.png","../images/gry_blk.png","../images/org_blu.png","../images/ylw_slt.png"],"mutagen_generator_assignment":[0,1],"goal":5,"start":1,"action_noise":0.15,"location_history":"[1,0,5]","action_history":"[1,0]","mutagen_history":"[1,0]","location_rts":"[386,92]","trial_type":"fractal-mutation","trial_index":61,"time_elapsed":841241,"internal_node_id":"0.0-5.0-7.0"},{"group":"hexagon_bi","fractal_assignment":["../images/blu_wht.png","../images/cyn_red.png","../images/pnk_blu.png","../images/gry_blk.png","../images/org_blu.png","../images/ylw_slt.png"],"mutagen_generator_assignment":[0,1],"goal":0,"start":5,"action_noise":0.15,"location_history":"[5,4,3,4,3,4,3,4,5,0]","action_history":"[1,0,0,1,0,0,1,1,0]","mutagen_history":"[1,0,0,1,0,0,1,1,0]","location_rts":"[578,119,192,186,149,179,186,209,172]","trial_type":"fractal-mutation","trial_index":62,"time_elapsed":855961,"internal_node_id":"0.0-5.0-8.0"},{"group":"hexagon_bi","fractal_assignment":["../images/blu_wht.png","../images/cyn_red.png","../images/pnk_blu.png","../images/gry_blk.png","../images/org_blu.png","../images/ylw_slt.png"],"mutagen_generator_assignment":[0,1],"goal":2,"start":0,"action_noise":0.15,"location_history":"[0,1,0,1,2]","action_history":"[1,0,1,0]","mutagen_history":"[1,0,1,0]","location_rts":"[466,126,250,219]","trial_type":"fractal-mutation","trial_index":63,"time_elapsed":864642,"internal_node_id":"0.0-5.0-9.0"},{"group":"hexagon_bi","fractal_assignment":["../images/blu_wht.png","../images/cyn_red.png","../images/pnk_blu.png","../images/gry_blk.png","../images/org_blu.png","../images/ylw_slt.png"],"mutagen_generator_assignment":[0,1],"goal":3,"start":2,"action_noise":0.15,"location_history":"[2,1,0,1,0,5,4,5,4,3]","action_history":"[0,1,1,0,0,1,1,1,0]","mutagen_history":"[0,1,1,0,0,1,1,1,0]","location_rts":"[339,89,275,151,258,202,265,198,136]","trial_type":"fractal-mutation","trial_index":64,"time_elapsed":879313,"internal_node_id":"0.0-5.0-10.0"},{"group":"hexagon_bi","fractal_assignment":["../images/blu_wht.png","../images/cyn_red.png","../images/pnk_blu.png","../images/gry_blk.png","../images/org_blu.png","../images/ylw_slt.png"],"mutagen_generator_assignment":[0,1],"goal":0,"start":3,"action_noise":0.15,"location_history":"[3,4,5,4,3,4,3,2,3,4,3,4,3,2,3,2,3,4,5,0]","action_history":"[1,1,1,0,0,1,0,1,1,0,0,0,1,1,0,1,0,1,0]","mutagen_history":"[1,1,1,0,0,1,0,1,1,0,0,0,1,1,0,1,0,1,0]","location_rts":"[418,130,198,159,235,202,232,178,183,145,210,195,232,231,123,161,321,99,131]","trial_type":"fractal-mutation","trial_index":65,"time_elapsed":906150,"internal_node_id":"0.0-5.0-11.0"},{"group":"hexagon_bi","fractal_assignment":["../images/blu_wht.png","../images/cyn_red.png","../images/pnk_blu.png","../images/gry_blk.png","../images/org_blu.png","../images/ylw_slt.png"],"mutagen_generator_assignment":[0,1],"goal":2,"start":0,"action_noise":0.15,"location_history":"[0,1,2]","action_history":"[1,0]","mutagen_history":"[1,0]","location_rts":"[428,88]","trial_type":"fractal-mutation","trial_index":66,"time_elapsed":912225,"internal_node_id":"0.0-5.0-12.0"},{"group":"hexagon_bi","fractal_assignment":["../images/blu_wht.png","../images/cyn_red.png","../images/pnk_blu.png","../images/gry_blk.png","../images/org_blu.png","../images/ylw_slt.png"],"mutagen_generator_assignment":[0,1],"goal":5,"start":2,"action_noise":0.15,"location_history":"[2,3,2,1,2,3,2,1,0,5]","action_history":"[1,1,0,0,1,0,0,1,0]","mutagen_history":"[1,1,0,0,1,0,0,1,0]","location_rts":"[249,1157,46,123,267,121,186,187,110]","trial_type":"fractal-mutation","trial_index":67,"time_elapsed":927417,"internal_node_id":"0.0-5.0-13.0"},{"group":"hexagon_bi","fractal_assignment":["../images/blu_wht.png","../images/cyn_red.png","../images/pnk_blu.png","../images/gry_blk.png","../images/org_blu.png","../images/ylw_slt.png"],"mutagen_generator_assignment":[0,1],"goal":4,"start":5,"action_noise":0.15,"location_history":"[5,4]","action_history":"[1]","mutagen_history":"[1]","location_rts":"[362]","trial_type":"fractal-mutation","trial_index":68,"time_elapsed":932320,"internal_node_id":"0.0-5.0-14.0"},{"group":"hexagon_bi","fractal_assignment":["../images/blu_wht.png","../images/cyn_red.png","../images/pnk_blu.png","../images/gry_blk.png","../images/org_blu.png","../images/ylw_slt.png"],"mutagen_generator_assignment":[0,1],"goal":3,"start":4,"action_noise":0.15,"location_history":"[4,5,0,1,2,1,0,5,4,3]","action_history":"[1,0,1,0,0,1,0,1,0]","mutagen_history":"[1,0,1,0,0,1,0,1,0]","location_rts":"[924,252,240,118,393,274,159,279,234]","trial_type":"fractal-mutation","trial_index":69,"time_elapsed":947970,"internal_node_id":"0.0-5.0-15.0"},{"group":"hexagon_bi","fractal_assignment":["../images/blu_wht.png","../images/cyn_red.png","../images/pnk_blu.png","../images/gry_blk.png","../images/org_blu.png","../images/ylw_slt.png"],"mutagen_generator_assignment":[0,1],"goal":1,"start":3,"action_noise":0.15,"location_history":"[3,4,5,0,1]","action_history":"[0,1,0,1]","mutagen_history":"[0,1,0,1]","location_rts":"[985,418,161,331]","trial_type":"fractal-mutation","trial_index":70,"time_elapsed":957491,"internal_node_id":"0.0-5.0-16.0"},{"group":"hexagon_bi","fractal_assignment":["../images/blu_wht.png","../images/cyn_red.png","../images/pnk_blu.png","../images/gry_blk.png","../images/org_blu.png","../images/ylw_slt.png"],"mutagen_generator_assignment":[0,1],"goal":5,"start":1,"action_noise":0.15,"location_history":"[1,0,5]","action_history":"[1,0]","mutagen_history":"[1,0]","location_rts":"[544,168]","trial_type":"fractal-mutation","trial_index":71,"time_elapsed":963768,"internal_node_id":"0.0-5.0-17.0"},{"group":"hexagon_bi","fractal_assignment":["../images/blu_wht.png","../images/cyn_red.png","../images/pnk_blu.png","../images/gry_blk.png","../images/org_blu.png","../images/ylw_slt.png"],"mutagen_generator_assignment":[0,1],"goal":4,"start":5,"action_noise":0.15,"location_history":"[5,4]","action_history":"[0]","mutagen_history":"[0]","location_rts":"[859]","trial_type":"fractal-mutation","trial_index":72,"time_elapsed":969153,"internal_node_id":"0.0-5.0-18.0"},{"group":"hexagon_bi","fractal_assignment":["../images/blu_wht.png","../images/cyn_red.png","../images/pnk_blu.png","../images/gry_blk.png","../images/org_blu.png","../images/ylw_slt.png"],"mutagen_generator_assignment":[0,1],"goal":0,"start":4,"action_noise":0.15,"location_history":"[4,5,0]","action_history":"[1,0]","mutagen_history":"[1,0]","location_rts":"[817,106]","trial_type":"fractal-mutation","trial_index":73,"time_elapsed":975641,"internal_node_id":"0.0-5.0-19.0"},{"group":"hexagon_bi","fractal_assignment":["../images/blu_wht.png","../images/cyn_red.png","../images/pnk_blu.png","../images/gry_blk.png","../images/org_blu.png","../images/ylw_slt.png"],"mutagen_generator_assignment":[0,1],"goal":1,"start":0,"action_noise":0.15,"location_history":"[0,1]","action_history":"[1]","mutagen_history":"[1]","location_rts":"[434]","trial_type":"fractal-mutation","trial_index":74,"time_elapsed":980619,"internal_node_id":"0.0-5.0-20.0"},{"group":"hexagon_bi","fractal_assignment":["../images/blu_wht.png","../images/cyn_red.png","../images/pnk_blu.png","../images/gry_blk.png","../images/org_blu.png","../images/ylw_slt.png"],"mutagen_generator_assignment":[0,1],"goal":3,"start":1,"action_noise":0.15,"location_history":"[1,2,3]","action_history":"[0,1]","mutagen_history":"[0,1]","location_rts":"[776,457]","trial_type":"fractal-mutation","trial_index":75,"time_elapsed":987410,"internal_node_id":"0.0-5.0-21.0"},{"group":"hexagon_bi","fractal_assignment":["../images/blu_wht.png","../images/cyn_red.png","../images/pnk_blu.png","../images/gry_blk.png","../images/org_blu.png","../images/ylw_slt.png"],"mutagen_generator_assignment":[0,1],"goal":2,"start":3,"action_noise":0.15,"location_history":"[3,2]","action_history":"[1]","mutagen_history":"[1]","location_rts":"[329]","trial_type":"fractal-mutation","trial_index":76,"time_elapsed":992282,"internal_node_id":"0.0-5.0-22.0"},{"group":"hexagon_bi","fractal_assignment":["../images/blu_wht.png","../images/cyn_red.png","../images/pnk_blu.png","../images/gry_blk.png","../images/org_blu.png","../images/ylw_slt.png"],"mutagen_generator_assignment":[0,1],"goal":0,"start":2,"action_noise":0.15,"location_history":"[2,1,0]","action_history":"[0,1]","mutagen_history":"[0,1]","location_rts":"[377,321]","trial_type":"fractal-mutation","trial_index":77,"time_elapsed":998544,"internal_node_id":"0.0-5.0-23.0"},{"group":"hexagon_bi","fractal_assignment":["../images/blu_wht.png","../images/cyn_red.png","../images/pnk_blu.png","../images/gry_blk.png","../images/org_blu.png","../images/ylw_slt.png"],"mutagen_generator_assignment":[0,1],"goal":3,"start":0,"action_noise":0.15,"location_history":"[0,5,4,5,4,3]","action_history":"[0,1,0,1,0]","mutagen_history":"[0,1,0,1,0]","location_rts":"[858,186,155,297,149]","trial_type":"fractal-mutation","trial_index":78,"time_elapsed":1008833,"internal_node_id":"0.0-5.0-24.0"},{"group":"hexagon_bi","fractal_assignment":["../images/blu_wht.png","../images/cyn_red.png","../images/pnk_blu.png","../images/gry_blk.png","../images/org_blu.png","../images/ylw_slt.png"],"mutagen_generator_assignment":[0,1],"goal":1,"start":3,"action_noise":0.15,"location_history":"[3,4,5,0,1]","action_history":"[0,1,0,1]","mutagen_history":"[0,1,0,1]","location_rts":"[418,195,131,154]","trial_type":"fractal-mutation","trial_index":79,"time_elapsed":1017355,"internal_node_id":"0.0-5.0-25.0"},{"group":"hexagon_bi","fractal_assignment":["../images/blu_wht.png","../images/cyn_red.png","../images/pnk_blu.png","../images/gry_blk.png","../images/org_blu.png","../images/ylw_slt.png"],"mutagen_generator_assignment":[0,1],"goal":2,"start":1,"action_noise":0.15,"location_history":"[1,2]","action_history":"[0]","mutagen_history":"[0]","location_rts":"[1848]","trial_type":"fractal-mutation","trial_index":80,"time_elapsed":1023729,"internal_node_id":"0.0-5.0-26.0"},{"group":"hexagon_bi","fractal_assignment":["../images/blu_wht.png","../images/cyn_red.png","../images/pnk_blu.png","../images/gry_blk.png","../images/org_blu.png","../images/ylw_slt.png"],"mutagen_generator_assignment":[0,1],"goal":5,"start":2,"action_noise":0.15,"location_history":"[2,1,2,3,4,3,4,3,2,3,2,3,4,3,4,5]","action_history":"[0,0,1,0,0,0,0,1,1,1,1,0,1,0,1]","mutagen_history":"[0,0,1,0,0,0,0,1,1,1,1,0,1,0,1]","location_rts":"[1132,640,875,228,794,618,545,315,659,571,594,138,696,427,386]","trial_type":"fractal-mutation","trial_index":81,"time_elapsed":1051288,"internal_node_id":"0.0-5.0-27.0"},{"group":"hexagon_bi","fractal_assignment":["../images/blu_wht.png","../images/cyn_red.png","../images/pnk_blu.png","../images/gry_blk.png","../images/org_blu.png","../images/ylw_slt.png"],"mutagen_generator_assignment":[0,1],"goal":4,"start":5,"action_noise":0.15,"location_history":"[5,0,5,4]","action_history":"[1,0,1]","mutagen_history":"[1,0,1]","location_rts":"[43,171,202]","trial_type":"fractal-mutation","trial_index":82,"time_elapsed":1058309,"internal_node_id":"0.0-5.0-28.0"},{"group":"hexagon_bi","fractal_assignment":["../images/blu_wht.png","../images/cyn_red.png","../images/pnk_blu.png","../images/gry_blk.png","../images/org_blu.png","../images/ylw_slt.png"],"mutagen_generator_assignment":[0,1],"goal":5,"start":4,"action_noise":0.15,"location_history":"[4,5]","action_history":"[1]","mutagen_history":"[1]","location_rts":"[519]","trial_type":"fractal-mutation","trial_index":83,"time_elapsed":1063372,"internal_node_id":"0.0-5.0-29.0"},{"group":"hexagon_bi","fractal_assignment":["../images/blu_wht.png","../images/cyn_red.png","../images/pnk_blu.png","../images/gry_blk.png","../images/org_blu.png","../images/ylw_slt.png"],"mutagen_generator_assignment":[0,1],"goal":3,"start":5,"action_noise":0.15,"location_history":"[5,0,1,2,3]","action_history":"[0,1,0,1]","mutagen_history":"[0,1,0,1]","location_rts":"[335,193,157,192]","trial_type":"fractal-mutation","trial_index":84,"time_elapsed":1071898,"internal_node_id":"0.0-5.0-30.0"},{"group":"hexagon_bi","fractal_assignment":["../images/blu_wht.png","../images/cyn_red.png","../images/pnk_blu.png","../images/gry_blk.png","../images/org_blu.png","../images/ylw_slt.png"],"mutagen_generator_assignment":[0,1],"goal":0,"start":3,"action_noise":0.15,"location_history":"[3,4,3,2,1,0]","action_history":"[1,0,1,0,1]","mutagen_history":"[1,0,1,0,1]","location_rts":"[602,31,217,153,177]","trial_type":"fractal-mutation","trial_index":85,"time_elapsed":1081751,"internal_node_id":"0.0-5.0-31.0"},{"group":"hexagon_bi","fractal_assignment":["../images/blu_wht.png","../images/cyn_red.png","../images/pnk_blu.png","../images/gry_blk.png","../images/org_blu.png","../images/ylw_slt.png"],"mutagen_generator_assignment":[0,1],"goal":4,"start":0,"action_noise":0.15,"location_history":"[0,1,0,5,4]","action_history":"[0,1,0,1]","mutagen_history":"[0,1,0,1]","location_rts":"[356,122,104,155]","trial_type":"fractal-mutation","trial_index":86,"time_elapsed":1090114,"internal_node_id":"0.0-5.0-32.0"},{"group":"hexagon_bi","fractal_assignment":["../images/blu_wht.png","../images/cyn_red.png","../images/pnk_blu.png","../images/gry_blk.png","../images/org_blu.png","../images/ylw_slt.png"],"mutagen_generator_assignment":[0,1],"goal":1,"start":4,"action_noise":0.15,"location_history":"[4,5,0,1]","action_history":"[1,0,1]","mutagen_history":"[1,0,1]","location_rts":"[321,16,170]","trial_type":"fractal-mutation","trial_index":87,"time_elapsed":1097222,"internal_node_id":"0.0-5.0-33.0"},{"group":"hexagon_bi","fractal_assignment":["../images/blu_wht.png","../images/cyn_red.png","../images/pnk_blu.png","../images/gry_blk.png","../images/org_blu.png","../images/ylw_slt.png"],"mutagen_generator_assignment":[0,1],"goal":2,"start":1,"action_noise":0.15,"location_history":"[1,0,5,4,3,2]","action_history":"[1,0,1,0,1]","mutagen_history":"[1,0,1,0,1]","location_rts":"[965,152,130,120,223]","trial_type":"fractal-mutation","trial_index":88,"time_elapsed":1107480,"internal_node_id":"0.0-5.0-34.0"},{"group":"hexagon_bi","fractal_assignment":["../images/blu_wht.png","../images/cyn_red.png","../images/pnk_blu.png","../images/gry_blk.png","../images/org_blu.png","../images/ylw_slt.png"],"mutagen_generator_assignment":[0,1],"goal":0,"start":2,"action_noise":0.15,"location_history":"[2,1,0]","action_history":"[0,1]","mutagen_history":"[0,1]","location_rts":"[1074,154]","trial_type":"fractal-mutation","trial_index":89,"time_elapsed":1114269,"internal_node_id":"0.0-5.0-35.0"},{"group":"hexagon_bi","fractal_assignment":["../images/blu_wht.png","../images/cyn_red.png","../images/pnk_blu.png","../images/gry_blk.png","../images/org_blu.png","../images/ylw_slt.png"],"mutagen_generator_assignment":[0,1],"goal":5,"start":0,"action_noise":0.15,"location_history":"[0,5]","action_history":"[0]","mutagen_history":"[0]","location_rts":"[542]","trial_type":"fractal-mutation","trial_index":90,"time_elapsed":1119336,"internal_node_id":"0.0-5.0-36.0"},{"group":"hexagon_bi","fractal_assignment":["../images/blu_wht.png","../images/cyn_red.png","../images/pnk_blu.png","../images/gry_blk.png","../images/org_blu.png","../images/ylw_slt.png"],"mutagen_generator_assignment":[0,1],"goal":2,"start":5,"action_noise":0.15,"location_history":"[5,4,3,2]","action_history":"[1,0,1]","mutagen_history":"[1,0,1]","location_rts":"[826,182,201]","trial_type":"fractal-mutation","trial_index":91,"time_elapsed":1127146,"internal_node_id":"0.0-5.0-37.0"},{"group":"hexagon_bi","fractal_assignment":["../images/blu_wht.png","../images/cyn_red.png","../images/pnk_blu.png","../images/gry_blk.png","../images/org_blu.png","../images/ylw_slt.png"],"mutagen_generator_assignment":[0,1],"goal":1,"start":2,"action_noise":0.15,"location_history":"[2,1]","action_history":"[0]","mutagen_history":"[0]","location_rts":"[417]","trial_type":"fractal-mutation","trial_index":92,"time_elapsed":1132088,"internal_node_id":"0.0-5.0-38.0"},{"group":"hexagon_bi","fractal_assignment":["../images/blu_wht.png","../images/cyn_red.png","../images/pnk_blu.png","../images/gry_blk.png","../images/org_blu.png","../images/ylw_slt.png"],"mutagen_generator_assignment":[0,1],"goal":4,"start":1,"action_noise":0.15,"location_history":"[1,0,5,4]","action_history":"[1,0,1]","mutagen_history":"[1,0,1]","location_rts":"[563,130,177]","trial_type":"fractal-mutation","trial_index":93,"time_elapsed":1139565,"internal_node_id":"0.0-5.0-39.0"},{"group":"hexagon_bi","fractal_assignment":["../images/blu_wht.png","../images/cyn_red.png","../images/pnk_blu.png","../images/gry_blk.png","../images/org_blu.png","../images/ylw_slt.png"],"mutagen_generator_assignment":[0,1],"goal":3,"start":4,"action_noise":0.15,"location_history":"[4,5,0,1,2,3]","action_history":"[1,0,1,0,1]","mutagen_history":"[1,0,1,0,1]","location_rts":"[654,94,178,117,178]","trial_type":"fractal-mutation","trial_index":94,"time_elapsed":1149452,"internal_node_id":"0.0-5.0-40.0"},{"group":"hexagon_bi","fractal_assignment":["../images/blu_wht.png","../images/cyn_red.png","../images/pnk_blu.png","../images/gry_blk.png","../images/org_blu.png","../images/ylw_slt.png"],"mutagen_generator_assignment":[0,1],"goal":5,"start":3,"action_noise":0.15,"location_history":"[3,4,3,2,3,2,1,0,1,0,5]","action_history":"[1,0,1,0,1,0,1,0,1,0]","mutagen_history":"[1,0,1,0,1,0,1,0,1,0]","location_rts":"[335,125,177,92,169,118,179,138,194,116]","trial_type":"fractal-mutation","trial_index":95,"time_elapsed":1164888,"internal_node_id":"0.0-5.0-41.0"},{"group":"hexagon_bi","fractal_assignment":["../images/blu_wht.png","../images/cyn_red.png","../images/pnk_blu.png","../images/gry_blk.png","../images/org_blu.png","../images/ylw_slt.png"],"mutagen_generator_assignment":[0,1],"goal":3,"start":5,"action_noise":0.15,"location_history":"[5,4,5,4,3]","action_history":"[1,0,1,0]","mutagen_history":"[1,0,1,0]","location_rts":"[795,62,81,139]","trial_type":"fractal-mutation","trial_index":96,"time_elapsed":1173584,"internal_node_id":"0.0-5.0-42.0"},{"group":"hexagon_bi","fractal_assignment":["../images/blu_wht.png","../images/cyn_red.png","../images/pnk_blu.png","../images/gry_blk.png","../images/org_blu.png","../images/ylw_slt.png"],"mutagen_generator_assignment":[0,1],"goal":0,"start":3,"action_noise":0.15,"location_history":"[3,2,1,2,3,2,1,2,3,4,5,0]","action_history":"[1,0,0,1,0,1,0,1,0,1,0]","mutagen_history":"[1,0,0,1,0,1,0,1,0,1,0]","location_rts":"[540,63,154,123,132,266,115,142,103,115,176]","trial_type":"fractal-mutation","trial_index":97,"time_elapsed":1190336,"internal_node_id":"0.0-5.0-43.0"},{"group":"hexagon_bi","fractal_assignment":["../images/blu_wht.png","../images/cyn_red.png","../images/pnk_blu.png","../images/gry_blk.png","../images/org_blu.png","../images/ylw_slt.png"],"mutagen_generator_assignment":[0,1],"goal":2,"start":0,"action_noise":0.15,"location_history":"[0,1,2]","action_history":"[1,0]","mutagen_history":"[1,0]","location_rts":"[330,101]","trial_type":"fractal-mutation","trial_index":98,"time_elapsed":1196329,"internal_node_id":"0.0-5.0-44.0"},{"group":"hexagon_bi","fractal_assignment":["../images/blu_wht.png","../images/cyn_red.png","../images/pnk_blu.png","../images/gry_blk.png","../images/org_blu.png","../images/ylw_slt.png"],"mutagen_generator_assignment":[0,1],"goal":4,"start":2,"action_noise":0.15,"location_history":"[2,1,2,3,4]","action_history":"[1,0,1,0]","mutagen_history":"[1,0,1,0]","location_rts":"[339,106,241,105]","trial_type":"fractal-mutation","trial_index":99,"time_elapsed":1204728,"internal_node_id":"0.0-5.0-45.0"},{"group":"hexagon_bi","fractal_assignment":["../images/blu_wht.png","../images/cyn_red.png","../images/pnk_blu.png","../images/gry_blk.png","../images/org_blu.png","../images/ylw_slt.png"],"mutagen_generator_assignment":[0,1],"goal":1,"start":4,"action_noise":0.15,"location_history":"[4,5,4,3,4,3,2,1]","action_history":"[0,1,0,1,0,1,0]","mutagen_history":"[0,1,0,1,0,1,0]","location_rts":"[450,187,182,251,164,131,158]","trial_type":"fractal-mutation","trial_index":100,"time_elapsed":1216944,"internal_node_id":"0.0-5.0-46.0"},{"group":"hexagon_bi","fractal_assignment":["../images/blu_wht.png","../images/cyn_red.png","../images/pnk_blu.png","../images/gry_blk.png","../images/org_blu.png","../images/ylw_slt.png"],"mutagen_generator_assignment":[0,1],"goal":4,"start":1,"action_noise":0.15,"location_history":"[1,0,5,4]","action_history":"[1,0,1]","mutagen_history":"[1,0,1]","location_rts":"[587,158,377]","trial_type":"fractal-mutation","trial_index":101,"time_elapsed":1224662,"internal_node_id":"0.0-5.0-47.0"},{"group":"hexagon_bi","fractal_assignment":["../images/blu_wht.png","../images/cyn_red.png","../images/pnk_blu.png","../images/gry_blk.png","../images/org_blu.png","../images/ylw_slt.png"],"mutagen_generator_assignment":[0,1],"goal":3,"start":4,"action_noise":0.15,"location_history":"[4,5,0,1,2,3]","action_history":"[1,0,1,0,1]","mutagen_history":"[1,0,1,0,1]","location_rts":"[492,52,131,70,84]","trial_type":"fractal-mutation","trial_index":102,"time_elapsed":1234158,"internal_node_id":"0.0-5.0-48.0"},{"group":"hexagon_bi","fractal_assignment":["../images/blu_wht.png","../images/cyn_red.png","../images/pnk_blu.png","../images/gry_blk.png","../images/org_blu.png","../images/ylw_slt.png"],"mutagen_generator_assignment":[0,1],"goal":5,"start":3,"action_noise":0.15,"location_history":"[3,2,1,0,5]","action_history":"[1,0,1,0]","mutagen_history":"[1,0,1,0]","location_rts":"[589,96,90,117]","trial_type":"fractal-mutation","trial_index":103,"time_elapsed":1242673,"internal_node_id":"0.0-5.0-49.0"},{"view_history":"[{\"page_index\":0,\"viewing_time\":4186}]","rt":4186,"trial_type":"instructions","trial_index":104,"time_elapsed":1247860,"internal_node_id":"0.0-6.0"},{"rt":10732,"responses":"{\"Q0\":\"Tank you for having me today!\"}","trial_type":"survey-text","trial_index":105,"time_elapsed":1259598,"internal_node_id":"0.0-7.0"}]