[{"view_history":"[{\"page_index\":0,\"viewing_time\":58090},{\"page_index\":1,\"viewing_time\":7326},{\"page_index\":2,\"viewing_time\":1748904},{\"page_index\":3,\"viewing_time\":4570}]","rt":1818890,"trial_type":"instructions","trial_index":0,"time_elapsed":1818890,"internal_node_id":"0.0-0.0"},{"view_history":"[{\"page_index\":0,\"viewing_time\":1390},{\"page_index\":1,\"viewing_time\":470204}]","rt":471596,"trial_type":"instructions","trial_index":1,"time_elapsed":2291492,"internal_node_id":"0.0-1.0"},{"group":"hexagon_tri","room_assignment":["grey","red","green","purple","blue","yellow"],"door_color_assignment":["white","black"],"door_generator_assignment":[1,0],"goal":4,"start":0,"action_noise":0.15,"location_history":"[0,5,0,1,5,4]","action_history":"[0,1,1,1,0]","door_history":"[1,0,0,0,1]","location_rts":"[4708,2198,3210,1824,1838]","trial_type":"two-door-navigation","trial_index":2,"time_elapsed":2313994,"internal_node_id":"0.0-2.0-0.0"},{"group":"hexagon_tri","room_assignment":["grey","red","green","purple","blue","yellow"],"door_color_assignment":["white","black"],"door_generator_assignment":[1,0],"goal":3,"start":4,"action_noise":0.15,"location_history":"[4,0,5,0,5,4,2,3]","action_history":"[0,0,1,0,0,1,1]","door_history":"[1,1,0,1,1,0,0]","location_rts":"[1872,2916,892,1042,690,2318,1764]","trial_type":"two-door-navigation","trial_index":3,"time_elapsed":2336284,"internal_node_id":"0.0-2.0-1.0"},{"group":"hexagon_tri","room_assignment":["grey","red","green","purple","blue","yellow"],"door_color_assignment":["white","black"],"door_generator_assignment":[1,0],"goal":5,"start":3,"action_noise":0.15,"location_history":"[3,2,1,3,4,2,3,4,2,1,5]","action_history":"[0,0,0,1,1,1,1,1,0,1]","door_history":"[1,1,1,0,0,0,0,0,1,0]","location_rts":"[3786,1068,764,716,448,472,388,402,840,1154]","trial_type":"two-door-navigation","trial_index":4,"time_elapsed":2360220,"internal_node_id":"0.0-2.0-2.0"},{"group":"hexagon_tri","room_assignment":["grey","red","green","purple","blue","yellow"],"door_color_assignment":["white","black"],"door_generator_assignment":[1,0],"goal":2,"start":5,"action_noise":0.15,"location_history":"[5,0,1,5,4,2]","action_history":"[0,1,1,0,1]","door_history":"[1,0,0,1,0]","location_rts":"[10870,690,504,750,1286]","trial_type":"two-door-navigation","trial_index":5,"time_elapsed":2383022,"internal_node_id":"0.0-2.0-3.0"},{"group":"hexagon_tri","room_assignment":["grey","red","green","purple","blue","yellow"],"door_color_assignment":["white","black"],"door_generator_assignment":[1,0],"goal":1,"start":2,"action_noise":0.15,"location_history":"[2,3,4,0,5,4,0,5,0,5,4,0,1]","action_history":"[1,1,0,1,1,1,0,1,0,0,1,1]","door_history":"[0,0,1,0,0,0,1,0,1,1,0,0]","location_rts":"[1918,1526,716,1114,612,486,606,1044,460,284,960,668]","trial_type":"two-door-navigation","trial_index":6,"time_elapsed":2409386,"internal_node_id":"0.0-2.0-4.0"},{"group":"hexagon_tri","room_assignment":["grey","red","green","purple","blue","yellow"],"door_color_assignment":["white","black"],"door_generator_assignment":[1,0],"goal":4,"start":1,"action_noise":0.15,"location_history":"[1,3,4]","action_history":"[0,1]","door_history":"[1,0]","location_rts":"[1622,1222]","trial_type":"two-door-navigation","trial_index":7,"time_elapsed":2417824,"internal_node_id":"0.0-2.0-5.0"},{"group":"hexagon_tri","room_assignment":["grey","red","green","purple","blue","yellow"],"door_color_assignment":["white","black"],"door_generator_assignment":[1,0],"goal":1,"start":4,"action_noise":0.15,"location_history":"[4,2,3,2,3,2,1]","action_history":"[1,0,0,1,0,0]","door_history":"[0,1,1,0,1,1]","location_rts":"[1624,840,646,1326,360,290]","trial_type":"two-door-navigation","trial_index":8,"time_elapsed":2432670,"internal_node_id":"0.0-2.0-6.0"},{"group":"hexagon_tri","room_assignment":["grey","red","green","purple","blue","yellow"],"door_color_assignment":["white","black"],"door_generator_assignment":[1,0],"goal":5,"start":1,"action_noise":0.15,"location_history":"[1,5]","action_history":"[1]","door_history":"[0]","location_rts":"[3318]","trial_type":"two-door-navigation","trial_index":9,"time_elapsed":2440532,"internal_node_id":"0.0-2.0-7.0"},{"group":"hexagon_tri","room_assignment":["grey","red","green","purple","blue","yellow"],"door_color_assignment":["white","black"],"door_generator_assignment":[1,0],"goal":0,"start":5,"action_noise":0.15,"location_history":"[5,4,0]","action_history":"[0,1]","door_history":"[1,0]","location_rts":"[6938,1112]","trial_type":"two-door-navigation","trial_index":10,"time_elapsed":2454178,"internal_node_id":"0.0-2.0-8.0"},{"group":"hexagon_tri","room_assignment":["grey","red","green","purple","blue","yellow"],"door_color_assignment":["white","black"],"door_generator_assignment":[1,0],"goal":2,"start":0,"action_noise":0.15,"location_history":"[0,5,4,0,5,4,0,1,5,0,1,3,2]","action_history":"[0,0,1,0,0,0,1,1,1,1,0,0]","door_history":"[1,1,0,1,1,1,0,0,0,0,1,1]","location_rts":"[400624,1140,846,512,450,312,1432,372,460,502,416,1334]","trial_type":"two-door-navigation","trial_index":11,"time_elapsed":2878530,"internal_node_id":"0.0-2.0-9.0"},{"group":"hexagon_tri","room_assignment":["grey","red","green","purple","blue","yellow"],"door_color_assignment":["white","black"],"door_generator_assignment":[1,0],"goal":3,"start":2,"action_noise":0.15,"location_history":"[2,1,5,0,5,0,5,4,2,3]","action_history":"[1,1,1,0,1,0,0,1,1]","door_history":"[0,0,0,1,0,1,1,0,0]","location_rts":"[1346,394,382,998,206,310,202,300,340]","trial_type":"two-door-navigation","trial_index":12,"time_elapsed":2895846,"internal_node_id":"0.0-2.0-10.0"},{"group":"hexagon_tri","room_assignment":["grey","red","green","purple","blue","yellow"],"door_color_assignment":["white","black"],"door_generator_assignment":[1,0],"goal":0,"start":3,"action_noise":0.15,"location_history":"[3,4,2,1,3,2,3,4,2,3,4,0]","action_history":"[1,1,0,0,0,1,1,1,1,1,0]","door_history":"[0,0,1,1,1,0,0,0,0,0,1]","location_rts":"[1536,402,314,1538,544,408,772,354,512,736,198]","trial_type":"two-door-navigation","trial_index":13,"time_elapsed":2918028,"internal_node_id":"0.0-2.0-11.0"},{"group":"hexagon_tri","room_assignment":["grey","red","green","purple","blue","yellow"],"door_color_assignment":["white","black"],"door_generator_assignment":[1,0],"goal":2,"start":0,"action_noise":0.15,"location_history":"[0,5,0,1,5,0,1,3,2]","action_history":"[0,1,1,1,1,1,0,0]","door_history":"[1,0,0,0,0,0,1,1]","location_rts":"[1166,58,206,282,478,1094,542,402]","trial_type":"two-door-navigation","trial_index":14,"time_elapsed":2934050,"internal_node_id":"0.0-2.0-12.0"},{"group":"hexagon_tri","room_assignment":["grey","red","green","purple","blue","yellow"],"door_color_assignment":["white","black"],"door_generator_assignment":[1,0],"goal":5,"start":2,"action_noise":0.15,"location_history":"[2,3,4,2,1,5]","action_history":"[1,1,1,0,1]","door_history":"[0,0,0,1,0]","location_rts":"[1190,352,892,874,324]","trial_type":"two-door-navigation","trial_index":15,"time_elapsed":2946362,"internal_node_id":"0.0-2.0-13.0"},{"group":"hexagon_tri","room_assignment":["grey","red","green","purple","blue","yellow"],"door_color_assignment":["white","black"],"door_generator_assignment":[1,0],"goal":4,"start":5,"action_noise":0.15,"location_history":"[5,0,1,3,4]","action_history":"[1,1,0,1]","door_history":"[0,0,1,0]","location_rts":"[1164,370,390,522]","trial_type":"two-door-navigation","trial_index":16,"time_elapsed":2956468,"internal_node_id":"0.0-2.0-14.0"},{"group":"hexagon_tri","room_assignment":["grey","red","green","purple","blue","yellow"],"door_color_assignment":["white","black"],"door_generator_assignment":[1,0],"goal":3,"start":4,"action_noise":0.15,"location_history":"[4,2,1,5,4,2,3]","action_history":"[1,0,1,1,1,1]","door_history":"[0,1,0,0,0,0]","location_rts":"[1362,970,454,332,366,428]","trial_type":"two-door-navigation","trial_index":17,"time_elapsed":2970102,"internal_node_id":"0.0-2.0-15.0"},{"group":"hexagon_tri","room_assignment":["grey","red","green","purple","blue","yellow"],"door_color_assignment":["white","black"],"door_generator_assignment":[1,0],"goal":1,"start":3,"action_noise":0.15,"location_history":"[3,4,0,1]","action_history":"[1,0,1]","door_history":"[0,1,0]","location_rts":"[882,316,322]","trial_type":"two-door-navigation","trial_index":18,"time_elapsed":2978236,"internal_node_id":"0.0-2.0-16.0"},{"group":"hexagon_tri","room_assignment":["grey","red","green","purple","blue","yellow"],"door_color_assignment":["white","black"],"door_generator_assignment":[1,0],"goal":5,"start":1,"action_noise":0.15,"location_history":"[1,5]","action_history":"[1]","door_history":"[0]","location_rts":"[968]","trial_type":"two-door-navigation","trial_index":19,"time_elapsed":2983738,"internal_node_id":"0.0-2.0-17.0"},{"group":"hexagon_tri","room_assignment":["grey","red","green","purple","blue","yellow"],"door_color_assignment":["white","black"],"door_generator_assignment":[1,0],"goal":4,"start":5,"action_noise":0.15,"location_history":"[5,0,5,4]","action_history":"[1,0,0]","door_history":"[0,1,1]","location_rts":"[1348,2204,510]","trial_type":"two-door-navigation","trial_index":20,"time_elapsed":2994410,"internal_node_id":"0.0-2.0-18.0"},{"group":"hexagon_tri","room_assignment":["grey","red","green","purple","blue","yellow"],"door_color_assignment":["white","black"],"door_generator_assignment":[1,0],"goal":0,"start":4,"action_noise":0.15,"location_history":"[4,2,3,2,1,3,2,1,5,0]","action_history":"[0,1,0,0,0,0,1,1,1]","door_history":"[1,0,1,1,1,1,0,0,0]","location_rts":"[16490,568,352,946,668,366,618,8764,334]","trial_type":"two-door-navigation","trial_index":21,"time_elapsed":3036302,"internal_node_id":"0.0-2.0-19.0"},{"group":"hexagon_tri","room_assignment":["grey","red","green","purple","blue","yellow"],"door_color_assignment":["white","black"],"door_generator_assignment":[1,0],"goal":1,"start":0,"action_noise":0.15,"location_history":"[0,1]","action_history":"[1]","door_history":"[0]","location_rts":"[1584]","trial_type":"two-door-navigation","trial_index":22,"time_elapsed":3042416,"internal_node_id":"0.0-2.0-20.0"},{"group":"hexagon_tri","room_assignment":["grey","red","green","purple","blue","yellow"],"door_color_assignment":["white","black"],"door_generator_assignment":[1,0],"goal":3,"start":1,"action_noise":0.15,"location_history":"[1,5,4,2,1,5,4,2,3]","action_history":"[0,0,1,1,1,1,1,1]","door_history":"[1,1,0,0,0,0,0,0]","location_rts":"[906,348,466,306,314,336,330,338]","trial_type":"two-door-navigation","trial_index":23,"time_elapsed":3057566,"internal_node_id":"0.0-2.0-21.0"},{"group":"hexagon_tri","room_assignment":["grey","red","green","purple","blue","yellow"],"door_color_assignment":["white","black"],"door_generator_assignment":[1,0],"goal":2,"start":3,"action_noise":0.15,"location_history":"[3,4,2]","action_history":"[1,1]","door_history":"[0,0]","location_rts":"[1134,342]","trial_type":"two-door-navigation","trial_index":24,"time_elapsed":3064624,"internal_node_id":"0.0-2.0-22.0"},{"group":"hexagon_tri","room_assignment":["grey","red","green","purple","blue","yellow"],"door_color_assignment":["white","black"],"door_generator_assignment":[1,0],"goal":0,"start":2,"action_noise":0.15,"location_history":"[2,1,3,4,2,1,3,4,0]","action_history":"[0,0,0,0,0,1,1,0]","door_history":"[1,1,1,1,1,0,0,1]","location_rts":"[1686,378,590,592,536,544,710,256]","trial_type":"two-door-navigation","trial_index":25,"time_elapsed":3081702,"internal_node_id":"0.0-2.0-23.0"},{"group":"hexagon_tri","room_assignment":["grey","red","green","purple","blue","yellow"],"door_color_assignment":["white","black"],"door_generator_assignment":[1,0],"goal":3,"start":0,"action_noise":0.15,"location_history":"[0,1,5,0,1,3]","action_history":"[1,1,1,1,0]","door_history":"[0,0,0,0,1]","location_rts":"[850,810,330,592,286]","trial_type":"two-door-navigation","trial_index":26,"time_elapsed":3093258,"internal_node_id":"0.0-2.0-24.0"},{"group":"hexagon_tri","room_assignment":["grey","red","green","purple","blue","yellow"],"door_color_assignment":["white","black"],"door_generator_assignment":[1,0],"goal":1,"start":3,"action_noise":0.15,"location_history":"[3,2,3,2,3,4,2,3,4,2,3,4,0,1]","action_history":"[1,1,0,1,1,1,1,0,1,1,1,0,1]","door_history":"[0,0,1,0,0,0,0,1,0,0,0,1,0]","location_rts":"[1278,374,1236,332,484,360,354,1002,766,392,380,404,580]","trial_type":"two-door-navigation","trial_index":27,"time_elapsed":3118156,"internal_node_id":"0.0-2.0-25.0"},{"group":"hexagon_tri","room_assignment":["grey","red","green","purple","blue","yellow"],"door_color_assignment":["white","black"],"door_generator_assignment":[1,0],"goal":2,"start":1,"action_noise":0.15,"location_history":"[1,3,4,2]","action_history":"[1,1,1]","door_history":"[0,0,0]","location_rts":"[1386,346,968]","trial_type":"two-door-navigation","trial_index":28,"time_elapsed":3127456,"internal_node_id":"0.0-2.0-26.0"},{"group":"hexagon_tri","room_assignment":["grey","red","green","purple","blue","yellow"],"door_color_assignment":["white","black"],"door_generator_assignment":[1,0],"goal":5,"start":2,"action_noise":0.15,"location_history":"[2,3,4,0,1,3,2,1,5]","action_history":"[1,1,1,1,0,0,0,1]","door_history":"[0,0,0,0,1,1,1,0]","location_rts":"[1154,400,424,346,670,308,858,374]","trial_type":"two-door-navigation","trial_index":29,"time_elapsed":3143782,"internal_node_id":"0.0-2.0-27.0"},{"group":"hexagon_tri","room_assignment":["grey","red","green","purple","blue","yellow"],"door_color_assignment":["white","black"],"door_generator_assignment":[1,0],"goal":4,"start":5,"action_noise":0.15,"location_history":"[5,0,1,5,4]","action_history":"[1,1,1,1]","door_history":"[0,0,0,0]","location_rts":"[866,336,340,674]","trial_type":"two-door-navigation","trial_index":30,"time_elapsed":3153658,"internal_node_id":"0.0-2.0-28.0"},{"group":"hexagon_tri","room_assignment":["grey","red","green","purple","blue","yellow"],"door_color_assignment":["white","black"],"door_generator_assignment":[1,0],"goal":5,"start":4,"action_noise":0.15,"location_history":"[4,0,5]","action_history":"[0,0]","door_history":"[1,1]","location_rts":"[1242,338]","trial_type":"two-door-navigation","trial_index":31,"time_elapsed":3160810,"internal_node_id":"0.0-2.0-29.0"},{"group":"hexagon_tri","room_assignment":["grey","red","green","purple","blue","yellow"],"door_color_assignment":["white","black"],"door_generator_assignment":[1,0],"goal":3,"start":5,"action_noise":0.15,"location_history":"[5,0,1,3]","action_history":"[1,1,0]","door_history":"[0,0,1]","location_rts":"[3140,390,426]","trial_type":"two-door-navigation","trial_index":32,"time_elapsed":3171372,"internal_node_id":"0.0-2.0-30.0"},{"group":"hexagon_tri","room_assignment":["grey","red","green","purple","blue","yellow"],"door_color_assignment":["white","black"],"door_generator_assignment":[1,0],"goal":0,"start":3,"action_noise":0.15,"location_history":"[3,4,0]","action_history":"[1,0]","door_history":"[0,1]","location_rts":"[638,358]","trial_type":"two-door-navigation","trial_index":33,"time_elapsed":3177946,"internal_node_id":"0.0-2.0-31.0"},{"group":"hexagon_tri","room_assignment":["grey","red","green","purple","blue","yellow"],"door_color_assignment":["white","black"],"door_generator_assignment":[1,0],"goal":4,"start":0,"action_noise":0.15,"location_history":"[0,5,4]","action_history":"[0,0]","door_history":"[1,1]","location_rts":"[780,514]","trial_type":"two-door-navigation","trial_index":34,"time_elapsed":3184836,"internal_node_id":"0.0-2.0-32.0"},{"group":"hexagon_tri","room_assignment":["grey","red","green","purple","blue","yellow"],"door_color_assignment":["white","black"],"door_generator_assignment":[1,0],"goal":1,"start":4,"action_noise":0.15,"location_history":"[4,2,3,4,0,5,0,1]","action_history":"[1,1,1,0,0,1,1]","door_history":"[0,0,0,1,1,0,0]","location_rts":"[2236,288,328,454,326,1170,562]","trial_type":"two-door-navigation","trial_index":35,"time_elapsed":3200946,"internal_node_id":"0.0-2.0-33.0"},{"group":"hexagon_tri","room_assignment":["grey","red","green","purple","blue","yellow"],"door_color_assignment":["white","black"],"door_generator_assignment":[1,0],"goal":2,"start":1,"action_noise":0.15,"location_history":"[1,5,4,0,5,4,0,1,5,0,5,0,5,4,0,1,3,4,2]","action_history":"[1,0,0,0,0,0,1,1,1,1,0,0,0,0,1,0,1,0]","door_history":"[0,1,1,1,1,1,0,0,0,0,1,1,1,1,0,1,0,1]","location_rts":"[804,670,480,1096,3274,396,272,466,424,1262,314,466,326,392,514,534,556,334]","trial_type":"two-door-navigation","trial_index":36,"time_elapsed":3235634,"internal_node_id":"0.0-2.0-34.0"},{"group":"hexagon_tri","room_assignment":["grey","red","green","purple","blue","yellow"],"door_color_assignment":["white","black"],"door_generator_assignment":[1,0],"goal":0,"start":2,"action_noise":0.15,"location_history":"[2,1,3,4,2,3,4,2,3,2,1,3,2,3,4,2,3,2,3,2,1,5,0]","action_history":"[0,0,1,1,1,1,1,1,0,0,0,0,1,1,1,1,0,1,0,0,1,1]","door_history":"[1,1,0,0,0,0,0,0,1,1,1,1,0,0,0,0,1,0,1,1,0,0]","location_rts":"[2546,708,386,436,430,934,604,828,1106,788,902,604,276,350,466,576,652,660,310,316,284,454]","trial_type":"two-door-navigation","trial_index":37,"time_elapsed":3276488,"internal_node_id":"0.0-2.0-35.0"},{"group":"hexagon_tri","room_assignment":["grey","red","green","purple","blue","yellow"],"door_color_assignment":["white","black"],"door_generator_assignment":[1,0],"goal":5,"start":0,"action_noise":0.15,"location_history":"[0,1,5]","action_history":"[1,1]","door_history":"[0,0]","location_rts":"[1296,370]","trial_type":"two-door-navigation","trial_index":38,"time_elapsed":3283718,"internal_node_id":"0.0-2.0-36.0"},{"group":"hexagon_tri","room_assignment":["grey","red","green","purple","blue","yellow"],"door_color_assignment":["white","black"],"door_generator_assignment":[1,0],"goal":2,"start":5,"action_noise":0.15,"location_history":"[5,0,5,0,5,4,0,5,0,1,5,0,1,3,4,2]","action_history":"[0,1,1,1,1,0,1,1,1,1,1,1,0,1,1]","door_history":"[1,0,0,0,0,1,0,0,0,0,0,0,1,0,0]","location_rts":"[876,318,434,424,356,258,312,300,436,276,498,394,258,330,412]","trial_type":"two-door-navigation","trial_index":39,"time_elapsed":3308604,"internal_node_id":"0.0-2.0-37.0"},{"group":"hexagon_tri","room_assignment":["grey","red","green","purple","blue","yellow"],"door_color_assignment":["white","black"],"door_generator_assignment":[1,0],"goal":1,"start":2,"action_noise":0.15,"location_history":"[2,3,4,2,1]","action_history":"[1,1,1,0]","door_history":"[0,0,0,1]","location_rts":"[1656,406,856,1050]","trial_type":"two-door-navigation","trial_index":40,"time_elapsed":3320208,"internal_node_id":"0.0-2.0-38.0"},{"group":"hexagon_tri","room_assignment":["grey","red","green","purple","blue","yellow"],"door_color_assignment":["white","black"],"door_generator_assignment":[1,0],"goal":4,"start":1,"action_noise":0.15,"location_history":"[1,5,0,1,3,4]","action_history":"[1,1,1,0,1]","door_history":"[0,0,0,1,0]","location_rts":"[580,356,332,414,358]","trial_type":"two-door-navigation","trial_index":41,"time_elapsed":3330926,"internal_node_id":"0.0-2.0-39.0"},{"group":"hexagon_tri","room_assignment":["grey","red","green","purple","blue","yellow"],"door_color_assignment":["white","black"],"door_generator_assignment":[1,0],"goal":3,"start":4,"action_noise":0.15,"location_history":"[4,2,3]","action_history":"[1,1]","door_history":"[0,0]","location_rts":"[644,564]","trial_type":"two-door-navigation","trial_index":42,"time_elapsed":3337690,"internal_node_id":"0.0-2.0-40.0"},{"group":"hexagon_tri","room_assignment":["grey","red","green","purple","blue","yellow"],"door_color_assignment":["white","black"],"door_generator_assignment":[1,0],"goal":5,"start":3,"action_noise":0.15,"location_history":"[3,4,2,1,3,4,0,1,5]","action_history":"[1,0,1,0,1,0,1,1]","door_history":"[0,1,0,1,0,1,0,0]","location_rts":"[508,1010,284,292,408,546,874,526]","trial_type":"two-door-navigation","trial_index":43,"time_elapsed":3353904,"internal_node_id":"0.0-2.0-41.0"},{"group":"hexagon_tri","room_assignment":["grey","red","green","purple","blue","yellow"],"door_color_assignment":["white","black"],"door_generator_assignment":[1,0],"goal":3,"start":5,"action_noise":0.15,"location_history":"[5,0,5,4,0,1,5,4,2,1,3]","action_history":"[1,0,0,0,1,1,1,1,0,0]","door_history":"[0,1,1,1,0,0,0,0,1,1]","location_rts":"[930,340,290,354,1396,338,504,2286,920,336]","trial_type":"two-door-navigation","trial_index":44,"time_elapsed":3375452,"internal_node_id":"0.0-2.0-42.0"},{"group":"hexagon_tri","room_assignment":["grey","red","green","purple","blue","yellow"],"door_color_assignment":["white","black"],"door_generator_assignment":[1,0],"goal":0,"start":3,"action_noise":0.15,"location_history":"[3,2,1,5,4,2,1,3,4,0]","action_history":"[0,0,1,0,1,0,0,1,0]","door_history":"[1,1,0,1,0,1,1,0,1]","location_rts":"[84826,638,756,538,10882,1048,810,10420,1070]","trial_type":"two-door-navigation","trial_index":45,"time_elapsed":3499236,"internal_node_id":"0.0-2.0-43.0"},{"group":"hexagon_tri","room_assignment":["grey","red","green","purple","blue","yellow"],"door_color_assignment":["white","black"],"door_generator_assignment":[1,0],"goal":2,"start":0,"action_noise":0.15,"location_history":"[0,1,3,2]","action_history":"[1,0,0]","door_history":"[0,1,1]","location_rts":"[16782,424,324]","trial_type":"two-door-navigation","trial_index":46,"time_elapsed":3523358,"internal_node_id":"0.0-2.0-44.0"},{"group":"hexagon_tri","room_assignment":["grey","red","green","purple","blue","yellow"],"door_color_assignment":["white","black"],"door_generator_assignment":[1,0],"goal":4,"start":2,"action_noise":0.15,"location_history":"[2,3,4]","action_history":"[1,1]","door_history":"[0,0]","location_rts":"[412,290]","trial_type":"two-door-navigation","trial_index":47,"time_elapsed":3529632,"internal_node_id":"0.0-2.0-45.0"},{"group":"hexagon_tri","room_assignment":["grey","red","green","purple","blue","yellow"],"door_color_assignment":["white","black"],"door_generator_assignment":[1,0],"goal":1,"start":4,"action_noise":0.15,"location_history":"[4,2,1]","action_history":"[1,0]","door_history":"[0,1]","location_rts":"[1262,338]","trial_type":"two-door-navigation","trial_index":48,"time_elapsed":3536810,"internal_node_id":"0.0-2.0-46.0"},{"group":"hexagon_tri","room_assignment":["grey","red","green","purple","blue","yellow"],"door_color_assignment":["white","black"],"door_generator_assignment":[1,0],"goal":4,"start":1,"action_noise":0.15,"location_history":"[1,3,2,1,3,4]","action_history":"[1,0,0,0,1]","door_history":"[0,1,1,1,0]","location_rts":"[304,238,314,354,552]","trial_type":"two-door-navigation","trial_index":49,"time_elapsed":3547236,"internal_node_id":"0.0-2.0-47.0"},{"group":"hexagon_tri","room_assignment":["grey","red","green","purple","blue","yellow"],"door_color_assignment":["white","black"],"door_generator_assignment":[1,0],"goal":3,"start":4,"action_noise":0.15,"location_history":"[4,2,1,5,0,5,0,5,0,5,0,5,4,0,5,0,5,4,0,5,4,2,3]","action_history":"[1,0,0,1,0,1,0,1,0,1,0,0,0,0,1,0,0,0,0,0,1,1]","door_history":"[0,1,1,0,1,0,1,0,1,0,1,1,1,1,0,1,1,1,1,1,0,0]","location_rts":"[318,380,744,484,978,150,474,304,464,676,766,326,180,156,26,138,20,46,38,4,68,220]","trial_type":"two-door-navigation","trial_index":50,"time_elapsed":3580556,"internal_node_id":"0.0-2.0-48.0"},{"group":"hexagon_tri","room_assignment":["grey","red","green","purple","blue","yellow"],"door_color_assignment":["white","black"],"door_generator_assignment":[1,0],"goal":5,"start":3,"action_noise":0.15,"location_history":"[3,4,2,3,4,2,3,4,0,5]","action_history":"[1,1,1,1,1,0,0,0,0]","door_history":"[0,0,0,0,0,1,1,1,1]","location_rts":"[382,306,50,2,30,10,202,54,56]","trial_type":"two-door-navigation","trial_index":51,"time_elapsed":3594520,"internal_node_id":"0.0-2.0-49.0"},{"view_history":"[{\"page_index\":0,\"viewing_time\":3354}]","rt":3354,"trial_type":"instructions","trial_index":52,"time_elapsed":3598876,"internal_node_id":"0.0-3.0"},{"view_history":"[{\"page_index\":0,\"viewing_time\":2664},{\"page_index\":1,\"viewing_time\":31860}]","rt":34524,"trial_type":"instructions","trial_index":53,"time_elapsed":3634402,"internal_node_id":"0.0-4.0"},{"group":"hexagon_tri","fractal_assignment":["../images/cyn_red.png","../images/org_blu.png","../images/ylw_slt.png","../images/pnk_blu.png","../images/gry_blk.png","../images/blu_wht.png"],"mutagen_generator_assignment":[0,1],"goal":4,"start":0,"action_noise":0.15,"location_history":"[0,5,0,1,5,4]","action_history":"[0,1,1,1,0]","mutagen_history":"[0,1,1,1,0]","location_rts":"[4746,2844,728,926,502]","trial_type":"fractal-mutation","trial_index":54,"time_elapsed":3653124,"internal_node_id":"0.0-5.0-0.0"},{"group":"hexagon_tri","fractal_assignment":["../images/cyn_red.png","../images/org_blu.png","../images/ylw_slt.png","../images/pnk_blu.png","../images/gry_blk.png","../images/blu_wht.png"],"mutagen_generator_assignment":[0,1],"goal":3,"start":4,"action_noise":0.15,"location_history":"[4,2,1,5,4,0,1,5,4,2,3]","action_history":"[1,0,1,0,1,1,1,0,1,1]","mutagen_history":"[1,0,1,0,1,1,1,0,1,1]","location_rts":"[736,226,582,632,508,558,696,586,416,344]","trial_type":"fractal-mutation","trial_index":55,"time_elapsed":3672858,"internal_node_id":"0.0-5.0-1.0"},{"group":"hexagon_tri","fractal_assignment":["../images/cyn_red.png","../images/org_blu.png","../images/ylw_slt.png","../images/pnk_blu.png","../images/gry_blk.png","../images/blu_wht.png"],"mutagen_generator_assignment":[0,1],"goal":5,"start":3,"action_noise":0.15,"location_history":"[3,2,3,2,1,3,2,3,2,3,4,2,3,2,3,2,1,5]","action_history":"[0,1,0,0,0,0,1,1,1,1,1,1,0,1,0,0,1]","mutagen_history":"[0,1,0,0,0,0,1,1,1,1,1,1,0,1,0,0,1]","location_rts":"[418,414,614,504,366,502,396,388,396,392,586,466,422,406,280,388,338]","trial_type":"fractal-mutation","trial_index":56,"time_elapsed":3702168,"internal_node_id":"0.0-5.0-2.0"},{"group":"hexagon_tri","fractal_assignment":["../images/cyn_red.png","../images/org_blu.png","../images/ylw_slt.png","../images/pnk_blu.png","../images/gry_blk.png","../images/blu_wht.png"],"mutagen_generator_assignment":[0,1],"goal":2,"start":5,"action_noise":0.15,"location_history":"[5,0,5,0,1,5,0,5,4,2]","action_history":"[1,0,1,1,1,1,0,0,1]","mutagen_history":"[1,0,1,1,1,1,0,0,1]","location_rts":"[642,420,378,304,478,382,304,348,372]","trial_type":"fractal-mutation","trial_index":57,"time_elapsed":3719122,"internal_node_id":"0.0-5.0-3.0"},{"group":"hexagon_tri","fractal_assignment":["../images/cyn_red.png","../images/org_blu.png","../images/ylw_slt.png","../images/pnk_blu.png","../images/gry_blk.png","../images/blu_wht.png"],"mutagen_generator_assignment":[0,1],"goal":1,"start":2,"action_noise":0.15,"location_history":"[2,3,2,3,4,0,1]","action_history":"[1,0,0,1,1,1]","mutagen_history":"[1,0,0,1,1,1]","location_rts":"[528,1688,676,172,364,544]","trial_type":"fractal-mutation","trial_index":58,"time_elapsed":3733142,"internal_node_id":"0.0-5.0-4.0"},{"group":"hexagon_tri","fractal_assignment":["../images/cyn_red.png","../images/org_blu.png","../images/ylw_slt.png","../images/pnk_blu.png","../images/gry_blk.png","../images/blu_wht.png"],"mutagen_generator_assignment":[0,1],"goal":4,"start":1,"action_noise":0.15,"location_history":"[1,3,4]","action_history":"[1,1]","mutagen_history":"[1,1]","location_rts":"[726,372]","trial_type":"fractal-mutation","trial_index":59,"time_elapsed":3739942,"internal_node_id":"0.0-5.0-5.0"},{"group":"hexagon_tri","fractal_assignment":["../images/cyn_red.png","../images/org_blu.png","../images/ylw_slt.png","../images/pnk_blu.png","../images/gry_blk.png","../images/blu_wht.png"],"mutagen_generator_assignment":[0,1],"goal":1,"start":4,"action_noise":0.15,"location_history":"[4,0,5,0,1]","action_history":"[0,1,1,1]","mutagen_history":"[0,1,1,1]","location_rts":"[418,292,326,478]","trial_type":"fractal-mutation","trial_index":60,"time_elapsed":3749334,"internal_node_id":"0.0-5.0-6.0"},{"group":"hexagon_tri","fractal_assignment":["../images/cyn_red.png","../images/org_blu.png","../images/ylw_slt.png","../images/pnk_blu.png","../images/gry_blk.png","../images/blu_wht.png"],"mutagen_generator_assignment":[0,1],"goal":5,"start":1,"action_noise":0.15,"location_history":"[1,5]","action_history":"[1]","mutagen_history":"[1]","location_rts":"[536]","trial_type":"fractal-mutation","trial_index":61,"time_elapsed":3754468,"internal_node_id":"0.0-5.0-7.0"},{"group":"hexagon_tri","fractal_assignment":["../images/cyn_red.png","../images/org_blu.png","../images/ylw_slt.png","../images/pnk_blu.png","../images/gry_blk.png","../images/blu_wht.png"],"mutagen_generator_assignment":[0,1],"goal":0,"start":5,"action_noise":0.15,"location_history":"[5,0]","action_history":"[1]","mutagen_history":"[1]","location_rts":"[1484]","trial_type":"fractal-mutation","trial_index":62,"time_elapsed":3760562,"internal_node_id":"0.0-5.0-8.0"},{"group":"hexagon_tri","fractal_assignment":["../images/cyn_red.png","../images/org_blu.png","../images/ylw_slt.png","../images/pnk_blu.png","../images/gry_blk.png","../images/blu_wht.png"],"mutagen_generator_assignment":[0,1],"goal":2,"start":0,"action_noise":0.15,"location_history":"[0,5,0,1,3,2]","action_history":"[0,1,1,1,0]","mutagen_history":"[0,1,1,1,0]","location_rts":"[678,360,646,358,404]","trial_type":"fractal-mutation","trial_index":63,"time_elapsed":3771958,"internal_node_id":"0.0-5.0-9.0"},{"group":"hexagon_tri","fractal_assignment":["../images/cyn_red.png","../images/org_blu.png","../images/ylw_slt.png","../images/pnk_blu.png","../images/gry_blk.png","../images/blu_wht.png"],"mutagen_generator_assignment":[0,1],"goal":3,"start":2,"action_noise":0.15,"location_history":"[2,3]","action_history":"[1]","mutagen_history":"[1]","location_rts":"[962]","trial_type":"fractal-mutation","trial_index":64,"time_elapsed":3777530,"internal_node_id":"0.0-5.0-10.0"},{"group":"hexagon_tri","fractal_assignment":["../images/cyn_red.png","../images/org_blu.png","../images/ylw_slt.png","../images/pnk_blu.png","../images/gry_blk.png","../images/blu_wht.png"],"mutagen_generator_assignment":[0,1],"goal":0,"start":3,"action_noise":0.15,"location_history":"[3,4,0]","action_history":"[1,0]","mutagen_history":"[1,0]","location_rts":"[1204,448]","trial_type":"fractal-mutation","trial_index":65,"time_elapsed":3784856,"internal_node_id":"0.0-5.0-11.0"},{"group":"hexagon_tri","fractal_assignment":["../images/cyn_red.png","../images/org_blu.png","../images/ylw_slt.png","../images/pnk_blu.png","../images/gry_blk.png","../images/blu_wht.png"],"mutagen_generator_assignment":[0,1],"goal":2,"start":0,"action_noise":0.15,"location_history":"[0,1,5,0,1,5,4,0,1,3,4,2]","action_history":"[1,0,1,0,1,0,0,1,0,1,1]","mutagen_history":"[1,0,1,0,1,0,0,1,0,1,1]","location_rts":"[1056,450,846,626,920,530,796,480,386,306,892]","trial_type":"fractal-mutation","trial_index":66,"time_elapsed":3807570,"internal_node_id":"0.0-5.0-12.0"},{"group":"hexagon_tri","fractal_assignment":["../images/cyn_red.png","../images/org_blu.png","../images/ylw_slt.png","../images/pnk_blu.png","../images/gry_blk.png","../images/blu_wht.png"],"mutagen_generator_assignment":[0,1],"goal":5,"start":2,"action_noise":0.15,"location_history":"[2,3,2,3,2,3,4,0,1,3,4,2,1,5]","action_history":"[1,0,1,1,1,1,0,1,1,1,1,0,0]","mutagen_history":"[1,0,1,1,1,1,0,1,1,1,1,0,0]","location_rts":"[898,534,484,422,490,490,324,408,274,408,838,456,428]","trial_type":"fractal-mutation","trial_index":67,"time_elapsed":3831628,"internal_node_id":"0.0-5.0-13.0"},{"group":"hexagon_tri","fractal_assignment":["../images/cyn_red.png","../images/org_blu.png","../images/ylw_slt.png","../images/pnk_blu.png","../images/gry_blk.png","../images/blu_wht.png"],"mutagen_generator_assignment":[0,1],"goal":4,"start":5,"action_noise":0.15,"location_history":"[5,0,1,5,0,5,0,1,3,4]","action_history":"[1,1,1,0,0,0,1,0,1]","mutagen_history":"[1,1,1,0,0,0,1,0,1]","location_rts":"[838,766,282,384,374,500,342,394,1146]","trial_type":"fractal-mutation","trial_index":68,"time_elapsed":3850020,"internal_node_id":"0.0-5.0-14.0"},{"group":"hexagon_tri","fractal_assignment":["../images/cyn_red.png","../images/org_blu.png","../images/ylw_slt.png","../images/pnk_blu.png","../images/gry_blk.png","../images/blu_wht.png"],"mutagen_generator_assignment":[0,1],"goal":3,"start":4,"action_noise":0.15,"location_history":"[4,2,3]","action_history":"[1,1]","mutagen_history":"[1,1]","location_rts":"[828,430]","trial_type":"fractal-mutation","trial_index":69,"time_elapsed":3856992,"internal_node_id":"0.0-5.0-15.0"},{"group":"hexagon_tri","fractal_assignment":["../images/cyn_red.png","../images/org_blu.png","../images/ylw_slt.png","../images/pnk_blu.png","../images/gry_blk.png","../images/blu_wht.png"],"mutagen_generator_assignment":[0,1],"goal":1,"start":3,"action_noise":0.15,"location_history":"[3,4,0,5,0,5,0,5,4,2,3,4,0,1]","action_history":"[1,0,0,1,0,1,1,0,1,1,1,0,1]","mutagen_history":"[1,0,0,1,0,1,1,0,1,1,1,0,1]","location_rts":"[484,692,1130,518,9200,1156,310,194,1114,312,346,778,408]","trial_type":"fractal-mutation","trial_index":70,"time_elapsed":3891318,"internal_node_id":"0.0-5.0-16.0"},{"group":"hexagon_tri","fractal_assignment":["../images/cyn_red.png","../images/org_blu.png","../images/ylw_slt.png","../images/pnk_blu.png","../images/gry_blk.png","../images/blu_wht.png"],"mutagen_generator_assignment":[0,1],"goal":5,"start":1,"action_noise":0.15,"location_history":"[1,3,2,3,4,0,1,5]","action_history":"[0,1,1,1,0,0,1]","mutagen_history":"[0,1,1,1,0,0,1]","location_rts":"[638,562,798,492,1192,582,388]","trial_type":"fractal-mutation","trial_index":71,"time_elapsed":3907080,"internal_node_id":"0.0-5.0-17.0"},{"group":"hexagon_tri","fractal_assignment":["../images/cyn_red.png","../images/org_blu.png","../images/ylw_slt.png","../images/pnk_blu.png","../images/gry_blk.png","../images/blu_wht.png"],"mutagen_generator_assignment":[0,1],"goal":4,"start":5,"action_noise":0.15,"location_history":"[5,0,1,3,4]","action_history":"[0,1,0,1]","mutagen_history":"[0,1,0,1]","location_rts":"[41922,2150,304,322]","trial_type":"fractal-mutation","trial_index":72,"time_elapsed":3959652,"internal_node_id":"0.0-5.0-18.0"},{"group":"hexagon_tri","fractal_assignment":["../images/cyn_red.png","../images/org_blu.png","../images/ylw_slt.png","../images/pnk_blu.png","../images/gry_blk.png","../images/blu_wht.png"],"mutagen_generator_assignment":[0,1],"goal":0,"start":4,"action_noise":0.15,"location_history":"[4,2,1,5,0]","action_history":"[1,0,1,1]","mutagen_history":"[1,0,1,1]","location_rts":"[546,874,600,72]","trial_type":"fractal-mutation","trial_index":73,"time_elapsed":3969626,"internal_node_id":"0.0-5.0-19.0"},{"group":"hexagon_tri","fractal_assignment":["../images/cyn_red.png","../images/org_blu.png","../images/ylw_slt.png","../images/pnk_blu.png","../images/gry_blk.png","../images/blu_wht.png"],"mutagen_generator_assignment":[0,1],"goal":1,"start":0,"action_noise":0.15,"location_history":"[0,5,0,5,4,2,3,4,2,3,4,2,1]","action_history":"[0,1,1,0,0,1,1,1,1,1,1,1]","mutagen_history":"[0,1,1,0,0,1,1,1,1,1,1,1]","location_rts":"[14624,98,364,568,3072,2824,520,1108,440,3012,446,6210]","trial_type":"fractal-mutation","trial_index":74,"time_elapsed":4019508,"internal_node_id":"0.0-5.0-20.0"},{"group":"hexagon_tri","fractal_assignment":["../images/cyn_red.png","../images/org_blu.png","../images/ylw_slt.png","../images/pnk_blu.png","../images/gry_blk.png","../images/blu_wht.png"],"mutagen_generator_assignment":[0,1],"goal":3,"start":1,"action_noise":0.15,"location_history":"[1,3]","action_history":"[0]","mutagen_history":"[0]","location_rts":"[38428]","trial_type":"fractal-mutation","trial_index":75,"time_elapsed":4062508,"internal_node_id":"0.0-5.0-21.0"},{"group":"hexagon_tri","fractal_assignment":["../images/cyn_red.png","../images/org_blu.png","../images/ylw_slt.png","../images/pnk_blu.png","../images/gry_blk.png","../images/blu_wht.png"],"mutagen_generator_assignment":[0,1],"goal":2,"start":3,"action_noise":0.15,"location_history":"[3,4,2]","action_history":"[1,1]","mutagen_history":"[1,1]","location_rts":"[4284,2982]","trial_type":"fractal-mutation","trial_index":76,"time_elapsed":4075484,"internal_node_id":"0.0-5.0-22.0"},{"group":"hexagon_tri","fractal_assignment":["../images/cyn_red.png","../images/org_blu.png","../images/ylw_slt.png","../images/pnk_blu.png","../images/gry_blk.png","../images/blu_wht.png"],"mutagen_generator_assignment":[0,1],"goal":0,"start":2,"action_noise":0.15,"location_history":"[2,1,5,0]","action_history":"[1,1,1]","mutagen_history":"[1,1,1]","location_rts":"[1230,2118,1006]","trial_type":"fractal-mutation","trial_index":77,"time_elapsed":4086652,"internal_node_id":"0.0-5.0-23.0"},{"group":"hexagon_tri","fractal_assignment":["../images/cyn_red.png","../images/org_blu.png","../images/ylw_slt.png","../images/pnk_blu.png","../images/gry_blk.png","../images/blu_wht.png"],"mutagen_generator_assignment":[0,1],"goal":3,"start":0,"action_noise":0.15,"location_history":"[0,1,3]","action_history":"[1,1]","mutagen_history":"[1,1]","location_rts":"[708,2128]","trial_type":"fractal-mutation","trial_index":78,"time_elapsed":4095190,"internal_node_id":"0.0-5.0-24.0"},{"group":"hexagon_tri","fractal_assignment":["../images/cyn_red.png","../images/org_blu.png","../images/ylw_slt.png","../images/pnk_blu.png","../images/gry_blk.png","../images/blu_wht.png"],"mutagen_generator_assignment":[0,1],"goal":1,"start":3,"action_noise":0.15,"location_history":"[3,4,0,1]","action_history":"[1,1,1]","mutagen_history":"[1,1,1]","location_rts":"[694,1814,1608]","trial_type":"fractal-mutation","trial_index":79,"time_elapsed":4106098,"internal_node_id":"0.0-5.0-25.0"},{"group":"hexagon_tri","fractal_assignment":["../images/cyn_red.png","../images/org_blu.png","../images/ylw_slt.png","../images/pnk_blu.png","../images/gry_blk.png","../images/blu_wht.png"],"mutagen_generator_assignment":[0,1],"goal":2,"start":1,"action_noise":0.15,"location_history":"[1,5,0,1,3,2]","action_history":"[1,1,1,0,0]","mutagen_history":"[1,1,1,0,0]","location_rts":"[704,410,488,92682,30124]","trial_type":"fractal-mutation","trial_index":80,"time_elapsed":4239446,"internal_node_id":"0.0-5.0-26.0"},{"group":"hexagon_tri","fractal_assignment":["../images/cyn_red.png","../images/org_blu.png","../images/ylw_slt.png","../images/pnk_blu.png","../images/gry_blk.png","../images/blu_wht.png"],"mutagen_generator_assignment":[0,1],"goal":5,"start":2,"action_noise":0.15,"location_history":"[2,3,4,0,1,5]","action_history":"[1,1,0,1,1]","mutagen_history":"[1,1,0,1,1]","location_rts":"[1600,5914,3438,266,3396]","trial_type":"fractal-mutation","trial_index":81,"time_elapsed":4263042,"internal_node_id":"0.0-5.0-27.0"},{"group":"hexagon_tri","fractal_assignment":["../images/cyn_red.png","../images/org_blu.png","../images/ylw_slt.png","../images/pnk_blu.png","../images/gry_blk.png","../images/blu_wht.png"],"mutagen_generator_assignment":[0,1],"goal":4,"start":5,"action_noise":0.15,"location_history":"[5,4]","action_history":"[0]","mutagen_history":"[0]","location_rts":"[4962]","trial_type":"fractal-mutation","trial_index":82,"time_elapsed":4272576,"internal_node_id":"0.0-5.0-28.0"},{"group":"hexagon_tri","fractal_assignment":["../images/cyn_red.png","../images/org_blu.png","../images/ylw_slt.png","../images/pnk_blu.png","../images/gry_blk.png","../images/blu_wht.png"],"mutagen_generator_assignment":[0,1],"goal":5,"start":4,"action_noise":0.15,"location_history":"[4,2,3,2,3,2,1,5]","action_history":"[1,0,1,1,0,0,1]","mutagen_history":"[1,0,1,1,0,0,1]","location_rts":"[8004,3380,3956,10240,388,228,426]","trial_type":"fractal-mutation","trial_index":83,"time_elapsed":4310310,"internal_node_id":"0.0-5.0-29.0"},{"group":"hexagon_tri","fractal_assignment":["../images/cyn_red.png","../images/org_blu.png","../images/ylw_slt.png","../images/pnk_blu.png","../images/gry_blk.png","../images/blu_wht.png"],"mutagen_generator_assignment":[0,1],"goal":3,"start":5,"action_noise":0.15,"location_history":"[5,4,2,3]","action_history":"[0,1,1]","mutagen_history":"[0,1,1]","location_rts":"[554,938,800]","trial_type":"fractal-mutation","trial_index":84,"time_elapsed":4319362,"internal_node_id":"0.0-5.0-30.0"},{"group":"hexagon_tri","fractal_assignment":["../images/cyn_red.png","../images/org_blu.png","../images/ylw_slt.png","../images/pnk_blu.png","../images/gry_blk.png","../images/blu_wht.png"],"mutagen_generator_assignment":[0,1],"goal":0,"start":3,"action_noise":0.15,"location_history":"[3,4,0]","action_history":"[1,1]","mutagen_history":"[1,1]","location_rts":"[5314,1960]","trial_type":"fractal-mutation","trial_index":85,"time_elapsed":4332330,"internal_node_id":"0.0-5.0-31.0"},{"group":"hexagon_tri","fractal_assignment":["../images/cyn_red.png","../images/org_blu.png","../images/ylw_slt.png","../images/pnk_blu.png","../images/gry_blk.png","../images/blu_wht.png"],"mutagen_generator_assignment":[0,1],"goal":4,"start":0,"action_noise":0.15,"location_history":"[0,5,4]","action_history":"[0,0]","mutagen_history":"[0,0]","location_rts":"[13744,3900]","trial_type":"fractal-mutation","trial_index":86,"time_elapsed":4355618,"internal_node_id":"0.0-5.0-32.0"},{"group":"hexagon_tri","fractal_assignment":["../images/cyn_red.png","../images/org_blu.png","../images/ylw_slt.png","../images/pnk_blu.png","../images/gry_blk.png","../images/blu_wht.png"],"mutagen_generator_assignment":[0,1],"goal":1,"start":4,"action_noise":0.15,"location_history":"[4,2,1]","action_history":"[1,0]","mutagen_history":"[1,0]","location_rts":"[864,312]","trial_type":"fractal-mutation","trial_index":87,"time_elapsed":4362484,"internal_node_id":"0.0-5.0-33.0"},{"group":"hexagon_tri","fractal_assignment":["../images/cyn_red.png","../images/org_blu.png","../images/ylw_slt.png","../images/pnk_blu.png","../images/gry_blk.png","../images/blu_wht.png"],"mutagen_generator_assignment":[0,1],"goal":2,"start":1,"action_noise":0.15,"location_history":"[1,5,0,5,0,1,5,4,2]","action_history":"[1,1,0,1,1,1,0,1]","mutagen_history":"[1,1,0,1,1,1,0,1]","location_rts":"[18,4462,4210,118,1504,710,12636,314]","trial_type":"fractal-mutation","trial_index":88,"time_elapsed":4398658,"internal_node_id":"0.0-5.0-34.0"},{"group":"hexagon_tri","fractal_assignment":["../images/cyn_red.png","../images/org_blu.png","../images/ylw_slt.png","../images/pnk_blu.png","../images/gry_blk.png","../images/blu_wht.png"],"mutagen_generator_assignment":[0,1],"goal":0,"start":2,"action_noise":0.15,"location_history":"[2,1,5,0]","action_history":"[1,1,1]","mutagen_history":"[1,1,1]","location_rts":"[382,496,438]","trial_type":"fractal-mutation","trial_index":89,"time_elapsed":4406810,"internal_node_id":"0.0-5.0-35.0"},{"group":"hexagon_tri","fractal_assignment":["../images/cyn_red.png","../images/org_blu.png","../images/ylw_slt.png","../images/pnk_blu.png","../images/gry_blk.png","../images/blu_wht.png"],"mutagen_generator_assignment":[0,1],"goal":5,"start":0,"action_noise":0.15,"location_history":"[0,1,5]","action_history":"[1,1]","mutagen_history":"[1,1]","location_rts":"[534,400]","trial_type":"fractal-mutation","trial_index":90,"time_elapsed":4413466,"internal_node_id":"0.0-5.0-36.0"},{"group":"hexagon_tri","fractal_assignment":["../images/cyn_red.png","../images/org_blu.png","../images/ylw_slt.png","../images/pnk_blu.png","../images/gry_blk.png","../images/blu_wht.png"],"mutagen_generator_assignment":[0,1],"goal":2,"start":5,"action_noise":0.15,"location_history":"[5,0,5,4,2]","action_history":"[1,1,1,1]","mutagen_history":"[1,1,1,1]","location_rts":"[1392,662,712,542]","trial_type":"fractal-mutation","trial_index":91,"time_elapsed":4424684,"internal_node_id":"0.0-5.0-37.0"},{"group":"hexagon_tri","fractal_assignment":["../images/cyn_red.png","../images/org_blu.png","../images/ylw_slt.png","../images/pnk_blu.png","../images/gry_blk.png","../images/blu_wht.png"],"mutagen_generator_assignment":[0,1],"goal":1,"start":2,"action_noise":0.15,"location_history":"[2,1]","action_history":"[0]","mutagen_history":"[0]","location_rts":"[878]","trial_type":"fractal-mutation","trial_index":92,"time_elapsed":4430150,"internal_node_id":"0.0-5.0-38.0"},{"group":"hexagon_tri","fractal_assignment":["../images/cyn_red.png","../images/org_blu.png","../images/ylw_slt.png","../images/pnk_blu.png","../images/gry_blk.png","../images/blu_wht.png"],"mutagen_generator_assignment":[0,1],"goal":4,"start":1,"action_noise":0.15,"location_history":"[1,3,4]","action_history":"[0,1]","mutagen_history":"[0,1]","location_rts":"[15456,1030]","trial_type":"fractal-mutation","trial_index":93,"time_elapsed":4452324,"internal_node_id":"0.0-5.0-39.0"},{"group":"hexagon_tri","fractal_assignment":["../images/cyn_red.png","../images/org_blu.png","../images/ylw_slt.png","../images/pnk_blu.png","../images/gry_blk.png","../images/blu_wht.png"],"mutagen_generator_assignment":[0,1],"goal":3,"start":4,"action_noise":0.15,"location_history":"[4,0,5,0,1,3]","action_history":"[0,0,1,1,0]","mutagen_history":"[0,0,1,1,0]","location_rts":"[1494,92094,80,2774,2800]","trial_type":"fractal-mutation","trial_index":94,"time_elapsed":4560516,"internal_node_id":"0.0-5.0-40.0"},{"group":"hexagon_tri","fractal_assignment":["../images/cyn_red.png","../images/org_blu.png","../images/ylw_slt.png","../images/pnk_blu.png","../images/gry_blk.png","../images/blu_wht.png"],"mutagen_generator_assignment":[0,1],"goal":5,"start":3,"action_noise":0.15,"location_history":"[3,4,2,1,3,4,2,3,4,2,1,5]","action_history":"[1,1,0,0,1,1,1,1,1,0,1]","mutagen_history":"[1,1,0,0,1,1,1,1,1,0,1]","location_rts":"[1002,66,322,198,6,1264,354,440,364,818,852]","trial_type":"fractal-mutation","trial_index":95,"time_elapsed":4581730,"internal_node_id":"0.0-5.0-41.0"},{"group":"hexagon_tri","fractal_assignment":["../images/cyn_red.png","../images/org_blu.png","../images/ylw_slt.png","../images/pnk_blu.png","../images/gry_blk.png","../images/blu_wht.png"],"mutagen_generator_assignment":[0,1],"goal":3,"start":5,"action_noise":0.15,"location_history":"[5,4,0,5,4,0,5,4,0,5,0,1,5,4,2,3]","action_history":"[0,0,0,0,0,0,0,0,0,1,1,1,0,1,1]","mutagen_history":"[0,0,0,0,0,0,0,0,0,1,1,1,0,1,1]","location_rts":"[8732,350,392,1156,500,426,590,2776,29364,400,436,382,484,412,432]","trial_type":"fractal-mutation","trial_index":96,"time_elapsed":4648220,"internal_node_id":"0.0-5.0-42.0"},{"group":"hexagon_tri","fractal_assignment":["../images/cyn_red.png","../images/org_blu.png","../images/ylw_slt.png","../images/pnk_blu.png","../images/gry_blk.png","../images/blu_wht.png"],"mutagen_generator_assignment":[0,1],"goal":0,"start":3,"action_noise":0.15,"location_history":"[3,4,0]","action_history":"[1,1]","mutagen_history":"[1,1]","location_rts":"[760,404]","trial_type":"fractal-mutation","trial_index":97,"time_elapsed":4655078,"internal_node_id":"0.0-5.0-43.0"},{"group":"hexagon_tri","fractal_assignment":["../images/cyn_red.png","../images/org_blu.png","../images/ylw_slt.png","../images/pnk_blu.png","../images/gry_blk.png","../images/blu_wht.png"],"mutagen_generator_assignment":[0,1],"goal":2,"start":0,"action_noise":0.15,"location_history":"[0,1,5,0,5,0,5,0,5,0,5,0,1,3,4,0,5,4,0,5,0,1,3,2]","action_history":"[1,1,1,0,1,0,1,0,0,0,1,1,0,1,1,0,0,0,1,1,1,0,0]","mutagen_history":"[1,1,1,0,1,0,1,0,0,0,1,1,0,1,1,0,0,0,1,1,1,0,0]","location_rts":"[714,342,112,12,12,60,120,142,228,82,224,324,298,430,516,484,224,548,612,424,316,102,464]","trial_type":"fractal-mutation","trial_index":98,"time_elapsed":4690244,"internal_node_id":"0.0-5.0-44.0"},{"group":"hexagon_tri","fractal_assignment":["../images/cyn_red.png","../images/org_blu.png","../images/ylw_slt.png","../images/pnk_blu.png","../images/gry_blk.png","../images/blu_wht.png"],"mutagen_generator_assignment":[0,1],"goal":4,"start":2,"action_noise":0.15,"location_history":"[2,1,3,4]","action_history":"[0,0,1]","mutagen_history":"[0,0,1]","location_rts":"[66248,133020,206]","trial_type":"fractal-mutation","trial_index":99,"time_elapsed":4896500,"internal_node_id":"0.0-5.0-45.0"},{"group":"hexagon_tri","fractal_assignment":["../images/cyn_red.png","../images/org_blu.png","../images/ylw_slt.png","../images/pnk_blu.png","../images/gry_blk.png","../images/blu_wht.png"],"mutagen_generator_assignment":[0,1],"goal":1,"start":4,"action_noise":0.15,"location_history":"[4,0,5,0,1]","action_history":"[1,0,0,1]","mutagen_history":"[1,0,0,1]","location_rts":"[402,22,3346,706]","trial_type":"fractal-mutation","trial_index":100,"time_elapsed":4908946,"internal_node_id":"0.0-5.0-46.0"},{"group":"hexagon_tri","fractal_assignment":["../images/cyn_red.png","../images/org_blu.png","../images/ylw_slt.png","../images/pnk_blu.png","../images/gry_blk.png","../images/blu_wht.png"],"mutagen_generator_assignment":[0,1],"goal":4,"start":1,"action_noise":0.15,"location_history":"[1,5,0,1,5,0,1,5,4]","action_history":"[1,1,1,1,1,1,1,0]","mutagen_history":"[1,1,1,1,1,1,1,0]","location_rts":"[1120,544,472,846,788,398,466,544]","trial_type":"fractal-mutation","trial_index":101,"time_elapsed":4926518,"internal_node_id":"0.0-5.0-47.0"},{"group":"hexagon_tri","fractal_assignment":["../images/cyn_red.png","../images/org_blu.png","../images/ylw_slt.png","../images/pnk_blu.png","../images/gry_blk.png","../images/blu_wht.png"],"mutagen_generator_assignment":[0,1],"goal":3,"start":4,"action_noise":0.15,"location_history":"[4,2,3]","action_history":"[1,1]","mutagen_history":"[1,1]","location_rts":"[556,808]","trial_type":"fractal-mutation","trial_index":102,"time_elapsed":4933614,"internal_node_id":"0.0-5.0-48.0"},{"group":"hexagon_tri","fractal_assignment":["../images/cyn_red.png","../images/org_blu.png","../images/ylw_slt.png","../images/pnk_blu.png","../images/gry_blk.png","../images/blu_wht.png"],"mutagen_generator_assignment":[0,1],"goal":5,"start":3,"action_noise":0.15,"location_history":"[3,4,2,1,5]","action_history":"[1,1,0,1]","mutagen_history":"[1,1,0,1]","location_rts":"[936,404,400,370]","trial_type":"fractal-mutation","trial_index":103,"time_elapsed":4943618,"internal_node_id":"0.0-5.0-49.0"},{"view_history":"[{\"page_index\":0,\"viewing_time\":11558}]","rt":11558,"trial_type":"instructions","trial_index":104,"time_elapsed":4956180,"internal_node_id":"0.0-6.0"},{"rt":7732,"responses":"{\"Q0\":\"none\"}","trial_type":"survey-text","trial_index":105,"time_elapsed":4964924,"internal_node_id":"0.0-7.0"}]