[{"view_history":"[{\"page_index\":0,\"viewing_time\":8057},{\"page_index\":1,\"viewing_time\":3149226},{\"page_index\":2,\"viewing_time\":25812},{\"page_index\":3,\"viewing_time\":10714}]","rt":3193810,"trial_type":"instructions","trial_index":0,"time_elapsed":3193810,"internal_node_id":"0.0-0.0"},{"view_history":"[{\"page_index\":0,\"viewing_time\":1973},{\"page_index\":1,\"viewing_time\":26100}]","rt":28074,"trial_type":"instructions","trial_index":1,"time_elapsed":3222884,"internal_node_id":"0.0-1.0"},{"group":"hexagon_tri","room_assignment":["yellow","green","grey","blue","red","purple"],"door_color_assignment":["white","black"],"door_generator_assignment":[0,1],"goal":4,"start":0,"action_noise":0.15,"location_history":"[0,1,5,4]","action_history":"[0,0,0]","door_history":"[0,0,0]","location_rts":"[3729,2627,1234]","trial_type":"two-door-navigation","trial_index":2,"time_elapsed":3237045,"internal_node_id":"0.0-2.0-0.0"},{"group":"hexagon_tri","room_assignment":["yellow","green","grey","blue","red","purple"],"door_color_assignment":["white","black"],"door_generator_assignment":[0,1],"goal":3,"start":4,"action_noise":0.15,"location_history":"[4,0,1,5,0,1,5,0,1,3]","action_history":"[0,1,1,1,1,1,1,1,0]","door_history":"[0,1,1,1,1,1,1,1,0]","location_rts":"[3345,1128,1253,710,799,721,528,514,693]","trial_type":"two-door-navigation","trial_index":3,"time_elapsed":3259423,"internal_node_id":"0.0-2.0-1.0"},{"group":"hexagon_tri","room_assignment":["yellow","green","grey","blue","red","purple"],"door_color_assignment":["white","black"],"door_generator_assignment":[0,1],"goal":5,"start":3,"action_noise":0.15,"location_history":"[3,4,2,3,4,2,1,3,2,1,3,2,1,5]","action_history":"[1,1,1,1,1,0,0,0,0,0,0,0,1]","door_history":"[1,1,1,1,1,0,0,0,0,0,0,0,1]","location_rts":"[1920,417,391,690,371,807,435,606,292,370,857,765,1362]","trial_type":"two-door-navigation","trial_index":4,"time_elapsed":3285475,"internal_node_id":"0.0-2.0-2.0"},{"group":"hexagon_tri","room_assignment":["yellow","green","grey","blue","red","purple"],"door_color_assignment":["white","black"],"door_generator_assignment":[0,1],"goal":2,"start":5,"action_noise":0.15,"location_history":"[5,4,2]","action_history":"[0,1]","door_history":"[0,1]","location_rts":"[1695,840]","trial_type":"two-door-navigation","trial_index":5,"time_elapsed":3293554,"internal_node_id":"0.0-2.0-3.0"},{"group":"hexagon_tri","room_assignment":["yellow","green","grey","blue","red","purple"],"door_color_assignment":["white","black"],"door_generator_assignment":[0,1],"goal":1,"start":2,"action_noise":0.15,"location_history":"[2,1]","action_history":"[0]","door_history":"[0]","location_rts":"[607]","trial_type":"two-door-navigation","trial_index":6,"time_elapsed":3298684,"internal_node_id":"0.0-2.0-4.0"},{"group":"hexagon_tri","room_assignment":["yellow","green","grey","blue","red","purple"],"door_color_assignment":["white","black"],"door_generator_assignment":[0,1],"goal":4,"start":1,"action_noise":0.15,"location_history":"[1,5,0,1,5,0,5,4]","action_history":"[1,0,1,1,0,0,0]","door_history":"[1,0,1,1,0,0,0]","location_rts":"[720,1593,921,610,1193,372,315]","trial_type":"two-door-navigation","trial_index":7,"time_elapsed":3315050,"internal_node_id":"0.0-2.0-5.0"},{"group":"hexagon_tri","room_assignment":["yellow","green","grey","blue","red","purple"],"door_color_assignment":["white","black"],"door_generator_assignment":[0,1],"goal":1,"start":4,"action_noise":0.15,"location_history":"[4,2,3,4,2,1]","action_history":"[1,0,0,0,0]","door_history":"[1,0,0,0,0]","location_rts":"[796,765,456,481,407]","trial_type":"two-door-navigation","trial_index":8,"time_elapsed":3326561,"internal_node_id":"0.0-2.0-6.0"},{"group":"hexagon_tri","room_assignment":["yellow","green","grey","blue","red","purple"],"door_color_assignment":["white","black"],"door_generator_assignment":[0,1],"goal":5,"start":1,"action_noise":0.15,"location_history":"[1,5]","action_history":"[1]","door_history":"[1]","location_rts":"[1426]","trial_type":"two-door-navigation","trial_index":9,"time_elapsed":3332511,"internal_node_id":"0.0-2.0-7.0"},{"group":"hexagon_tri","room_assignment":["yellow","green","grey","blue","red","purple"],"door_color_assignment":["white","black"],"door_generator_assignment":[0,1],"goal":0,"start":5,"action_noise":0.15,"location_history":"[5,0]","action_history":"[1]","door_history":"[1]","location_rts":"[1089]","trial_type":"two-door-navigation","trial_index":10,"time_elapsed":3338123,"internal_node_id":"0.0-2.0-8.0"},{"group":"hexagon_tri","room_assignment":["yellow","green","grey","blue","red","purple"],"door_color_assignment":["white","black"],"door_generator_assignment":[0,1],"goal":2,"start":0,"action_noise":0.15,"location_history":"[0,5,4,0,5,0,1,3,2]","action_history":"[0,0,0,0,1,1,1,0]","door_history":"[0,0,0,0,1,1,1,0]","location_rts":"[1105,404,332,318,374,322,299,691]","trial_type":"two-door-navigation","trial_index":11,"time_elapsed":3353633,"internal_node_id":"0.0-2.0-9.0"},{"group":"hexagon_tri","room_assignment":["yellow","green","grey","blue","red","purple"],"door_color_assignment":["white","black"],"door_generator_assignment":[0,1],"goal":3,"start":2,"action_noise":0.15,"location_history":"[2,1,5,0,1,5,4,0,5,0,1,5,0,1,5,4,2,3]","action_history":"[0,1,1,1,1,0,0,0,1,1,0,1,1,1,0,1,1]","door_history":"[0,1,1,1,1,0,0,0,1,1,0,1,1,1,0,1,1]","location_rts":"[1378,451,355,485,582,625,359,325,558,293,387,347,496,471,854,516,552]","trial_type":"two-door-navigation","trial_index":12,"time_elapsed":3383524,"internal_node_id":"0.0-2.0-10.0"},{"group":"hexagon_tri","room_assignment":["yellow","green","grey","blue","red","purple"],"door_color_assignment":["white","black"],"door_generator_assignment":[0,1],"goal":0,"start":3,"action_noise":0.15,"location_history":"[3,2,1,3,4,0]","action_history":"[0,0,1,1,1]","door_history":"[0,0,1,1,1]","location_rts":"[1427,394,305,329,731]","trial_type":"two-door-navigation","trial_index":13,"time_elapsed":3395312,"internal_node_id":"0.0-2.0-11.0"},{"group":"hexagon_tri","room_assignment":["yellow","green","grey","blue","red","purple"],"door_color_assignment":["white","black"],"door_generator_assignment":[0,1],"goal":2,"start":0,"action_noise":0.15,"location_history":"[0,1,3,2]","action_history":"[1,0,1]","door_history":"[1,0,1]","location_rts":"[874,324,614]","trial_type":"two-door-navigation","trial_index":14,"time_elapsed":3403689,"internal_node_id":"0.0-2.0-12.0"},{"group":"hexagon_tri","room_assignment":["yellow","green","grey","blue","red","purple"],"door_color_assignment":["white","black"],"door_generator_assignment":[0,1],"goal":5,"start":2,"action_noise":0.15,"location_history":"[2,3,4,2,1,3,4,0,5]","action_history":"[1,1,1,0,0,1,1,0]","door_history":"[1,1,1,0,0,1,1,0]","location_rts":"[1759,281,401,410,240,343,371,209]","trial_type":"two-door-navigation","trial_index":15,"time_elapsed":3419360,"internal_node_id":"0.0-2.0-13.0"},{"group":"hexagon_tri","room_assignment":["yellow","green","grey","blue","red","purple"],"door_color_assignment":["white","black"],"door_generator_assignment":[0,1],"goal":4,"start":5,"action_noise":0.15,"location_history":"[5,0,1,3,4]","action_history":"[1,1,0,1]","door_history":"[1,1,0,1]","location_rts":"[596,374,276,264]","trial_type":"two-door-navigation","trial_index":16,"time_elapsed":3428453,"internal_node_id":"0.0-2.0-14.0"},{"group":"hexagon_tri","room_assignment":["yellow","green","grey","blue","red","purple"],"door_color_assignment":["white","black"],"door_generator_assignment":[0,1],"goal":3,"start":4,"action_noise":0.15,"location_history":"[4,2,3]","action_history":"[0,1]","door_history":"[0,1]","location_rts":"[345,299]","trial_type":"two-door-navigation","trial_index":17,"time_elapsed":3434639,"internal_node_id":"0.0-2.0-15.0"},{"group":"hexagon_tri","room_assignment":["yellow","green","grey","blue","red","purple"],"door_color_assignment":["white","black"],"door_generator_assignment":[0,1],"goal":1,"start":3,"action_noise":0.15,"location_history":"[3,4,2,1]","action_history":"[1,1,0]","door_history":"[1,1,0]","location_rts":"[276,395,602]","trial_type":"two-door-navigation","trial_index":18,"time_elapsed":3442480,"internal_node_id":"0.0-2.0-16.0"},{"group":"hexagon_tri","room_assignment":["yellow","green","grey","blue","red","purple"],"door_color_assignment":["white","black"],"door_generator_assignment":[0,1],"goal":5,"start":1,"action_noise":0.15,"location_history":"[1,5]","action_history":"[0]","door_history":"[0]","location_rts":"[484]","trial_type":"two-door-navigation","trial_index":19,"time_elapsed":3447489,"internal_node_id":"0.0-2.0-17.0"},{"group":"hexagon_tri","room_assignment":["yellow","green","grey","blue","red","purple"],"door_color_assignment":["white","black"],"door_generator_assignment":[0,1],"goal":4,"start":5,"action_noise":0.15,"location_history":"[5,0,1,3,2,3,4]","action_history":"[1,1,0,0,1,1]","door_history":"[1,1,0,0,1,1]","location_rts":"[538,461,411,406,256,254]","trial_type":"two-door-navigation","trial_index":20,"time_elapsed":3459440,"internal_node_id":"0.0-2.0-18.0"},{"group":"hexagon_tri","room_assignment":["yellow","green","grey","blue","red","purple"],"door_color_assignment":["white","black"],"door_generator_assignment":[0,1],"goal":0,"start":4,"action_noise":0.15,"location_history":"[4,0]","action_history":"[0]","door_history":"[0]","location_rts":"[754]","trial_type":"two-door-navigation","trial_index":21,"time_elapsed":3464718,"internal_node_id":"0.0-2.0-19.0"},{"group":"hexagon_tri","room_assignment":["yellow","green","grey","blue","red","purple"],"door_color_assignment":["white","black"],"door_generator_assignment":[0,1],"goal":1,"start":0,"action_noise":0.15,"location_history":"[0,1]","action_history":"[1]","door_history":"[1]","location_rts":"[671]","trial_type":"two-door-navigation","trial_index":22,"time_elapsed":3469912,"internal_node_id":"0.0-2.0-20.0"},{"group":"hexagon_tri","room_assignment":["yellow","green","grey","blue","red","purple"],"door_color_assignment":["white","black"],"door_generator_assignment":[0,1],"goal":3,"start":1,"action_noise":0.15,"location_history":"[1,5,0,1,5,4,0,5,0,5,0,1,5,4,2,3]","action_history":"[1,1,1,1,0,0,0,1,0,0,1,1,0,1,1]","door_history":"[1,1,1,1,0,0,0,1,0,0,1,1,0,1,1]","location_rts":"[753,353,265,285,241,249,365,556,576,643,603,356,654,564,279]","trial_type":"two-door-navigation","trial_index":23,"time_elapsed":3495461,"internal_node_id":"0.0-2.0-21.0"},{"group":"hexagon_tri","room_assignment":["yellow","green","grey","blue","red","purple"],"door_color_assignment":["white","black"],"door_generator_assignment":[0,1],"goal":2,"start":3,"action_noise":0.15,"location_history":"[3,4,0,5,0,5,0,1,3,4,0,1,5,0,5,4,2]","action_history":"[1,0,0,0,0,1,1,0,0,1,1,1,1,0,0,1]","door_history":"[1,0,0,0,0,1,1,0,0,1,1,1,1,0,0,1]","location_rts":"[1810,748,319,511,628,185,278,254,266,259,149,281,559,506,216,47]","trial_type":"two-door-navigation","trial_index":24,"time_elapsed":3522300,"internal_node_id":"0.0-2.0-22.0"},{"group":"hexagon_tri","room_assignment":["yellow","green","grey","blue","red","purple"],"door_color_assignment":["white","black"],"door_generator_assignment":[0,1],"goal":0,"start":2,"action_noise":0.15,"location_history":"[2,3,2,3,2,1,5,4,2,3,4,2,1,3,2,3,2,1,5,0]","action_history":"[0,1,1,0,0,0,0,1,1,1,1,1,0,0,0,0,0,1,0]","door_history":"[0,1,1,0,0,0,0,1,1,1,1,1,0,0,0,0,0,1,0]","location_rts":"[2593,543,437,758,265,331,307,330,317,157,137,739,1089,338,614,588,633,806,836]","trial_type":"two-door-navigation","trial_index":25,"time_elapsed":3557002,"internal_node_id":"0.0-2.0-23.0"},{"group":"hexagon_tri","room_assignment":["yellow","green","grey","blue","red","purple"],"door_color_assignment":["white","black"],"door_generator_assignment":[0,1],"goal":3,"start":0,"action_noise":0.15,"location_history":"[0,1,3]","action_history":"[1,0]","door_history":"[1,0]","location_rts":"[407,268]","trial_type":"two-door-navigation","trial_index":26,"time_elapsed":3563220,"internal_node_id":"0.0-2.0-24.0"},{"group":"hexagon_tri","room_assignment":["yellow","green","grey","blue","red","purple"],"door_color_assignment":["white","black"],"door_generator_assignment":[0,1],"goal":1,"start":3,"action_noise":0.15,"location_history":"[3,2,3,4,2,3,4,2,1]","action_history":"[0,0,1,1,1,1,1,0]","door_history":"[0,0,1,1,1,1,1,0]","location_rts":"[559,424,291,345,350,1850,564,337]","trial_type":"two-door-navigation","trial_index":27,"time_elapsed":3579607,"internal_node_id":"0.0-2.0-25.0"},{"group":"hexagon_tri","room_assignment":["yellow","green","grey","blue","red","purple"],"door_color_assignment":["white","black"],"door_generator_assignment":[0,1],"goal":2,"start":1,"action_noise":0.15,"location_history":"[1,5,0,5,4,2]","action_history":"[1,1,0,1,1]","door_history":"[1,1,0,1,1]","location_rts":"[7021,2704,411,144,143]","trial_type":"two-door-navigation","trial_index":28,"time_elapsed":3598638,"internal_node_id":"0.0-2.0-26.0"},{"group":"hexagon_tri","room_assignment":["yellow","green","grey","blue","red","purple"],"door_color_assignment":["white","black"],"door_generator_assignment":[0,1],"goal":5,"start":2,"action_noise":0.15,"location_history":"[2,1,5]","action_history":"[0,1]","door_history":"[0,1]","location_rts":"[381,277]","trial_type":"two-door-navigation","trial_index":29,"time_elapsed":3604841,"internal_node_id":"0.0-2.0-27.0"},{"group":"hexagon_tri","room_assignment":["yellow","green","grey","blue","red","purple"],"door_color_assignment":["white","black"],"door_generator_assignment":[0,1],"goal":4,"start":5,"action_noise":0.15,"location_history":"[5,0,1,3,2,3,4]","action_history":"[1,1,0,0,1,1]","door_history":"[1,1,0,0,1,1]","location_rts":"[521,479,293,226,412,207]","trial_type":"two-door-navigation","trial_index":30,"time_elapsed":3616606,"internal_node_id":"0.0-2.0-28.0"},{"group":"hexagon_tri","room_assignment":["yellow","green","grey","blue","red","purple"],"door_color_assignment":["white","black"],"door_generator_assignment":[0,1],"goal":5,"start":4,"action_noise":0.15,"location_history":"[4,0,1,5]","action_history":"[0,1,1]","door_history":"[0,1,1]","location_rts":"[599,527,237]","trial_type":"two-door-navigation","trial_index":31,"time_elapsed":3624532,"internal_node_id":"0.0-2.0-29.0"},{"group":"hexagon_tri","room_assignment":["yellow","green","grey","blue","red","purple"],"door_color_assignment":["white","black"],"door_generator_assignment":[0,1],"goal":3,"start":5,"action_noise":0.15,"location_history":"[5,4,2,3]","action_history":"[1,1,1]","door_history":"[1,1,1]","location_rts":"[664,361,348]","trial_type":"two-door-navigation","trial_index":32,"time_elapsed":3632470,"internal_node_id":"0.0-2.0-30.0"},{"group":"hexagon_tri","room_assignment":["yellow","green","grey","blue","red","purple"],"door_color_assignment":["white","black"],"door_generator_assignment":[0,1],"goal":0,"start":3,"action_noise":0.15,"location_history":"[3,2,3,4,0]","action_history":"[0,1,1,0]","door_history":"[0,1,1,0]","location_rts":"[1639,402,928,575]","trial_type":"two-door-navigation","trial_index":33,"time_elapsed":3643598,"internal_node_id":"0.0-2.0-31.0"},{"group":"hexagon_tri","room_assignment":["yellow","green","grey","blue","red","purple"],"door_color_assignment":["white","black"],"door_generator_assignment":[0,1],"goal":4,"start":0,"action_noise":0.15,"location_history":"[0,5,4]","action_history":"[0,0]","door_history":"[0,0]","location_rts":"[2889,462]","trial_type":"two-door-navigation","trial_index":34,"time_elapsed":3652492,"internal_node_id":"0.0-2.0-32.0"},{"group":"hexagon_tri","room_assignment":["yellow","green","grey","blue","red","purple"],"door_color_assignment":["white","black"],"door_generator_assignment":[0,1],"goal":1,"start":4,"action_noise":0.15,"location_history":"[4,0,5,4,0,1]","action_history":"[0,0,0,0,1]","door_history":"[0,0,0,0,1]","location_rts":"[1891,323,322,498,325]","trial_type":"two-door-navigation","trial_index":35,"time_elapsed":3664459,"internal_node_id":"0.0-2.0-33.0"},{"group":"hexagon_tri","room_assignment":["yellow","green","grey","blue","red","purple"],"door_color_assignment":["white","black"],"door_generator_assignment":[0,1],"goal":2,"start":1,"action_noise":0.15,"location_history":"[1,3,4,0,5,0,5,4,0,1,3,2]","action_history":"[1,1,0,0,1,1,0,0,1,1,1]","door_history":"[1,1,0,0,1,1,0,0,1,1,1]","location_rts":"[360,372,981,176,435,255,300,293,253,69,331]","trial_type":"two-door-navigation","trial_index":36,"time_elapsed":3683013,"internal_node_id":"0.0-2.0-34.0"},{"group":"hexagon_tri","room_assignment":["yellow","green","grey","blue","red","purple"],"door_color_assignment":["white","black"],"door_generator_assignment":[0,1],"goal":0,"start":2,"action_noise":0.15,"location_history":"[2,1,3,2,1,5,4,2,1,3,2,3,4,0]","action_history":"[0,1,1,1,1,0,1,0,0,0,1,1,0]","door_history":"[0,1,1,1,1,0,1,0,0,0,1,1,0]","location_rts":"[955,412,243,352,455,279,883,600,126,236,73,420,252]","trial_type":"two-door-navigation","trial_index":37,"time_elapsed":3705064,"internal_node_id":"0.0-2.0-35.0"},{"group":"hexagon_tri","room_assignment":["yellow","green","grey","blue","red","purple"],"door_color_assignment":["white","black"],"door_generator_assignment":[0,1],"goal":5,"start":0,"action_noise":0.15,"location_history":"[0,5]","action_history":"[0]","door_history":"[0]","location_rts":"[2339]","trial_type":"two-door-navigation","trial_index":38,"time_elapsed":3711927,"internal_node_id":"0.0-2.0-36.0"},{"group":"hexagon_tri","room_assignment":["yellow","green","grey","blue","red","purple"],"door_color_assignment":["white","black"],"door_generator_assignment":[0,1],"goal":2,"start":5,"action_noise":0.15,"location_history":"[5,4,0,1,5,0,5,4,2]","action_history":"[1,0,1,1,1,0,0,1]","door_history":"[1,0,1,1,1,0,0,1]","location_rts":"[1495,771,548,718,535,774,701,7718]","trial_type":"two-door-navigation","trial_index":39,"time_elapsed":3736857,"internal_node_id":"0.0-2.0-37.0"},{"group":"hexagon_tri","room_assignment":["yellow","green","grey","blue","red","purple"],"door_color_assignment":["white","black"],"door_generator_assignment":[0,1],"goal":1,"start":2,"action_noise":0.15,"location_history":"[2,3,4,0,5,0,1]","action_history":"[1,1,0,0,1,1]","door_history":"[1,1,0,0,1,1]","location_rts":"[611,405,143,216,149,221]","trial_type":"two-door-navigation","trial_index":40,"time_elapsed":3748227,"internal_node_id":"0.0-2.0-38.0"},{"group":"hexagon_tri","room_assignment":["yellow","green","grey","blue","red","purple"],"door_color_assignment":["white","black"],"door_generator_assignment":[0,1],"goal":4,"start":1,"action_noise":0.15,"location_history":"[1,3,4]","action_history":"[0,1]","door_history":"[0,1]","location_rts":"[405,109]","trial_type":"two-door-navigation","trial_index":41,"time_elapsed":3754281,"internal_node_id":"0.0-2.0-39.0"},{"group":"hexagon_tri","room_assignment":["yellow","green","grey","blue","red","purple"],"door_color_assignment":["white","black"],"door_generator_assignment":[0,1],"goal":3,"start":4,"action_noise":0.15,"location_history":"[4,2,1,3]","action_history":"[1,1,0]","door_history":"[1,1,0]","location_rts":"[568,398,866]","trial_type":"two-door-navigation","trial_index":42,"time_elapsed":3762674,"internal_node_id":"0.0-2.0-40.0"},{"group":"hexagon_tri","room_assignment":["yellow","green","grey","blue","red","purple"],"door_color_assignment":["white","black"],"door_generator_assignment":[0,1],"goal":5,"start":3,"action_noise":0.15,"location_history":"[3,4,2,1,3,4,2,1,3,4,0,1,3,4,0,5]","action_history":"[1,1,0,0,1,1,0,0,1,1,1,1,1,0,0]","door_history":"[1,1,0,0,1,1,0,0,1,1,1,1,1,0,0]","location_rts":"[423,369,321,237,288,280,375,202,179,295,45,148,304,271,98]","trial_type":"two-door-navigation","trial_index":43,"time_elapsed":3785321,"internal_node_id":"0.0-2.0-41.0"},{"group":"hexagon_tri","room_assignment":["yellow","green","grey","blue","red","purple"],"door_color_assignment":["white","black"],"door_generator_assignment":[0,1],"goal":3,"start":5,"action_noise":0.15,"location_history":"[5,4,2,1,3]","action_history":"[0,1,1,1]","door_history":"[0,1,1,1]","location_rts":"[1420,211,116,304]","trial_type":"two-door-navigation","trial_index":44,"time_elapsed":3794958,"internal_node_id":"0.0-2.0-42.0"},{"group":"hexagon_tri","room_assignment":["yellow","green","grey","blue","red","purple"],"door_color_assignment":["white","black"],"door_generator_assignment":[0,1],"goal":0,"start":3,"action_noise":0.15,"location_history":"[3,2,3,2,3,4,2,3,4,0]","action_history":"[0,0,1,1,1,1,1,1,0]","door_history":"[0,0,1,1,1,1,1,1,0]","location_rts":"[4563,299,623,167,291,490,290,760,689]","trial_type":"two-door-navigation","trial_index":45,"time_elapsed":3815818,"internal_node_id":"0.0-2.0-43.0"},{"group":"hexagon_tri","room_assignment":["yellow","green","grey","blue","red","purple"],"door_color_assignment":["white","black"],"door_generator_assignment":[0,1],"goal":2,"start":0,"action_noise":0.15,"location_history":"[0,1,3,2]","action_history":"[1,0,0]","door_history":"[1,0,0]","location_rts":"[508,571,376]","trial_type":"two-door-navigation","trial_index":46,"time_elapsed":3823838,"internal_node_id":"0.0-2.0-44.0"},{"group":"hexagon_tri","room_assignment":["yellow","green","grey","blue","red","purple"],"door_color_assignment":["white","black"],"door_generator_assignment":[0,1],"goal":4,"start":2,"action_noise":0.15,"location_history":"[2,3,4]","action_history":"[1,1]","door_history":"[1,1]","location_rts":"[837,384]","trial_type":"two-door-navigation","trial_index":47,"time_elapsed":3830601,"internal_node_id":"0.0-2.0-45.0"},{"group":"hexagon_tri","room_assignment":["yellow","green","grey","blue","red","purple"],"door_color_assignment":["white","black"],"door_generator_assignment":[0,1],"goal":1,"start":4,"action_noise":0.15,"location_history":"[4,0,1]","action_history":"[0,1]","door_history":"[0,1]","location_rts":"[361,427]","trial_type":"two-door-navigation","trial_index":48,"time_elapsed":3836934,"internal_node_id":"0.0-2.0-46.0"},{"group":"hexagon_tri","room_assignment":["yellow","green","grey","blue","red","purple"],"door_color_assignment":["white","black"],"door_generator_assignment":[0,1],"goal":4,"start":1,"action_noise":0.15,"location_history":"[1,3,4]","action_history":"[0,1]","door_history":"[0,1]","location_rts":"[299,457]","trial_type":"two-door-navigation","trial_index":49,"time_elapsed":3843232,"internal_node_id":"0.0-2.0-47.0"},{"group":"hexagon_tri","room_assignment":["yellow","green","grey","blue","red","purple"],"door_color_assignment":["white","black"],"door_generator_assignment":[0,1],"goal":3,"start":4,"action_noise":0.15,"location_history":"[4,2,3]","action_history":"[0,1]","door_history":"[0,1]","location_rts":"[235,113]","trial_type":"two-door-navigation","trial_index":50,"time_elapsed":3849125,"internal_node_id":"0.0-2.0-48.0"},{"group":"hexagon_tri","room_assignment":["yellow","green","grey","blue","red","purple"],"door_color_assignment":["white","black"],"door_generator_assignment":[0,1],"goal":5,"start":3,"action_noise":0.15,"location_history":"[3,4,0,5]","action_history":"[1,1,0]","door_history":"[1,1,0]","location_rts":"[720,413,1452]","trial_type":"two-door-navigation","trial_index":51,"time_elapsed":3858274,"internal_node_id":"0.0-2.0-49.0"},{"view_history":"[{\"page_index\":0,\"viewing_time\":3516}]","rt":3516,"trial_type":"instructions","trial_index":52,"time_elapsed":3862790,"internal_node_id":"0.0-3.0"},{"view_history":"[{\"page_index\":0,\"viewing_time\":34596},{\"page_index\":1,\"viewing_time\":33084}]","rt":67680,"trial_type":"instructions","trial_index":53,"time_elapsed":3931471,"internal_node_id":"0.0-4.0"},{"group":"hexagon_tri","fractal_assignment":["../images/blu_wht.png","../images/pnk_blu.png","../images/org_blu.png","../images/ylw_slt.png","../images/cyn_red.png","../images/gry_blk.png"],"mutagen_generator_assignment":[1,0],"goal":4,"start":0,"action_noise":0.15,"location_history":"[0,1,5,0,5,0,1,3,2,3,2,1,5,4]","action_history":"[1,1,1,0,0,1,0,0,1,0,0,1,0]","mutagen_history":"[0,0,0,1,1,0,1,1,0,1,1,0,1]","location_rts":"[2459,3631,1253,2231,709,874,580,766,1105,1353,791,675,499]","trial_type":"fractal-mutation","trial_index":54,"time_elapsed":3965178,"internal_node_id":"0.0-5.0-0.0"},{"group":"hexagon_tri","fractal_assignment":["../images/blu_wht.png","../images/pnk_blu.png","../images/org_blu.png","../images/ylw_slt.png","../images/cyn_red.png","../images/gry_blk.png"],"mutagen_generator_assignment":[1,0],"goal":3,"start":4,"action_noise":0.15,"location_history":"[4,0,1,5,4,2,1,3]","action_history":"[0,1,1,0,1,0,0]","mutagen_history":"[1,0,0,1,0,1,1]","location_rts":"[944,648,866,597,775,773,528]","trial_type":"fractal-mutation","trial_index":55,"time_elapsed":3980965,"internal_node_id":"0.0-5.0-1.0"},{"group":"hexagon_tri","fractal_assignment":["../images/blu_wht.png","../images/pnk_blu.png","../images/org_blu.png","../images/ylw_slt.png","../images/cyn_red.png","../images/gry_blk.png"],"mutagen_generator_assignment":[1,0],"goal":5,"start":3,"action_noise":0.15,"location_history":"[3,4,0,1,3,2,3,4,0,1,3,2,1,3,4,0,1,5]","action_history":"[1,1,1,1,0,1,1,0,1,1,0,0,0,1,0,1,1]","mutagen_history":"[0,0,0,0,1,0,0,1,0,0,1,1,1,0,1,0,0]","location_rts":"[2291,423,464,426,264,824,784,264,511,516,811,598,397,263,1141,3087,938]","trial_type":"fractal-mutation","trial_index":56,"time_elapsed":4015830,"internal_node_id":"0.0-5.0-2.0"},{"group":"hexagon_tri","fractal_assignment":["../images/blu_wht.png","../images/pnk_blu.png","../images/org_blu.png","../images/ylw_slt.png","../images/cyn_red.png","../images/gry_blk.png"],"mutagen_generator_assignment":[1,0],"goal":2,"start":5,"action_noise":0.15,"location_history":"[5,4,2]","action_history":"[0,1]","mutagen_history":"[1,0]","location_rts":"[1429,894]","trial_type":"fractal-mutation","trial_index":57,"time_elapsed":4023699,"internal_node_id":"0.0-5.0-3.0"},{"group":"hexagon_tri","fractal_assignment":["../images/blu_wht.png","../images/pnk_blu.png","../images/org_blu.png","../images/ylw_slt.png","../images/cyn_red.png","../images/gry_blk.png"],"mutagen_generator_assignment":[1,0],"goal":1,"start":2,"action_noise":0.15,"location_history":"[2,3,4,2,3,4,0,1]","action_history":"[1,1,1,1,0,1,1]","mutagen_history":"[0,0,0,0,1,0,0]","location_rts":"[1263,537,398,641,387,584,561]","trial_type":"fractal-mutation","trial_index":58,"time_elapsed":4038721,"internal_node_id":"0.0-5.0-4.0"},{"group":"hexagon_tri","fractal_assignment":["../images/blu_wht.png","../images/pnk_blu.png","../images/org_blu.png","../images/ylw_slt.png","../images/cyn_red.png","../images/gry_blk.png"],"mutagen_generator_assignment":[1,0],"goal":4,"start":1,"action_noise":0.15,"location_history":"[1,3,4]","action_history":"[0,1]","mutagen_history":"[1,0]","location_rts":"[1399,240]","trial_type":"fractal-mutation","trial_index":59,"time_elapsed":4045907,"internal_node_id":"0.0-5.0-5.0"},{"group":"hexagon_tri","fractal_assignment":["../images/blu_wht.png","../images/pnk_blu.png","../images/org_blu.png","../images/ylw_slt.png","../images/cyn_red.png","../images/gry_blk.png"],"mutagen_generator_assignment":[1,0],"goal":1,"start":4,"action_noise":0.15,"location_history":"[4,0,1]","action_history":"[0,1]","mutagen_history":"[1,0]","location_rts":"[1278,309]","trial_type":"fractal-mutation","trial_index":60,"time_elapsed":4053039,"internal_node_id":"0.0-5.0-6.0"},{"group":"hexagon_tri","fractal_assignment":["../images/blu_wht.png","../images/pnk_blu.png","../images/org_blu.png","../images/ylw_slt.png","../images/cyn_red.png","../images/gry_blk.png"],"mutagen_generator_assignment":[1,0],"goal":5,"start":1,"action_noise":0.15,"location_history":"[1,5]","action_history":"[1]","mutagen_history":"[0]","location_rts":"[2610]","trial_type":"fractal-mutation","trial_index":61,"time_elapsed":4060175,"internal_node_id":"0.0-5.0-7.0"},{"group":"hexagon_tri","fractal_assignment":["../images/blu_wht.png","../images/pnk_blu.png","../images/org_blu.png","../images/ylw_slt.png","../images/cyn_red.png","../images/gry_blk.png"],"mutagen_generator_assignment":[1,0],"goal":0,"start":5,"action_noise":0.15,"location_history":"[5,4,0]","action_history":"[0,0]","mutagen_history":"[1,1]","location_rts":"[1208,913]","trial_type":"fractal-mutation","trial_index":62,"time_elapsed":4067844,"internal_node_id":"0.0-5.0-8.0"},{"group":"hexagon_tri","fractal_assignment":["../images/blu_wht.png","../images/pnk_blu.png","../images/org_blu.png","../images/ylw_slt.png","../images/cyn_red.png","../images/gry_blk.png"],"mutagen_generator_assignment":[1,0],"goal":2,"start":0,"action_noise":0.15,"location_history":"[0,5,0,1,3,4,2]","action_history":"[0,1,1,0,1,1]","mutagen_history":"[1,0,0,1,0,0]","location_rts":"[2514,392,302,479,448,418]","trial_type":"fractal-mutation","trial_index":63,"time_elapsed":4082026,"internal_node_id":"0.0-5.0-9.0"},{"group":"hexagon_tri","fractal_assignment":["../images/blu_wht.png","../images/pnk_blu.png","../images/org_blu.png","../images/ylw_slt.png","../images/cyn_red.png","../images/gry_blk.png"],"mutagen_generator_assignment":[1,0],"goal":3,"start":2,"action_noise":0.15,"location_history":"[2,1,5,0,1,3]","action_history":"[0,1,1,1,1]","mutagen_history":"[1,0,0,0,0]","location_rts":"[1084,720,376,377,380]","trial_type":"fractal-mutation","trial_index":64,"time_elapsed":4093569,"internal_node_id":"0.0-5.0-10.0"},{"group":"hexagon_tri","fractal_assignment":["../images/blu_wht.png","../images/pnk_blu.png","../images/org_blu.png","../images/ylw_slt.png","../images/cyn_red.png","../images/gry_blk.png"],"mutagen_generator_assignment":[1,0],"goal":0,"start":3,"action_noise":0.15,"location_history":"[3,2,3,4,2,3,2,3,2,1,5,4,2,3,4,2,3,2,3,2,1,3,2,1,3,2,1,3,4,0]","action_history":"[0,1,1,1,1,1,1,0,1,1,1,1,1,1,0,1,0,1,0,0,1,1,0,0,0,0,0,0,0]","mutagen_history":"[1,0,0,0,0,0,0,1,0,0,0,0,0,0,1,0,1,0,1,1,0,0,1,1,1,1,1,1,1]","location_rts":"[984,77,273,147,335,311,415,9,307,123,222,356,365,543,325,425,404,375,74,291,658,438,758,324,135,338,176,492,412]","trial_type":"fractal-mutation","trial_index":65,"time_elapsed":4136786,"internal_node_id":"0.0-5.0-11.0"},{"group":"hexagon_tri","fractal_assignment":["../images/blu_wht.png","../images/pnk_blu.png","../images/org_blu.png","../images/ylw_slt.png","../images/cyn_red.png","../images/gry_blk.png"],"mutagen_generator_assignment":[1,0],"goal":2,"start":0,"action_noise":0.15,"location_history":"[0,5,4,2]","action_history":"[0,1,1]","mutagen_history":"[1,0,0]","location_rts":"[986,370,282]","trial_type":"fractal-mutation","trial_index":66,"time_elapsed":4144989,"internal_node_id":"0.0-5.0-12.0"},{"group":"hexagon_tri","fractal_assignment":["../images/blu_wht.png","../images/pnk_blu.png","../images/org_blu.png","../images/ylw_slt.png","../images/cyn_red.png","../images/gry_blk.png"],"mutagen_generator_assignment":[1,0],"goal":5,"start":2,"action_noise":0.15,"location_history":"[2,1,3,4,2,3,4,0,5]","action_history":"[0,1,1,1,1,1,0,0]","mutagen_history":"[1,0,0,0,0,0,1,1]","location_rts":"[508,235,285,271,332,467,1257,1868]","trial_type":"fractal-mutation","trial_index":67,"time_elapsed":4161889,"internal_node_id":"0.0-5.0-13.0"},{"group":"hexagon_tri","fractal_assignment":["../images/blu_wht.png","../images/pnk_blu.png","../images/org_blu.png","../images/ylw_slt.png","../images/cyn_red.png","../images/gry_blk.png"],"mutagen_generator_assignment":[1,0],"goal":4,"start":5,"action_noise":0.15,"location_history":"[5,0,5,0,1,3,2,1,3,2,1,5,0,5,0,1,5,4]","action_history":"[0,0,1,1,0,0,0,0,0,0,1,1,0,1,1,1,0]","mutagen_history":"[1,1,0,0,1,1,1,1,1,1,0,0,1,0,0,0,1]","location_rts":"[1325,649,618,385,396,388,375,511,379,677,400,579,326,394,304,340,464]","trial_type":"fractal-mutation","trial_index":68,"time_elapsed":4191258,"internal_node_id":"0.0-5.0-14.0"},{"group":"hexagon_tri","fractal_assignment":["../images/blu_wht.png","../images/pnk_blu.png","../images/org_blu.png","../images/ylw_slt.png","../images/cyn_red.png","../images/gry_blk.png"],"mutagen_generator_assignment":[1,0],"goal":3,"start":4,"action_noise":0.15,"location_history":"[4,0,1,3]","action_history":"[0,1,1]","mutagen_history":"[1,0,0]","location_rts":"[672,242,276]","trial_type":"fractal-mutation","trial_index":69,"time_elapsed":4199013,"internal_node_id":"0.0-5.0-15.0"},{"group":"hexagon_tri","fractal_assignment":["../images/blu_wht.png","../images/pnk_blu.png","../images/org_blu.png","../images/ylw_slt.png","../images/cyn_red.png","../images/gry_blk.png"],"mutagen_generator_assignment":[1,0],"goal":1,"start":3,"action_noise":0.15,"location_history":"[3,2,3,4,2,1]","action_history":"[0,1,1,1,1]","mutagen_history":"[1,0,0,0,0]","location_rts":"[580,2477,540,692,431]","trial_type":"fractal-mutation","trial_index":70,"time_elapsed":4212341,"internal_node_id":"0.0-5.0-16.0"},{"group":"hexagon_tri","fractal_assignment":["../images/blu_wht.png","../images/pnk_blu.png","../images/org_blu.png","../images/ylw_slt.png","../images/cyn_red.png","../images/gry_blk.png"],"mutagen_generator_assignment":[1,0],"goal":5,"start":1,"action_noise":0.15,"location_history":"[1,3,4,0,1,5]","action_history":"[0,1,1,1,1]","mutagen_history":"[1,0,0,0,0]","location_rts":"[908,800,250,588,630]","trial_type":"fractal-mutation","trial_index":71,"time_elapsed":4224125,"internal_node_id":"0.0-5.0-17.0"},{"group":"hexagon_tri","fractal_assignment":["../images/blu_wht.png","../images/pnk_blu.png","../images/org_blu.png","../images/ylw_slt.png","../images/cyn_red.png","../images/gry_blk.png"],"mutagen_generator_assignment":[1,0],"goal":4,"start":5,"action_noise":0.15,"location_history":"[5,4]","action_history":"[0]","mutagen_history":"[1]","location_rts":"[649]","trial_type":"fractal-mutation","trial_index":72,"time_elapsed":4229298,"internal_node_id":"0.0-5.0-18.0"},{"group":"hexagon_tri","fractal_assignment":["../images/blu_wht.png","../images/pnk_blu.png","../images/org_blu.png","../images/ylw_slt.png","../images/cyn_red.png","../images/gry_blk.png"],"mutagen_generator_assignment":[1,0],"goal":0,"start":4,"action_noise":0.15,"location_history":"[4,0]","action_history":"[0]","mutagen_history":"[1]","location_rts":"[640]","trial_type":"fractal-mutation","trial_index":73,"time_elapsed":4234463,"internal_node_id":"0.0-5.0-19.0"},{"group":"hexagon_tri","fractal_assignment":["../images/blu_wht.png","../images/pnk_blu.png","../images/org_blu.png","../images/ylw_slt.png","../images/cyn_red.png","../images/gry_blk.png"],"mutagen_generator_assignment":[1,0],"goal":1,"start":0,"action_noise":0.15,"location_history":"[0,5,4,2,3,2,1]","action_history":"[0,0,0,1,0,0]","mutagen_history":"[1,1,1,0,1,1]","location_rts":"[732,1093,351,278,2139,902]","trial_type":"fractal-mutation","trial_index":74,"time_elapsed":4249587,"internal_node_id":"0.0-5.0-20.0"},{"group":"hexagon_tri","fractal_assignment":["../images/blu_wht.png","../images/pnk_blu.png","../images/org_blu.png","../images/ylw_slt.png","../images/cyn_red.png","../images/gry_blk.png"],"mutagen_generator_assignment":[1,0],"goal":3,"start":1,"action_noise":0.15,"location_history":"[1,3]","action_history":"[0]","mutagen_history":"[1]","location_rts":"[451]","trial_type":"fractal-mutation","trial_index":75,"time_elapsed":4254563,"internal_node_id":"0.0-5.0-21.0"},{"group":"hexagon_tri","fractal_assignment":["../images/blu_wht.png","../images/pnk_blu.png","../images/org_blu.png","../images/ylw_slt.png","../images/cyn_red.png","../images/gry_blk.png"],"mutagen_generator_assignment":[1,0],"goal":2,"start":3,"action_noise":0.15,"location_history":"[3,2]","action_history":"[0]","mutagen_history":"[1]","location_rts":"[376]","trial_type":"fractal-mutation","trial_index":76,"time_elapsed":4259465,"internal_node_id":"0.0-5.0-22.0"},{"group":"hexagon_tri","fractal_assignment":["../images/blu_wht.png","../images/pnk_blu.png","../images/org_blu.png","../images/ylw_slt.png","../images/cyn_red.png","../images/gry_blk.png"],"mutagen_generator_assignment":[1,0],"goal":0,"start":2,"action_noise":0.15,"location_history":"[2,3,2,1,5,0]","action_history":"[1,0,0,1,1]","mutagen_history":"[0,1,1,0,0]","location_rts":"[352,701,307,23,821]","trial_type":"fractal-mutation","trial_index":77,"time_elapsed":4270277,"internal_node_id":"0.0-5.0-23.0"},{"group":"hexagon_tri","fractal_assignment":["../images/blu_wht.png","../images/pnk_blu.png","../images/org_blu.png","../images/ylw_slt.png","../images/cyn_red.png","../images/gry_blk.png"],"mutagen_generator_assignment":[1,0],"goal":3,"start":0,"action_noise":0.15,"location_history":"[0,5,4,2,3]","action_history":"[0,0,1,1]","mutagen_history":"[1,1,0,0]","location_rts":"[431,604,393,407]","trial_type":"fractal-mutation","trial_index":78,"time_elapsed":4279699,"internal_node_id":"0.0-5.0-24.0"},{"group":"hexagon_tri","fractal_assignment":["../images/blu_wht.png","../images/pnk_blu.png","../images/org_blu.png","../images/ylw_slt.png","../images/cyn_red.png","../images/gry_blk.png"],"mutagen_generator_assignment":[1,0],"goal":1,"start":3,"action_noise":0.15,"location_history":"[3,2,1]","action_history":"[0,0]","mutagen_history":"[1,1]","location_rts":"[403,373]","trial_type":"fractal-mutation","trial_index":79,"time_elapsed":4286022,"internal_node_id":"0.0-5.0-25.0"},{"group":"hexagon_tri","fractal_assignment":["../images/blu_wht.png","../images/pnk_blu.png","../images/org_blu.png","../images/ylw_slt.png","../images/cyn_red.png","../images/gry_blk.png"],"mutagen_generator_assignment":[1,0],"goal":2,"start":1,"action_noise":0.15,"location_history":"[1,5,0,1,5,4,0,1,5,0,5,4,2]","action_history":"[0,1,1,1,0,0,0,1,1,0,0,1]","mutagen_history":"[1,0,0,0,1,1,1,0,0,1,1,0]","location_rts":"[299,169,54,897,116,107,163,393,536,788,1060,298]","trial_type":"fractal-mutation","trial_index":80,"time_elapsed":4306662,"internal_node_id":"0.0-5.0-26.0"},{"group":"hexagon_tri","fractal_assignment":["../images/blu_wht.png","../images/pnk_blu.png","../images/org_blu.png","../images/ylw_slt.png","../images/cyn_red.png","../images/gry_blk.png"],"mutagen_generator_assignment":[1,0],"goal":5,"start":2,"action_noise":0.15,"location_history":"[2,1,3,4,0,5]","action_history":"[0,0,0,1,0]","mutagen_history":"[1,1,1,0,1]","location_rts":"[464,142,404,1091,132]","trial_type":"fractal-mutation","trial_index":81,"time_elapsed":4317505,"internal_node_id":"0.0-5.0-27.0"},{"group":"hexagon_tri","fractal_assignment":["../images/blu_wht.png","../images/pnk_blu.png","../images/org_blu.png","../images/ylw_slt.png","../images/cyn_red.png","../images/gry_blk.png"],"mutagen_generator_assignment":[1,0],"goal":4,"start":5,"action_noise":0.15,"location_history":"[5,0,1,3,4]","action_history":"[1,0,0,1]","mutagen_history":"[0,1,1,0]","location_rts":"[373,48,262,995]","trial_type":"fractal-mutation","trial_index":82,"time_elapsed":4326771,"internal_node_id":"0.0-5.0-28.0"},{"group":"hexagon_tri","fractal_assignment":["../images/blu_wht.png","../images/pnk_blu.png","../images/org_blu.png","../images/ylw_slt.png","../images/cyn_red.png","../images/gry_blk.png"],"mutagen_generator_assignment":[1,0],"goal":5,"start":4,"action_noise":0.15,"location_history":"[4,2,1,3,2,3,4,0,5]","action_history":"[1,0,0,0,1,1,0,0]","mutagen_history":"[0,1,1,1,0,0,1,1]","location_rts":"[293,190,82,176,43,391,747,616]","trial_type":"fractal-mutation","trial_index":83,"time_elapsed":4340981,"internal_node_id":"0.0-5.0-29.0"},{"group":"hexagon_tri","fractal_assignment":["../images/blu_wht.png","../images/pnk_blu.png","../images/org_blu.png","../images/ylw_slt.png","../images/cyn_red.png","../images/gry_blk.png"],"mutagen_generator_assignment":[1,0],"goal":3,"start":5,"action_noise":0.15,"location_history":"[5,4,2,3]","action_history":"[0,0,1]","mutagen_history":"[1,1,0]","location_rts":"[248,920,748]","trial_type":"fractal-mutation","trial_index":84,"time_elapsed":4349465,"internal_node_id":"0.0-5.0-30.0"},{"group":"hexagon_tri","fractal_assignment":["../images/blu_wht.png","../images/pnk_blu.png","../images/org_blu.png","../images/ylw_slt.png","../images/cyn_red.png","../images/gry_blk.png"],"mutagen_generator_assignment":[1,0],"goal":0,"start":3,"action_noise":0.15,"location_history":"[3,4,0]","action_history":"[1,0]","mutagen_history":"[0,1]","location_rts":"[60,922]","trial_type":"fractal-mutation","trial_index":85,"time_elapsed":4355990,"internal_node_id":"0.0-5.0-31.0"},{"group":"hexagon_tri","fractal_assignment":["../images/blu_wht.png","../images/pnk_blu.png","../images/org_blu.png","../images/ylw_slt.png","../images/cyn_red.png","../images/gry_blk.png"],"mutagen_generator_assignment":[1,0],"goal":4,"start":0,"action_noise":0.15,"location_history":"[0,1,3,2,3,4]","action_history":"[1,1,0,0,1]","mutagen_history":"[0,0,1,1,0]","location_rts":"[488,701,524,126,427]","trial_type":"fractal-mutation","trial_index":86,"time_elapsed":4366867,"internal_node_id":"0.0-5.0-32.0"},{"group":"hexagon_tri","fractal_assignment":["../images/blu_wht.png","../images/pnk_blu.png","../images/org_blu.png","../images/ylw_slt.png","../images/cyn_red.png","../images/gry_blk.png"],"mutagen_generator_assignment":[1,0],"goal":1,"start":4,"action_noise":0.15,"location_history":"[4,0,5,0,1]","action_history":"[0,0,1,1]","mutagen_history":"[1,1,0,0]","location_rts":"[906,689,250,784]","trial_type":"fractal-mutation","trial_index":87,"time_elapsed":4377081,"internal_node_id":"0.0-5.0-33.0"},{"group":"hexagon_tri","fractal_assignment":["../images/blu_wht.png","../images/pnk_blu.png","../images/org_blu.png","../images/ylw_slt.png","../images/cyn_red.png","../images/gry_blk.png"],"mutagen_generator_assignment":[1,0],"goal":2,"start":1,"action_noise":0.15,"location_history":"[1,3,2]","action_history":"[0,1]","mutagen_history":"[1,0]","location_rts":"[324,1380]","trial_type":"fractal-mutation","trial_index":88,"time_elapsed":4384329,"internal_node_id":"0.0-5.0-34.0"},{"group":"hexagon_tri","fractal_assignment":["../images/blu_wht.png","../images/pnk_blu.png","../images/org_blu.png","../images/ylw_slt.png","../images/cyn_red.png","../images/gry_blk.png"],"mutagen_generator_assignment":[1,0],"goal":0,"start":2,"action_noise":0.15,"location_history":"[2,1,3,4,0]","action_history":"[0,0,0,0]","mutagen_history":"[1,1,1,1]","location_rts":"[470,289,88,466]","trial_type":"fractal-mutation","trial_index":89,"time_elapsed":4393230,"internal_node_id":"0.0-5.0-35.0"},{"group":"hexagon_tri","fractal_assignment":["../images/blu_wht.png","../images/pnk_blu.png","../images/org_blu.png","../images/ylw_slt.png","../images/cyn_red.png","../images/gry_blk.png"],"mutagen_generator_assignment":[1,0],"goal":5,"start":0,"action_noise":0.15,"location_history":"[0,5]","action_history":"[0]","mutagen_history":"[1]","location_rts":"[438]","trial_type":"fractal-mutation","trial_index":90,"time_elapsed":4398193,"internal_node_id":"0.0-5.0-36.0"},{"group":"hexagon_tri","fractal_assignment":["../images/blu_wht.png","../images/pnk_blu.png","../images/org_blu.png","../images/ylw_slt.png","../images/cyn_red.png","../images/gry_blk.png"],"mutagen_generator_assignment":[1,0],"goal":2,"start":5,"action_noise":0.15,"location_history":"[5,0,1,5,0,5,4,2]","action_history":"[1,1,1,1,0,0,1]","mutagen_history":"[0,0,0,0,1,1,0]","location_rts":"[247,600,124,142,279,425,219]","trial_type":"fractal-mutation","trial_index":91,"time_elapsed":4410881,"internal_node_id":"0.0-5.0-37.0"},{"group":"hexagon_tri","fractal_assignment":["../images/blu_wht.png","../images/pnk_blu.png","../images/org_blu.png","../images/ylw_slt.png","../images/cyn_red.png","../images/gry_blk.png"],"mutagen_generator_assignment":[1,0],"goal":1,"start":2,"action_noise":0.15,"location_history":"[2,1]","action_history":"[0]","mutagen_history":"[1]","location_rts":"[437]","trial_type":"fractal-mutation","trial_index":92,"time_elapsed":4415841,"internal_node_id":"0.0-5.0-38.0"},{"group":"hexagon_tri","fractal_assignment":["../images/blu_wht.png","../images/pnk_blu.png","../images/org_blu.png","../images/ylw_slt.png","../images/cyn_red.png","../images/gry_blk.png"],"mutagen_generator_assignment":[1,0],"goal":4,"start":1,"action_noise":0.15,"location_history":"[1,3,4]","action_history":"[0,1]","mutagen_history":"[1,0]","location_rts":"[142,330]","trial_type":"fractal-mutation","trial_index":93,"time_elapsed":4421859,"internal_node_id":"0.0-5.0-39.0"},{"group":"hexagon_tri","fractal_assignment":["../images/blu_wht.png","../images/pnk_blu.png","../images/org_blu.png","../images/ylw_slt.png","../images/cyn_red.png","../images/gry_blk.png"],"mutagen_generator_assignment":[1,0],"goal":3,"start":4,"action_noise":0.15,"location_history":"[4,0,5,4,2,3]","action_history":"[0,0,0,1,1]","mutagen_history":"[1,1,1,0,0]","location_rts":"[462,377,450,261,152]","trial_type":"fractal-mutation","trial_index":94,"time_elapsed":4432169,"internal_node_id":"0.0-5.0-40.0"},{"group":"hexagon_tri","fractal_assignment":["../images/blu_wht.png","../images/pnk_blu.png","../images/org_blu.png","../images/ylw_slt.png","../images/cyn_red.png","../images/gry_blk.png"],"mutagen_generator_assignment":[1,0],"goal":5,"start":3,"action_noise":0.15,"location_history":"[3,2,3,4,2,1,3,4,0,5]","action_history":"[0,1,1,1,0,0,1,0,0]","mutagen_history":"[1,0,0,0,1,1,0,1,1]","location_rts":"[67,1105,245,539,106,337,126,612,16]","trial_type":"fractal-mutation","trial_index":95,"time_elapsed":4448017,"internal_node_id":"0.0-5.0-41.0"},{"group":"hexagon_tri","fractal_assignment":["../images/blu_wht.png","../images/pnk_blu.png","../images/org_blu.png","../images/ylw_slt.png","../images/cyn_red.png","../images/gry_blk.png"],"mutagen_generator_assignment":[1,0],"goal":3,"start":5,"action_noise":0.15,"location_history":"[5,0,5,4,0,1,5,4,2,3]","action_history":"[1,0,0,0,0,1,1,1,1]","mutagen_history":"[0,1,1,1,1,0,0,0,0]","location_rts":"[1682,345,173,51,441,288,51,306,238]","trial_type":"fractal-mutation","trial_index":96,"time_elapsed":4464285,"internal_node_id":"0.0-5.0-42.0"},{"group":"hexagon_tri","fractal_assignment":["../images/blu_wht.png","../images/pnk_blu.png","../images/org_blu.png","../images/ylw_slt.png","../images/cyn_red.png","../images/gry_blk.png"],"mutagen_generator_assignment":[1,0],"goal":0,"start":3,"action_noise":0.15,"location_history":"[3,2,1,3,4,2,1,5,4,0]","action_history":"[0,0,0,1,1,0,1,0,0]","mutagen_history":"[1,1,1,0,0,1,0,1,1]","location_rts":"[209,553,222,242,944,379,1650,35,275]","trial_type":"fractal-mutation","trial_index":97,"time_elapsed":4481486,"internal_node_id":"0.0-5.0-43.0"},{"group":"hexagon_tri","fractal_assignment":["../images/blu_wht.png","../images/pnk_blu.png","../images/org_blu.png","../images/ylw_slt.png","../images/cyn_red.png","../images/gry_blk.png"],"mutagen_generator_assignment":[1,0],"goal":2,"start":0,"action_noise":0.15,"location_history":"[0,5,4,0,1,5,0,1,3,2]","action_history":"[0,0,1,1,1,1,1,0,0]","mutagen_history":"[1,1,0,0,0,0,0,1,1]","location_rts":"[17,20,84,204,45,2,253,104,236]","trial_type":"fractal-mutation","trial_index":98,"time_elapsed":4495148,"internal_node_id":"0.0-5.0-44.0"},{"group":"hexagon_tri","fractal_assignment":["../images/blu_wht.png","../images/pnk_blu.png","../images/org_blu.png","../images/ylw_slt.png","../images/cyn_red.png","../images/gry_blk.png"],"mutagen_generator_assignment":[1,0],"goal":4,"start":2,"action_noise":0.15,"location_history":"[2,3,2,3,2,1,3,2,3,2,1,3,2,1,5,0,1,3,2,1,5,0,5,0,5,0,5,4]","action_history":"[1,0,1,0,0,0,1,1,0,0,0,1,0,1,0,0,0,0,0,1,1,0,0,1,1,1,1]","mutagen_history":"[0,1,0,1,1,1,0,0,1,1,1,0,1,0,1,1,1,1,1,0,0,1,1,0,0,0,0]","location_rts":"[624,75,125,20,212,213,31,102,487,351,322,10,1040,704,540,80,602,374,155,452,377,400,93,193,184,146,202]","trial_type":"fractal-mutation","trial_index":99,"time_elapsed":4534340,"internal_node_id":"0.0-5.0-45.0"},{"group":"hexagon_tri","fractal_assignment":["../images/blu_wht.png","../images/pnk_blu.png","../images/org_blu.png","../images/ylw_slt.png","../images/cyn_red.png","../images/gry_blk.png"],"mutagen_generator_assignment":[1,0],"goal":1,"start":4,"action_noise":0.15,"location_history":"[4,0,5,4,0,5,0,1]","action_history":"[0,0,0,0,1,1,1]","mutagen_history":"[1,1,1,1,0,0,0]","location_rts":"[90,201,26,62,226,177,248]","trial_type":"fractal-mutation","trial_index":100,"time_elapsed":4546021,"internal_node_id":"0.0-5.0-46.0"},{"group":"hexagon_tri","fractal_assignment":["../images/blu_wht.png","../images/pnk_blu.png","../images/org_blu.png","../images/ylw_slt.png","../images/cyn_red.png","../images/gry_blk.png"],"mutagen_generator_assignment":[1,0],"goal":4,"start":1,"action_noise":0.15,"location_history":"[1,3,2,1,5,4]","action_history":"[0,0,0,1,1]","mutagen_history":"[1,1,1,0,0]","location_rts":"[496,0,51,76,130]","trial_type":"fractal-mutation","trial_index":101,"time_elapsed":4555382,"internal_node_id":"0.0-5.0-47.0"},{"group":"hexagon_tri","fractal_assignment":["../images/blu_wht.png","../images/pnk_blu.png","../images/org_blu.png","../images/ylw_slt.png","../images/cyn_red.png","../images/gry_blk.png"],"mutagen_generator_assignment":[1,0],"goal":3,"start":4,"action_noise":0.15,"location_history":"[4,0,5,4,0,5,0,1,5,0,1,5,4,0,5,4,0,5,0,1,5,0,5,4,0,1,5,0,1,5,0,1,3]","action_history":"[0,0,0,0,0,1,1,1,1,1,1,0,0,0,1,0,0,1,1,1,1,0,0,0,1,0,1,1,1,1,0,0]","mutagen_history":"[1,1,1,1,1,0,0,0,0,0,0,1,1,1,0,1,1,0,0,0,0,1,1,1,0,1,0,0,0,0,1,1]","location_rts":"[682,226,284,4,199,331,284,217,56,245,295,92,204,33,228,176,211,47,186,238,588,133,146,81,193,92,135,42,299,348,121,85]","trial_type":"fractal-mutation","trial_index":102,"time_elapsed":4598067,"internal_node_id":"0.0-5.0-48.0"},{"group":"hexagon_tri","fractal_assignment":["../images/blu_wht.png","../images/pnk_blu.png","../images/org_blu.png","../images/ylw_slt.png","../images/cyn_red.png","../images/gry_blk.png"],"mutagen_generator_assignment":[1,0],"goal":5,"start":3,"action_noise":0.15,"location_history":"[3,4,0,1,3,2,1,5]","action_history":"[0,0,1,1,1,1,1]","mutagen_history":"[1,1,0,0,0,0,0]","location_rts":"[346,79,69,249,258,86,323]","trial_type":"fractal-mutation","trial_index":103,"time_elapsed":4610127,"internal_node_id":"0.0-5.0-49.0"},{"view_history":"[{\"page_index\":0,\"viewing_time\":9044}]","rt":9045,"trial_type":"instructions","trial_index":104,"time_elapsed":4620172,"internal_node_id":"0.0-6.0"},{"rt":7949,"responses":"{\"Q0\":\"Nice study!\"}","trial_type":"survey-text","trial_index":105,"time_elapsed":4629125,"internal_node_id":"0.0-7.0"}]