[{"view_history":"[{\"page_index\":0,\"viewing_time\":3103},{\"page_index\":1,\"viewing_time\":17845},{\"page_index\":2,\"viewing_time\":13005},{\"page_index\":3,\"viewing_time\":4450}]","rt":38403,"trial_type":"instructions","trial_index":0,"time_elapsed":38403,"internal_node_id":"0.0-0.0"},{"view_history":"[{\"page_index\":0,\"viewing_time\":1694},{\"page_index\":1,\"viewing_time\":21464}]","rt":23159,"trial_type":"instructions","trial_index":1,"time_elapsed":62564,"internal_node_id":"0.0-1.0"},{"group":"hexagon_tri","room_assignment":["blue","purple","green","yellow","red","grey"],"door_color_assignment":["black","white"],"door_generator_assignment":[0,1],"goal":4,"start":0,"action_noise":0.15,"location_history":"[0,1,5,0,1,3,4]","action_history":"[1,1,1,1,0,1]","door_history":"[1,1,1,1,0,1]","location_rts":"[977,1506,491,1005,911,1181]","trial_type":"two-door-navigation","trial_index":2,"time_elapsed":78267,"internal_node_id":"0.0-2.0-0.0"},{"group":"hexagon_tri","room_assignment":["blue","purple","green","yellow","red","grey"],"door_color_assignment":["black","white"],"door_generator_assignment":[0,1],"goal":3,"start":4,"action_noise":0.15,"location_history":"[4,2,1,5,0,1,3]","action_history":"[1,0,1,1,1,0]","door_history":"[1,0,1,1,1,0]","location_rts":"[3094,546,618,1544,348,765]","trial_type":"two-door-navigation","trial_index":3,"time_elapsed":94811,"internal_node_id":"0.0-2.0-1.0"},{"group":"hexagon_tri","room_assignment":["blue","purple","green","yellow","red","grey"],"door_color_assignment":["black","white"],"door_generator_assignment":[0,1],"goal":5,"start":3,"action_noise":0.15,"location_history":"[3,4,2,3,4,2,3,4,0,1,5]","action_history":"[1,1,1,0,1,1,1,0,1,1]","door_history":"[1,1,1,0,1,1,1,0,1,1]","location_rts":"[1814,341,460,811,315,360,301,916,87,314]","trial_type":"two-door-navigation","trial_index":4,"time_elapsed":114233,"internal_node_id":"0.0-2.0-2.0"},{"group":"hexagon_tri","room_assignment":["blue","purple","green","yellow","red","grey"],"door_color_assignment":["black","white"],"door_generator_assignment":[0,1],"goal":2,"start":5,"action_noise":0.15,"location_history":"[5,4,2]","action_history":"[0,1]","door_history":"[0,1]","location_rts":"[2010,337]","trial_type":"two-door-navigation","trial_index":5,"time_elapsed":122123,"internal_node_id":"0.0-2.0-3.0"},{"group":"hexagon_tri","room_assignment":["blue","purple","green","yellow","red","grey"],"door_color_assignment":["black","white"],"door_generator_assignment":[0,1],"goal":1,"start":2,"action_noise":0.15,"location_history":"[2,1]","action_history":"[0]","door_history":"[0]","location_rts":"[1402]","trial_type":"two-door-navigation","trial_index":6,"time_elapsed":128049,"internal_node_id":"0.0-2.0-4.0"},{"group":"hexagon_tri","room_assignment":["blue","purple","green","yellow","red","grey"],"door_color_assignment":["black","white"],"door_generator_assignment":[0,1],"goal":4,"start":1,"action_noise":0.15,"location_history":"[1,5,0,5,0,1,3,4]","action_history":"[0,1,0,1,1,0,1]","door_history":"[0,1,0,1,1,0,1]","location_rts":"[1663,302,1041,320,376,385,327]","trial_type":"two-door-navigation","trial_index":7,"time_elapsed":143105,"internal_node_id":"0.0-2.0-5.0"},{"group":"hexagon_tri","room_assignment":["blue","purple","green","yellow","red","grey"],"door_color_assignment":["black","white"],"door_generator_assignment":[0,1],"goal":1,"start":4,"action_noise":0.15,"location_history":"[4,0,1]","action_history":"[0,1]","door_history":"[0,1]","location_rts":"[1770,648]","trial_type":"two-door-navigation","trial_index":8,"time_elapsed":151066,"internal_node_id":"0.0-2.0-6.0"},{"group":"hexagon_tri","room_assignment":["blue","purple","green","yellow","red","grey"],"door_color_assignment":["black","white"],"door_generator_assignment":[0,1],"goal":5,"start":1,"action_noise":0.15,"location_history":"[1,3,2,3,2,1,5]","action_history":"[0,0,1,1,0,1]","door_history":"[0,0,1,1,0,1]","location_rts":"[1150,723,285,275,625,111]","trial_type":"two-door-navigation","trial_index":9,"time_elapsed":163866,"internal_node_id":"0.0-2.0-7.0"},{"group":"hexagon_tri","room_assignment":["blue","purple","green","yellow","red","grey"],"door_color_assignment":["black","white"],"door_generator_assignment":[0,1],"goal":0,"start":5,"action_noise":0.15,"location_history":"[5,4,2,1,5,4,2,3,4,2,3,4,2,3,4,0]","action_history":"[0,1,1,1,0,1,1,1,1,1,1,0,1,1,0]","door_history":"[0,1,1,1,0,1,1,1,1,1,1,0,1,1,0]","location_rts":"[1097,332,299,339,357,263,351,391,305,414,789,55,110,87,102]","trial_type":"two-door-navigation","trial_index":10,"time_elapsed":187976,"internal_node_id":"0.0-2.0-8.0"},{"group":"hexagon_tri","room_assignment":["blue","purple","green","yellow","red","grey"],"door_color_assignment":["black","white"],"door_generator_assignment":[0,1],"goal":2,"start":0,"action_noise":0.15,"location_history":"[0,5,0,1,5,0,5,0,5,4,0,1,3,2]","action_history":"[0,1,1,1,1,0,1,0,0,0,1,1,1]","door_history":"[0,1,1,1,1,0,1,0,0,0,1,1,1]","location_rts":"[1542,346,14,265,287,59,330,331,801,764,570,243,116]","trial_type":"two-door-navigation","trial_index":11,"time_elapsed":210404,"internal_node_id":"0.0-2.0-9.0"},{"group":"hexagon_tri","room_assignment":["blue","purple","green","yellow","red","grey"],"door_color_assignment":["black","white"],"door_generator_assignment":[0,1],"goal":3,"start":2,"action_noise":0.15,"location_history":"[2,1,5,4,2,3]","action_history":"[0,1,1,1,1]","door_history":"[0,1,1,1,1]","location_rts":"[1830,93,216,82,239]","trial_type":"two-door-navigation","trial_index":12,"time_elapsed":221468,"internal_node_id":"0.0-2.0-10.0"},{"group":"hexagon_tri","room_assignment":["blue","purple","green","yellow","red","grey"],"door_color_assignment":["black","white"],"door_generator_assignment":[0,1],"goal":0,"start":3,"action_noise":0.15,"location_history":"[3,2,1,5,0]","action_history":"[0,1,1,1]","door_history":"[0,1,1,1]","location_rts":"[955,438,201,264]","trial_type":"two-door-navigation","trial_index":13,"time_elapsed":230916,"internal_node_id":"0.0-2.0-11.0"},{"group":"hexagon_tri","room_assignment":["blue","purple","green","yellow","red","grey"],"door_color_assignment":["black","white"],"door_generator_assignment":[0,1],"goal":2,"start":0,"action_noise":0.15,"location_history":"[0,1,5,0,5,0,5,4,0,1,5,0,5,0,1,3,4,2]","action_history":"[1,1,1,0,1,0,0,1,1,1,1,0,1,1,0,1,1]","door_history":"[1,1,1,0,1,0,0,1,1,1,1,0,1,1,0,1,1]","location_rts":"[1299,296,305,181,295,676,543,529,449,475,80,191,103,128,83,154,272]","trial_type":"two-door-navigation","trial_index":14,"time_elapsed":257815,"internal_node_id":"0.0-2.0-12.0"},{"group":"hexagon_tri","room_assignment":["blue","purple","green","yellow","red","grey"],"door_color_assignment":["black","white"],"door_generator_assignment":[0,1],"goal":5,"start":2,"action_noise":0.15,"location_history":"[2,1,3,4,2,1,5]","action_history":"[0,1,1,1,0,1]","door_history":"[0,1,1,1,0,1]","location_rts":"[1622,322,607,330,500,152]","trial_type":"two-door-navigation","trial_index":15,"time_elapsed":270970,"internal_node_id":"0.0-2.0-13.0"},{"group":"hexagon_tri","room_assignment":["blue","purple","green","yellow","red","grey"],"door_color_assignment":["black","white"],"door_generator_assignment":[0,1],"goal":4,"start":5,"action_noise":0.15,"location_history":"[5,4]","action_history":"[0]","door_history":"[0]","location_rts":"[1396]","trial_type":"two-door-navigation","trial_index":16,"time_elapsed":276890,"internal_node_id":"0.0-2.0-14.0"},{"group":"hexagon_tri","room_assignment":["blue","purple","green","yellow","red","grey"],"door_color_assignment":["black","white"],"door_generator_assignment":[0,1],"goal":3,"start":4,"action_noise":0.15,"location_history":"[4,2,3]","action_history":"[1,1]","door_history":"[1,1]","location_rts":"[1498,336]","trial_type":"two-door-navigation","trial_index":17,"time_elapsed":284269,"internal_node_id":"0.0-2.0-15.0"},{"group":"hexagon_tri","room_assignment":["blue","purple","green","yellow","red","grey"],"door_color_assignment":["black","white"],"door_generator_assignment":[0,1],"goal":1,"start":3,"action_noise":0.15,"location_history":"[3,2,1]","action_history":"[0,1]","door_history":"[0,1]","location_rts":"[1265,328]","trial_type":"two-door-navigation","trial_index":18,"time_elapsed":291404,"internal_node_id":"0.0-2.0-16.0"},{"group":"hexagon_tri","room_assignment":["blue","purple","green","yellow","red","grey"],"door_color_assignment":["black","white"],"door_generator_assignment":[0,1],"goal":5,"start":1,"action_noise":0.15,"location_history":"[1,3,2,3,2,1,3,4,2,3,2,3,2,3,2,1,5]","action_history":"[0,0,0,0,0,1,1,1,1,0,1,0,1,1,0,1]","door_history":"[0,0,0,0,0,1,1,1,1,0,1,0,1,1,0,1]","location_rts":"[1033,181,455,590,438,565,311,304,336,278,24,671,47,54,84,436]","trial_type":"two-door-navigation","trial_index":19,"time_elapsed":317045,"internal_node_id":"0.0-2.0-17.0"},{"group":"hexagon_tri","room_assignment":["blue","purple","green","yellow","red","grey"],"door_color_assignment":["black","white"],"door_generator_assignment":[0,1],"goal":4,"start":5,"action_noise":0.15,"location_history":"[5,4]","action_history":"[0]","door_history":"[0]","location_rts":"[1758]","trial_type":"two-door-navigation","trial_index":20,"time_elapsed":323329,"internal_node_id":"0.0-2.0-18.0"},{"group":"hexagon_tri","room_assignment":["blue","purple","green","yellow","red","grey"],"door_color_assignment":["black","white"],"door_generator_assignment":[0,1],"goal":0,"start":4,"action_noise":0.15,"location_history":"[4,2,3,4,2,1,5,0]","action_history":"[1,1,1,1,0,1,1]","door_history":"[1,1,1,1,0,1,1]","location_rts":"[3028,304,277,304,229,241,12]","trial_type":"two-door-navigation","trial_index":21,"time_elapsed":338381,"internal_node_id":"0.0-2.0-19.0"},{"group":"hexagon_tri","room_assignment":["blue","purple","green","yellow","red","grey"],"door_color_assignment":["black","white"],"door_generator_assignment":[0,1],"goal":1,"start":0,"action_noise":0.15,"location_history":"[0,1]","action_history":"[1]","door_history":"[1]","location_rts":"[2040]","trial_type":"two-door-navigation","trial_index":22,"time_elapsed":344945,"internal_node_id":"0.0-2.0-20.0"},{"group":"hexagon_tri","room_assignment":["blue","purple","green","yellow","red","grey"],"door_color_assignment":["black","white"],"door_generator_assignment":[0,1],"goal":3,"start":1,"action_noise":0.15,"location_history":"[1,5,0,1,5,4,2,3]","action_history":"[1,1,1,1,0,1,1]","door_history":"[1,1,1,1,0,1,1]","location_rts":"[2592,282,292,387,346,183,282]","trial_type":"two-door-navigation","trial_index":23,"time_elapsed":359957,"internal_node_id":"0.0-2.0-21.0"},{"group":"hexagon_tri","room_assignment":["blue","purple","green","yellow","red","grey"],"door_color_assignment":["black","white"],"door_generator_assignment":[0,1],"goal":2,"start":3,"action_noise":0.15,"location_history":"[3,4,0,1,5,0,1,3,4,2]","action_history":"[1,0,1,1,1,1,0,1,1]","door_history":"[1,0,1,1,1,1,0,1,1]","location_rts":"[2740,424,164,193,413,142,157,70,98]","trial_type":"two-door-navigation","trial_index":24,"time_elapsed":377049,"internal_node_id":"0.0-2.0-22.0"},{"group":"hexagon_tri","room_assignment":["blue","purple","green","yellow","red","grey"],"door_color_assignment":["black","white"],"door_generator_assignment":[0,1],"goal":0,"start":2,"action_noise":0.15,"location_history":"[2,1,5,4,2,3,4,2,3,2,1,5,0]","action_history":"[1,1,0,1,1,1,1,1,0,1,1,1]","door_history":"[1,1,0,1,1,1,1,1,0,1,1,1]","location_rts":"[1537,460,205,158,172,321,315,317,295,233,261,29]","trial_type":"two-door-navigation","trial_index":25,"time_elapsed":397102,"internal_node_id":"0.0-2.0-23.0"},{"group":"hexagon_tri","room_assignment":["blue","purple","green","yellow","red","grey"],"door_color_assignment":["black","white"],"door_generator_assignment":[0,1],"goal":3,"start":0,"action_noise":0.15,"location_history":"[0,5,0,1,5,4,2,3]","action_history":"[1,1,1,1,0,1,1]","door_history":"[1,1,1,1,0,1,1]","location_rts":"[1631,53,179,216,83,279,134]","trial_type":"two-door-navigation","trial_index":26,"time_elapsed":410321,"internal_node_id":"0.0-2.0-24.0"},{"group":"hexagon_tri","room_assignment":["blue","purple","green","yellow","red","grey"],"door_color_assignment":["black","white"],"door_generator_assignment":[0,1],"goal":1,"start":3,"action_noise":0.15,"location_history":"[3,4,2,3,2,3,4,0,1]","action_history":"[0,1,1,1,1,1,0,1]","door_history":"[0,1,1,1,1,1,0,1]","location_rts":"[1804,123,87,51,38,8,86,45]","trial_type":"two-door-navigation","trial_index":27,"time_elapsed":424240,"internal_node_id":"0.0-2.0-25.0"},{"group":"hexagon_tri","room_assignment":["blue","purple","green","yellow","red","grey"],"door_color_assignment":["black","white"],"door_generator_assignment":[0,1],"goal":2,"start":1,"action_noise":0.15,"location_history":"[1,5,0,1,3,4,2]","action_history":"[1,1,1,0,1,1]","door_history":"[1,1,1,0,1,1]","location_rts":"[1829,63,69,136,51,243]","trial_type":"two-door-navigation","trial_index":28,"time_elapsed":436259,"internal_node_id":"0.0-2.0-26.0"},{"group":"hexagon_tri","room_assignment":["blue","purple","green","yellow","red","grey"],"door_color_assignment":["black","white"],"door_generator_assignment":[0,1],"goal":5,"start":2,"action_noise":0.15,"location_history":"[2,1,5]","action_history":"[0,1]","door_history":"[0,1]","location_rts":"[1370,440]","trial_type":"two-door-navigation","trial_index":29,"time_elapsed":443611,"internal_node_id":"0.0-2.0-27.0"},{"group":"hexagon_tri","room_assignment":["blue","purple","green","yellow","red","grey"],"door_color_assignment":["black","white"],"door_generator_assignment":[0,1],"goal":4,"start":5,"action_noise":0.15,"location_history":"[5,4]","action_history":"[0]","door_history":"[0]","location_rts":"[2506]","trial_type":"two-door-navigation","trial_index":30,"time_elapsed":450636,"internal_node_id":"0.0-2.0-28.0"},{"group":"hexagon_tri","room_assignment":["blue","purple","green","yellow","red","grey"],"door_color_assignment":["black","white"],"door_generator_assignment":[0,1],"goal":5,"start":4,"action_noise":0.15,"location_history":"[4,2,1,5]","action_history":"[0,1,1]","door_history":"[0,1,1]","location_rts":"[1509,940,300]","trial_type":"two-door-navigation","trial_index":31,"time_elapsed":459953,"internal_node_id":"0.0-2.0-29.0"},{"group":"hexagon_tri","room_assignment":["blue","purple","green","yellow","red","grey"],"door_color_assignment":["black","white"],"door_generator_assignment":[0,1],"goal":3,"start":5,"action_noise":0.15,"location_history":"[5,4,2,1,5,4,2,1,3]","action_history":"[0,1,1,1,0,1,1,1]","door_history":"[0,1,1,1,0,1,1,1]","location_rts":"[1181,19,349,351,64,83,116,335]","trial_type":"two-door-navigation","trial_index":32,"time_elapsed":474119,"internal_node_id":"0.0-2.0-30.0"},{"group":"hexagon_tri","room_assignment":["blue","purple","green","yellow","red","grey"],"door_color_assignment":["black","white"],"door_generator_assignment":[0,1],"goal":0,"start":3,"action_noise":0.15,"location_history":"[3,2,3,4,0]","action_history":"[0,1,1,0]","door_history":"[0,1,1,0]","location_rts":"[1515,133,48,330]","trial_type":"two-door-navigation","trial_index":33,"time_elapsed":483731,"internal_node_id":"0.0-2.0-31.0"},{"group":"hexagon_tri","room_assignment":["blue","purple","green","yellow","red","grey"],"door_color_assignment":["black","white"],"door_generator_assignment":[0,1],"goal":4,"start":0,"action_noise":0.15,"location_history":"[0,5,4]","action_history":"[0,1]","door_history":"[0,1]","location_rts":"[1463,354]","trial_type":"two-door-navigation","trial_index":34,"time_elapsed":491092,"internal_node_id":"0.0-2.0-32.0"},{"group":"hexagon_tri","room_assignment":["blue","purple","green","yellow","red","grey"],"door_color_assignment":["black","white"],"door_generator_assignment":[0,1],"goal":1,"start":4,"action_noise":0.15,"location_history":"[4,0,1]","action_history":"[0,1]","door_history":"[0,1]","location_rts":"[1103,665]","trial_type":"two-door-navigation","trial_index":35,"time_elapsed":498405,"internal_node_id":"0.0-2.0-33.0"},{"group":"hexagon_tri","room_assignment":["blue","purple","green","yellow","red","grey"],"door_color_assignment":["black","white"],"door_generator_assignment":[0,1],"goal":2,"start":1,"action_noise":0.15,"location_history":"[1,5,0,1,3,4,2]","action_history":"[1,1,1,0,1,1]","door_history":"[1,1,1,0,1,1]","location_rts":"[1458,30,330,331,101,265]","trial_type":"two-door-navigation","trial_index":36,"time_elapsed":510548,"internal_node_id":"0.0-2.0-34.0"},{"group":"hexagon_tri","room_assignment":["blue","purple","green","yellow","red","grey"],"door_color_assignment":["black","white"],"door_generator_assignment":[0,1],"goal":0,"start":2,"action_noise":0.15,"location_history":"[2,1,5,0]","action_history":"[0,1,1]","door_history":"[0,1,1]","location_rts":"[2050,194,100]","trial_type":"two-door-navigation","trial_index":37,"time_elapsed":519456,"internal_node_id":"0.0-2.0-35.0"},{"group":"hexagon_tri","room_assignment":["blue","purple","green","yellow","red","grey"],"door_color_assignment":["black","white"],"door_generator_assignment":[0,1],"goal":5,"start":0,"action_noise":0.15,"location_history":"[0,1,5]","action_history":"[1,1]","door_history":"[1,1]","location_rts":"[1574,58]","trial_type":"two-door-navigation","trial_index":38,"time_elapsed":526631,"internal_node_id":"0.0-2.0-36.0"},{"group":"hexagon_tri","room_assignment":["blue","purple","green","yellow","red","grey"],"door_color_assignment":["black","white"],"door_generator_assignment":[0,1],"goal":2,"start":5,"action_noise":0.15,"location_history":"[5,0,5,0,5,4,2]","action_history":"[1,0,1,0,0,1]","door_history":"[1,0,1,0,0,1]","location_rts":"[1160,342,321,137,604,602]","trial_type":"two-door-navigation","trial_index":39,"time_elapsed":539424,"internal_node_id":"0.0-2.0-37.0"},{"group":"hexagon_tri","room_assignment":["blue","purple","green","yellow","red","grey"],"door_color_assignment":["black","white"],"door_generator_assignment":[0,1],"goal":1,"start":2,"action_noise":0.15,"location_history":"[2,3,2,3,4,0,1]","action_history":"[0,0,1,1,0,1]","door_history":"[0,0,1,1,0,1]","location_rts":"[1602,821,785,560,367,224]","trial_type":"two-door-navigation","trial_index":40,"time_elapsed":553420,"internal_node_id":"0.0-2.0-38.0"},{"group":"hexagon_tri","room_assignment":["blue","purple","green","yellow","red","grey"],"door_color_assignment":["black","white"],"door_generator_assignment":[0,1],"goal":4,"start":1,"action_noise":0.15,"location_history":"[1,5,4]","action_history":"[0,0]","door_history":"[0,0]","location_rts":"[1321,556]","trial_type":"two-door-navigation","trial_index":41,"time_elapsed":560843,"internal_node_id":"0.0-2.0-39.0"},{"group":"hexagon_tri","room_assignment":["blue","purple","green","yellow","red","grey"],"door_color_assignment":["black","white"],"door_generator_assignment":[0,1],"goal":3,"start":4,"action_noise":0.15,"location_history":"[4,2,1,5,0,1,3]","action_history":"[1,1,1,0,1,0]","door_history":"[1,1,1,0,1,0]","location_rts":"[1809,225,299,96,338,35]","trial_type":"two-door-navigation","trial_index":42,"time_elapsed":573275,"internal_node_id":"0.0-2.0-40.0"},{"group":"hexagon_tri","room_assignment":["blue","purple","green","yellow","red","grey"],"door_color_assignment":["black","white"],"door_generator_assignment":[0,1],"goal":5,"start":3,"action_noise":0.15,"location_history":"[3,4,0,1,3,2,1,5]","action_history":"[0,0,1,1,0,1,0]","door_history":"[0,0,1,1,0,1,0]","location_rts":"[1004,586,680,312,874,1399,165]","trial_type":"two-door-navigation","trial_index":43,"time_elapsed":588947,"internal_node_id":"0.0-2.0-41.0"},{"group":"hexagon_tri","room_assignment":["blue","purple","green","yellow","red","grey"],"door_color_assignment":["black","white"],"door_generator_assignment":[0,1],"goal":3,"start":5,"action_noise":0.15,"location_history":"[5,0,1,3]","action_history":"[1,1,0]","door_history":"[1,1,0]","location_rts":"[3104,466,507]","trial_type":"two-door-navigation","trial_index":44,"time_elapsed":599579,"internal_node_id":"0.0-2.0-42.0"},{"group":"hexagon_tri","room_assignment":["blue","purple","green","yellow","red","grey"],"door_color_assignment":["black","white"],"door_generator_assignment":[0,1],"goal":0,"start":3,"action_noise":0.15,"location_history":"[3,4,0]","action_history":"[0,1]","door_history":"[0,1]","location_rts":"[1611,307]","trial_type":"two-door-navigation","trial_index":45,"time_elapsed":607043,"internal_node_id":"0.0-2.0-43.0"},{"group":"hexagon_tri","room_assignment":["blue","purple","green","yellow","red","grey"],"door_color_assignment":["black","white"],"door_generator_assignment":[0,1],"goal":2,"start":0,"action_noise":0.15,"location_history":"[0,5,4,2]","action_history":"[0,0,1]","door_history":"[0,0,1]","location_rts":"[4193,613,431]","trial_type":"two-door-navigation","trial_index":46,"time_elapsed":618844,"internal_node_id":"0.0-2.0-44.0"},{"group":"hexagon_tri","room_assignment":["blue","purple","green","yellow","red","grey"],"door_color_assignment":["black","white"],"door_generator_assignment":[0,1],"goal":4,"start":2,"action_noise":0.15,"location_history":"[2,3,2,1,5,4]","action_history":"[1,0,1,1,0]","door_history":"[1,0,1,1,0]","location_rts":"[1930,623,560,345,94]","trial_type":"two-door-navigation","trial_index":47,"time_elapsed":630990,"internal_node_id":"0.0-2.0-45.0"},{"group":"hexagon_tri","room_assignment":["blue","purple","green","yellow","red","grey"],"door_color_assignment":["black","white"],"door_generator_assignment":[0,1],"goal":1,"start":4,"action_noise":0.15,"location_history":"[4,0,1]","action_history":"[0,1]","door_history":"[0,1]","location_rts":"[2011,626]","trial_type":"two-door-navigation","trial_index":48,"time_elapsed":639170,"internal_node_id":"0.0-2.0-46.0"},{"group":"hexagon_tri","room_assignment":["blue","purple","green","yellow","red","grey"],"door_color_assignment":["black","white"],"door_generator_assignment":[0,1],"goal":4,"start":1,"action_noise":0.15,"location_history":"[1,3,4]","action_history":"[0,1]","door_history":"[0,1]","location_rts":"[1347,394]","trial_type":"two-door-navigation","trial_index":49,"time_elapsed":646452,"internal_node_id":"0.0-2.0-47.0"},{"group":"hexagon_tri","room_assignment":["blue","purple","green","yellow","red","grey"],"door_color_assignment":["black","white"],"door_generator_assignment":[0,1],"goal":3,"start":4,"action_noise":0.15,"location_history":"[4,2,3]","action_history":"[1,1]","door_history":"[1,1]","location_rts":"[1598,111]","trial_type":"two-door-navigation","trial_index":50,"time_elapsed":653708,"internal_node_id":"0.0-2.0-48.0"},{"group":"hexagon_tri","room_assignment":["blue","purple","green","yellow","red","grey"],"door_color_assignment":["black","white"],"door_generator_assignment":[0,1],"goal":5,"start":3,"action_noise":0.15,"location_history":"[3,4,0,1,5]","action_history":"[1,0,1,1]","door_history":"[1,0,1,1]","location_rts":"[1272,11,524,33]","trial_type":"two-door-navigation","trial_index":51,"time_elapsed":663132,"internal_node_id":"0.0-2.0-49.0"},{"view_history":"[{\"page_index\":0,\"viewing_time\":1606}]","rt":1606,"trial_type":"instructions","trial_index":52,"time_elapsed":665738,"internal_node_id":"0.0-3.0"},{"view_history":"[{\"page_index\":0,\"viewing_time\":1140},{\"page_index\":1,\"viewing_time\":21543}]","rt":22683,"trial_type":"instructions","trial_index":53,"time_elapsed":689421,"internal_node_id":"0.0-4.0"},{"group":"hexagon_tri","fractal_assignment":["../images/ylw_slt.png","../images/cyn_red.png","../images/pnk_blu.png","../images/gry_blk.png","../images/org_blu.png","../images/blu_wht.png"],"mutagen_generator_assignment":[0,1],"goal":4,"start":0,"action_noise":0.15,"location_history":"[0,1,5,0,5,0,1,5,0,1,5,0,1,3,4]","action_history":"[0,1,1,0,1,1,1,1,0,1,1,1,0,1]","mutagen_history":"[0,1,1,0,1,1,1,1,0,1,1,1,0,1]","location_rts":"[3928,1352,829,976,596,447,427,383,816,221,989,413,377,424]","trial_type":"fractal-mutation","trial_index":54,"time_elapsed":719450,"internal_node_id":"0.0-5.0-0.0"},{"group":"hexagon_tri","fractal_assignment":["../images/ylw_slt.png","../images/cyn_red.png","../images/pnk_blu.png","../images/gry_blk.png","../images/org_blu.png","../images/blu_wht.png"],"mutagen_generator_assignment":[0,1],"goal":3,"start":4,"action_noise":0.15,"location_history":"[4,0,5,4,2,3]","action_history":"[1,0,1,1,1]","mutagen_history":"[1,0,1,1,1]","location_rts":"[1143,1152,893,676,601]","trial_type":"fractal-mutation","trial_index":55,"time_elapsed":732542,"internal_node_id":"0.0-5.0-1.0"},{"group":"hexagon_tri","fractal_assignment":["../images/ylw_slt.png","../images/cyn_red.png","../images/pnk_blu.png","../images/gry_blk.png","../images/org_blu.png","../images/blu_wht.png"],"mutagen_generator_assignment":[0,1],"goal":5,"start":3,"action_noise":0.15,"location_history":"[3,2,1,5]","action_history":"[0,1,1]","mutagen_history":"[0,1,1]","location_rts":"[974,607,506]","trial_type":"fractal-mutation","trial_index":56,"time_elapsed":741207,"internal_node_id":"0.0-5.0-2.0"},{"group":"hexagon_tri","fractal_assignment":["../images/ylw_slt.png","../images/cyn_red.png","../images/pnk_blu.png","../images/gry_blk.png","../images/org_blu.png","../images/blu_wht.png"],"mutagen_generator_assignment":[0,1],"goal":2,"start":5,"action_noise":0.15,"location_history":"[5,0,1,3,4,2]","action_history":"[1,1,1,1,1]","mutagen_history":"[1,1,1,1,1]","location_rts":"[880,506,346,486,561]","trial_type":"fractal-mutation","trial_index":57,"time_elapsed":752616,"internal_node_id":"0.0-5.0-3.0"},{"group":"hexagon_tri","fractal_assignment":["../images/ylw_slt.png","../images/cyn_red.png","../images/pnk_blu.png","../images/gry_blk.png","../images/org_blu.png","../images/blu_wht.png"],"mutagen_generator_assignment":[0,1],"goal":1,"start":2,"action_noise":0.15,"location_history":"[2,3,4,2,3,2,1]","action_history":"[0,1,0,1,1,0]","mutagen_history":"[0,1,0,1,1,0]","location_rts":"[1505,454,623,697,430,333]","trial_type":"fractal-mutation","trial_index":58,"time_elapsed":766312,"internal_node_id":"0.0-5.0-4.0"},{"group":"hexagon_tri","fractal_assignment":["../images/ylw_slt.png","../images/cyn_red.png","../images/pnk_blu.png","../images/gry_blk.png","../images/org_blu.png","../images/blu_wht.png"],"mutagen_generator_assignment":[0,1],"goal":4,"start":1,"action_noise":0.15,"location_history":"[1,5,0,1,5,0,1,3,4]","action_history":"[1,1,1,1,1,1,0,1]","mutagen_history":"[1,1,1,1,1,1,0,1]","location_rts":"[1407,549,483,379,447,571,493,336]","trial_type":"fractal-mutation","trial_index":59,"time_elapsed":782660,"internal_node_id":"0.0-5.0-5.0"},{"group":"hexagon_tri","fractal_assignment":["../images/ylw_slt.png","../images/cyn_red.png","../images/pnk_blu.png","../images/gry_blk.png","../images/org_blu.png","../images/blu_wht.png"],"mutagen_generator_assignment":[0,1],"goal":1,"start":4,"action_noise":0.15,"location_history":"[4,0,5,4,0,5,0,1]","action_history":"[0,0,0,0,0,1,1]","mutagen_history":"[0,0,0,0,0,1,1]","location_rts":"[1038,402,501,546,466,604,885]","trial_type":"fractal-mutation","trial_index":60,"time_elapsed":797767,"internal_node_id":"0.0-5.0-6.0"},{"group":"hexagon_tri","fractal_assignment":["../images/ylw_slt.png","../images/cyn_red.png","../images/pnk_blu.png","../images/gry_blk.png","../images/org_blu.png","../images/blu_wht.png"],"mutagen_generator_assignment":[0,1],"goal":5,"start":1,"action_noise":0.15,"location_history":"[1,5]","action_history":"[1]","mutagen_history":"[1]","location_rts":"[1352]","trial_type":"fractal-mutation","trial_index":61,"time_elapsed":803644,"internal_node_id":"0.0-5.0-7.0"},{"group":"hexagon_tri","fractal_assignment":["../images/ylw_slt.png","../images/cyn_red.png","../images/pnk_blu.png","../images/gry_blk.png","../images/org_blu.png","../images/blu_wht.png"],"mutagen_generator_assignment":[0,1],"goal":0,"start":5,"action_noise":0.15,"location_history":"[5,0]","action_history":"[1]","mutagen_history":"[1]","location_rts":"[269]","trial_type":"fractal-mutation","trial_index":62,"time_elapsed":808442,"internal_node_id":"0.0-5.0-8.0"},{"group":"hexagon_tri","fractal_assignment":["../images/ylw_slt.png","../images/cyn_red.png","../images/pnk_blu.png","../images/gry_blk.png","../images/org_blu.png","../images/blu_wht.png"],"mutagen_generator_assignment":[0,1],"goal":2,"start":0,"action_noise":0.15,"location_history":"[0,1,5,0,1,5,0,1,5,0,5,4,0,5,4,0,5,0,5,4,0,1,3,4,2]","action_history":"[1,0,1,1,1,1,1,1,1,1,0,1,0,0,0,0,1,0,0,0,1,1,1,1]","mutagen_history":"[1,0,1,1,1,1,1,1,1,1,0,1,0,0,0,0,1,0,0,0,1,1,1,1]","location_rts":"[377,138,313,170,39,81,113,343,358,96,393,600,366,207,305,342,663,291,421,273,44,511,452,603]","trial_type":"fractal-mutation","trial_index":63,"time_elapsed":844035,"internal_node_id":"0.0-5.0-9.0"},{"group":"hexagon_tri","fractal_assignment":["../images/ylw_slt.png","../images/cyn_red.png","../images/pnk_blu.png","../images/gry_blk.png","../images/org_blu.png","../images/blu_wht.png"],"mutagen_generator_assignment":[0,1],"goal":3,"start":2,"action_noise":0.15,"location_history":"[2,1,5,0,1,5,0,5,4,2,1,5,4,2,1,5,0,1,3]","action_history":"[0,1,1,1,1,1,0,1,1,0,1,0,1,1,1,1,1,0]","mutagen_history":"[0,1,1,1,1,1,0,1,1,0,1,0,1,1,1,1,1,0]","location_rts":"[1115,831,257,275,274,78,262,20,284,147,69,410,111,151,392,109,262,117]","trial_type":"fractal-mutation","trial_index":64,"time_elapsed":871117,"internal_node_id":"0.0-5.0-10.0"},{"group":"hexagon_tri","fractal_assignment":["../images/ylw_slt.png","../images/cyn_red.png","../images/pnk_blu.png","../images/gry_blk.png","../images/org_blu.png","../images/blu_wht.png"],"mutagen_generator_assignment":[0,1],"goal":0,"start":3,"action_noise":0.15,"location_history":"[3,4,0]","action_history":"[1,0]","mutagen_history":"[1,0]","location_rts":"[262,428]","trial_type":"fractal-mutation","trial_index":65,"time_elapsed":877356,"internal_node_id":"0.0-5.0-11.0"},{"group":"hexagon_tri","fractal_assignment":["../images/ylw_slt.png","../images/cyn_red.png","../images/pnk_blu.png","../images/gry_blk.png","../images/org_blu.png","../images/blu_wht.png"],"mutagen_generator_assignment":[0,1],"goal":2,"start":0,"action_noise":0.15,"location_history":"[0,1,5,0,1,5,4,2]","action_history":"[0,1,1,1,1,0,1]","mutagen_history":"[0,1,1,1,1,0,1]","location_rts":"[1010,506,207,151,37,262,94]","trial_type":"fractal-mutation","trial_index":66,"time_elapsed":890286,"internal_node_id":"0.0-5.0-12.0"},{"group":"hexagon_tri","fractal_assignment":["../images/ylw_slt.png","../images/cyn_red.png","../images/pnk_blu.png","../images/gry_blk.png","../images/org_blu.png","../images/blu_wht.png"],"mutagen_generator_assignment":[0,1],"goal":5,"start":2,"action_noise":0.15,"location_history":"[2,3,4,0,5]","action_history":"[1,1,1,1]","mutagen_history":"[1,1,1,1]","location_rts":"[1171,175,69,56]","trial_type":"fractal-mutation","trial_index":67,"time_elapsed":899350,"internal_node_id":"0.0-5.0-13.0"},{"group":"hexagon_tri","fractal_assignment":["../images/ylw_slt.png","../images/cyn_red.png","../images/pnk_blu.png","../images/gry_blk.png","../images/org_blu.png","../images/blu_wht.png"],"mutagen_generator_assignment":[0,1],"goal":4,"start":5,"action_noise":0.15,"location_history":"[5,0,5,0,5,4]","action_history":"[1,0,1,0,0]","mutagen_history":"[1,0,1,0,0]","location_rts":"[140,145,202,364,522]","trial_type":"fractal-mutation","trial_index":68,"time_elapsed":909339,"internal_node_id":"0.0-5.0-14.0"},{"group":"hexagon_tri","fractal_assignment":["../images/ylw_slt.png","../images/cyn_red.png","../images/pnk_blu.png","../images/gry_blk.png","../images/org_blu.png","../images/blu_wht.png"],"mutagen_generator_assignment":[0,1],"goal":3,"start":4,"action_noise":0.15,"location_history":"[4,0,1,3]","action_history":"[0,1,1]","mutagen_history":"[0,1,1]","location_rts":"[981,405,85]","trial_type":"fractal-mutation","trial_index":69,"time_elapsed":917382,"internal_node_id":"0.0-5.0-15.0"},{"group":"hexagon_tri","fractal_assignment":["../images/ylw_slt.png","../images/cyn_red.png","../images/pnk_blu.png","../images/gry_blk.png","../images/org_blu.png","../images/blu_wht.png"],"mutagen_generator_assignment":[0,1],"goal":1,"start":3,"action_noise":0.15,"location_history":"[3,2,3,4,2,3,4,0,5,0,5,0,5,4,0,1]","action_history":"[0,1,1,1,1,1,1,0,0,0,0,0,0,1,1]","mutagen_history":"[0,1,1,1,1,1,1,0,0,0,0,0,0,1,1]","location_rts":"[272,467,34,67,356,153,39,377,205,69,99,110,75,227,54]","trial_type":"fractal-mutation","trial_index":70,"time_elapsed":938836,"internal_node_id":"0.0-5.0-16.0"},{"group":"hexagon_tri","fractal_assignment":["../images/ylw_slt.png","../images/cyn_red.png","../images/pnk_blu.png","../images/gry_blk.png","../images/org_blu.png","../images/blu_wht.png"],"mutagen_generator_assignment":[0,1],"goal":5,"start":1,"action_noise":0.15,"location_history":"[1,5]","action_history":"[1]","mutagen_history":"[1]","location_rts":"[269]","trial_type":"fractal-mutation","trial_index":71,"time_elapsed":943629,"internal_node_id":"0.0-5.0-17.0"},{"group":"hexagon_tri","fractal_assignment":["../images/ylw_slt.png","../images/cyn_red.png","../images/pnk_blu.png","../images/gry_blk.png","../images/org_blu.png","../images/blu_wht.png"],"mutagen_generator_assignment":[0,1],"goal":4,"start":5,"action_noise":0.15,"location_history":"[5,0,5,0,5,4]","action_history":"[1,0,1,0,0]","mutagen_history":"[1,0,1,0,0]","location_rts":"[283,181,3194,343,27]","trial_type":"fractal-mutation","trial_index":72,"time_elapsed":956283,"internal_node_id":"0.0-5.0-18.0"},{"group":"hexagon_tri","fractal_assignment":["../images/ylw_slt.png","../images/cyn_red.png","../images/pnk_blu.png","../images/gry_blk.png","../images/org_blu.png","../images/blu_wht.png"],"mutagen_generator_assignment":[0,1],"goal":0,"start":4,"action_noise":0.15,"location_history":"[4,0]","action_history":"[1]","mutagen_history":"[1]","location_rts":"[222]","trial_type":"fractal-mutation","trial_index":73,"time_elapsed":961034,"internal_node_id":"0.0-5.0-19.0"},{"group":"hexagon_tri","fractal_assignment":["../images/ylw_slt.png","../images/cyn_red.png","../images/pnk_blu.png","../images/gry_blk.png","../images/org_blu.png","../images/blu_wht.png"],"mutagen_generator_assignment":[0,1],"goal":1,"start":0,"action_noise":0.15,"location_history":"[0,1]","action_history":"[1]","mutagen_history":"[1]","location_rts":"[643]","trial_type":"fractal-mutation","trial_index":74,"time_elapsed":966203,"internal_node_id":"0.0-5.0-20.0"},{"group":"hexagon_tri","fractal_assignment":["../images/ylw_slt.png","../images/cyn_red.png","../images/pnk_blu.png","../images/gry_blk.png","../images/org_blu.png","../images/blu_wht.png"],"mutagen_generator_assignment":[0,1],"goal":3,"start":1,"action_noise":0.15,"location_history":"[1,5,4,0,1,5,0,5,4,0,1,5,0,1,3]","action_history":"[1,0,0,0,1,1,0,1,0,1,1,1,1,0]","mutagen_history":"[1,0,0,0,1,1,0,1,0,1,1,1,1,0]","location_rts":"[1980,6,572,593,607,326,507,10,406,177,184,260,156,62]","trial_type":"fractal-mutation","trial_index":75,"time_elapsed":989873,"internal_node_id":"0.0-5.0-21.0"},{"group":"hexagon_tri","fractal_assignment":["../images/ylw_slt.png","../images/cyn_red.png","../images/pnk_blu.png","../images/gry_blk.png","../images/org_blu.png","../images/blu_wht.png"],"mutagen_generator_assignment":[0,1],"goal":2,"start":3,"action_noise":0.15,"location_history":"[3,4,0,5,0,1,3,4,2]","action_history":"[1,0,0,0,0,0,1,1]","mutagen_history":"[1,0,0,0,0,0,1,1]","location_rts":"[598,742,632,281,164,17,54,224]","trial_type":"fractal-mutation","trial_index":76,"time_elapsed":1004280,"internal_node_id":"0.0-5.0-22.0"},{"group":"hexagon_tri","fractal_assignment":["../images/ylw_slt.png","../images/cyn_red.png","../images/pnk_blu.png","../images/gry_blk.png","../images/org_blu.png","../images/blu_wht.png"],"mutagen_generator_assignment":[0,1],"goal":0,"start":2,"action_noise":0.15,"location_history":"[2,3,4,2,1,3,2,1,5,4,0]","action_history":"[0,1,1,0,0,0,0,1,0,0]","mutagen_history":"[0,1,1,0,0,0,0,1,0,0]","location_rts":"[187,264,3,51,382,142,59,178,409,164]","trial_type":"fractal-mutation","trial_index":77,"time_elapsed":1019848,"internal_node_id":"0.0-5.0-23.0"},{"group":"hexagon_tri","fractal_assignment":["../images/ylw_slt.png","../images/cyn_red.png","../images/pnk_blu.png","../images/gry_blk.png","../images/org_blu.png","../images/blu_wht.png"],"mutagen_generator_assignment":[0,1],"goal":3,"start":0,"action_noise":0.15,"location_history":"[0,5,0,1,5,0,1,5,0,1,3]","action_history":"[0,1,0,1,1,1,1,1,1,0]","mutagen_history":"[0,1,0,1,1,1,1,1,1,0]","location_rts":"[1445,148,427,837,804,84,57,206,78,402]","trial_type":"fractal-mutation","trial_index":78,"time_elapsed":1038082,"internal_node_id":"0.0-5.0-24.0"},{"group":"hexagon_tri","fractal_assignment":["../images/ylw_slt.png","../images/cyn_red.png","../images/pnk_blu.png","../images/gry_blk.png","../images/org_blu.png","../images/blu_wht.png"],"mutagen_generator_assignment":[0,1],"goal":1,"start":3,"action_noise":0.15,"location_history":"[3,2,3,4,2,1]","action_history":"[0,1,1,1,0]","mutagen_history":"[0,1,1,1,0]","location_rts":"[1855,512,234,75,144]","trial_type":"fractal-mutation","trial_index":79,"time_elapsed":1049525,"internal_node_id":"0.0-5.0-25.0"},{"group":"hexagon_tri","fractal_assignment":["../images/ylw_slt.png","../images/cyn_red.png","../images/pnk_blu.png","../images/gry_blk.png","../images/org_blu.png","../images/blu_wht.png"],"mutagen_generator_assignment":[0,1],"goal":2,"start":1,"action_noise":0.15,"location_history":"[1,5,4,0,5,4,2]","action_history":"[0,0,1,0,0,1]","mutagen_history":"[0,0,1,0,0,1]","location_rts":"[1178,710,351,377,534,934]","trial_type":"fractal-mutation","trial_index":80,"time_elapsed":1063254,"internal_node_id":"0.0-5.0-26.0"},{"group":"hexagon_tri","fractal_assignment":["../images/ylw_slt.png","../images/cyn_red.png","../images/pnk_blu.png","../images/gry_blk.png","../images/org_blu.png","../images/blu_wht.png"],"mutagen_generator_assignment":[0,1],"goal":5,"start":2,"action_noise":0.15,"location_history":"[2,1,3,2,3,4,0,1,5]","action_history":"[0,0,0,0,1,0,1,1]","mutagen_history":"[0,0,0,0,1,0,1,1]","location_rts":"[1326,500,592,621,274,471,778,327]","trial_type":"fractal-mutation","trial_index":81,"time_elapsed":1079841,"internal_node_id":"0.0-5.0-27.0"},{"group":"hexagon_tri","fractal_assignment":["../images/ylw_slt.png","../images/cyn_red.png","../images/pnk_blu.png","../images/gry_blk.png","../images/org_blu.png","../images/blu_wht.png"],"mutagen_generator_assignment":[0,1],"goal":4,"start":5,"action_noise":0.15,"location_history":"[5,4]","action_history":"[0]","mutagen_history":"[0]","location_rts":"[1477]","trial_type":"fractal-mutation","trial_index":82,"time_elapsed":1085845,"internal_node_id":"0.0-5.0-28.0"},{"group":"hexagon_tri","fractal_assignment":["../images/ylw_slt.png","../images/cyn_red.png","../images/pnk_blu.png","../images/gry_blk.png","../images/org_blu.png","../images/blu_wht.png"],"mutagen_generator_assignment":[0,1],"goal":5,"start":4,"action_noise":0.15,"location_history":"[4,0,1,5]","action_history":"[0,1,1]","mutagen_history":"[0,1,1]","location_rts":"[1109,716,346]","trial_type":"fractal-mutation","trial_index":83,"time_elapsed":1094585,"internal_node_id":"0.0-5.0-29.0"},{"group":"hexagon_tri","fractal_assignment":["../images/ylw_slt.png","../images/cyn_red.png","../images/pnk_blu.png","../images/gry_blk.png","../images/org_blu.png","../images/blu_wht.png"],"mutagen_generator_assignment":[0,1],"goal":3,"start":5,"action_noise":0.15,"location_history":"[5,4,2,1,3]","action_history":"[0,1,1,1]","mutagen_history":"[0,1,1,1]","location_rts":"[1128,1092,105,402]","trial_type":"fractal-mutation","trial_index":84,"time_elapsed":1104909,"internal_node_id":"0.0-5.0-30.0"},{"group":"hexagon_tri","fractal_assignment":["../images/ylw_slt.png","../images/cyn_red.png","../images/pnk_blu.png","../images/gry_blk.png","../images/org_blu.png","../images/blu_wht.png"],"mutagen_generator_assignment":[0,1],"goal":0,"start":3,"action_noise":0.15,"location_history":"[3,2,1,5,4,0]","action_history":"[0,0,1,0,1]","mutagen_history":"[0,0,1,0,1]","location_rts":"[863,586,592,251,613]","trial_type":"fractal-mutation","trial_index":85,"time_elapsed":1116429,"internal_node_id":"0.0-5.0-31.0"},{"group":"hexagon_tri","fractal_assignment":["../images/ylw_slt.png","../images/cyn_red.png","../images/pnk_blu.png","../images/gry_blk.png","../images/org_blu.png","../images/blu_wht.png"],"mutagen_generator_assignment":[0,1],"goal":4,"start":0,"action_noise":0.15,"location_history":"[0,5,4]","action_history":"[0,0]","mutagen_history":"[0,0]","location_rts":"[1104,389]","trial_type":"fractal-mutation","trial_index":86,"time_elapsed":1123469,"internal_node_id":"0.0-5.0-32.0"},{"group":"hexagon_tri","fractal_assignment":["../images/ylw_slt.png","../images/cyn_red.png","../images/pnk_blu.png","../images/gry_blk.png","../images/org_blu.png","../images/blu_wht.png"],"mutagen_generator_assignment":[0,1],"goal":1,"start":4,"action_noise":0.15,"location_history":"[4,2,3,4,2,3,4,2,1]","action_history":"[0,1,1,1,1,1,1,0]","mutagen_history":"[0,1,1,1,1,1,1,0]","location_rts":"[286,5,361,476,737,287,122,99]","trial_type":"fractal-mutation","trial_index":87,"time_elapsed":1137536,"internal_node_id":"0.0-5.0-33.0"},{"group":"hexagon_tri","fractal_assignment":["../images/ylw_slt.png","../images/cyn_red.png","../images/pnk_blu.png","../images/gry_blk.png","../images/org_blu.png","../images/blu_wht.png"],"mutagen_generator_assignment":[0,1],"goal":2,"start":1,"action_noise":0.15,"location_history":"[1,3,2]","action_history":"[1,0]","mutagen_history":"[1,0]","location_rts":"[138,126]","trial_type":"fractal-mutation","trial_index":88,"time_elapsed":1143347,"internal_node_id":"0.0-5.0-34.0"},{"group":"hexagon_tri","fractal_assignment":["../images/ylw_slt.png","../images/cyn_red.png","../images/pnk_blu.png","../images/gry_blk.png","../images/org_blu.png","../images/blu_wht.png"],"mutagen_generator_assignment":[0,1],"goal":0,"start":2,"action_noise":0.15,"location_history":"[2,1,3,4,0]","action_history":"[1,0,1,0]","mutagen_history":"[1,0,1,0]","location_rts":"[208,197,401,341]","trial_type":"fractal-mutation","trial_index":89,"time_elapsed":1152087,"internal_node_id":"0.0-5.0-35.0"},{"group":"hexagon_tri","fractal_assignment":["../images/ylw_slt.png","../images/cyn_red.png","../images/pnk_blu.png","../images/gry_blk.png","../images/org_blu.png","../images/blu_wht.png"],"mutagen_generator_assignment":[0,1],"goal":5,"start":0,"action_noise":0.15,"location_history":"[0,1,5]","action_history":"[1,1]","mutagen_history":"[1,1]","location_rts":"[1037,159]","trial_type":"fractal-mutation","trial_index":90,"time_elapsed":1158833,"internal_node_id":"0.0-5.0-36.0"},{"group":"hexagon_tri","fractal_assignment":["../images/ylw_slt.png","../images/cyn_red.png","../images/pnk_blu.png","../images/gry_blk.png","../images/org_blu.png","../images/blu_wht.png"],"mutagen_generator_assignment":[0,1],"goal":2,"start":5,"action_noise":0.15,"location_history":"[5,0,1,3,2]","action_history":"[1,1,0,1]","mutagen_history":"[1,1,0,1]","location_rts":"[186,127,1761,414]","trial_type":"fractal-mutation","trial_index":91,"time_elapsed":1168932,"internal_node_id":"0.0-5.0-37.0"},{"group":"hexagon_tri","fractal_assignment":["../images/ylw_slt.png","../images/cyn_red.png","../images/pnk_blu.png","../images/gry_blk.png","../images/org_blu.png","../images/blu_wht.png"],"mutagen_generator_assignment":[0,1],"goal":1,"start":2,"action_noise":0.15,"location_history":"[2,3,4,2,1]","action_history":"[1,1,1,0]","mutagen_history":"[1,1,1,0]","location_rts":"[346,344,20,61]","trial_type":"fractal-mutation","trial_index":92,"time_elapsed":1177303,"internal_node_id":"0.0-5.0-38.0"},{"group":"hexagon_tri","fractal_assignment":["../images/ylw_slt.png","../images/cyn_red.png","../images/pnk_blu.png","../images/gry_blk.png","../images/org_blu.png","../images/blu_wht.png"],"mutagen_generator_assignment":[0,1],"goal":4,"start":1,"action_noise":0.15,"location_history":"[1,3,4]","action_history":"[0,1]","mutagen_history":"[0,1]","location_rts":"[786,118]","trial_type":"fractal-mutation","trial_index":93,"time_elapsed":1183758,"internal_node_id":"0.0-5.0-39.0"},{"group":"hexagon_tri","fractal_assignment":["../images/ylw_slt.png","../images/cyn_red.png","../images/pnk_blu.png","../images/gry_blk.png","../images/org_blu.png","../images/blu_wht.png"],"mutagen_generator_assignment":[0,1],"goal":3,"start":4,"action_noise":0.15,"location_history":"[4,0,1,5,0,5,0,1,3]","action_history":"[0,1,1,1,0,1,1,0]","mutagen_history":"[0,1,1,1,0,1,1,0]","location_rts":"[582,37,127,348,73,2,67,131]","trial_type":"fractal-mutation","trial_index":94,"time_elapsed":1196801,"internal_node_id":"0.0-5.0-40.0"},{"group":"hexagon_tri","fractal_assignment":["../images/ylw_slt.png","../images/cyn_red.png","../images/pnk_blu.png","../images/gry_blk.png","../images/org_blu.png","../images/blu_wht.png"],"mutagen_generator_assignment":[0,1],"goal":5,"start":3,"action_noise":0.15,"location_history":"[3,4,0,1,5]","action_history":"[1,0,1,1]","mutagen_history":"[1,0,1,1]","location_rts":"[1449,866,250,281]","trial_type":"fractal-mutation","trial_index":95,"time_elapsed":1207250,"internal_node_id":"0.0-5.0-41.0"},{"group":"hexagon_tri","fractal_assignment":["../images/ylw_slt.png","../images/cyn_red.png","../images/pnk_blu.png","../images/gry_blk.png","../images/org_blu.png","../images/blu_wht.png"],"mutagen_generator_assignment":[0,1],"goal":3,"start":5,"action_noise":0.15,"location_history":"[5,0,1,3]","action_history":"[0,1,0]","mutagen_history":"[0,1,0]","location_rts":"[940,268,387]","trial_type":"fractal-mutation","trial_index":96,"time_elapsed":1215419,"internal_node_id":"0.0-5.0-42.0"},{"group":"hexagon_tri","fractal_assignment":["../images/ylw_slt.png","../images/cyn_red.png","../images/pnk_blu.png","../images/gry_blk.png","../images/org_blu.png","../images/blu_wht.png"],"mutagen_generator_assignment":[0,1],"goal":0,"start":3,"action_noise":0.15,"location_history":"[3,4,0]","action_history":"[1,0]","mutagen_history":"[1,0]","location_rts":"[596,119]","trial_type":"fractal-mutation","trial_index":97,"time_elapsed":1221684,"internal_node_id":"0.0-5.0-43.0"},{"group":"hexagon_tri","fractal_assignment":["../images/ylw_slt.png","../images/cyn_red.png","../images/pnk_blu.png","../images/gry_blk.png","../images/org_blu.png","../images/blu_wht.png"],"mutagen_generator_assignment":[0,1],"goal":2,"start":0,"action_noise":0.15,"location_history":"[0,5,4,2]","action_history":"[1,0,1]","mutagen_history":"[1,0,1]","location_rts":"[265,153,536]","trial_type":"fractal-mutation","trial_index":98,"time_elapsed":1229213,"internal_node_id":"0.0-5.0-44.0"},{"group":"hexagon_tri","fractal_assignment":["../images/ylw_slt.png","../images/cyn_red.png","../images/pnk_blu.png","../images/gry_blk.png","../images/org_blu.png","../images/blu_wht.png"],"mutagen_generator_assignment":[0,1],"goal":4,"start":2,"action_noise":0.15,"location_history":"[2,3,2,3,2,3,2,1,5,4]","action_history":"[1,0,1,0,1,0,1,1,0]","mutagen_history":"[1,0,1,0,1,0,1,1,0]","location_rts":"[71,82,369,345,279,40,360,75,149]","trial_type":"fractal-mutation","trial_index":99,"time_elapsed":1243700,"internal_node_id":"0.0-5.0-45.0"},{"group":"hexagon_tri","fractal_assignment":["../images/ylw_slt.png","../images/cyn_red.png","../images/pnk_blu.png","../images/gry_blk.png","../images/org_blu.png","../images/blu_wht.png"],"mutagen_generator_assignment":[0,1],"goal":1,"start":4,"action_noise":0.15,"location_history":"[4,2,1]","action_history":"[1,0]","mutagen_history":"[1,0]","location_rts":"[336,84]","trial_type":"fractal-mutation","trial_index":100,"time_elapsed":1249674,"internal_node_id":"0.0-5.0-46.0"},{"group":"hexagon_tri","fractal_assignment":["../images/ylw_slt.png","../images/cyn_red.png","../images/pnk_blu.png","../images/gry_blk.png","../images/org_blu.png","../images/blu_wht.png"],"mutagen_generator_assignment":[0,1],"goal":4,"start":1,"action_noise":0.15,"location_history":"[1,5,4]","action_history":"[1,0]","mutagen_history":"[1,0]","location_rts":"[61,274]","trial_type":"fractal-mutation","trial_index":101,"time_elapsed":1255561,"internal_node_id":"0.0-5.0-47.0"},{"group":"hexagon_tri","fractal_assignment":["../images/ylw_slt.png","../images/cyn_red.png","../images/pnk_blu.png","../images/gry_blk.png","../images/org_blu.png","../images/blu_wht.png"],"mutagen_generator_assignment":[0,1],"goal":3,"start":4,"action_noise":0.15,"location_history":"[4,2,3]","action_history":"[1,0]","mutagen_history":"[1,0]","location_rts":"[401,335]","trial_type":"fractal-mutation","trial_index":102,"time_elapsed":1261851,"internal_node_id":"0.0-5.0-48.0"},{"group":"hexagon_tri","fractal_assignment":["../images/ylw_slt.png","../images/cyn_red.png","../images/pnk_blu.png","../images/gry_blk.png","../images/org_blu.png","../images/blu_wht.png"],"mutagen_generator_assignment":[0,1],"goal":5,"start":3,"action_noise":0.15,"location_history":"[3,4,0,5]","action_history":"[1,0,1]","mutagen_history":"[1,0,1]","location_rts":"[418,178,479]","trial_type":"fractal-mutation","trial_index":103,"time_elapsed":1269506,"internal_node_id":"0.0-5.0-49.0"},{"view_history":"[{\"page_index\":0,\"viewing_time\":3580}]","rt":3580,"trial_type":"instructions","trial_index":104,"time_elapsed":1274087,"internal_node_id":"0.0-6.0"},{"rt":2691,"responses":"{\"Q0\":\"\"}","trial_type":"survey-text","trial_index":105,"time_elapsed":1277779,"internal_node_id":"0.0-7.0"}]