[{"view_history":"[{\"page_index\":0,\"viewing_time\":10998},{\"page_index\":1,\"viewing_time\":10942},{\"page_index\":2,\"viewing_time\":17495},{\"page_index\":3,\"viewing_time\":4824}]","rt":44260,"trial_type":"instructions","trial_index":0,"time_elapsed":44260,"internal_node_id":"0.0-0.0"},{"view_history":"[{\"page_index\":0,\"viewing_time\":2146},{\"page_index\":1,\"viewing_time\":31961}]","rt":34108,"trial_type":"instructions","trial_index":1,"time_elapsed":79373,"internal_node_id":"0.0-1.0"},{"group":"hexagon_tri","room_assignment":["purple","green","yellow","red","grey","blue"],"door_color_assignment":["black","white"],"door_generator_assignment":[1,0],"goal":4,"start":0,"action_noise":0.15,"location_history":"[0,1,5,0,1,3,2,1,3,2,1,5,0,1,5,0,5,4]","action_history":"[1,1,1,1,0,0,0,0,1,0,1,0,1,1,1,0,0]","door_history":"[0,0,0,0,1,1,1,1,0,1,0,1,0,0,0,1,1]","location_rts":"[11923,3393,2632,2432,941,1683,1134,2770,1512,2452,1052,2002,1231,2872,3044,1144,1201]","trial_type":"two-door-navigation","trial_index":2,"time_elapsed":143354,"internal_node_id":"0.0-2.0-0.0"},{"group":"hexagon_tri","room_assignment":["purple","green","yellow","red","grey","blue"],"door_color_assignment":["black","white"],"door_generator_assignment":[1,0],"goal":3,"start":4,"action_noise":0.15,"location_history":"[4,2,3]","action_history":"[1,1]","door_history":"[0,0]","location_rts":"[22420,2344]","trial_type":"two-door-navigation","trial_index":3,"time_elapsed":173619,"internal_node_id":"0.0-2.0-1.0"},{"group":"hexagon_tri","room_assignment":["purple","green","yellow","red","grey","blue"],"door_color_assignment":["black","white"],"door_generator_assignment":[1,0],"goal":5,"start":3,"action_noise":0.15,"location_history":"[3,4,2,3,4,2,1,3,4,2,3,4,0,5]","action_history":"[1,1,1,0,1,0,0,0,1,1,1,0,0]","door_history":"[0,0,0,1,0,1,1,1,0,0,0,1,1]","location_rts":"[2076,523,584,1183,1959,884,1783,3982,1223,1106,1037,1796,1136]","trial_type":"two-door-navigation","trial_index":4,"time_elapsed":209483,"internal_node_id":"0.0-2.0-2.0"},{"group":"hexagon_tri","room_assignment":["purple","green","yellow","red","grey","blue"],"door_color_assignment":["black","white"],"door_generator_assignment":[1,0],"goal":2,"start":5,"action_noise":0.15,"location_history":"[5,0,5,0,5,4,2]","action_history":"[1,0,1,0,0,1]","door_history":"[0,1,0,1,1,0]","location_rts":"[2315,1288,1704,839,1539,926]","trial_type":"two-door-navigation","trial_index":5,"time_elapsed":227683,"internal_node_id":"0.0-2.0-3.0"},{"group":"hexagon_tri","room_assignment":["purple","green","yellow","red","grey","blue"],"door_color_assignment":["black","white"],"door_generator_assignment":[1,0],"goal":1,"start":2,"action_noise":0.15,"location_history":"[2,3,2,3,2,3,4,2,1]","action_history":"[1,1,1,0,0,1,1,0]","door_history":"[0,0,0,1,1,0,0,1]","location_rts":"[1870,640,676,872,992,889,1368,1138]","trial_type":"two-door-navigation","trial_index":6,"time_elapsed":247679,"internal_node_id":"0.0-2.0-4.0"},{"group":"hexagon_tri","room_assignment":["purple","green","yellow","red","grey","blue"],"door_color_assignment":["black","white"],"door_generator_assignment":[1,0],"goal":4,"start":1,"action_noise":0.15,"location_history":"[1,5,0,5,0,1,3,4]","action_history":"[1,1,1,1,0,0,1]","door_history":"[0,0,0,0,1,1,0]","location_rts":"[1848,503,496,583,755,536,911]","trial_type":"two-door-navigation","trial_index":7,"time_elapsed":264229,"internal_node_id":"0.0-2.0-5.0"},{"group":"hexagon_tri","room_assignment":["purple","green","yellow","red","grey","blue"],"door_color_assignment":["black","white"],"door_generator_assignment":[1,0],"goal":1,"start":4,"action_noise":0.15,"location_history":"[4,2,3,2,1]","action_history":"[1,0,1,0]","door_history":"[0,1,0,1]","location_rts":"[31552,496,743,1008]","trial_type":"two-door-navigation","trial_index":8,"time_elapsed":305556,"internal_node_id":"0.0-2.0-6.0"},{"group":"hexagon_tri","room_assignment":["purple","green","yellow","red","grey","blue"],"door_color_assignment":["black","white"],"door_generator_assignment":[1,0],"goal":5,"start":1,"action_noise":0.15,"location_history":"[1,3,4,0,1,5]","action_history":"[0,1,0,1,1]","door_history":"[1,0,1,0,0]","location_rts":"[2521,440,705,694,1088]","trial_type":"two-door-navigation","trial_index":9,"time_elapsed":319514,"internal_node_id":"0.0-2.0-7.0"},{"group":"hexagon_tri","room_assignment":["purple","green","yellow","red","grey","blue"],"door_color_assignment":["black","white"],"door_generator_assignment":[1,0],"goal":0,"start":5,"action_noise":0.15,"location_history":"[5,0]","action_history":"[1]","door_history":"[0]","location_rts":"[1365]","trial_type":"two-door-navigation","trial_index":10,"time_elapsed":325392,"internal_node_id":"0.0-2.0-8.0"},{"group":"hexagon_tri","room_assignment":["purple","green","yellow","red","grey","blue"],"door_color_assignment":["black","white"],"door_generator_assignment":[1,0],"goal":2,"start":0,"action_noise":0.15,"location_history":"[0,1,5,0,5,0,1,3,2]","action_history":"[1,1,0,0,1,1,0,0]","door_history":"[0,0,1,1,0,0,1,1]","location_rts":"[1353,1652,735,713,837,1097,775,1295]","trial_type":"two-door-navigation","trial_index":11,"time_elapsed":345388,"internal_node_id":"0.0-2.0-9.0"},{"group":"hexagon_tri","room_assignment":["purple","green","yellow","red","grey","blue"],"door_color_assignment":["black","white"],"door_generator_assignment":[1,0],"goal":3,"start":2,"action_noise":0.15,"location_history":"[2,3]","action_history":"[1]","door_history":"[0]","location_rts":"[1683]","trial_type":"two-door-navigation","trial_index":12,"time_elapsed":351573,"internal_node_id":"0.0-2.0-10.0"},{"group":"hexagon_tri","room_assignment":["purple","green","yellow","red","grey","blue"],"door_color_assignment":["black","white"],"door_generator_assignment":[1,0],"goal":0,"start":3,"action_noise":0.15,"location_history":"[3,4,2,3,2,3,4,0]","action_history":"[1,1,0,0,1,1,0]","door_history":"[0,0,1,1,0,0,1]","location_rts":"[1266,712,792,1311,925,1492,850]","trial_type":"two-door-navigation","trial_index":13,"time_elapsed":369426,"internal_node_id":"0.0-2.0-11.0"},{"group":"hexagon_tri","room_assignment":["purple","green","yellow","red","grey","blue"],"door_color_assignment":["black","white"],"door_generator_assignment":[1,0],"goal":2,"start":0,"action_noise":0.15,"location_history":"[0,1,5,4,0,1,3,2]","action_history":"[1,1,0,0,1,0,0]","door_history":"[0,0,1,1,0,1,1]","location_rts":"[1611,477,672,663,792,776,807]","trial_type":"two-door-navigation","trial_index":14,"time_elapsed":385748,"internal_node_id":"0.0-2.0-12.0"},{"group":"hexagon_tri","room_assignment":["purple","green","yellow","red","grey","blue"],"door_color_assignment":["black","white"],"door_generator_assignment":[1,0],"goal":5,"start":2,"action_noise":0.15,"location_history":"[2,1,5]","action_history":"[0,1]","door_history":"[1,0]","location_rts":"[2194,936]","trial_type":"two-door-navigation","trial_index":15,"time_elapsed":394392,"internal_node_id":"0.0-2.0-13.0"},{"group":"hexagon_tri","room_assignment":["purple","green","yellow","red","grey","blue"],"door_color_assignment":["black","white"],"door_generator_assignment":[1,0],"goal":4,"start":5,"action_noise":0.15,"location_history":"[5,0,5,4]","action_history":"[0,1,1]","door_history":"[1,0,0]","location_rts":"[2694,799,796]","trial_type":"two-door-navigation","trial_index":16,"time_elapsed":405186,"internal_node_id":"0.0-2.0-14.0"},{"group":"hexagon_tri","room_assignment":["purple","green","yellow","red","grey","blue"],"door_color_assignment":["black","white"],"door_generator_assignment":[1,0],"goal":3,"start":4,"action_noise":0.15,"location_history":"[4,2,1,3]","action_history":"[1,1,0]","door_history":"[0,0,1]","location_rts":"[1725,825,775]","trial_type":"two-door-navigation","trial_index":17,"time_elapsed":415016,"internal_node_id":"0.0-2.0-15.0"},{"group":"hexagon_tri","room_assignment":["purple","green","yellow","red","grey","blue"],"door_color_assignment":["black","white"],"door_generator_assignment":[1,0],"goal":1,"start":3,"action_noise":0.15,"location_history":"[3,4,2,1]","action_history":"[1,1,0]","door_history":"[0,0,1]","location_rts":"[3278,576,641]","trial_type":"two-door-navigation","trial_index":18,"time_elapsed":426020,"internal_node_id":"0.0-2.0-16.0"},{"group":"hexagon_tri","room_assignment":["purple","green","yellow","red","grey","blue"],"door_color_assignment":["black","white"],"door_generator_assignment":[1,0],"goal":5,"start":1,"action_noise":0.15,"location_history":"[1,3,4,2,1,5]","action_history":"[1,0,1,0,1]","door_history":"[0,1,0,1,0]","location_rts":"[3122,5690,809,711,682]","trial_type":"two-door-navigation","trial_index":19,"time_elapsed":445646,"internal_node_id":"0.0-2.0-17.0"},{"group":"hexagon_tri","room_assignment":["purple","green","yellow","red","grey","blue"],"door_color_assignment":["black","white"],"door_generator_assignment":[1,0],"goal":4,"start":5,"action_noise":0.15,"location_history":"[5,0,1,5,0,5,0,5,0,5,4]","action_history":"[1,1,1,0,0,1,0,1,0,0]","door_history":"[0,0,0,1,1,0,1,0,1,1]","location_rts":"[1330,440,390,832,514,1102,955,746,659,695]","trial_type":"two-door-navigation","trial_index":20,"time_elapsed":466820,"internal_node_id":"0.0-2.0-18.0"},{"group":"hexagon_tri","room_assignment":["purple","green","yellow","red","grey","blue"],"door_color_assignment":["black","white"],"door_generator_assignment":[1,0],"goal":0,"start":4,"action_noise":0.15,"location_history":"[4,0]","action_history":"[1]","door_history":"[0]","location_rts":"[237910]","trial_type":"two-door-navigation","trial_index":21,"time_elapsed":709235,"internal_node_id":"0.0-2.0-19.0"},{"group":"hexagon_tri","room_assignment":["purple","green","yellow","red","grey","blue"],"door_color_assignment":["black","white"],"door_generator_assignment":[1,0],"goal":1,"start":0,"action_noise":0.15,"location_history":"[0,1]","action_history":"[1]","door_history":"[0]","location_rts":"[1308]","trial_type":"two-door-navigation","trial_index":22,"time_elapsed":715054,"internal_node_id":"0.0-2.0-20.0"},{"group":"hexagon_tri","room_assignment":["purple","green","yellow","red","grey","blue"],"door_color_assignment":["black","white"],"door_generator_assignment":[1,0],"goal":3,"start":1,"action_noise":0.15,"location_history":"[1,5,4,0,1,5,0,5,4,0,1,3]","action_history":"[1,1,0,1,0,1,0,0,0,1,1]","door_history":"[0,0,1,0,1,0,1,1,1,0,0]","location_rts":"[903,421,664,1416,1222,663,743,398,388,1009,458]","trial_type":"two-door-navigation","trial_index":23,"time_elapsed":737868,"internal_node_id":"0.0-2.0-21.0"},{"group":"hexagon_tri","room_assignment":["purple","green","yellow","red","grey","blue"],"door_color_assignment":["black","white"],"door_generator_assignment":[1,0],"goal":2,"start":3,"action_noise":0.15,"location_history":"[3,4,2]","action_history":"[1,1]","door_history":"[0,0]","location_rts":"[1052,440]","trial_type":"two-door-navigation","trial_index":24,"time_elapsed":744861,"internal_node_id":"0.0-2.0-22.0"},{"group":"hexagon_tri","room_assignment":["purple","green","yellow","red","grey","blue"],"door_color_assignment":["black","white"],"door_generator_assignment":[1,0],"goal":0,"start":2,"action_noise":0.15,"location_history":"[2,1,5,4,0]","action_history":"[1,1,1,0]","door_history":"[0,0,0,1]","location_rts":"[754,344,558,879]","trial_type":"two-door-navigation","trial_index":25,"time_elapsed":754898,"internal_node_id":"0.0-2.0-23.0"},{"group":"hexagon_tri","room_assignment":["purple","green","yellow","red","grey","blue"],"door_color_assignment":["black","white"],"door_generator_assignment":[1,0],"goal":3,"start":0,"action_noise":0.15,"location_history":"[0,1,5,0,5,4,2,3]","action_history":"[1,1,1,0,0,1,0]","door_history":"[0,0,0,1,1,0,1]","location_rts":"[1053,349,584,783,507,864,805]","trial_type":"two-door-navigation","trial_index":26,"time_elapsed":770380,"internal_node_id":"0.0-2.0-24.0"},{"group":"hexagon_tri","room_assignment":["purple","green","yellow","red","grey","blue"],"door_color_assignment":["black","white"],"door_generator_assignment":[1,0],"goal":1,"start":3,"action_noise":0.15,"location_history":"[3,4,2,3,2,3,2,3,4,0,5,4,2,1]","action_history":"[1,1,0,0,1,0,1,1,0,0,0,1,1]","door_history":"[0,0,1,1,0,1,0,0,1,1,1,0,0]","location_rts":"[781,372,744,752,727,824,751,1063,777,519,760,822,1296]","trial_type":"two-door-navigation","trial_index":27,"time_elapsed":797095,"internal_node_id":"0.0-2.0-25.0"},{"group":"hexagon_tri","room_assignment":["purple","green","yellow","red","grey","blue"],"door_color_assignment":["black","white"],"door_generator_assignment":[1,0],"goal":2,"start":1,"action_noise":0.15,"location_history":"[1,5,0,5,4,2]","action_history":"[1,1,0,0,1]","door_history":"[0,0,1,1,0]","location_rts":"[1655,358,921,529,1062]","trial_type":"two-door-navigation","trial_index":28,"time_elapsed":810139,"internal_node_id":"0.0-2.0-26.0"},{"group":"hexagon_tri","room_assignment":["purple","green","yellow","red","grey","blue"],"door_color_assignment":["black","white"],"door_generator_assignment":[1,0],"goal":5,"start":2,"action_noise":0.15,"location_history":"[2,3,4,2,3,2,1,3,4,2,3,2,1,5]","action_history":"[1,1,0,1,0,0,0,1,1,1,0,0,1]","door_history":"[0,0,1,0,1,1,1,0,0,0,1,1,0]","location_rts":"[754,417,720,647,480,767,432,839,504,633,911,576,408]","trial_type":"two-door-navigation","trial_index":29,"time_elapsed":834748,"internal_node_id":"0.0-2.0-27.0"},{"group":"hexagon_tri","room_assignment":["purple","green","yellow","red","grey","blue"],"door_color_assignment":["black","white"],"door_generator_assignment":[1,0],"goal":4,"start":5,"action_noise":0.15,"location_history":"[5,0,1,5,4]","action_history":"[1,1,0,0]","door_history":"[0,0,1,1]","location_rts":"[1173,919,911,797]","trial_type":"two-door-navigation","trial_index":30,"time_elapsed":846069,"internal_node_id":"0.0-2.0-28.0"},{"group":"hexagon_tri","room_assignment":["purple","green","yellow","red","grey","blue"],"door_color_assignment":["black","white"],"door_generator_assignment":[1,0],"goal":5,"start":4,"action_noise":0.15,"location_history":"[4,2,3,4,0,1,3,4,0,5]","action_history":"[1,1,0,0,1,0,1,0,0]","door_history":"[0,0,1,1,0,1,0,1,1]","location_rts":"[411,374,516,638,934,680,1114,1880,999]","trial_type":"two-door-navigation","trial_index":31,"time_elapsed":866139,"internal_node_id":"0.0-2.0-29.0"},{"group":"hexagon_tri","room_assignment":["purple","green","yellow","red","grey","blue"],"door_color_assignment":["black","white"],"door_generator_assignment":[1,0],"goal":3,"start":5,"action_noise":0.15,"location_history":"[5,0,1,5,4,0,5,4,2,3]","action_history":"[1,1,1,0,0,1,0,1,1]","door_history":"[0,0,0,1,1,0,1,0,0]","location_rts":"[184874,424,432,1291,1547,924,782,793,519]","trial_type":"two-door-navigation","trial_index":32,"time_elapsed":1070339,"internal_node_id":"0.0-2.0-30.0"},{"group":"hexagon_tri","room_assignment":["purple","green","yellow","red","grey","blue"],"door_color_assignment":["black","white"],"door_generator_assignment":[1,0],"goal":0,"start":3,"action_noise":0.15,"location_history":"[3,2,3,2,3,2,1,3,2,1,5,4,2,3,2,1,5,0]","action_history":"[1,1,0,1,0,0,0,0,0,1,0,1,1,0,0,1,0]","door_history":"[0,0,1,0,1,1,1,1,1,0,1,0,0,1,1,0,1]","location_rts":"[932,352,848,847,460,441,439,1288,1549,601,994,677,2881,1319,1013,841,812]","trial_type":"two-door-navigation","trial_index":33,"time_elapsed":1107195,"internal_node_id":"0.0-2.0-31.0"},{"group":"hexagon_tri","room_assignment":["purple","green","yellow","red","grey","blue"],"door_color_assignment":["black","white"],"door_generator_assignment":[1,0],"goal":4,"start":0,"action_noise":0.15,"location_history":"[0,1,3,4]","action_history":"[1,1,0]","door_history":"[0,0,1]","location_rts":"[939,337,406]","trial_type":"two-door-navigation","trial_index":34,"time_elapsed":1115378,"internal_node_id":"0.0-2.0-32.0"},{"group":"hexagon_tri","room_assignment":["purple","green","yellow","red","grey","blue"],"door_color_assignment":["black","white"],"door_generator_assignment":[1,0],"goal":1,"start":4,"action_noise":0.15,"location_history":"[4,2,3,2,1]","action_history":"[1,1,0,0]","door_history":"[0,0,1,1]","location_rts":"[1235,312,427,1158]","trial_type":"two-door-navigation","trial_index":35,"time_elapsed":1126019,"internal_node_id":"0.0-2.0-33.0"},{"group":"hexagon_tri","room_assignment":["purple","green","yellow","red","grey","blue"],"door_color_assignment":["black","white"],"door_generator_assignment":[1,0],"goal":2,"start":1,"action_noise":0.15,"location_history":"[1,5,0,5,4,0,5,0,5,4,0,1,5,4,0,1,5,0,5,0,5,0,5,4,2]","action_history":"[1,1,0,0,1,0,1,0,0,0,1,1,0,0,1,1,1,0,1,0,1,0,0,1]","door_history":"[0,0,1,1,0,1,0,1,1,1,0,0,1,1,0,0,0,1,0,1,0,1,1,0]","location_rts":"[348,385,322,1011,642,608,704,715,332,560,1079,520,447,679,1081,487,520,1459,1164,1040,867,1855,301,519]","trial_type":"two-door-navigation","trial_index":36,"time_elapsed":1171246,"internal_node_id":"0.0-2.0-34.0"},{"group":"hexagon_tri","room_assignment":["purple","green","yellow","red","grey","blue"],"door_color_assignment":["black","white"],"door_generator_assignment":[1,0],"goal":0,"start":2,"action_noise":0.15,"location_history":"[2,3,4,0]","action_history":"[1,1,0]","door_history":"[0,0,1]","location_rts":"[1175,879,539]","trial_type":"two-door-navigation","trial_index":37,"time_elapsed":1180355,"internal_node_id":"0.0-2.0-35.0"},{"group":"hexagon_tri","room_assignment":["purple","green","yellow","red","grey","blue"],"door_color_assignment":["black","white"],"door_generator_assignment":[1,0],"goal":5,"start":0,"action_noise":0.15,"location_history":"[0,1,3,4,0,5]","action_history":"[1,0,1,0,0]","door_history":"[0,1,0,1,1]","location_rts":"[1032,1813,664,800,1176]","trial_type":"two-door-navigation","trial_index":38,"time_elapsed":1194366,"internal_node_id":"0.0-2.0-36.0"},{"group":"hexagon_tri","room_assignment":["purple","green","yellow","red","grey","blue"],"door_color_assignment":["black","white"],"door_generator_assignment":[1,0],"goal":2,"start":5,"action_noise":0.15,"location_history":"[5,0,5,4,2]","action_history":"[1,1,0,1]","door_history":"[0,0,1,0]","location_rts":"[1065,490,921,927]","trial_type":"two-door-navigation","trial_index":39,"time_elapsed":1205276,"internal_node_id":"0.0-2.0-37.0"},{"group":"hexagon_tri","room_assignment":["purple","green","yellow","red","grey","blue"],"door_color_assignment":["black","white"],"door_generator_assignment":[1,0],"goal":1,"start":2,"action_noise":0.15,"location_history":"[2,3,4,2,3,2,1]","action_history":"[1,0,0,1,1,0]","door_history":"[0,1,1,0,0,1]","location_rts":"[907,921,871,1144,2300,704]","trial_type":"two-door-navigation","trial_index":40,"time_elapsed":1221645,"internal_node_id":"0.0-2.0-38.0"},{"group":"hexagon_tri","room_assignment":["purple","green","yellow","red","grey","blue"],"door_color_assignment":["black","white"],"door_generator_assignment":[1,0],"goal":4,"start":1,"action_noise":0.15,"location_history":"[1,5,4]","action_history":"[1,1]","door_history":"[0,0]","location_rts":"[1034,465]","trial_type":"two-door-navigation","trial_index":41,"time_elapsed":1228646,"internal_node_id":"0.0-2.0-39.0"},{"group":"hexagon_tri","room_assignment":["purple","green","yellow","red","grey","blue"],"door_color_assignment":["black","white"],"door_generator_assignment":[1,0],"goal":3,"start":4,"action_noise":0.15,"location_history":"[4,2,3]","action_history":"[1,1]","door_history":"[0,0]","location_rts":"[785,1002]","trial_type":"two-door-navigation","trial_index":42,"time_elapsed":1235963,"internal_node_id":"0.0-2.0-40.0"},{"group":"hexagon_tri","room_assignment":["purple","green","yellow","red","grey","blue"],"door_color_assignment":["black","white"],"door_generator_assignment":[1,0],"goal":5,"start":3,"action_noise":0.15,"location_history":"[3,4,2,1,3,4,2,1,3,4,2,1,5]","action_history":"[1,1,0,0,1,1,0,0,1,1,0,1]","door_history":"[0,0,1,1,0,0,1,1,0,0,1,0]","location_rts":"[829,398,512,847,691,1032,864,1256,857,540,975,1809]","trial_type":"two-door-navigation","trial_index":43,"time_elapsed":1262095,"internal_node_id":"0.0-2.0-41.0"},{"group":"hexagon_tri","room_assignment":["purple","green","yellow","red","grey","blue"],"door_color_assignment":["black","white"],"door_generator_assignment":[1,0],"goal":3,"start":5,"action_noise":0.15,"location_history":"[5,4,0,1,5,0,5,0,1,3]","action_history":"[1,1,0,1,0,0,1,1,0]","door_history":"[0,0,1,0,1,1,0,0,1]","location_rts":"[746,339,401,820,728,1325,669,1384,729]","trial_type":"two-door-navigation","trial_index":44,"time_elapsed":1282250,"internal_node_id":"0.0-2.0-42.0"},{"group":"hexagon_tri","room_assignment":["purple","green","yellow","red","grey","blue"],"door_color_assignment":["black","white"],"door_generator_assignment":[1,0],"goal":0,"start":3,"action_noise":0.15,"location_history":"[3,4,2,1,3,4,2,1,5,4,2,3,2,1,5,4,2,1,5,0]","action_history":"[1,1,0,0,1,1,0,0,0,1,1,0,0,1,0,1,1,1,1]","door_history":"[0,0,1,1,0,0,1,1,1,0,0,1,1,0,1,0,0,0,0]","location_rts":"[55273,375,752,734,697,848,664,656,992,656,595,860,840,1103,1178,1089,600,558,528]","trial_type":"two-door-navigation","trial_index":45,"time_elapsed":1374763,"internal_node_id":"0.0-2.0-43.0"},{"group":"hexagon_tri","room_assignment":["purple","green","yellow","red","grey","blue"],"door_color_assignment":["black","white"],"door_generator_assignment":[1,0],"goal":2,"start":0,"action_noise":0.15,"location_history":"[0,1,5,0,5,0,5,4,0,1,5,4,0,5,4,2]","action_history":"[1,1,0,0,1,0,0,0,1,1,0,0,1,1,0]","door_history":"[0,0,1,1,0,1,1,1,0,0,1,1,0,0,1]","location_rts":"[980,321,621,929,458,693,728,1292,599,471,719,702,1766,1225,501]","trial_type":"two-door-navigation","trial_index":46,"time_elapsed":1405288,"internal_node_id":"0.0-2.0-44.0"},{"group":"hexagon_tri","room_assignment":["purple","green","yellow","red","grey","blue"],"door_color_assignment":["black","white"],"door_generator_assignment":[1,0],"goal":4,"start":2,"action_noise":0.15,"location_history":"[2,3,4]","action_history":"[1,1]","door_history":"[0,0]","location_rts":"[335,393]","trial_type":"two-door-navigation","trial_index":47,"time_elapsed":1411517,"internal_node_id":"0.0-2.0-45.0"},{"group":"hexagon_tri","room_assignment":["purple","green","yellow","red","grey","blue"],"door_color_assignment":["black","white"],"door_generator_assignment":[1,0],"goal":1,"start":4,"action_noise":0.15,"location_history":"[4,2,1]","action_history":"[1,0]","door_history":"[0,1]","location_rts":"[282,1048]","trial_type":"two-door-navigation","trial_index":48,"time_elapsed":1418346,"internal_node_id":"0.0-2.0-46.0"},{"group":"hexagon_tri","room_assignment":["purple","green","yellow","red","grey","blue"],"door_color_assignment":["black","white"],"door_generator_assignment":[1,0],"goal":4,"start":1,"action_noise":0.15,"location_history":"[1,5,4]","action_history":"[1,0]","door_history":"[0,1]","location_rts":"[388,1684]","trial_type":"two-door-navigation","trial_index":49,"time_elapsed":1425948,"internal_node_id":"0.0-2.0-47.0"},{"group":"hexagon_tri","room_assignment":["purple","green","yellow","red","grey","blue"],"door_color_assignment":["black","white"],"door_generator_assignment":[1,0],"goal":3,"start":4,"action_noise":0.15,"location_history":"[4,2,3]","action_history":"[1,1]","door_history":"[0,0]","location_rts":"[932,473]","trial_type":"two-door-navigation","trial_index":50,"time_elapsed":1432852,"internal_node_id":"0.0-2.0-48.0"},{"group":"hexagon_tri","room_assignment":["purple","green","yellow","red","grey","blue"],"door_color_assignment":["black","white"],"door_generator_assignment":[1,0],"goal":5,"start":3,"action_noise":0.15,"location_history":"[3,2,3,2,1,3,4,2,3,2,1,3,2,3,4,2,3,2,1,5]","action_history":"[1,1,0,0,0,1,0,1,0,0,0,0,1,1,1,1,0,0,1]","door_history":"[0,0,1,1,1,0,1,0,1,1,1,1,0,0,0,0,1,1,0]","location_rts":"[314,369,465,1746,1150,824,988,664,589,353,384,969,984,445,456,411,808,1441,365]","trial_type":"two-door-navigation","trial_index":51,"time_elapsed":1469228,"internal_node_id":"0.0-2.0-49.0"},{"view_history":"[{\"page_index\":0,\"viewing_time\":3639}]","rt":3639,"trial_type":"instructions","trial_index":52,"time_elapsed":1474869,"internal_node_id":"0.0-3.0"},{"view_history":"[{\"page_index\":0,\"viewing_time\":3070},{\"page_index\":1,\"viewing_time\":28496}]","rt":31568,"trial_type":"instructions","trial_index":53,"time_elapsed":1507437,"internal_node_id":"0.0-4.0"},{"group":"hexagon_tri","fractal_assignment":["../images/pnk_blu.png","../images/org_blu.png","../images/ylw_slt.png","../images/gry_blk.png","../images/cyn_red.png","../images/blu_wht.png"],"mutagen_generator_assignment":[0,1],"goal":4,"start":0,"action_noise":0.15,"location_history":"[0,5,0,1,3,4]","action_history":"[0,1,1,0,1]","mutagen_history":"[0,1,1,0,1]","location_rts":"[12402,3682,2089,2402,4922]","trial_type":"fractal-mutation","trial_index":54,"time_elapsed":1541519,"internal_node_id":"0.0-5.0-0.0"},{"group":"hexagon_tri","fractal_assignment":["../images/pnk_blu.png","../images/org_blu.png","../images/ylw_slt.png","../images/gry_blk.png","../images/cyn_red.png","../images/blu_wht.png"],"mutagen_generator_assignment":[0,1],"goal":3,"start":4,"action_noise":0.15,"location_history":"[4,2,3]","action_history":"[1,1]","mutagen_history":"[1,1]","location_rts":"[2408,884]","trial_type":"fractal-mutation","trial_index":55,"time_elapsed":1550372,"internal_node_id":"0.0-5.0-1.0"},{"group":"hexagon_tri","fractal_assignment":["../images/pnk_blu.png","../images/org_blu.png","../images/ylw_slt.png","../images/gry_blk.png","../images/cyn_red.png","../images/blu_wht.png"],"mutagen_generator_assignment":[0,1],"goal":5,"start":3,"action_noise":0.15,"location_history":"[3,2,1,5]","action_history":"[0,0,0]","mutagen_history":"[0,0,0]","location_rts":"[1133,709,839]","trial_type":"fractal-mutation","trial_index":56,"time_elapsed":1559587,"internal_node_id":"0.0-5.0-2.0"},{"group":"hexagon_tri","fractal_assignment":["../images/pnk_blu.png","../images/org_blu.png","../images/ylw_slt.png","../images/gry_blk.png","../images/cyn_red.png","../images/blu_wht.png"],"mutagen_generator_assignment":[0,1],"goal":2,"start":5,"action_noise":0.15,"location_history":"[5,0,5,0,1,5,0,1,5,0,5,0,5,0,5,4,2]","action_history":"[0,0,0,1,1,1,1,1,1,0,1,0,1,0,0,1]","mutagen_history":"[0,0,0,1,1,1,1,1,1,0,1,0,1,0,0,1]","location_rts":"[1206,510,658,1377,1038,669,783,1024,781,2370,760,563,817,1690,542,740]","trial_type":"fractal-mutation","trial_index":57,"time_elapsed":1594883,"internal_node_id":"0.0-5.0-3.0"},{"group":"hexagon_tri","fractal_assignment":["../images/pnk_blu.png","../images/org_blu.png","../images/ylw_slt.png","../images/gry_blk.png","../images/cyn_red.png","../images/blu_wht.png"],"mutagen_generator_assignment":[0,1],"goal":1,"start":2,"action_noise":0.15,"location_history":"[2,1]","action_history":"[1]","mutagen_history":"[1]","location_rts":"[1763]","trial_type":"fractal-mutation","trial_index":58,"time_elapsed":1601159,"internal_node_id":"0.0-5.0-4.0"},{"group":"hexagon_tri","fractal_assignment":["../images/pnk_blu.png","../images/org_blu.png","../images/ylw_slt.png","../images/gry_blk.png","../images/cyn_red.png","../images/blu_wht.png"],"mutagen_generator_assignment":[0,1],"goal":4,"start":1,"action_noise":0.15,"location_history":"[1,5,4]","action_history":"[1,0]","mutagen_history":"[1,0]","location_rts":"[2860,1080]","trial_type":"fractal-mutation","trial_index":59,"time_elapsed":1610617,"internal_node_id":"0.0-5.0-5.0"},{"group":"hexagon_tri","fractal_assignment":["../images/pnk_blu.png","../images/org_blu.png","../images/ylw_slt.png","../images/gry_blk.png","../images/cyn_red.png","../images/blu_wht.png"],"mutagen_generator_assignment":[0,1],"goal":1,"start":4,"action_noise":0.15,"location_history":"[4,2,3,4,2,3,4,0,1]","action_history":"[1,1,1,1,1,1,0,1]","mutagen_history":"[1,1,1,1,1,1,0,1]","location_rts":"[1151,1839,906,934,1119,864,767,944]","trial_type":"fractal-mutation","trial_index":60,"time_elapsed":1630788,"internal_node_id":"0.0-5.0-6.0"},{"group":"hexagon_tri","fractal_assignment":["../images/pnk_blu.png","../images/org_blu.png","../images/ylw_slt.png","../images/gry_blk.png","../images/cyn_red.png","../images/blu_wht.png"],"mutagen_generator_assignment":[0,1],"goal":5,"start":1,"action_noise":0.15,"location_history":"[1,3,2,1,3,4,0,1,3,4,0,5]","action_history":"[0,0,0,0,1,0,1,0,0,0,0]","mutagen_history":"[0,0,0,0,1,0,1,0,0,0,0]","location_rts":"[1416,480,539,384,840,577,733,475,1600,783,996]","trial_type":"fractal-mutation","trial_index":61,"time_elapsed":1654226,"internal_node_id":"0.0-5.0-7.0"},{"group":"hexagon_tri","fractal_assignment":["../images/pnk_blu.png","../images/org_blu.png","../images/ylw_slt.png","../images/gry_blk.png","../images/cyn_red.png","../images/blu_wht.png"],"mutagen_generator_assignment":[0,1],"goal":0,"start":5,"action_noise":0.15,"location_history":"[5,0]","action_history":"[1]","mutagen_history":"[1]","location_rts":"[2620]","trial_type":"fractal-mutation","trial_index":62,"time_elapsed":1661355,"internal_node_id":"0.0-5.0-8.0"},{"group":"hexagon_tri","fractal_assignment":["../images/pnk_blu.png","../images/org_blu.png","../images/ylw_slt.png","../images/gry_blk.png","../images/cyn_red.png","../images/blu_wht.png"],"mutagen_generator_assignment":[0,1],"goal":2,"start":0,"action_noise":0.15,"location_history":"[0,1,3,4,2]","action_history":"[1,0,1,0]","mutagen_history":"[1,0,1,0]","location_rts":"[1752,438,768,443]","trial_type":"fractal-mutation","trial_index":63,"time_elapsed":1672460,"internal_node_id":"0.0-5.0-9.0"},{"group":"hexagon_tri","fractal_assignment":["../images/pnk_blu.png","../images/org_blu.png","../images/ylw_slt.png","../images/gry_blk.png","../images/cyn_red.png","../images/blu_wht.png"],"mutagen_generator_assignment":[0,1],"goal":3,"start":2,"action_noise":0.15,"location_history":"[2,3]","action_history":"[1]","mutagen_history":"[1]","location_rts":"[2023]","trial_type":"fractal-mutation","trial_index":64,"time_elapsed":1679009,"internal_node_id":"0.0-5.0-10.0"},{"group":"hexagon_tri","fractal_assignment":["../images/pnk_blu.png","../images/org_blu.png","../images/ylw_slt.png","../images/gry_blk.png","../images/cyn_red.png","../images/blu_wht.png"],"mutagen_generator_assignment":[0,1],"goal":0,"start":3,"action_noise":0.15,"location_history":"[3,2,3,2,1,5,0]","action_history":"[0,1,0,0,1,1]","mutagen_history":"[0,1,0,0,1,1]","location_rts":"[3562,553,692,859,1004,667]","trial_type":"fractal-mutation","trial_index":65,"time_elapsed":1696061,"internal_node_id":"0.0-5.0-11.0"},{"group":"hexagon_tri","fractal_assignment":["../images/pnk_blu.png","../images/org_blu.png","../images/ylw_slt.png","../images/gry_blk.png","../images/cyn_red.png","../images/blu_wht.png"],"mutagen_generator_assignment":[0,1],"goal":2,"start":0,"action_noise":0.15,"location_history":"[0,1,5,4,0,5,4,0,1,5,0,5,4,2]","action_history":"[0,1,0,0,0,1,0,0,0,1,0,0,1]","mutagen_history":"[0,1,0,0,0,1,0,0,0,1,0,0,1]","location_rts":"[2257,991,410,687,1654,597,708,1680,1595,540,725,990,599]","trial_type":"fractal-mutation","trial_index":66,"time_elapsed":1726209,"internal_node_id":"0.0-5.0-12.0"},{"group":"hexagon_tri","fractal_assignment":["../images/pnk_blu.png","../images/org_blu.png","../images/ylw_slt.png","../images/gry_blk.png","../images/cyn_red.png","../images/blu_wht.png"],"mutagen_generator_assignment":[0,1],"goal":5,"start":2,"action_noise":0.15,"location_history":"[2,1,3,4,0,1,3,4,2,1,3,4,2,1,5]","action_history":"[1,0,1,0,1,0,0,1,0,0,1,1,0,1]","mutagen_history":"[1,0,1,0,1,0,0,1,0,0,1,1,0,1]","location_rts":"[2323,530,805,512,819,599,392,1099,773,1834,559,1028,534,917]","trial_type":"fractal-mutation","trial_index":67,"time_elapsed":1756598,"internal_node_id":"0.0-5.0-13.0"},{"group":"hexagon_tri","fractal_assignment":["../images/pnk_blu.png","../images/org_blu.png","../images/ylw_slt.png","../images/gry_blk.png","../images/cyn_red.png","../images/blu_wht.png"],"mutagen_generator_assignment":[0,1],"goal":4,"start":5,"action_noise":0.15,"location_history":"[5,4]","action_history":"[0]","mutagen_history":"[0]","location_rts":"[1444]","trial_type":"fractal-mutation","trial_index":68,"time_elapsed":1762565,"internal_node_id":"0.0-5.0-14.0"},{"group":"hexagon_tri","fractal_assignment":["../images/pnk_blu.png","../images/org_blu.png","../images/ylw_slt.png","../images/gry_blk.png","../images/cyn_red.png","../images/blu_wht.png"],"mutagen_generator_assignment":[0,1],"goal":3,"start":4,"action_noise":0.15,"location_history":"[4,0,1,5,0,5,0,1,3]","action_history":"[1,0,1,1,0,0,0,1]","mutagen_history":"[1,0,1,1,0,0,0,1]","location_rts":"[1197,607,647,791,689,455,603,816]","trial_type":"fractal-mutation","trial_index":69,"time_elapsed":1780060,"internal_node_id":"0.0-5.0-15.0"},{"group":"hexagon_tri","fractal_assignment":["../images/pnk_blu.png","../images/org_blu.png","../images/ylw_slt.png","../images/gry_blk.png","../images/cyn_red.png","../images/blu_wht.png"],"mutagen_generator_assignment":[0,1],"goal":1,"start":3,"action_noise":0.15,"location_history":"[3,4,0,1]","action_history":"[0,0,1]","mutagen_history":"[0,0,1]","location_rts":"[8203,778,592]","trial_type":"fractal-mutation","trial_index":70,"time_elapsed":1796152,"internal_node_id":"0.0-5.0-16.0"},{"group":"hexagon_tri","fractal_assignment":["../images/pnk_blu.png","../images/org_blu.png","../images/ylw_slt.png","../images/gry_blk.png","../images/cyn_red.png","../images/blu_wht.png"],"mutagen_generator_assignment":[0,1],"goal":5,"start":1,"action_noise":0.15,"location_history":"[1,5]","action_history":"[1]","mutagen_history":"[1]","location_rts":"[1850]","trial_type":"fractal-mutation","trial_index":71,"time_elapsed":1802512,"internal_node_id":"0.0-5.0-17.0"},{"group":"hexagon_tri","fractal_assignment":["../images/pnk_blu.png","../images/org_blu.png","../images/ylw_slt.png","../images/gry_blk.png","../images/cyn_red.png","../images/blu_wht.png"],"mutagen_generator_assignment":[0,1],"goal":4,"start":5,"action_noise":0.15,"location_history":"[5,4]","action_history":"[1]","mutagen_history":"[1]","location_rts":"[1435]","trial_type":"fractal-mutation","trial_index":72,"time_elapsed":1808457,"internal_node_id":"0.0-5.0-18.0"},{"group":"hexagon_tri","fractal_assignment":["../images/pnk_blu.png","../images/org_blu.png","../images/ylw_slt.png","../images/gry_blk.png","../images/cyn_red.png","../images/blu_wht.png"],"mutagen_generator_assignment":[0,1],"goal":0,"start":4,"action_noise":0.15,"location_history":"[4,2,1,3,2,1,3,4,2,1,5,0]","action_history":"[1,0,0,1,0,0,1,1,0,1,1]","mutagen_history":"[1,0,0,1,0,0,1,1,0,1,1]","location_rts":"[1428,405,591,956,785,774,488,962,818,1101,1033]","trial_type":"fractal-mutation","trial_index":73,"time_elapsed":1832486,"internal_node_id":"0.0-5.0-19.0"},{"group":"hexagon_tri","fractal_assignment":["../images/pnk_blu.png","../images/org_blu.png","../images/ylw_slt.png","../images/gry_blk.png","../images/cyn_red.png","../images/blu_wht.png"],"mutagen_generator_assignment":[0,1],"goal":1,"start":0,"action_noise":0.15,"location_history":"[0,5,0,5,4,2,3,4,2,1]","action_history":"[1,0,0,0,0,1,1,1,0]","mutagen_history":"[1,0,0,0,0,1,1,1,0]","location_rts":"[2230,503,799,1009,931,500,622,593,693]","trial_type":"fractal-mutation","trial_index":74,"time_elapsed":1852946,"internal_node_id":"0.0-5.0-20.0"},{"group":"hexagon_tri","fractal_assignment":["../images/pnk_blu.png","../images/org_blu.png","../images/ylw_slt.png","../images/gry_blk.png","../images/cyn_red.png","../images/blu_wht.png"],"mutagen_generator_assignment":[0,1],"goal":3,"start":1,"action_noise":0.15,"location_history":"[1,5,4,0,1,5,4,0,1,5,4,2,3]","action_history":"[1,0,0,0,1,0,0,1,1,0,1,1]","mutagen_history":"[1,0,0,0,1,0,0,1,1,0,1,1]","location_rts":"[1132,533,557,557,1061,604,620,575,589,612,498,673]","trial_type":"fractal-mutation","trial_index":75,"time_elapsed":1876708,"internal_node_id":"0.0-5.0-21.0"},{"group":"hexagon_tri","fractal_assignment":["../images/pnk_blu.png","../images/org_blu.png","../images/ylw_slt.png","../images/gry_blk.png","../images/cyn_red.png","../images/blu_wht.png"],"mutagen_generator_assignment":[0,1],"goal":2,"start":3,"action_noise":0.15,"location_history":"[3,2]","action_history":"[0]","mutagen_history":"[0]","location_rts":"[1515]","trial_type":"fractal-mutation","trial_index":76,"time_elapsed":1882725,"internal_node_id":"0.0-5.0-22.0"},{"group":"hexagon_tri","fractal_assignment":["../images/pnk_blu.png","../images/org_blu.png","../images/ylw_slt.png","../images/gry_blk.png","../images/cyn_red.png","../images/blu_wht.png"],"mutagen_generator_assignment":[0,1],"goal":0,"start":2,"action_noise":0.15,"location_history":"[2,3,4,2,1,5,4,2,3,2,1,3,4,2,1,5,0]","action_history":"[0,1,1,0,1,0,1,1,0,0,0,1,1,0,0,1]","mutagen_history":"[0,1,1,0,1,0,1,1,0,0,0,1,1,0,0,1]","location_rts":"[1776,409,609,900,469,1199,755,783,474,593,495,711,592,716,715,1084]","trial_type":"fractal-mutation","trial_index":77,"time_elapsed":1914714,"internal_node_id":"0.0-5.0-23.0"},{"group":"hexagon_tri","fractal_assignment":["../images/pnk_blu.png","../images/org_blu.png","../images/ylw_slt.png","../images/gry_blk.png","../images/cyn_red.png","../images/blu_wht.png"],"mutagen_generator_assignment":[0,1],"goal":3,"start":0,"action_noise":0.15,"location_history":"[0,5,4,2,1,5,0,5,0,1,3]","action_history":"[1,0,1,0,1,0,0,1,1,0]","mutagen_history":"[1,0,1,0,1,0,0,1,1,0]","location_rts":"[11968,1725,656,955,509,626,705,439,523,821]","trial_type":"fractal-mutation","trial_index":78,"time_elapsed":1947362,"internal_node_id":"0.0-5.0-24.0"},{"group":"hexagon_tri","fractal_assignment":["../images/pnk_blu.png","../images/org_blu.png","../images/ylw_slt.png","../images/gry_blk.png","../images/cyn_red.png","../images/blu_wht.png"],"mutagen_generator_assignment":[0,1],"goal":1,"start":3,"action_noise":0.15,"location_history":"[3,2,3,2,3,4,0,5,4,0,1]","action_history":"[0,1,0,0,1,1,0,1,0,1]","mutagen_history":"[0,1,0,0,1,1,0,1,0,1]","location_rts":"[2046,843,881,763,1057,750,372,303,431,315]","trial_type":"fractal-mutation","trial_index":79,"time_elapsed":1968760,"internal_node_id":"0.0-5.0-25.0"},{"group":"hexagon_tri","fractal_assignment":["../images/pnk_blu.png","../images/org_blu.png","../images/ylw_slt.png","../images/gry_blk.png","../images/cyn_red.png","../images/blu_wht.png"],"mutagen_generator_assignment":[0,1],"goal":2,"start":1,"action_noise":0.15,"location_history":"[1,5,4,0,5,0,1,3,4,0,5,0,1,3,4,2]","action_history":"[0,0,0,0,1,1,0,1,0,0,1,1,0,1,1]","mutagen_history":"[0,0,0,0,1,1,0,1,0,0,1,1,0,1,1]","location_rts":"[1521,1374,722,450,438,509,1185,1048,745,649,500,448,865,847,555]","trial_type":"fractal-mutation","trial_index":80,"time_elapsed":1999420,"internal_node_id":"0.0-5.0-26.0"},{"group":"hexagon_tri","fractal_assignment":["../images/pnk_blu.png","../images/org_blu.png","../images/ylw_slt.png","../images/gry_blk.png","../images/cyn_red.png","../images/blu_wht.png"],"mutagen_generator_assignment":[0,1],"goal":5,"start":2,"action_noise":0.15,"location_history":"[2,1,3,4,0,1,3,2,1,3,4,0,1,3,2,3,4,0,1,5]","action_history":"[1,0,1,0,1,0,1,0,1,1,0,1,0,0,1,0,0,1,1]","mutagen_history":"[1,0,1,0,1,0,1,0,1,1,0,1,0,0,1,0,0,1,1]","location_rts":"[2002,353,451,452,460,291,305,449,363,354,292,601,339,369,438,436,351,590,659]","trial_type":"fractal-mutation","trial_index":81,"time_elapsed":2031709,"internal_node_id":"0.0-5.0-27.0"},{"group":"hexagon_tri","fractal_assignment":["../images/pnk_blu.png","../images/org_blu.png","../images/ylw_slt.png","../images/gry_blk.png","../images/cyn_red.png","../images/blu_wht.png"],"mutagen_generator_assignment":[0,1],"goal":4,"start":5,"action_noise":0.15,"location_history":"[5,0,5,4]","action_history":"[1,0,0]","mutagen_history":"[1,0,0]","location_rts":"[1922,709,777]","trial_type":"fractal-mutation","trial_index":82,"time_elapsed":2041713,"internal_node_id":"0.0-5.0-28.0"},{"group":"hexagon_tri","fractal_assignment":["../images/pnk_blu.png","../images/org_blu.png","../images/ylw_slt.png","../images/gry_blk.png","../images/cyn_red.png","../images/blu_wht.png"],"mutagen_generator_assignment":[0,1],"goal":5,"start":4,"action_noise":0.15,"location_history":"[4,2,3,4,0,1,3,4,0,5]","action_history":"[1,0,1,0,1,0,1,0,0]","mutagen_history":"[1,0,1,0,1,0,1,0,0]","location_rts":"[2335,2005,446,407,595,329,389,330,275]","trial_type":"fractal-mutation","trial_index":83,"time_elapsed":2061423,"internal_node_id":"0.0-5.0-29.0"},{"group":"hexagon_tri","fractal_assignment":["../images/pnk_blu.png","../images/org_blu.png","../images/ylw_slt.png","../images/gry_blk.png","../images/cyn_red.png","../images/blu_wht.png"],"mutagen_generator_assignment":[0,1],"goal":3,"start":5,"action_noise":0.15,"location_history":"[5,0,1,5,4,0,5,4,0,5,0,1,3]","action_history":"[0,1,1,0,0,0,0,0,1,1,1,0]","mutagen_history":"[0,1,1,0,0,0,0,0,1,1,1,0]","location_rts":"[1842,501,996,455,598,565,602,542,708,1585,577,1115]","trial_type":"fractal-mutation","trial_index":84,"time_elapsed":2087286,"internal_node_id":"0.0-5.0-30.0"},{"group":"hexagon_tri","fractal_assignment":["../images/pnk_blu.png","../images/org_blu.png","../images/ylw_slt.png","../images/gry_blk.png","../images/cyn_red.png","../images/blu_wht.png"],"mutagen_generator_assignment":[0,1],"goal":0,"start":3,"action_noise":0.15,"location_history":"[3,4,0]","action_history":"[1,0]","mutagen_history":"[1,0]","location_rts":"[2223,658]","trial_type":"fractal-mutation","trial_index":85,"time_elapsed":2095682,"internal_node_id":"0.0-5.0-31.0"},{"group":"hexagon_tri","fractal_assignment":["../images/pnk_blu.png","../images/org_blu.png","../images/ylw_slt.png","../images/gry_blk.png","../images/cyn_red.png","../images/blu_wht.png"],"mutagen_generator_assignment":[0,1],"goal":4,"start":0,"action_noise":0.15,"location_history":"[0,5,0,1,3,2,1,5,0,5,0,1,5,0,1,5,4]","action_history":"[0,0,0,0,0,0,1,1,0,1,1,1,1,1,1,0]","mutagen_history":"[0,0,0,0,0,0,1,1,0,1,1,1,1,1,1,0]","location_rts":"[1904,644,591,620,402,540,578,545,496,476,385,509,1006,924,558,552]","trial_type":"fractal-mutation","trial_index":86,"time_elapsed":2126102,"internal_node_id":"0.0-5.0-32.0"},{"group":"hexagon_tri","fractal_assignment":["../images/pnk_blu.png","../images/org_blu.png","../images/ylw_slt.png","../images/gry_blk.png","../images/cyn_red.png","../images/blu_wht.png"],"mutagen_generator_assignment":[0,1],"goal":1,"start":4,"action_noise":0.15,"location_history":"[4,2,1]","action_history":"[1,0]","mutagen_history":"[1,0]","location_rts":"[1774,1074]","trial_type":"fractal-mutation","trial_index":87,"time_elapsed":2134494,"internal_node_id":"0.0-5.0-33.0"},{"group":"hexagon_tri","fractal_assignment":["../images/pnk_blu.png","../images/org_blu.png","../images/ylw_slt.png","../images/gry_blk.png","../images/cyn_red.png","../images/blu_wht.png"],"mutagen_generator_assignment":[0,1],"goal":2,"start":1,"action_noise":0.15,"location_history":"[1,3,2]","action_history":"[0,0]","mutagen_history":"[0,0]","location_rts":"[2677,1674]","trial_type":"fractal-mutation","trial_index":88,"time_elapsed":2144349,"internal_node_id":"0.0-5.0-34.0"},{"group":"hexagon_tri","fractal_assignment":["../images/pnk_blu.png","../images/org_blu.png","../images/ylw_slt.png","../images/gry_blk.png","../images/cyn_red.png","../images/blu_wht.png"],"mutagen_generator_assignment":[0,1],"goal":0,"start":2,"action_noise":0.15,"location_history":"[2,1,5,4,2,1,5,4,0]","action_history":"[1,1,0,1,0,1,0,0]","mutagen_history":"[1,1,0,1,0,1,0,0]","location_rts":"[2086,1596,766,1279,575,634,766,1051]","trial_type":"fractal-mutation","trial_index":89,"time_elapsed":2164769,"internal_node_id":"0.0-5.0-35.0"},{"group":"hexagon_tri","fractal_assignment":["../images/pnk_blu.png","../images/org_blu.png","../images/ylw_slt.png","../images/gry_blk.png","../images/cyn_red.png","../images/blu_wht.png"],"mutagen_generator_assignment":[0,1],"goal":5,"start":0,"action_noise":0.15,"location_history":"[0,1,3,4,0,5]","action_history":"[0,1,1,0,0]","mutagen_history":"[0,1,1,0,0]","location_rts":"[2149,485,516,811,999]","trial_type":"fractal-mutation","trial_index":90,"time_elapsed":2178314,"internal_node_id":"0.0-5.0-36.0"},{"group":"hexagon_tri","fractal_assignment":["../images/pnk_blu.png","../images/org_blu.png","../images/ylw_slt.png","../images/gry_blk.png","../images/cyn_red.png","../images/blu_wht.png"],"mutagen_generator_assignment":[0,1],"goal":2,"start":5,"action_noise":0.15,"location_history":"[5,4,0,5,0,1,3,2]","action_history":"[0,0,1,1,1,0,0]","mutagen_history":"[0,0,1,1,1,0,0]","location_rts":"[2622,928,598,529,649,1048,617]","trial_type":"fractal-mutation","trial_index":91,"time_elapsed":2195913,"internal_node_id":"0.0-5.0-37.0"},{"group":"hexagon_tri","fractal_assignment":["../images/pnk_blu.png","../images/org_blu.png","../images/ylw_slt.png","../images/gry_blk.png","../images/cyn_red.png","../images/blu_wht.png"],"mutagen_generator_assignment":[0,1],"goal":1,"start":2,"action_noise":0.15,"location_history":"[2,1]","action_history":"[0]","mutagen_history":"[0]","location_rts":"[2423]","trial_type":"fractal-mutation","trial_index":92,"time_elapsed":2202853,"internal_node_id":"0.0-5.0-38.0"},{"group":"hexagon_tri","fractal_assignment":["../images/pnk_blu.png","../images/org_blu.png","../images/ylw_slt.png","../images/gry_blk.png","../images/cyn_red.png","../images/blu_wht.png"],"mutagen_generator_assignment":[0,1],"goal":4,"start":1,"action_noise":0.15,"location_history":"[1,5,4]","action_history":"[1,0]","mutagen_history":"[1,0]","location_rts":"[3136,1916]","trial_type":"fractal-mutation","trial_index":93,"time_elapsed":2213412,"internal_node_id":"0.0-5.0-39.0"},{"group":"hexagon_tri","fractal_assignment":["../images/pnk_blu.png","../images/org_blu.png","../images/ylw_slt.png","../images/gry_blk.png","../images/cyn_red.png","../images/blu_wht.png"],"mutagen_generator_assignment":[0,1],"goal":3,"start":4,"action_noise":0.15,"location_history":"[4,0,1,3]","action_history":"[0,0,0]","mutagen_history":"[0,0,0]","location_rts":"[3073,425,487]","trial_type":"fractal-mutation","trial_index":94,"time_elapsed":2223967,"internal_node_id":"0.0-5.0-40.0"},{"group":"hexagon_tri","fractal_assignment":["../images/pnk_blu.png","../images/org_blu.png","../images/ylw_slt.png","../images/gry_blk.png","../images/cyn_red.png","../images/blu_wht.png"],"mutagen_generator_assignment":[0,1],"goal":5,"start":3,"action_noise":0.15,"location_history":"[3,2,3,2,1,5]","action_history":"[1,0,0,0,1]","mutagen_history":"[1,0,0,0,1]","location_rts":"[2464,791,778,640,593]","trial_type":"fractal-mutation","trial_index":95,"time_elapsed":2237790,"internal_node_id":"0.0-5.0-41.0"},{"group":"hexagon_tri","fractal_assignment":["../images/pnk_blu.png","../images/org_blu.png","../images/ylw_slt.png","../images/gry_blk.png","../images/cyn_red.png","../images/blu_wht.png"],"mutagen_generator_assignment":[0,1],"goal":3,"start":5,"action_noise":0.15,"location_history":"[5,4,0,5,0,1,3]","action_history":"[0,0,0,0,1,0]","mutagen_history":"[0,0,0,0,1,0]","location_rts":"[1268,279,289,326,661,378]","trial_type":"fractal-mutation","trial_index":96,"time_elapsed":2250514,"internal_node_id":"0.0-5.0-42.0"},{"group":"hexagon_tri","fractal_assignment":["../images/pnk_blu.png","../images/org_blu.png","../images/ylw_slt.png","../images/gry_blk.png","../images/cyn_red.png","../images/blu_wht.png"],"mutagen_generator_assignment":[0,1],"goal":0,"start":3,"action_noise":0.15,"location_history":"[3,4,2,3,4,0]","action_history":"[1,1,1,1,0]","mutagen_history":"[1,1,1,1,0]","location_rts":"[2449,1208,465,503,439]","trial_type":"fractal-mutation","trial_index":97,"time_elapsed":2264161,"internal_node_id":"0.0-5.0-43.0"},{"group":"hexagon_tri","fractal_assignment":["../images/pnk_blu.png","../images/org_blu.png","../images/ylw_slt.png","../images/gry_blk.png","../images/cyn_red.png","../images/blu_wht.png"],"mutagen_generator_assignment":[0,1],"goal":2,"start":0,"action_noise":0.15,"location_history":"[0,5,4,0,1,3,4,0,1,5,0,1,3,2]","action_history":"[0,0,0,1,0,1,0,0,1,1,1,0,0]","mutagen_history":"[0,0,0,1,0,1,0,0,1,1,1,0,0]","location_rts":"[1341,433,520,468,575,694,386,750,1130,653,436,648,740]","trial_type":"fractal-mutation","trial_index":98,"time_elapsed":2289555,"internal_node_id":"0.0-5.0-44.0"},{"group":"hexagon_tri","fractal_assignment":["../images/pnk_blu.png","../images/org_blu.png","../images/ylw_slt.png","../images/gry_blk.png","../images/cyn_red.png","../images/blu_wht.png"],"mutagen_generator_assignment":[0,1],"goal":4,"start":2,"action_noise":0.15,"location_history":"[2,3,4]","action_history":"[1,1]","mutagen_history":"[1,1]","location_rts":"[1716,976]","trial_type":"fractal-mutation","trial_index":99,"time_elapsed":2297774,"internal_node_id":"0.0-5.0-45.0"},{"group":"hexagon_tri","fractal_assignment":["../images/pnk_blu.png","../images/org_blu.png","../images/ylw_slt.png","../images/gry_blk.png","../images/cyn_red.png","../images/blu_wht.png"],"mutagen_generator_assignment":[0,1],"goal":1,"start":4,"action_noise":0.15,"location_history":"[4,0,1]","action_history":"[0,1]","mutagen_history":"[0,1]","location_rts":"[1457,728]","trial_type":"fractal-mutation","trial_index":100,"time_elapsed":2305531,"internal_node_id":"0.0-5.0-46.0"},{"group":"hexagon_tri","fractal_assignment":["../images/pnk_blu.png","../images/org_blu.png","../images/ylw_slt.png","../images/gry_blk.png","../images/cyn_red.png","../images/blu_wht.png"],"mutagen_generator_assignment":[0,1],"goal":4,"start":1,"action_noise":0.15,"location_history":"[1,5,4]","action_history":"[1,0]","mutagen_history":"[1,0]","location_rts":"[1923,1320]","trial_type":"fractal-mutation","trial_index":101,"time_elapsed":2314280,"internal_node_id":"0.0-5.0-47.0"},{"group":"hexagon_tri","fractal_assignment":["../images/pnk_blu.png","../images/org_blu.png","../images/ylw_slt.png","../images/gry_blk.png","../images/cyn_red.png","../images/blu_wht.png"],"mutagen_generator_assignment":[0,1],"goal":3,"start":4,"action_noise":0.15,"location_history":"[4,0,1,3]","action_history":"[0,1,0]","mutagen_history":"[0,1,0]","location_rts":"[3521,713,1706]","trial_type":"fractal-mutation","trial_index":102,"time_elapsed":2326736,"internal_node_id":"0.0-5.0-48.0"},{"group":"hexagon_tri","fractal_assignment":["../images/pnk_blu.png","../images/org_blu.png","../images/ylw_slt.png","../images/gry_blk.png","../images/cyn_red.png","../images/blu_wht.png"],"mutagen_generator_assignment":[0,1],"goal":5,"start":3,"action_noise":0.15,"location_history":"[3,4,2,3,4,0,5]","action_history":"[1,1,1,1,0,0]","mutagen_history":"[1,1,1,1,0,0]","location_rts":"[3553,1761,1121,809,694,1036]","trial_type":"fractal-mutation","trial_index":103,"time_elapsed":2345306,"internal_node_id":"0.0-5.0-49.0"},{"view_history":"[{\"page_index\":0,\"viewing_time\":10049}]","rt":10050,"trial_type":"instructions","trial_index":104,"time_elapsed":2356356,"internal_node_id":"0.0-6.0"},{"rt":4573,"responses":"{\"Q0\":\"none\"}","trial_type":"survey-text","trial_index":105,"time_elapsed":2361935,"internal_node_id":"0.0-7.0"}]