[{"view_history":"[{\"page_index\":0,\"viewing_time\":132323},{\"page_index\":1,\"viewing_time\":7773},{\"page_index\":2,\"viewing_time\":63566},{\"page_index\":3,\"viewing_time\":5468}]","rt":209130,"trial_type":"instructions","trial_index":0,"time_elapsed":209130,"internal_node_id":"0.0-0.0"},{"view_history":"[{\"page_index\":0,\"viewing_time\":2933},{\"page_index\":1,\"viewing_time\":49796}]","rt":52729,"trial_type":"instructions","trial_index":1,"time_elapsed":262861,"internal_node_id":"0.0-1.0"},{"group":"hexagon_tri","room_assignment":["purple","green","red","yellow","blue","grey"],"door_color_assignment":["black","white"],"door_generator_assignment":[1,0],"goal":4,"start":0,"action_noise":0.15,"location_history":"[0,1,5,4]","action_history":"[1,1,0]","door_history":"[0,0,1]","location_rts":"[1439,1919,1594]","trial_type":"two-door-navigation","trial_index":2,"time_elapsed":274398,"internal_node_id":"0.0-2.0-0.0"},{"group":"hexagon_tri","room_assignment":["purple","green","red","yellow","blue","grey"],"door_color_assignment":["black","white"],"door_generator_assignment":[1,0],"goal":3,"start":4,"action_noise":0.15,"location_history":"[4,0,5,0,1,5,4,0,1,3]","action_history":"[0,0,1,1,1,0,0,0,0]","door_history":"[1,1,0,0,0,1,1,1,1]","location_rts":"[2715,1791,1535,1585,977,940,629,736,640]","trial_type":"two-door-navigation","trial_index":3,"time_elapsed":298646,"internal_node_id":"0.0-2.0-1.0"},{"group":"hexagon_tri","room_assignment":["purple","green","red","yellow","blue","grey"],"door_color_assignment":["black","white"],"door_generator_assignment":[1,0],"goal":5,"start":3,"action_noise":0.15,"location_history":"[3,4,2,3,4,0,1,5]","action_history":"[1,1,1,1,1,1,1]","door_history":"[0,0,0,0,0,0,0]","location_rts":"[2709,684,380,347,344,348,473]","trial_type":"two-door-navigation","trial_index":4,"time_elapsed":314588,"internal_node_id":"0.0-2.0-2.0"},{"group":"hexagon_tri","room_assignment":["purple","green","red","yellow","blue","grey"],"door_color_assignment":["black","white"],"door_generator_assignment":[1,0],"goal":2,"start":5,"action_noise":0.15,"location_history":"[5,4,2]","action_history":"[0,0]","door_history":"[1,1]","location_rts":"[3169,197]","trial_type":"two-door-navigation","trial_index":5,"time_elapsed":323503,"internal_node_id":"0.0-2.0-3.0"},{"group":"hexagon_tri","room_assignment":["purple","green","red","yellow","blue","grey"],"door_color_assignment":["black","white"],"door_generator_assignment":[1,0],"goal":1,"start":2,"action_noise":0.15,"location_history":"[2,3,2,1]","action_history":"[1,1,1]","door_history":"[0,0,0]","location_rts":"[2359,456,343]","trial_type":"two-door-navigation","trial_index":6,"time_elapsed":333231,"internal_node_id":"0.0-2.0-4.0"},{"group":"hexagon_tri","room_assignment":["purple","green","red","yellow","blue","grey"],"door_color_assignment":["black","white"],"door_generator_assignment":[1,0],"goal":4,"start":1,"action_noise":0.15,"location_history":"[1,3,4]","action_history":"[0,0]","door_history":"[1,1]","location_rts":"[2133,334]","trial_type":"two-door-navigation","trial_index":7,"time_elapsed":341249,"internal_node_id":"0.0-2.0-5.0"},{"group":"hexagon_tri","room_assignment":["purple","green","red","yellow","blue","grey"],"door_color_assignment":["black","white"],"door_generator_assignment":[1,0],"goal":1,"start":4,"action_noise":0.15,"location_history":"[4,2,1]","action_history":"[1,1]","door_history":"[0,0]","location_rts":"[1524,268]","trial_type":"two-door-navigation","trial_index":8,"time_elapsed":348585,"internal_node_id":"0.0-2.0-6.0"},{"group":"hexagon_tri","room_assignment":["purple","green","red","yellow","blue","grey"],"door_color_assignment":["black","white"],"door_generator_assignment":[1,0],"goal":5,"start":1,"action_noise":0.15,"location_history":"[1,3,2,1,3,2,1,3,2,1,3,2,1,5]","action_history":"[0,0,0,0,0,0,0,0,0,0,0,0,1]","door_history":"[1,1,1,1,1,1,1,1,1,1,1,1,0]","location_rts":"[1496,326,325,327,337,348,323,344,307,243,352,333,415]","trial_type":"two-door-navigation","trial_index":9,"time_elapsed":370843,"internal_node_id":"0.0-2.0-7.0"},{"group":"hexagon_tri","room_assignment":["purple","green","red","yellow","blue","grey"],"door_color_assignment":["black","white"],"door_generator_assignment":[1,0],"goal":0,"start":5,"action_noise":0.15,"location_history":"[5,4,0]","action_history":"[0,0]","door_history":"[1,1]","location_rts":"[3393,555]","trial_type":"two-door-navigation","trial_index":10,"time_elapsed":380334,"internal_node_id":"0.0-2.0-8.0"},{"group":"hexagon_tri","room_assignment":["purple","green","red","yellow","blue","grey"],"door_color_assignment":["black","white"],"door_generator_assignment":[1,0],"goal":2,"start":0,"action_noise":0.15,"location_history":"[0,5,0,5,4,2]","action_history":"[0,0,0,0,0]","door_history":"[1,1,1,1,1]","location_rts":"[1822,225,635,315,403]","trial_type":"two-door-navigation","trial_index":11,"time_elapsed":392333,"internal_node_id":"0.0-2.0-9.0"},{"group":"hexagon_tri","room_assignment":["purple","green","red","yellow","blue","grey"],"door_color_assignment":["black","white"],"door_generator_assignment":[1,0],"goal":3,"start":2,"action_noise":0.15,"location_history":"[2,3]","action_history":"[1]","door_history":"[0]","location_rts":"[1781]","trial_type":"two-door-navigation","trial_index":12,"time_elapsed":398641,"internal_node_id":"0.0-2.0-10.0"},{"group":"hexagon_tri","room_assignment":["purple","green","red","yellow","blue","grey"],"door_color_assignment":["black","white"],"door_generator_assignment":[1,0],"goal":0,"start":3,"action_noise":0.15,"location_history":"[3,2,1,3,2,1,3,2,1,5,4,0]","action_history":"[0,0,0,0,0,0,0,0,0,0,0]","door_history":"[1,1,1,1,1,1,1,1,1,1,1]","location_rts":"[1222,236,125,80,132,110,1942,953,456,688,8206]","trial_type":"two-door-navigation","trial_index":13,"time_elapsed":427527,"internal_node_id":"0.0-2.0-11.0"},{"group":"hexagon_tri","room_assignment":["purple","green","red","yellow","blue","grey"],"door_color_assignment":["black","white"],"door_generator_assignment":[1,0],"goal":2,"start":0,"action_noise":0.15,"location_history":"[0,5,4,0,5,4,0,1,5,0,5,0,1,3,2]","action_history":"[0,0,0,0,0,0,1,1,1,1,1,1,0,0]","door_history":"[1,1,1,1,1,1,0,0,0,0,0,0,1,1]","location_rts":"[355223,860,366,411,286,666,1492,2055,359,787,543,356,273,327]","trial_type":"two-door-navigation","trial_index":14,"time_elapsed":809318,"internal_node_id":"0.0-2.0-12.0"},{"group":"hexagon_tri","room_assignment":["purple","green","red","yellow","blue","grey"],"door_color_assignment":["black","white"],"door_generator_assignment":[1,0],"goal":5,"start":2,"action_noise":0.15,"location_history":"[2,1,5]","action_history":"[0,1]","door_history":"[1,0]","location_rts":"[1275,300]","trial_type":"two-door-navigation","trial_index":15,"time_elapsed":816439,"internal_node_id":"0.0-2.0-13.0"},{"group":"hexagon_tri","room_assignment":["purple","green","red","yellow","blue","grey"],"door_color_assignment":["black","white"],"door_generator_assignment":[1,0],"goal":4,"start":5,"action_noise":0.15,"location_history":"[5,4]","action_history":"[0]","door_history":"[1]","location_rts":"[643]","trial_type":"two-door-navigation","trial_index":16,"time_elapsed":821614,"internal_node_id":"0.0-2.0-14.0"},{"group":"hexagon_tri","room_assignment":["purple","green","red","yellow","blue","grey"],"door_color_assignment":["black","white"],"door_generator_assignment":[1,0],"goal":3,"start":4,"action_noise":0.15,"location_history":"[4,0,5,4,0,5,4,0,1,3]","action_history":"[0,0,0,0,0,1,0,0,0]","door_history":"[1,1,1,1,1,0,1,1,1]","location_rts":"[1493,398,324,342,294,488,974,755,476]","trial_type":"two-door-navigation","trial_index":17,"time_elapsed":839838,"internal_node_id":"0.0-2.0-15.0"},{"group":"hexagon_tri","room_assignment":["purple","green","red","yellow","blue","grey"],"door_color_assignment":["black","white"],"door_generator_assignment":[1,0],"goal":1,"start":3,"action_noise":0.15,"location_history":"[3,4,0,1]","action_history":"[1,1,1]","door_history":"[0,0,0]","location_rts":"[1902,1073,534]","trial_type":"two-door-navigation","trial_index":18,"time_elapsed":849916,"internal_node_id":"0.0-2.0-16.0"},{"group":"hexagon_tri","room_assignment":["purple","green","red","yellow","blue","grey"],"door_color_assignment":["black","white"],"door_generator_assignment":[1,0],"goal":5,"start":1,"action_noise":0.15,"location_history":"[1,3,4,0,5]","action_history":"[0,1,0,0]","door_history":"[1,0,1,1]","location_rts":"[174081,378,351,324]","trial_type":"two-door-navigation","trial_index":19,"time_elapsed":1032643,"internal_node_id":"0.0-2.0-17.0"},{"group":"hexagon_tri","room_assignment":["purple","green","red","yellow","blue","grey"],"door_color_assignment":["black","white"],"door_generator_assignment":[1,0],"goal":4,"start":5,"action_noise":0.15,"location_history":"[5,4]","action_history":"[0]","door_history":"[1]","location_rts":"[1961]","trial_type":"two-door-navigation","trial_index":20,"time_elapsed":1039131,"internal_node_id":"0.0-2.0-18.0"},{"group":"hexagon_tri","room_assignment":["purple","green","red","yellow","blue","grey"],"door_color_assignment":["black","white"],"door_generator_assignment":[1,0],"goal":0,"start":4,"action_noise":0.15,"location_history":"[4,0]","action_history":"[0]","door_history":"[1]","location_rts":"[1865]","trial_type":"two-door-navigation","trial_index":21,"time_elapsed":1045529,"internal_node_id":"0.0-2.0-19.0"},{"group":"hexagon_tri","room_assignment":["purple","green","red","yellow","blue","grey"],"door_color_assignment":["black","white"],"door_generator_assignment":[1,0],"goal":1,"start":0,"action_noise":0.15,"location_history":"[0,1]","action_history":"[1]","door_history":"[0]","location_rts":"[1460]","trial_type":"two-door-navigation","trial_index":22,"time_elapsed":1051515,"internal_node_id":"0.0-2.0-20.0"},{"group":"hexagon_tri","room_assignment":["purple","green","red","yellow","blue","grey"],"door_color_assignment":["black","white"],"door_generator_assignment":[1,0],"goal":3,"start":1,"action_noise":0.15,"location_history":"[1,3]","action_history":"[0]","door_history":"[1]","location_rts":"[1967]","trial_type":"two-door-navigation","trial_index":23,"time_elapsed":1058012,"internal_node_id":"0.0-2.0-21.0"},{"group":"hexagon_tri","room_assignment":["purple","green","red","yellow","blue","grey"],"door_color_assignment":["black","white"],"door_generator_assignment":[1,0],"goal":2,"start":3,"action_noise":0.15,"location_history":"[3,2]","action_history":"[0]","door_history":"[1]","location_rts":"[2959]","trial_type":"two-door-navigation","trial_index":24,"time_elapsed":1065496,"internal_node_id":"0.0-2.0-22.0"},{"group":"hexagon_tri","room_assignment":["purple","green","red","yellow","blue","grey"],"door_color_assignment":["black","white"],"door_generator_assignment":[1,0],"goal":0,"start":2,"action_noise":0.15,"location_history":"[2,1,3,2,1,3,4,2,3,4,0]","action_history":"[0,0,0,0,0,1,1,1,1,0]","door_history":"[1,1,1,1,1,0,0,0,0,1]","location_rts":"[1740,648,665,474,375,226,1017,545,639,908]","trial_type":"two-door-navigation","trial_index":25,"time_elapsed":1086449,"internal_node_id":"0.0-2.0-23.0"},{"group":"hexagon_tri","room_assignment":["purple","green","red","yellow","blue","grey"],"door_color_assignment":["black","white"],"door_generator_assignment":[1,0],"goal":3,"start":0,"action_noise":0.15,"location_history":"[0,1,3]","action_history":"[1,0]","door_history":"[0,1]","location_rts":"[3067,406]","trial_type":"two-door-navigation","trial_index":26,"time_elapsed":1095474,"internal_node_id":"0.0-2.0-24.0"},{"group":"hexagon_tri","room_assignment":["purple","green","red","yellow","blue","grey"],"door_color_assignment":["black","white"],"door_generator_assignment":[1,0],"goal":1,"start":3,"action_noise":0.15,"location_history":"[3,4,0,5,0,1]","action_history":"[1,1,0,1,1]","door_history":"[0,0,1,0,0]","location_rts":"[1793,949,878,567,554]","trial_type":"two-door-navigation","trial_index":27,"time_elapsed":1108828,"internal_node_id":"0.0-2.0-25.0"},{"group":"hexagon_tri","room_assignment":["purple","green","red","yellow","blue","grey"],"door_color_assignment":["black","white"],"door_generator_assignment":[1,0],"goal":2,"start":1,"action_noise":0.15,"location_history":"[1,5,0,5,4,2]","action_history":"[1,0,0,0,0]","door_history":"[0,1,1,1,1]","location_rts":"[201,3148,458,375,416]","trial_type":"two-door-navigation","trial_index":28,"time_elapsed":1122035,"internal_node_id":"0.0-2.0-26.0"},{"group":"hexagon_tri","room_assignment":["purple","green","red","yellow","blue","grey"],"door_color_assignment":["black","white"],"door_generator_assignment":[1,0],"goal":5,"start":2,"action_noise":0.15,"location_history":"[2,3,2,3,4,0,5]","action_history":"[1,0,1,1,0,0]","door_history":"[0,1,0,0,1,1]","location_rts":"[2810,426,761,565,521,289]","trial_type":"two-door-navigation","trial_index":29,"time_elapsed":1137045,"internal_node_id":"0.0-2.0-27.0"},{"group":"hexagon_tri","room_assignment":["purple","green","red","yellow","blue","grey"],"door_color_assignment":["black","white"],"door_generator_assignment":[1,0],"goal":4,"start":5,"action_noise":0.15,"location_history":"[5,4]","action_history":"[0]","door_history":"[1]","location_rts":"[195200]","trial_type":"two-door-navigation","trial_index":30,"time_elapsed":1336772,"internal_node_id":"0.0-2.0-28.0"},{"group":"hexagon_tri","room_assignment":["purple","green","red","yellow","blue","grey"],"door_color_assignment":["black","white"],"door_generator_assignment":[1,0],"goal":5,"start":4,"action_noise":0.15,"location_history":"[4,2,1,3,2,3,4,2,1,3,2,3,4,0,5]","action_history":"[1,0,0,0,1,1,1,1,1,0,1,1,0,0]","door_history":"[0,1,1,1,0,0,0,0,0,1,0,0,1,1]","location_rts":"[5222,1940,1701,1979,721,822,552,365,357,416,827,635,555,481]","trial_type":"two-door-navigation","trial_index":31,"time_elapsed":1371146,"internal_node_id":"0.0-2.0-29.0"},{"group":"hexagon_tri","room_assignment":["purple","green","red","yellow","blue","grey"],"door_color_assignment":["black","white"],"door_generator_assignment":[1,0],"goal":3,"start":5,"action_noise":0.15,"location_history":"[5,0,1,3]","action_history":"[1,1,0]","door_history":"[0,0,1]","location_rts":"[1570,1444,755]","trial_type":"two-door-navigation","trial_index":32,"time_elapsed":1381492,"internal_node_id":"0.0-2.0-30.0"},{"group":"hexagon_tri","room_assignment":["purple","green","red","yellow","blue","grey"],"door_color_assignment":["black","white"],"door_generator_assignment":[1,0],"goal":0,"start":3,"action_noise":0.15,"location_history":"[3,4,0]","action_history":"[1,0]","door_history":"[0,1]","location_rts":"[1641,436]","trial_type":"two-door-navigation","trial_index":33,"time_elapsed":1389118,"internal_node_id":"0.0-2.0-31.0"},{"group":"hexagon_tri","room_assignment":["purple","green","red","yellow","blue","grey"],"door_color_assignment":["black","white"],"door_generator_assignment":[1,0],"goal":4,"start":0,"action_noise":0.15,"location_history":"[0,1,5,4]","action_history":"[1,0,0]","door_history":"[0,1,1]","location_rts":"[2931,1630,1030]","trial_type":"two-door-navigation","trial_index":34,"time_elapsed":1401280,"internal_node_id":"0.0-2.0-32.0"},{"group":"hexagon_tri","room_assignment":["purple","green","red","yellow","blue","grey"],"door_color_assignment":["black","white"],"door_generator_assignment":[1,0],"goal":1,"start":4,"action_noise":0.15,"location_history":"[4,2,3,4,0,1]","action_history":"[1,1,1,1,1]","door_history":"[0,0,0,0,0]","location_rts":"[2991,649,653,627,1141]","trial_type":"two-door-navigation","trial_index":35,"time_elapsed":1415949,"internal_node_id":"0.0-2.0-33.0"},{"group":"hexagon_tri","room_assignment":["purple","green","red","yellow","blue","grey"],"door_color_assignment":["black","white"],"door_generator_assignment":[1,0],"goal":2,"start":1,"action_noise":0.15,"location_history":"[1,3,2]","action_history":"[0,1]","door_history":"[1,0]","location_rts":"[5793,2355]","trial_type":"two-door-navigation","trial_index":36,"time_elapsed":1429646,"internal_node_id":"0.0-2.0-34.0"},{"group":"hexagon_tri","room_assignment":["purple","green","red","yellow","blue","grey"],"door_color_assignment":["black","white"],"door_generator_assignment":[1,0],"goal":0,"start":2,"action_noise":0.15,"location_history":"[2,1,3,2,1,5,4,0]","action_history":"[0,0,0,0,1,0,0]","door_history":"[1,1,1,1,0,1,1]","location_rts":"[3346,700,631,1099,2132,4460,258]","trial_type":"two-door-navigation","trial_index":37,"time_elapsed":1452927,"internal_node_id":"0.0-2.0-35.0"},{"group":"hexagon_tri","room_assignment":["purple","green","red","yellow","blue","grey"],"door_color_assignment":["black","white"],"door_generator_assignment":[1,0],"goal":5,"start":0,"action_noise":0.15,"location_history":"[0,1,3,4,0,5]","action_history":"[1,0,1,0,0]","door_history":"[0,1,0,1,1]","location_rts":"[1849,769,748,845,58]","trial_type":"two-door-navigation","trial_index":38,"time_elapsed":1465813,"internal_node_id":"0.0-2.0-36.0"},{"group":"hexagon_tri","room_assignment":["purple","green","red","yellow","blue","grey"],"door_color_assignment":["black","white"],"door_generator_assignment":[1,0],"goal":2,"start":5,"action_noise":0.15,"location_history":"[5,0,5,0,1,3,2]","action_history":"[1,0,1,1,0,0]","door_history":"[0,1,0,0,1,1]","location_rts":"[1620,1060,859,642,893,635]","trial_type":"two-door-navigation","trial_index":39,"time_elapsed":1481153,"internal_node_id":"0.0-2.0-37.0"},{"group":"hexagon_tri","room_assignment":["purple","green","red","yellow","blue","grey"],"door_color_assignment":["black","white"],"door_generator_assignment":[1,0],"goal":1,"start":2,"action_noise":0.15,"location_history":"[2,3,4,2,1]","action_history":"[1,1,1,0]","door_history":"[0,0,0,1]","location_rts":"[1721,679,572,657]","trial_type":"two-door-navigation","trial_index":40,"time_elapsed":1492372,"internal_node_id":"0.0-2.0-38.0"},{"group":"hexagon_tri","room_assignment":["purple","green","red","yellow","blue","grey"],"door_color_assignment":["black","white"],"door_generator_assignment":[1,0],"goal":4,"start":1,"action_noise":0.15,"location_history":"[1,3,2,1,5,4]","action_history":"[1,0,0,1,0]","door_history":"[0,1,1,0,1]","location_rts":"[3223,431,390,662,1294]","trial_type":"two-door-navigation","trial_index":41,"time_elapsed":1506984,"internal_node_id":"0.0-2.0-39.0"},{"group":"hexagon_tri","room_assignment":["purple","green","red","yellow","blue","grey"],"door_color_assignment":["black","white"],"door_generator_assignment":[1,0],"goal":3,"start":4,"action_noise":0.15,"location_history":"[4,2,3]","action_history":"[1,0]","door_history":"[0,1]","location_rts":"[1473,518]","trial_type":"two-door-navigation","trial_index":42,"time_elapsed":1514525,"internal_node_id":"0.0-2.0-40.0"},{"group":"hexagon_tri","room_assignment":["purple","green","red","yellow","blue","grey"],"door_color_assignment":["black","white"],"door_generator_assignment":[1,0],"goal":5,"start":3,"action_noise":0.15,"location_history":"[3,2,3,4,2,1,3,2,3,4,2,3,2,1,3,2,1,3,4,0,1,3,2,3,4,2,3,4,2,1,5]","action_history":"[1,1,1,0,0,0,0,1,1,1,1,1,1,0,0,0,0,0,0,0,0,0,1,1,1,1,1,1,1,1]","door_history":"[0,0,0,1,1,1,1,0,0,0,0,0,0,1,1,1,1,1,1,1,1,1,0,0,0,0,0,0,0,0]","location_rts":"[2327,1400,749,2089,209,2593,706,764,674,553,568,778,466,1839,701,444,200,527,2784,659,1725,309,483,174,734,418,66,42,94,666]","trial_type":"two-door-navigation","trial_index":43,"time_elapsed":1574419,"internal_node_id":"0.0-2.0-41.0"},{"group":"hexagon_tri","room_assignment":["purple","green","red","yellow","blue","grey"],"door_color_assignment":["black","white"],"door_generator_assignment":[1,0],"goal":3,"start":5,"action_noise":0.15,"location_history":"[5,4,2,1,5,0,1,3]","action_history":"[0,1,0,0,0,1,0]","door_history":"[1,0,1,1,1,0,1]","location_rts":"[1288,931,537,1282,1567,361,806]","trial_type":"two-door-navigation","trial_index":44,"time_elapsed":1591848,"internal_node_id":"0.0-2.0-42.0"},{"group":"hexagon_tri","room_assignment":["purple","green","red","yellow","blue","grey"],"door_color_assignment":["black","white"],"door_generator_assignment":[1,0],"goal":0,"start":3,"action_noise":0.15,"location_history":"[3,2,1,3,4,0]","action_history":"[0,1,0,1,0]","door_history":"[1,0,1,0,1]","location_rts":"[1241,860,754,941,891]","trial_type":"two-door-navigation","trial_index":45,"time_elapsed":1605147,"internal_node_id":"0.0-2.0-43.0"},{"group":"hexagon_tri","room_assignment":["purple","green","red","yellow","blue","grey"],"door_color_assignment":["black","white"],"door_generator_assignment":[1,0],"goal":2,"start":0,"action_noise":0.15,"location_history":"[0,1,3,2]","action_history":"[1,0,0]","door_history":"[0,1,1]","location_rts":"[2193,1058,323]","trial_type":"two-door-navigation","trial_index":46,"time_elapsed":1615304,"internal_node_id":"0.0-2.0-44.0"},{"group":"hexagon_tri","room_assignment":["purple","green","red","yellow","blue","grey"],"door_color_assignment":["black","white"],"door_generator_assignment":[1,0],"goal":4,"start":2,"action_noise":0.15,"location_history":"[2,3,4]","action_history":"[1,1]","door_history":"[0,0]","location_rts":"[1554,1209]","trial_type":"two-door-navigation","trial_index":47,"time_elapsed":1623609,"internal_node_id":"0.0-2.0-45.0"},{"group":"hexagon_tri","room_assignment":["purple","green","red","yellow","blue","grey"],"door_color_assignment":["black","white"],"door_generator_assignment":[1,0],"goal":1,"start":4,"action_noise":0.15,"location_history":"[4,0,5,0,1]","action_history":"[0,0,1,1]","door_history":"[1,1,0,0]","location_rts":"[2992,784,406,400]","trial_type":"two-door-navigation","trial_index":48,"time_elapsed":1635778,"internal_node_id":"0.0-2.0-46.0"},{"group":"hexagon_tri","room_assignment":["purple","green","red","yellow","blue","grey"],"door_color_assignment":["black","white"],"door_generator_assignment":[1,0],"goal":4,"start":1,"action_noise":0.15,"location_history":"[1,5,4]","action_history":"[0,0]","door_history":"[1,1]","location_rts":"[1517,1021]","trial_type":"two-door-navigation","trial_index":49,"time_elapsed":1643863,"internal_node_id":"0.0-2.0-47.0"},{"group":"hexagon_tri","room_assignment":["purple","green","red","yellow","blue","grey"],"door_color_assignment":["black","white"],"door_generator_assignment":[1,0],"goal":3,"start":4,"action_noise":0.15,"location_history":"[4,0,1,3]","action_history":"[1,1,0]","door_history":"[0,0,1]","location_rts":"[2515,638,849]","trial_type":"two-door-navigation","trial_index":50,"time_elapsed":1654441,"internal_node_id":"0.0-2.0-48.0"},{"group":"hexagon_tri","room_assignment":["purple","green","red","yellow","blue","grey"],"door_color_assignment":["black","white"],"door_generator_assignment":[1,0],"goal":5,"start":3,"action_noise":0.15,"location_history":"[3,4,0,5]","action_history":"[1,0,0]","door_history":"[0,1,1]","location_rts":"[1892,1459,428]","trial_type":"two-door-navigation","trial_index":51,"time_elapsed":1664789,"internal_node_id":"0.0-2.0-49.0"},{"view_history":"[{\"page_index\":0,\"viewing_time\":4011}]","rt":4011,"trial_type":"instructions","trial_index":52,"time_elapsed":1669800,"internal_node_id":"0.0-3.0"},{"view_history":"[{\"page_index\":0,\"viewing_time\":4333},{\"page_index\":1,\"viewing_time\":71477}]","rt":75810,"trial_type":"instructions","trial_index":53,"time_elapsed":1746613,"internal_node_id":"0.0-4.0"},{"group":"hexagon_bi","fractal_assignment":["../images/gry_blk.png","../images/pnk_blu.png","../images/blu_wht.png","../images/org_blu.png","../images/ylw_slt.png","../images/cyn_red.png"],"mutagen_generator_assignment":[1,0],"goal":4,"start":0,"action_noise":0.15,"location_history":"[0,5,4]","action_history":"[0,1]","mutagen_history":"[1,0]","location_rts":"[14442,4676]","trial_type":"fractal-mutation","trial_index":54,"time_elapsed":1771633,"internal_node_id":"0.0-5.0-0.0"},{"group":"hexagon_bi","fractal_assignment":["../images/gry_blk.png","../images/pnk_blu.png","../images/blu_wht.png","../images/org_blu.png","../images/ylw_slt.png","../images/cyn_red.png"],"mutagen_generator_assignment":[1,0],"goal":3,"start":4,"action_noise":0.15,"location_history":"[4,5,4,3]","action_history":"[1,1,1]","mutagen_history":"[0,0,0]","location_rts":"[2465,810,489]","trial_type":"fractal-mutation","trial_index":55,"time_elapsed":1782291,"internal_node_id":"0.0-5.0-1.0"},{"group":"hexagon_bi","fractal_assignment":["../images/gry_blk.png","../images/pnk_blu.png","../images/blu_wht.png","../images/org_blu.png","../images/ylw_slt.png","../images/cyn_red.png"],"mutagen_generator_assignment":[1,0],"goal":5,"start":3,"action_noise":0.15,"location_history":"[3,2,3,2,1,2,1,2,1,0,5]","action_history":"[1,1,0,0,0,0,0,0,1,0]","mutagen_history":"[0,0,1,1,1,1,1,1,0,1]","location_rts":"[1689,1652,834,712,616,480,445,344,319,1852]","trial_type":"fractal-mutation","trial_index":56,"time_elapsed":1806541,"internal_node_id":"0.0-5.0-2.0"},{"group":"hexagon_bi","fractal_assignment":["../images/gry_blk.png","../images/pnk_blu.png","../images/blu_wht.png","../images/org_blu.png","../images/ylw_slt.png","../images/cyn_red.png"],"mutagen_generator_assignment":[1,0],"goal":2,"start":5,"action_noise":0.15,"location_history":"[5,4,5,4,3,2]","action_history":"[1,1,1,1,1]","mutagen_history":"[0,0,0,0,0]","location_rts":"[3273,569,518,260,1218]","trial_type":"fractal-mutation","trial_index":57,"time_elapsed":1821482,"internal_node_id":"0.0-5.0-3.0"},{"group":"hexagon_bi","fractal_assignment":["../images/gry_blk.png","../images/pnk_blu.png","../images/blu_wht.png","../images/org_blu.png","../images/ylw_slt.png","../images/cyn_red.png"],"mutagen_generator_assignment":[1,0],"goal":1,"start":2,"action_noise":0.15,"location_history":"[2,3,2,1]","action_history":"[1,1,0]","mutagen_history":"[0,0,1]","location_rts":"[2577,500,379]","trial_type":"fractal-mutation","trial_index":58,"time_elapsed":1831906,"internal_node_id":"0.0-5.0-4.0"},{"group":"hexagon_bi","fractal_assignment":["../images/gry_blk.png","../images/pnk_blu.png","../images/blu_wht.png","../images/org_blu.png","../images/ylw_slt.png","../images/cyn_red.png"],"mutagen_generator_assignment":[1,0],"goal":4,"start":1,"action_noise":0.15,"location_history":"[1,0,1,2,3,4]","action_history":"[1,1,1,1,0]","mutagen_history":"[0,0,0,0,1]","location_rts":"[3986,1334,1207,767,671]","trial_type":"fractal-mutation","trial_index":59,"time_elapsed":1849104,"internal_node_id":"0.0-5.0-5.0"},{"group":"hexagon_bi","fractal_assignment":["../images/gry_blk.png","../images/pnk_blu.png","../images/blu_wht.png","../images/org_blu.png","../images/ylw_slt.png","../images/cyn_red.png"],"mutagen_generator_assignment":[1,0],"goal":1,"start":4,"action_noise":0.15,"location_history":"[4,3,2,1]","action_history":"[1,1,0]","mutagen_history":"[0,0,1]","location_rts":"[3850,1500,2853]","trial_type":"fractal-mutation","trial_index":60,"time_elapsed":1864204,"internal_node_id":"0.0-5.0-6.0"},{"group":"hexagon_bi","fractal_assignment":["../images/gry_blk.png","../images/pnk_blu.png","../images/blu_wht.png","../images/org_blu.png","../images/ylw_slt.png","../images/cyn_red.png"],"mutagen_generator_assignment":[1,0],"goal":5,"start":1,"action_noise":0.15,"location_history":"[1,0,1,0,5]","action_history":"[1,1,1,0]","mutagen_history":"[0,0,0,1]","location_rts":"[11768,1196,518,1308]","trial_type":"fractal-mutation","trial_index":61,"time_elapsed":1887070,"internal_node_id":"0.0-5.0-7.0"},{"group":"hexagon_bi","fractal_assignment":["../images/gry_blk.png","../images/pnk_blu.png","../images/blu_wht.png","../images/org_blu.png","../images/ylw_slt.png","../images/cyn_red.png"],"mutagen_generator_assignment":[1,0],"goal":0,"start":5,"action_noise":0.15,"location_history":"[5,0]","action_history":"[0]","mutagen_history":"[1]","location_rts":"[3783]","trial_type":"fractal-mutation","trial_index":62,"time_elapsed":1895594,"internal_node_id":"0.0-5.0-8.0"},{"group":"hexagon_bi","fractal_assignment":["../images/gry_blk.png","../images/pnk_blu.png","../images/blu_wht.png","../images/org_blu.png","../images/ylw_slt.png","../images/cyn_red.png"],"mutagen_generator_assignment":[1,0],"goal":2,"start":0,"action_noise":0.15,"location_history":"[0,5,4,3,4,5,0,1,0,1,0,1,2]","action_history":"[0,0,0,0,1,1,1,1,1,1,1,0]","mutagen_history":"[1,1,1,1,0,0,0,0,0,0,0,1]","location_rts":"[2418,763,833,727,824,598,526,264,462,203,401,89]","trial_type":"fractal-mutation","trial_index":63,"time_elapsed":1921111,"internal_node_id":"0.0-5.0-9.0"},{"group":"hexagon_bi","fractal_assignment":["../images/gry_blk.png","../images/pnk_blu.png","../images/blu_wht.png","../images/org_blu.png","../images/ylw_slt.png","../images/cyn_red.png"],"mutagen_generator_assignment":[1,0],"goal":3,"start":2,"action_noise":0.15,"location_history":"[2,3]","action_history":"[1]","mutagen_history":"[0]","location_rts":"[17123]","trial_type":"fractal-mutation","trial_index":64,"time_elapsed":1942878,"internal_node_id":"0.0-5.0-10.0"},{"group":"hexagon_bi","fractal_assignment":["../images/gry_blk.png","../images/pnk_blu.png","../images/blu_wht.png","../images/org_blu.png","../images/ylw_slt.png","../images/cyn_red.png"],"mutagen_generator_assignment":[1,0],"goal":0,"start":3,"action_noise":0.15,"location_history":"[3,4,3,2,1,2,1,2,3,2,3,4,5,4,3,2,1,2,1,0]","action_history":"[0,0,0,1,0,0,0,1,1,1,0,1,1,0,1,1,1,0,1]","mutagen_history":"[1,1,1,0,1,1,1,0,0,0,1,0,0,1,0,0,0,1,0]","location_rts":"[4062,1923,1077,254,661,946,539,1183,1386,600,718,1951,1255,1679,1142,856,832,2051,1005]","trial_type":"fractal-mutation","trial_index":65,"time_elapsed":1992558,"internal_node_id":"0.0-5.0-11.0"},{"group":"hexagon_bi","fractal_assignment":["../images/gry_blk.png","../images/pnk_blu.png","../images/blu_wht.png","../images/org_blu.png","../images/ylw_slt.png","../images/cyn_red.png"],"mutagen_generator_assignment":[1,0],"goal":2,"start":0,"action_noise":0.15,"location_history":"[0,1,0,5,0,1,2]","action_history":"[1,1,1,0,1,0]","mutagen_history":"[0,0,0,1,0,1]","location_rts":"[4426,1181,650,169,776,1323]","trial_type":"fractal-mutation","trial_index":66,"time_elapsed":2011502,"internal_node_id":"0.0-5.0-12.0"},{"group":"hexagon_bi","fractal_assignment":["../images/gry_blk.png","../images/pnk_blu.png","../images/blu_wht.png","../images/org_blu.png","../images/ylw_slt.png","../images/cyn_red.png"],"mutagen_generator_assignment":[1,0],"goal":5,"start":2,"action_noise":0.15,"location_history":"[2,1,0,1,0,5]","action_history":"[0,1,0,1,1]","mutagen_history":"[1,0,1,0,0]","location_rts":"[2557,2487,2061,1516,302]","trial_type":"fractal-mutation","trial_index":67,"time_elapsed":2029728,"internal_node_id":"0.0-5.0-13.0"},{"group":"hexagon_bi","fractal_assignment":["../images/gry_blk.png","../images/pnk_blu.png","../images/blu_wht.png","../images/org_blu.png","../images/ylw_slt.png","../images/cyn_red.png"],"mutagen_generator_assignment":[1,0],"goal":4,"start":5,"action_noise":0.15,"location_history":"[5,4]","action_history":"[0]","mutagen_history":"[1]","location_rts":"[4358]","trial_type":"fractal-mutation","trial_index":68,"time_elapsed":2038832,"internal_node_id":"0.0-5.0-14.0"},{"group":"hexagon_bi","fractal_assignment":["../images/gry_blk.png","../images/pnk_blu.png","../images/blu_wht.png","../images/org_blu.png","../images/ylw_slt.png","../images/cyn_red.png"],"mutagen_generator_assignment":[1,0],"goal":3,"start":4,"action_noise":0.15,"location_history":"[4,5,0,5,0,5,4,5,4,3]","action_history":"[1,0,0,0,0,1,1,1,0]","mutagen_history":"[0,1,1,1,1,0,0,0,1]","location_rts":"[1860,1865,1402,892,692,211,1257,606,338]","trial_type":"fractal-mutation","trial_index":69,"time_elapsed":2061922,"internal_node_id":"0.0-5.0-15.0"},{"group":"hexagon_bi","fractal_assignment":["../images/gry_blk.png","../images/pnk_blu.png","../images/blu_wht.png","../images/org_blu.png","../images/ylw_slt.png","../images/cyn_red.png"],"mutagen_generator_assignment":[1,0],"goal":1,"start":3,"action_noise":0.15,"location_history":"[3,4,3,2,1]","action_history":"[0,0,1,0]","mutagen_history":"[1,1,0,1]","location_rts":"[5313,848,663,892]","trial_type":"fractal-mutation","trial_index":70,"time_elapsed":2077938,"internal_node_id":"0.0-5.0-16.0"},{"group":"hexagon_bi","fractal_assignment":["../images/gry_blk.png","../images/pnk_blu.png","../images/blu_wht.png","../images/org_blu.png","../images/ylw_slt.png","../images/cyn_red.png"],"mutagen_generator_assignment":[1,0],"goal":5,"start":1,"action_noise":0.15,"location_history":"[1,0,1,0,1,2,1,2,1,0,5]","action_history":"[1,1,1,0,0,0,1,1,0,0]","mutagen_history":"[0,0,0,1,1,1,0,0,1,1]","location_rts":"[1383,1260,2570,336,1030,590,612,502,1530,1229]","trial_type":"fractal-mutation","trial_index":71,"time_elapsed":2104327,"internal_node_id":"0.0-5.0-17.0"},{"group":"hexagon_bi","fractal_assignment":["../images/gry_blk.png","../images/pnk_blu.png","../images/blu_wht.png","../images/org_blu.png","../images/ylw_slt.png","../images/cyn_red.png"],"mutagen_generator_assignment":[1,0],"goal":4,"start":5,"action_noise":0.15,"location_history":"[5,4]","action_history":"[1]","mutagen_history":"[0]","location_rts":"[4081]","trial_type":"fractal-mutation","trial_index":72,"time_elapsed":2113029,"internal_node_id":"0.0-5.0-18.0"},{"group":"hexagon_bi","fractal_assignment":["../images/gry_blk.png","../images/pnk_blu.png","../images/blu_wht.png","../images/org_blu.png","../images/ylw_slt.png","../images/cyn_red.png"],"mutagen_generator_assignment":[1,0],"goal":0,"start":4,"action_noise":0.15,"location_history":"[4,3,2,1,2,3,2,3,4,3,4,5,4,5,0]","action_history":"[0,1,0,0,1,1,1,0,0,0,1,1,1,0]","mutagen_history":"[1,0,1,1,0,0,0,1,1,1,0,0,0,1]","location_rts":"[2586,2200,1686,1160,1199,682,897,553,1064,852,632,2053,506,281]","trial_type":"fractal-mutation","trial_index":73,"time_elapsed":2149075,"internal_node_id":"0.0-5.0-19.0"},{"group":"hexagon_bi","fractal_assignment":["../images/gry_blk.png","../images/pnk_blu.png","../images/blu_wht.png","../images/org_blu.png","../images/ylw_slt.png","../images/cyn_red.png"],"mutagen_generator_assignment":[1,0],"goal":1,"start":0,"action_noise":0.15,"location_history":"[0,5,0,1]","action_history":"[0,0,0]","mutagen_history":"[1,1,1]","location_rts":"[3836,597,1046]","trial_type":"fractal-mutation","trial_index":74,"time_elapsed":2161683,"internal_node_id":"0.0-5.0-20.0"},{"group":"hexagon_bi","fractal_assignment":["../images/gry_blk.png","../images/pnk_blu.png","../images/blu_wht.png","../images/org_blu.png","../images/ylw_slt.png","../images/cyn_red.png"],"mutagen_generator_assignment":[1,0],"goal":3,"start":1,"action_noise":0.15,"location_history":"[1,2,3]","action_history":"[1,1]","mutagen_history":"[0,0]","location_rts":"[2018,1222]","trial_type":"fractal-mutation","trial_index":75,"time_elapsed":2170681,"internal_node_id":"0.0-5.0-21.0"},{"group":"hexagon_bi","fractal_assignment":["../images/gry_blk.png","../images/pnk_blu.png","../images/blu_wht.png","../images/org_blu.png","../images/ylw_slt.png","../images/cyn_red.png"],"mutagen_generator_assignment":[1,0],"goal":2,"start":3,"action_noise":0.15,"location_history":"[3,2]","action_history":"[1]","mutagen_history":"[0]","location_rts":"[1958]","trial_type":"fractal-mutation","trial_index":76,"time_elapsed":2177220,"internal_node_id":"0.0-5.0-22.0"},{"group":"hexagon_bi","fractal_assignment":["../images/gry_blk.png","../images/pnk_blu.png","../images/blu_wht.png","../images/org_blu.png","../images/ylw_slt.png","../images/cyn_red.png"],"mutagen_generator_assignment":[1,0],"goal":0,"start":2,"action_noise":0.15,"location_history":"[2,1,2,1,2,1,0]","action_history":"[0,0,0,0,0,1]","mutagen_history":"[1,1,1,1,1,0]","location_rts":"[1137,1746,356,326,349,137]","trial_type":"fractal-mutation","trial_index":77,"time_elapsed":2191870,"internal_node_id":"0.0-5.0-23.0"},{"group":"hexagon_bi","fractal_assignment":["../images/gry_blk.png","../images/pnk_blu.png","../images/blu_wht.png","../images/org_blu.png","../images/ylw_slt.png","../images/cyn_red.png"],"mutagen_generator_assignment":[1,0],"goal":3,"start":0,"action_noise":0.15,"location_history":"[0,5,0,1,2,1,0,5,4,3]","action_history":"[1,0,1,0,1,1,0,0,0]","mutagen_history":"[0,1,0,1,0,0,1,1,1]","location_rts":"[1707,1776,404,999,694,634,721,487,1275]","trial_type":"fractal-mutation","trial_index":78,"time_elapsed":2214543,"internal_node_id":"0.0-5.0-24.0"},{"group":"hexagon_bi","fractal_assignment":["../images/gry_blk.png","../images/pnk_blu.png","../images/blu_wht.png","../images/org_blu.png","../images/ylw_slt.png","../images/cyn_red.png"],"mutagen_generator_assignment":[1,0],"goal":1,"start":3,"action_noise":0.15,"location_history":"[3,4,3,2,3,2,1]","action_history":"[0,0,1,1,1,0]","mutagen_history":"[1,1,0,0,0,1]","location_rts":"[3581,2376,1021,1292,1106,317]","trial_type":"fractal-mutation","trial_index":79,"time_elapsed":2234502,"internal_node_id":"0.0-5.0-25.0"},{"group":"hexagon_bi","fractal_assignment":["../images/gry_blk.png","../images/pnk_blu.png","../images/blu_wht.png","../images/org_blu.png","../images/ylw_slt.png","../images/cyn_red.png"],"mutagen_generator_assignment":[1,0],"goal":2,"start":1,"action_noise":0.15,"location_history":"[1,0,5,0,5,0,5,4,5,4,3,4,3,2]","action_history":"[1,0,0,0,0,0,1,1,1,0,0,0,1]","mutagen_history":"[0,1,1,1,1,1,0,0,0,1,1,1,0]","location_rts":"[3321,4287,761,284,364,294,958,795,626,209,1114,618,509]","trial_type":"fractal-mutation","trial_index":80,"time_elapsed":2267465,"internal_node_id":"0.0-5.0-26.0"},{"group":"hexagon_bi","fractal_assignment":["../images/gry_blk.png","../images/pnk_blu.png","../images/blu_wht.png","../images/org_blu.png","../images/ylw_slt.png","../images/cyn_red.png"],"mutagen_generator_assignment":[1,0],"goal":5,"start":2,"action_noise":0.15,"location_history":"[2,1,2,1,0,5]","action_history":"[0,1,0,1,0]","mutagen_history":"[1,0,1,0,1]","location_rts":"[2716,1295,1028,279,1630]","trial_type":"fractal-mutation","trial_index":81,"time_elapsed":2283808,"internal_node_id":"0.0-5.0-27.0"},{"group":"hexagon_bi","fractal_assignment":["../images/gry_blk.png","../images/pnk_blu.png","../images/blu_wht.png","../images/org_blu.png","../images/ylw_slt.png","../images/cyn_red.png"],"mutagen_generator_assignment":[1,0],"goal":4,"start":5,"action_noise":0.15,"location_history":"[5,4]","action_history":"[1]","mutagen_history":"[0]","location_rts":"[1234]","trial_type":"fractal-mutation","trial_index":82,"time_elapsed":2289687,"internal_node_id":"0.0-5.0-28.0"},{"group":"hexagon_bi","fractal_assignment":["../images/gry_blk.png","../images/pnk_blu.png","../images/blu_wht.png","../images/org_blu.png","../images/ylw_slt.png","../images/cyn_red.png"],"mutagen_generator_assignment":[1,0],"goal":5,"start":4,"action_noise":0.15,"location_history":"[4,3,4,5]","action_history":"[0,0,1]","mutagen_history":"[1,1,0]","location_rts":"[1830,378,464]","trial_type":"fractal-mutation","trial_index":83,"time_elapsed":2299415,"internal_node_id":"0.0-5.0-29.0"},{"group":"hexagon_bi","fractal_assignment":["../images/gry_blk.png","../images/pnk_blu.png","../images/blu_wht.png","../images/org_blu.png","../images/ylw_slt.png","../images/cyn_red.png"],"mutagen_generator_assignment":[1,0],"goal":3,"start":5,"action_noise":0.15,"location_history":"[5,0,5,4,3]","action_history":"[0,0,1,0]","mutagen_history":"[1,1,0,1]","location_rts":"[2618,380,375,1126]","trial_type":"fractal-mutation","trial_index":84,"time_elapsed":2312182,"internal_node_id":"0.0-5.0-30.0"},{"group":"hexagon_bi","fractal_assignment":["../images/gry_blk.png","../images/pnk_blu.png","../images/blu_wht.png","../images/org_blu.png","../images/ylw_slt.png","../images/cyn_red.png"],"mutagen_generator_assignment":[1,0],"goal":0,"start":3,"action_noise":0.15,"location_history":"[3,4,5,0]","action_history":"[0,1,0]","mutagen_history":"[1,0,1]","location_rts":"[1474,1675,2301]","trial_type":"fractal-mutation","trial_index":85,"time_elapsed":2324631,"internal_node_id":"0.0-5.0-31.0"},{"group":"hexagon_bi","fractal_assignment":["../images/gry_blk.png","../images/pnk_blu.png","../images/blu_wht.png","../images/org_blu.png","../images/ylw_slt.png","../images/cyn_red.png"],"mutagen_generator_assignment":[1,0],"goal":4,"start":0,"action_noise":0.15,"location_history":"[0,5,4]","action_history":"[0,1]","mutagen_history":"[1,0]","location_rts":"[2662,265]","trial_type":"fractal-mutation","trial_index":86,"time_elapsed":2333394,"internal_node_id":"0.0-5.0-32.0"},{"group":"hexagon_bi","fractal_assignment":["../images/gry_blk.png","../images/pnk_blu.png","../images/blu_wht.png","../images/org_blu.png","../images/ylw_slt.png","../images/cyn_red.png"],"mutagen_generator_assignment":[1,0],"goal":1,"start":4,"action_noise":0.15,"location_history":"[4,3,2,3,2,1]","action_history":"[0,1,1,1,0]","mutagen_history":"[1,0,0,0,1]","location_rts":"[2118,1586,1585,581,235]","trial_type":"fractal-mutation","trial_index":87,"time_elapsed":2348804,"internal_node_id":"0.0-5.0-33.0"},{"group":"hexagon_bi","fractal_assignment":["../images/gry_blk.png","../images/pnk_blu.png","../images/blu_wht.png","../images/org_blu.png","../images/ylw_slt.png","../images/cyn_red.png"],"mutagen_generator_assignment":[1,0],"goal":2,"start":1,"action_noise":0.15,"location_history":"[1,2]","action_history":"[1]","mutagen_history":"[0]","location_rts":"[2939]","trial_type":"fractal-mutation","trial_index":88,"time_elapsed":2356370,"internal_node_id":"0.0-5.0-34.0"},{"group":"hexagon_bi","fractal_assignment":["../images/gry_blk.png","../images/pnk_blu.png","../images/blu_wht.png","../images/org_blu.png","../images/ylw_slt.png","../images/cyn_red.png"],"mutagen_generator_assignment":[1,0],"goal":0,"start":2,"action_noise":0.15,"location_history":"[2,1,0]","action_history":"[0,1]","mutagen_history":"[1,0]","location_rts":"[2229,308]","trial_type":"fractal-mutation","trial_index":89,"time_elapsed":2364746,"internal_node_id":"0.0-5.0-35.0"},{"group":"hexagon_bi","fractal_assignment":["../images/gry_blk.png","../images/pnk_blu.png","../images/blu_wht.png","../images/org_blu.png","../images/ylw_slt.png","../images/cyn_red.png"],"mutagen_generator_assignment":[1,0],"goal":5,"start":0,"action_noise":0.15,"location_history":"[0,5]","action_history":"[0]","mutagen_history":"[1]","location_rts":"[1318]","trial_type":"fractal-mutation","trial_index":90,"time_elapsed":2370798,"internal_node_id":"0.0-5.0-36.0"},{"group":"hexagon_bi","fractal_assignment":["../images/gry_blk.png","../images/pnk_blu.png","../images/blu_wht.png","../images/org_blu.png","../images/ylw_slt.png","../images/cyn_red.png"],"mutagen_generator_assignment":[1,0],"goal":2,"start":5,"action_noise":0.15,"location_history":"[5,4,3,4,3,4,3,4,3,2]","action_history":"[1,0,1,0,0,1,0,0,1]","mutagen_history":"[0,1,0,1,1,0,1,1,0]","location_rts":"[2579,1236,393,773,265,512,705,1341,309]","trial_type":"fractal-mutation","trial_index":91,"time_elapsed":2392886,"internal_node_id":"0.0-5.0-37.0"},{"group":"hexagon_bi","fractal_assignment":["../images/gry_blk.png","../images/pnk_blu.png","../images/blu_wht.png","../images/org_blu.png","../images/ylw_slt.png","../images/cyn_red.png"],"mutagen_generator_assignment":[1,0],"goal":1,"start":2,"action_noise":0.15,"location_history":"[2,3,4,5,0,5,0,5,0,1]","action_history":"[0,0,1,0,0,0,0,0,1]","mutagen_history":"[1,1,0,1,1,1,1,1,0]","location_rts":"[2606,797,465,812,468,420,268,279,189]","trial_type":"fractal-mutation","trial_index":92,"time_elapsed":2413345,"internal_node_id":"0.0-5.0-38.0"},{"group":"hexagon_bi","fractal_assignment":["../images/gry_blk.png","../images/pnk_blu.png","../images/blu_wht.png","../images/org_blu.png","../images/ylw_slt.png","../images/cyn_red.png"],"mutagen_generator_assignment":[1,0],"goal":4,"start":1,"action_noise":0.15,"location_history":"[1,2,1,0,5,4]","action_history":"[1,1,1,0,1]","mutagen_history":"[0,0,0,1,0]","location_rts":"[1338,655,698,1723,271]","trial_type":"fractal-mutation","trial_index":93,"time_elapsed":2427217,"internal_node_id":"0.0-5.0-39.0"},{"group":"hexagon_bi","fractal_assignment":["../images/gry_blk.png","../images/pnk_blu.png","../images/blu_wht.png","../images/org_blu.png","../images/ylw_slt.png","../images/cyn_red.png"],"mutagen_generator_assignment":[1,0],"goal":3,"start":4,"action_noise":0.15,"location_history":"[4,5,0,5,4,5,4,5,0,5,0,5,4,3]","action_history":"[0,0,0,1,1,0,1,0,0,0,0,1,1]","mutagen_history":"[1,1,1,0,0,1,0,1,1,1,1,0,0]","location_rts":"[2276,4034,1614,908,1328,646,617,402,86,620,358,233,1910]","trial_type":"fractal-mutation","trial_index":94,"time_elapsed":2461059,"internal_node_id":"0.0-5.0-40.0"},{"group":"hexagon_bi","fractal_assignment":["../images/gry_blk.png","../images/pnk_blu.png","../images/blu_wht.png","../images/org_blu.png","../images/ylw_slt.png","../images/cyn_red.png"],"mutagen_generator_assignment":[1,0],"goal":5,"start":3,"action_noise":0.15,"location_history":"[3,4,3,2,3,2,3,4,5]","action_history":"[0,0,0,1,1,1,0,1]","mutagen_history":"[1,1,1,0,0,0,1,0]","location_rts":"[39604,1217,1895,1438,416,425,417,531]","trial_type":"fractal-mutation","trial_index":95,"time_elapsed":2519860,"internal_node_id":"0.0-5.0-41.0"},{"group":"hexagon_bi","fractal_assignment":["../images/gry_blk.png","../images/pnk_blu.png","../images/blu_wht.png","../images/org_blu.png","../images/ylw_slt.png","../images/cyn_red.png"],"mutagen_generator_assignment":[1,0],"goal":3,"start":5,"action_noise":0.15,"location_history":"[5,4,3]","action_history":"[1,0]","mutagen_history":"[0,1]","location_rts":"[2365,459]","trial_type":"fractal-mutation","trial_index":96,"time_elapsed":2528579,"internal_node_id":"0.0-5.0-42.0"},{"group":"hexagon_bi","fractal_assignment":["../images/gry_blk.png","../images/pnk_blu.png","../images/blu_wht.png","../images/org_blu.png","../images/ylw_slt.png","../images/cyn_red.png"],"mutagen_generator_assignment":[1,0],"goal":0,"start":3,"action_noise":0.15,"location_history":"[3,4,3,4,3,4,5,0]","action_history":"[0,1,0,0,0,1,0]","mutagen_history":"[1,0,1,1,1,0,1]","location_rts":"[3098,1802,1160,435,646,791,2241]","trial_type":"fractal-mutation","trial_index":97,"time_elapsed":2550581,"internal_node_id":"0.0-5.0-43.0"},{"group":"hexagon_bi","fractal_assignment":["../images/gry_blk.png","../images/pnk_blu.png","../images/blu_wht.png","../images/org_blu.png","../images/ylw_slt.png","../images/cyn_red.png"],"mutagen_generator_assignment":[1,0],"goal":2,"start":0,"action_noise":0.15,"location_history":"[0,1,0,1,0,5,0,5,0,5,4,3,2]","action_history":"[0,1,0,0,0,0,0,1,1,1,0,1]","mutagen_history":"[1,0,1,1,1,1,1,0,0,0,1,0]","location_rts":"[1548,2076,508,330,599,89,402,626,590,442,1337,1120]","trial_type":"fractal-mutation","trial_index":98,"time_elapsed":2577699,"internal_node_id":"0.0-5.0-44.0"},{"group":"hexagon_bi","fractal_assignment":["../images/gry_blk.png","../images/pnk_blu.png","../images/blu_wht.png","../images/org_blu.png","../images/ylw_slt.png","../images/cyn_red.png"],"mutagen_generator_assignment":[1,0],"goal":4,"start":2,"action_noise":0.15,"location_history":"[2,1,0,1,2,1,2,1,2,3,2,3,4]","action_history":"[1,1,0,0,0,0,0,0,1,0,1,0]","mutagen_history":"[0,0,1,1,1,1,1,1,0,1,0,1]","location_rts":"[1578,723,1432,4271,371,748,437,355,138,2308,1057,199]","trial_type":"fractal-mutation","trial_index":99,"time_elapsed":2608941,"internal_node_id":"0.0-5.0-45.0"},{"group":"hexagon_bi","fractal_assignment":["../images/gry_blk.png","../images/pnk_blu.png","../images/blu_wht.png","../images/org_blu.png","../images/ylw_slt.png","../images/cyn_red.png"],"mutagen_generator_assignment":[1,0],"goal":1,"start":4,"action_noise":0.15,"location_history":"[4,5,0,5,0,5,0,5,4,5,0,1]","action_history":"[0,0,0,0,1,0,0,0,1,1,1]","mutagen_history":"[1,1,1,1,0,1,1,1,0,0,0]","location_rts":"[1475,2533,963,451,351,742,299,538,216,767,86]","trial_type":"fractal-mutation","trial_index":100,"time_elapsed":2633686,"internal_node_id":"0.0-5.0-46.0"},{"group":"hexagon_bi","fractal_assignment":["../images/gry_blk.png","../images/pnk_blu.png","../images/blu_wht.png","../images/org_blu.png","../images/ylw_slt.png","../images/cyn_red.png"],"mutagen_generator_assignment":[1,0],"goal":4,"start":1,"action_noise":0.15,"location_history":"[1,0,5,4]","action_history":"[0,0,1]","mutagen_history":"[1,1,0]","location_rts":"[212403,2901,418]","trial_type":"fractal-mutation","trial_index":101,"time_elapsed":2856503,"internal_node_id":"0.0-5.0-47.0"},{"group":"hexagon_bi","fractal_assignment":["../images/gry_blk.png","../images/pnk_blu.png","../images/blu_wht.png","../images/org_blu.png","../images/ylw_slt.png","../images/cyn_red.png"],"mutagen_generator_assignment":[1,0],"goal":3,"start":4,"action_noise":0.15,"location_history":"[4,5,4,3]","action_history":"[1,1,0]","mutagen_history":"[0,0,1]","location_rts":"[16939,2471,694]","trial_type":"fractal-mutation","trial_index":102,"time_elapsed":2883633,"internal_node_id":"0.0-5.0-48.0"},{"group":"hexagon_bi","fractal_assignment":["../images/gry_blk.png","../images/pnk_blu.png","../images/blu_wht.png","../images/org_blu.png","../images/ylw_slt.png","../images/cyn_red.png"],"mutagen_generator_assignment":[1,0],"goal":5,"start":3,"action_noise":0.15,"location_history":"[3,4,3,4,5]","action_history":"[0,0,0,1]","mutagen_history":"[1,1,1,0]","location_rts":"[2205,698,245,156]","trial_type":"fractal-mutation","trial_index":103,"time_elapsed":2895201,"internal_node_id":"0.0-5.0-49.0"},{"view_history":"[{\"page_index\":0,\"viewing_time\":22286}]","rt":22286,"trial_type":"instructions","trial_index":104,"time_elapsed":2918487,"internal_node_id":"0.0-6.0"},{"rt":74407,"responses":"{\"Q0\":\"Every time I got a scenario correct, I was shown an amount of money, 4 cents. I imagine this added up across all experiments, but I don't recall seeing anything about getting a bonus. Am I getting a bonus through Mturk for those, or is it just the base pay? Thanks!\"}","trial_type":"survey-text","trial_index":105,"time_elapsed":2993901,"internal_node_id":"0.0-7.0"}]