[{"view_history":"[{\"page_index\":0,\"viewing_time\":173934},{\"page_index\":1,\"viewing_time\":218050},{\"page_index\":2,\"viewing_time\":24045},{\"page_index\":3,\"viewing_time\":6121}]","rt":422150,"trial_type":"instructions","trial_index":0,"time_elapsed":422151,"internal_node_id":"0.0-0.0"},{"view_history":"[{\"page_index\":0,\"viewing_time\":2295},{\"page_index\":1,\"viewing_time\":30848}]","rt":33144,"trial_type":"instructions","trial_index":1,"time_elapsed":456296,"internal_node_id":"0.0-1.0"},{"group":"hexagon_bi","room_assignment":["purple","blue","green","red","grey","yellow"],"door_color_assignment":["white","black"],"door_generator_assignment":[1,0],"goal":4,"start":0,"action_noise":0.15,"location_history":"[0,1,0,5,4]","action_history":"[1,0,0,1]","door_history":"[0,1,1,0]","location_rts":"[3093,2098,1096,925]","trial_type":"two-door-navigation","trial_index":2,"time_elapsed":471103,"internal_node_id":"0.0-2.0-0.0"},{"group":"hexagon_bi","room_assignment":["purple","blue","green","red","grey","yellow"],"door_color_assignment":["white","black"],"door_generator_assignment":[1,0],"goal":3,"start":4,"action_noise":0.15,"location_history":"[4,3]","action_history":"[1]","door_history":"[0]","location_rts":"[1966]","trial_type":"two-door-navigation","trial_index":3,"time_elapsed":477602,"internal_node_id":"0.0-2.0-1.0"},{"group":"hexagon_bi","room_assignment":["purple","blue","green","red","grey","yellow"],"door_color_assignment":["white","black"],"door_generator_assignment":[1,0],"goal":5,"start":3,"action_noise":0.15,"location_history":"[3,2,3,2,3,2,1,0,5]","action_history":"[0,0,1,1,1,0,1,1]","door_history":"[1,1,0,0,0,1,0,0]","location_rts":"[2894,634,1213,600,1170,864,1215,1098]","trial_type":"two-door-navigation","trial_index":4,"time_elapsed":498988,"internal_node_id":"0.0-2.0-2.0"},{"group":"hexagon_bi","room_assignment":["purple","blue","green","red","grey","yellow"],"door_color_assignment":["white","black"],"door_generator_assignment":[1,0],"goal":2,"start":5,"action_noise":0.15,"location_history":"[5,4,3,2]","action_history":"[0,0,0]","door_history":"[1,1,1]","location_rts":"[2884,149,606]","trial_type":"two-door-navigation","trial_index":5,"time_elapsed":509205,"internal_node_id":"0.0-2.0-3.0"},{"group":"hexagon_bi","room_assignment":["purple","blue","green","red","grey","yellow"],"door_color_assignment":["white","black"],"door_generator_assignment":[1,0],"goal":1,"start":2,"action_noise":0.15,"location_history":"[2,1]","action_history":"[0]","door_history":"[1]","location_rts":"[3235]","trial_type":"two-door-navigation","trial_index":6,"time_elapsed":516969,"internal_node_id":"0.0-2.0-4.0"},{"group":"hexagon_bi","room_assignment":["purple","blue","green","red","grey","yellow"],"door_color_assignment":["white","black"],"door_generator_assignment":[1,0],"goal":4,"start":1,"action_noise":0.15,"location_history":"[1,2,3,4]","action_history":"[1,1,0]","door_history":"[0,0,1]","location_rts":"[4082,770,1752]","trial_type":"two-door-navigation","trial_index":7,"time_elapsed":530148,"internal_node_id":"0.0-2.0-5.0"},{"group":"hexagon_bi","room_assignment":["purple","blue","green","red","grey","yellow"],"door_color_assignment":["white","black"],"door_generator_assignment":[1,0],"goal":1,"start":4,"action_noise":0.15,"location_history":"[4,3,2,3,2,1]","action_history":"[0,1,1,0,0]","door_history":"[1,0,0,1,1]","location_rts":"[2620,665,969,947,555]","trial_type":"two-door-navigation","trial_index":8,"time_elapsed":544521,"internal_node_id":"0.0-2.0-6.0"},{"group":"hexagon_bi","room_assignment":["purple","blue","green","red","grey","yellow"],"door_color_assignment":["white","black"],"door_generator_assignment":[1,0],"goal":5,"start":1,"action_noise":0.15,"location_history":"[1,2,1,2,3,2,3,4,3,4,5]","action_history":"[0,1,0,0,0,1,0,1,0,0]","door_history":"[1,0,1,1,1,0,1,0,1,1]","location_rts":"[3817,668,1436,465,656,985,795,2136,1024,869]","trial_type":"two-door-navigation","trial_index":9,"time_elapsed":571106,"internal_node_id":"0.0-2.0-7.0"},{"group":"hexagon_bi","room_assignment":["purple","blue","green","red","grey","yellow"],"door_color_assignment":["white","black"],"door_generator_assignment":[1,0],"goal":0,"start":5,"action_noise":0.15,"location_history":"[5,4,5,0]","action_history":"[1,1,0]","door_history":"[0,0,1]","location_rts":"[2902,1393,1550]","trial_type":"two-door-navigation","trial_index":10,"time_elapsed":583541,"internal_node_id":"0.0-2.0-8.0"},{"group":"hexagon_bi","room_assignment":["purple","blue","green","red","grey","yellow"],"door_color_assignment":["white","black"],"door_generator_assignment":[1,0],"goal":2,"start":0,"action_noise":0.15,"location_history":"[0,1,2]","action_history":"[1,1]","door_history":"[0,0]","location_rts":"[2444,566]","trial_type":"two-door-navigation","trial_index":11,"time_elapsed":592093,"internal_node_id":"0.0-2.0-9.0"},{"group":"hexagon_bi","room_assignment":["purple","blue","green","red","grey","yellow"],"door_color_assignment":["white","black"],"door_generator_assignment":[1,0],"goal":3,"start":2,"action_noise":0.15,"location_history":"[2,1,2,3]","action_history":"[0,0,1]","door_history":"[1,1,0]","location_rts":"[2111,1418,1205]","trial_type":"two-door-navigation","trial_index":12,"time_elapsed":603398,"internal_node_id":"0.0-2.0-10.0"},{"group":"hexagon_bi","room_assignment":["purple","blue","green","red","grey","yellow"],"door_color_assignment":["white","black"],"door_generator_assignment":[1,0],"goal":0,"start":3,"action_noise":0.15,"location_history":"[3,2,1,0]","action_history":"[1,0,0]","door_history":"[0,1,1]","location_rts":"[1531,1289,656]","trial_type":"two-door-navigation","trial_index":13,"time_elapsed":613433,"internal_node_id":"0.0-2.0-11.0"},{"group":"hexagon_bi","room_assignment":["purple","blue","green","red","grey","yellow"],"door_color_assignment":["white","black"],"door_generator_assignment":[1,0],"goal":2,"start":0,"action_noise":0.15,"location_history":"[0,5,4,5,0,5,4,5,0,5,4,3,4,5,0,1,2]","action_history":"[0,1,1,0,0,1,1,1,0,1,0,0,1,0,1,0]","door_history":"[1,0,0,1,1,0,0,0,1,0,1,1,0,1,0,1]","location_rts":"[1966,1068,606,1194,919,1194,747,1662,600,1528,1050,731,1988,1380,2099,1865]","trial_type":"two-door-navigation","trial_index":14,"time_elapsed":653866,"internal_node_id":"0.0-2.0-12.0"},{"group":"hexagon_bi","room_assignment":["purple","blue","green","red","grey","yellow"],"door_color_assignment":["white","black"],"door_generator_assignment":[1,0],"goal":5,"start":2,"action_noise":0.15,"location_history":"[2,3,2,1,0,5]","action_history":"[1,1,0,0,1]","door_history":"[0,0,1,1,0]","location_rts":"[1827,765,1046,600,1161]","trial_type":"two-door-navigation","trial_index":15,"time_elapsed":667875,"internal_node_id":"0.0-2.0-13.0"},{"group":"hexagon_bi","room_assignment":["purple","blue","green","red","grey","yellow"],"door_color_assignment":["white","black"],"door_generator_assignment":[1,0],"goal":4,"start":5,"action_noise":0.15,"location_history":"[5,0,1,2,1,0,1,2,3,4]","action_history":"[0,1,1,0,1,1,1,1,1]","door_history":"[1,0,0,1,0,0,0,0,0]","location_rts":"[1757,1415,624,1298,1086,1122,632,883,526]","trial_type":"two-door-navigation","trial_index":16,"time_elapsed":689911,"internal_node_id":"0.0-2.0-14.0"},{"group":"hexagon_bi","room_assignment":["purple","blue","green","red","grey","yellow"],"door_color_assignment":["white","black"],"door_generator_assignment":[1,0],"goal":3,"start":4,"action_noise":0.15,"location_history":"[4,5,0,1,2,1,2,1,0,5,0,5,4,3]","action_history":"[1,0,0,0,0,0,1,1,1,0,0,1,0]","door_history":"[0,1,1,1,1,1,0,0,0,1,1,0,1]","location_rts":"[2833,1172,763,540,624,2011,762,557,735,918,658,753,1189]","trial_type":"two-door-navigation","trial_index":17,"time_elapsed":720245,"internal_node_id":"0.0-2.0-15.0"},{"group":"hexagon_bi","room_assignment":["purple","blue","green","red","grey","yellow"],"door_color_assignment":["white","black"],"door_generator_assignment":[1,0],"goal":1,"start":3,"action_noise":0.15,"location_history":"[3,2,1]","action_history":"[1,1]","door_history":"[0,0]","location_rts":"[2123,731]","trial_type":"two-door-navigation","trial_index":18,"time_elapsed":728653,"internal_node_id":"0.0-2.0-16.0"},{"group":"hexagon_bi","room_assignment":["purple","blue","green","red","grey","yellow"],"door_color_assignment":["white","black"],"door_generator_assignment":[1,0],"goal":5,"start":1,"action_noise":0.15,"location_history":"[1,0,5]","action_history":"[1,0]","door_history":"[0,1]","location_rts":"[3192,1293]","trial_type":"two-door-navigation","trial_index":19,"time_elapsed":738691,"internal_node_id":"0.0-2.0-17.0"},{"group":"hexagon_bi","room_assignment":["purple","blue","green","red","grey","yellow"],"door_color_assignment":["white","black"],"door_generator_assignment":[1,0],"goal":4,"start":5,"action_noise":0.15,"location_history":"[5,0,5,4]","action_history":"[0,1,1]","door_history":"[1,0,0]","location_rts":"[1553,1313,1374]","trial_type":"two-door-navigation","trial_index":20,"time_elapsed":749504,"internal_node_id":"0.0-2.0-18.0"},{"group":"hexagon_bi","room_assignment":["purple","blue","green","red","grey","yellow"],"door_color_assignment":["white","black"],"door_generator_assignment":[1,0],"goal":0,"start":4,"action_noise":0.15,"location_history":"[4,3,2,1,2,3,2,3,4,5,0]","action_history":"[0,0,0,0,1,1,1,0,1,0]","door_history":"[1,1,1,1,0,0,0,1,0,1]","location_rts":"[2978,487,345,575,1315,537,623,903,1133,1913]","trial_type":"two-door-navigation","trial_index":21,"time_elapsed":774050,"internal_node_id":"0.0-2.0-19.0"},{"group":"hexagon_bi","room_assignment":["purple","blue","green","red","grey","yellow"],"door_color_assignment":["white","black"],"door_generator_assignment":[1,0],"goal":1,"start":0,"action_noise":0.15,"location_history":"[0,1]","action_history":"[1]","door_history":"[0]","location_rts":"[2541]","trial_type":"two-door-navigation","trial_index":22,"time_elapsed":781119,"internal_node_id":"0.0-2.0-20.0"},{"group":"hexagon_bi","room_assignment":["purple","blue","green","red","grey","yellow"],"door_color_assignment":["white","black"],"door_generator_assignment":[1,0],"goal":3,"start":1,"action_noise":0.15,"location_history":"[1,2,1,2,3]","action_history":"[0,0,0,1]","door_history":"[1,1,1,0]","location_rts":"[2619,1428,1978,321]","trial_type":"two-door-navigation","trial_index":23,"time_elapsed":795049,"internal_node_id":"0.0-2.0-21.0"},{"group":"hexagon_bi","room_assignment":["purple","blue","green","red","grey","yellow"],"door_color_assignment":["white","black"],"door_generator_assignment":[1,0],"goal":2,"start":3,"action_noise":0.15,"location_history":"[3,2]","action_history":"[1]","door_history":"[0]","location_rts":"[1942]","trial_type":"two-door-navigation","trial_index":24,"time_elapsed":801516,"internal_node_id":"0.0-2.0-22.0"},{"group":"hexagon_bi","room_assignment":["purple","blue","green","red","grey","yellow"],"door_color_assignment":["white","black"],"door_generator_assignment":[1,0],"goal":0,"start":2,"action_noise":0.15,"location_history":"[2,1,0]","action_history":"[0,1]","door_history":"[1,0]","location_rts":"[1927,960]","trial_type":"two-door-navigation","trial_index":25,"time_elapsed":809954,"internal_node_id":"0.0-2.0-23.0"},{"group":"hexagon_bi","room_assignment":["purple","blue","green","red","grey","yellow"],"door_color_assignment":["white","black"],"door_generator_assignment":[1,0],"goal":3,"start":0,"action_noise":0.15,"location_history":"[0,1,0,1,2,3]","action_history":"[1,1,1,0,0]","door_history":"[0,0,0,1,1]","location_rts":"[2573,1207,878,390,1007]","trial_type":"two-door-navigation","trial_index":26,"time_elapsed":824626,"internal_node_id":"0.0-2.0-24.0"},{"group":"hexagon_bi","room_assignment":["purple","blue","green","red","grey","yellow"],"door_color_assignment":["white","black"],"door_generator_assignment":[1,0],"goal":1,"start":3,"action_noise":0.15,"location_history":"[3,4,3,4,5,0,5,4,3,2,1]","action_history":"[1,0,0,1,1,0,1,1,1,0]","door_history":"[0,1,1,0,0,1,0,0,0,1]","location_rts":"[2217,1178,719,1071,967,1290,1093,1008,1195,1315]","trial_type":"two-door-navigation","trial_index":27,"time_elapsed":850420,"internal_node_id":"0.0-2.0-25.0"},{"group":"hexagon_bi","room_assignment":["purple","blue","green","red","grey","yellow"],"door_color_assignment":["white","black"],"door_generator_assignment":[1,0],"goal":2,"start":1,"action_noise":0.15,"location_history":"[1,0,5,4,5,4,3,4,5,0,5,0,1,0,1,0,5,0,5,0,5,4,3,4,5,4,3,2]","action_history":"[1,0,0,1,1,0,0,1,0,0,0,1,0,1,1,1,1,0,0,0,1,0,0,1,0,0,1]","door_history":"[0,1,1,0,0,1,1,0,1,1,1,0,1,0,0,0,0,1,1,1,0,1,1,0,1,1,0]","location_rts":"[4670,1561,340,1260,837,1007,923,1470,1028,568,793,606,3059,1077,323,630,581,1189,707,500,1209,833,923,775,1239,480,952]","trial_type":"two-door-navigation","trial_index":28,"time_elapsed":911060,"internal_node_id":"0.0-2.0-26.0"},{"group":"hexagon_bi","room_assignment":["purple","blue","green","red","grey","yellow"],"door_color_assignment":["white","black"],"door_generator_assignment":[1,0],"goal":5,"start":2,"action_noise":0.15,"location_history":"[2,3,2,3,2,1,0,5]","action_history":"[1,0,1,1,0,1,1]","door_history":"[0,1,0,0,1,0,0]","location_rts":"[3544,2534,1228,230,1360,1047,957]","trial_type":"two-door-navigation","trial_index":29,"time_elapsed":932649,"internal_node_id":"0.0-2.0-27.0"},{"group":"hexagon_bi","room_assignment":["purple","blue","green","red","grey","yellow"],"door_color_assignment":["white","black"],"door_generator_assignment":[1,0],"goal":4,"start":5,"action_noise":0.15,"location_history":"[5,0,1,0,1,2,3,4]","action_history":"[0,1,1,1,0,1,0]","door_history":"[1,0,0,0,1,0,1]","location_rts":"[2547,1078,1118,531,491,1179,1124]","trial_type":"two-door-navigation","trial_index":30,"time_elapsed":951374,"internal_node_id":"0.0-2.0-28.0"},{"group":"hexagon_bi","room_assignment":["purple","blue","green","red","grey","yellow"],"door_color_assignment":["white","black"],"door_generator_assignment":[1,0],"goal":5,"start":4,"action_noise":0.15,"location_history":"[4,5]","action_history":"[1]","door_history":"[0]","location_rts":"[2156]","trial_type":"two-door-navigation","trial_index":31,"time_elapsed":958058,"internal_node_id":"0.0-2.0-29.0"},{"group":"hexagon_bi","room_assignment":["purple","blue","green","red","grey","yellow"],"door_color_assignment":["white","black"],"door_generator_assignment":[1,0],"goal":3,"start":5,"action_noise":0.15,"location_history":"[5,4,3]","action_history":"[1,0]","door_history":"[0,1]","location_rts":"[2636,1621]","trial_type":"two-door-navigation","trial_index":32,"time_elapsed":967867,"internal_node_id":"0.0-2.0-30.0"},{"group":"hexagon_bi","room_assignment":["purple","blue","green","red","grey","yellow"],"door_color_assignment":["white","black"],"door_generator_assignment":[1,0],"goal":0,"start":3,"action_noise":0.15,"location_history":"[3,4,5,0]","action_history":"[0,1,0]","door_history":"[1,0,1]","location_rts":"[1948,1375,921]","trial_type":"two-door-navigation","trial_index":33,"time_elapsed":978689,"internal_node_id":"0.0-2.0-31.0"},{"group":"hexagon_bi","room_assignment":["purple","blue","green","red","grey","yellow"],"door_color_assignment":["white","black"],"door_generator_assignment":[1,0],"goal":4,"start":0,"action_noise":0.15,"location_history":"[0,1,2,3,4]","action_history":"[1,0,1,0]","door_history":"[0,1,0,1]","location_rts":"[2271,897,1279,837]","trial_type":"two-door-navigation","trial_index":34,"time_elapsed":991578,"internal_node_id":"0.0-2.0-32.0"},{"group":"hexagon_bi","room_assignment":["purple","blue","green","red","grey","yellow"],"door_color_assignment":["white","black"],"door_generator_assignment":[1,0],"goal":1,"start":4,"action_noise":0.15,"location_history":"[4,3,4,5,0,1]","action_history":"[0,0,1,0,1]","door_history":"[1,1,0,1,0]","location_rts":"[1844,1835,1416,921,1538]","trial_type":"two-door-navigation","trial_index":35,"time_elapsed":1007747,"internal_node_id":"0.0-2.0-33.0"},{"group":"hexagon_bi","room_assignment":["purple","blue","green","red","grey","yellow"],"door_color_assignment":["white","black"],"door_generator_assignment":[1,0],"goal":2,"start":1,"action_noise":0.15,"location_history":"[1,2]","action_history":"[0]","door_history":"[1]","location_rts":"[2879]","trial_type":"two-door-navigation","trial_index":36,"time_elapsed":1015152,"internal_node_id":"0.0-2.0-34.0"},{"group":"hexagon_bi","room_assignment":["purple","blue","green","red","grey","yellow"],"door_color_assignment":["white","black"],"door_generator_assignment":[1,0],"goal":0,"start":2,"action_noise":0.15,"location_history":"[2,3,4,5,0]","action_history":"[0,0,1,0]","door_history":"[1,1,0,1]","location_rts":"[6714,1471,1127,1126]","trial_type":"two-door-navigation","trial_index":37,"time_elapsed":1033184,"internal_node_id":"0.0-2.0-35.0"},{"group":"hexagon_bi","room_assignment":["purple","blue","green","red","grey","yellow"],"door_color_assignment":["white","black"],"door_generator_assignment":[1,0],"goal":5,"start":0,"action_noise":0.15,"location_history":"[0,1,2,3,2,3,2,1,0,5]","action_history":"[1,0,0,0,1,1,0,1,0]","door_history":"[0,1,1,1,0,0,1,0,1]","location_rts":"[1964,1257,522,608,868,819,1063,1364,984]","trial_type":"two-door-navigation","trial_index":38,"time_elapsed":1055343,"internal_node_id":"0.0-2.0-36.0"},{"group":"hexagon_bi","room_assignment":["purple","blue","green","red","grey","yellow"],"door_color_assignment":["white","black"],"door_generator_assignment":[1,0],"goal":2,"start":5,"action_noise":0.15,"location_history":"[5,4,5,0,5,4,5,0,5,4,3,4,5,4,3,2]","action_history":"[0,1,0,0,1,1,0,0,0,0,0,1,1,0,1]","door_history":"[1,0,1,1,0,0,1,1,1,1,1,0,0,1,0]","location_rts":"[1671,1698,1229,321,1030,905,1027,2736,1033,640,907,2020,535,1294,776]","trial_type":"two-door-navigation","trial_index":39,"time_elapsed":1092014,"internal_node_id":"0.0-2.0-37.0"},{"group":"hexagon_bi","room_assignment":["purple","blue","green","red","grey","yellow"],"door_color_assignment":["white","black"],"door_generator_assignment":[1,0],"goal":1,"start":2,"action_noise":0.15,"location_history":"[2,3,4,5,4,5,0,1]","action_history":"[1,0,1,1,0,0,0]","door_history":"[0,1,0,0,1,1,1]","location_rts":"[2468,939,1157,414,973,375,1554]","trial_type":"two-door-navigation","trial_index":40,"time_elapsed":1110554,"internal_node_id":"0.0-2.0-38.0"},{"group":"hexagon_bi","room_assignment":["purple","blue","green","red","grey","yellow"],"door_color_assignment":["white","black"],"door_generator_assignment":[1,0],"goal":4,"start":1,"action_noise":0.15,"location_history":"[1,0,1,2,3,2,3,2,3,2,3,4]","action_history":"[1,1,0,1,0,1,1,0,1,1,1]","door_history":"[0,0,1,0,1,0,0,1,0,0,0]","location_rts":"[2231,737,1682,404,1224,650,238,1142,1350,336,733]","trial_type":"two-door-navigation","trial_index":41,"time_elapsed":1136034,"internal_node_id":"0.0-2.0-39.0"},{"group":"hexagon_bi","room_assignment":["purple","blue","green","red","grey","yellow"],"door_color_assignment":["white","black"],"door_generator_assignment":[1,0],"goal":3,"start":4,"action_noise":0.15,"location_history":"[4,5,0,1,2,1,0,1,0,5,0,1,2,1,2,3]","action_history":"[1,0,1,1,0,1,1,1,0,0,1,0,0,0,1]","door_history":"[0,1,0,0,1,0,0,0,1,1,0,1,1,1,0]","location_rts":"[2898,1127,875,414,1034,2728,618,411,912,562,1486,878,1791,1551,881]","trial_type":"two-door-navigation","trial_index":42,"time_elapsed":1173065,"internal_node_id":"0.0-2.0-40.0"},{"group":"hexagon_bi","room_assignment":["purple","blue","green","red","grey","yellow"],"door_color_assignment":["white","black"],"door_generator_assignment":[1,0],"goal":5,"start":3,"action_noise":0.15,"location_history":"[3,4,5]","action_history":"[1,0]","door_history":"[0,1]","location_rts":"[4746,1776]","trial_type":"two-door-navigation","trial_index":43,"time_elapsed":1185141,"internal_node_id":"0.0-2.0-41.0"},{"group":"hexagon_bi","room_assignment":["purple","blue","green","red","grey","yellow"],"door_color_assignment":["white","black"],"door_generator_assignment":[1,0],"goal":3,"start":5,"action_noise":0.15,"location_history":"[5,0,1,0,5,4,5,0,5,0,1,2,1,2,1,0,5,0,1,0,1,2,1,2,1,0,1,0,5,0,1,0,5,0,5,0,5,4,5,4,3]","action_history":"[0,1,1,0,1,1,1,0,1,1,0,1,0,0,1,0,0,1,1,1,0,0,0,1,1,1,1,0,0,1,1,0,1,1,0,0,1,1,1,0]","door_history":"[1,0,0,1,0,0,0,1,0,0,1,0,1,1,0,1,1,0,0,0,1,1,1,0,0,0,0,1,1,0,0,1,0,0,1,1,0,0,0,1]","location_rts":"[2108,748,1067,1980,1162,474,1588,299,1273,621,2983,821,1202,279,2957,1094,1570,2277,679,1282,744,1715,1835,889,960,884,1691,408,1972,2352,1798,996,1384,3505,770,3106,1493,254,1825,578]","trial_type":"two-door-navigation","trial_index":44,"time_elapsed":1285217,"internal_node_id":"0.0-2.0-42.0"},{"group":"hexagon_bi","room_assignment":["purple","blue","green","red","grey","yellow"],"door_color_assignment":["white","black"],"door_generator_assignment":[1,0],"goal":0,"start":3,"action_noise":0.15,"location_history":"[3,2,3,4,5,0]","action_history":"[1,1,0,1,0]","door_history":"[0,0,1,0,1]","location_rts":"[3822,991,1145,2559,933]","trial_type":"two-door-navigation","trial_index":45,"time_elapsed":1303294,"internal_node_id":"0.0-2.0-43.0"},{"group":"hexagon_bi","room_assignment":["purple","blue","green","red","grey","yellow"],"door_color_assignment":["white","black"],"door_generator_assignment":[1,0],"goal":2,"start":0,"action_noise":0.15,"location_history":"[0,5,4,3,2]","action_history":"[0,1,0,0]","door_history":"[1,0,1,1]","location_rts":"[4970,2076,1521,1199]","trial_type":"two-door-navigation","trial_index":46,"time_elapsed":1320663,"internal_node_id":"0.0-2.0-44.0"},{"group":"hexagon_bi","room_assignment":["purple","blue","green","red","grey","yellow"],"door_color_assignment":["white","black"],"door_generator_assignment":[1,0],"goal":4,"start":2,"action_noise":0.15,"location_history":"[2,1,2,1,2,3,2,3,4]","action_history":"[0,1,1,0,1,1,1,0]","door_history":"[1,0,0,1,0,0,0,1]","location_rts":"[4396,947,643,1438,1007,1794,1157,1024]","trial_type":"two-door-navigation","trial_index":47,"time_elapsed":1344776,"internal_node_id":"0.0-2.0-45.0"},{"group":"hexagon_bi","room_assignment":["purple","blue","green","red","grey","yellow"],"door_color_assignment":["white","black"],"door_generator_assignment":[1,0],"goal":1,"start":4,"action_noise":0.15,"location_history":"[4,5,0,1]","action_history":"[1,0,1]","door_history":"[0,1,0]","location_rts":"[5340,1769,3073]","trial_type":"two-door-navigation","trial_index":48,"time_elapsed":1361528,"internal_node_id":"0.0-2.0-46.0"},{"group":"hexagon_bi","room_assignment":["purple","blue","green","red","grey","yellow"],"door_color_assignment":["white","black"],"door_generator_assignment":[1,0],"goal":4,"start":1,"action_noise":0.15,"location_history":"[1,2,1,0,1,2,1,0,5,4]","action_history":"[1,0,0,1,0,0,1,0,1]","door_history":"[0,1,1,0,1,1,0,1,0]","location_rts":"[2792,1393,954,1162,1829,300,2375,354,2232]","trial_type":"two-door-navigation","trial_index":49,"time_elapsed":1387624,"internal_node_id":"0.0-2.0-47.0"},{"group":"hexagon_bi","room_assignment":["purple","blue","green","red","grey","yellow"],"door_color_assignment":["white","black"],"door_generator_assignment":[1,0],"goal":3,"start":4,"action_noise":0.15,"location_history":"[4,5,4,3]","action_history":"[1,1,0]","door_history":"[0,0,1]","location_rts":"[2849,1825,518]","trial_type":"two-door-navigation","trial_index":50,"time_elapsed":1399400,"internal_node_id":"0.0-2.0-48.0"},{"group":"hexagon_bi","room_assignment":["purple","blue","green","red","grey","yellow"],"door_color_assignment":["white","black"],"door_generator_assignment":[1,0],"goal":5,"start":3,"action_noise":0.15,"location_history":"[3,4,5]","action_history":"[0,1]","door_history":"[1,0]","location_rts":"[2962,2372]","trial_type":"two-door-navigation","trial_index":51,"time_elapsed":1410276,"internal_node_id":"0.0-2.0-49.0"},{"view_history":"[{\"page_index\":0,\"viewing_time\":4108}]","rt":4108,"trial_type":"instructions","trial_index":52,"time_elapsed":1415384,"internal_node_id":"0.0-3.0"},{"view_history":"[{\"page_index\":0,\"viewing_time\":458771},{\"page_index\":1,\"viewing_time\":36304}]","rt":495075,"trial_type":"instructions","trial_index":53,"time_elapsed":1911463,"internal_node_id":"0.0-4.0"},{"group":"hexagon_tri","fractal_assignment":["../images/gry_blk.png","../images/blu_wht.png","../images/cyn_red.png","../images/org_blu.png","../images/pnk_blu.png","../images/ylw_slt.png"],"mutagen_generator_assignment":[0,1],"goal":4,"start":0,"action_noise":0.15,"location_history":"[0,5,0,1,3,2,3,2,3,4]","action_history":"[0,1,1,0,0,0,0,1,1]","mutagen_history":"[0,1,1,0,0,0,0,1,1]","location_rts":"[8387,3738,1855,1215,1508,2772,1577,1051,1232]","trial_type":"fractal-mutation","trial_index":54,"time_elapsed":1947725,"internal_node_id":"0.0-5.0-0.0"},{"group":"hexagon_tri","fractal_assignment":["../images/gry_blk.png","../images/blu_wht.png","../images/cyn_red.png","../images/org_blu.png","../images/pnk_blu.png","../images/ylw_slt.png"],"mutagen_generator_assignment":[0,1],"goal":3,"start":4,"action_noise":0.15,"location_history":"[4,0,5,4,2,3]","action_history":"[1,0,0,1,1]","mutagen_history":"[1,0,0,1,1]","location_rts":"[4335,3342,1055,676,1885]","trial_type":"fractal-mutation","trial_index":55,"time_elapsed":1967750,"internal_node_id":"0.0-5.0-1.0"},{"group":"hexagon_tri","fractal_assignment":["../images/gry_blk.png","../images/blu_wht.png","../images/cyn_red.png","../images/org_blu.png","../images/pnk_blu.png","../images/ylw_slt.png"],"mutagen_generator_assignment":[0,1],"goal":5,"start":3,"action_noise":0.15,"location_history":"[3,4,2,1,3,2,3,2,3,4,0,1,3,4,2,3,2,3,4,2,1,5]","action_history":"[1,1,0,0,0,1,0,1,1,0,0,0,1,1,1,0,1,0,1,0,0]","mutagen_history":"[1,1,0,0,0,1,0,1,1,0,0,0,1,1,1,0,1,0,1,0,0]","location_rts":"[3077,880,998,1032,1091,612,517,705,370,601,2078,1270,671,1961,689,855,496,509,608,1905,535]","trial_type":"fractal-mutation","trial_index":56,"time_elapsed":2014572,"internal_node_id":"0.0-5.0-2.0"},{"group":"hexagon_tri","fractal_assignment":["../images/gry_blk.png","../images/blu_wht.png","../images/cyn_red.png","../images/org_blu.png","../images/pnk_blu.png","../images/ylw_slt.png"],"mutagen_generator_assignment":[0,1],"goal":2,"start":5,"action_noise":0.15,"location_history":"[5,4,0,5,4,0,1,3,4,2]","action_history":"[0,1,1,0,0,1,0,1,1]","mutagen_history":"[0,1,1,0,0,1,0,1,1]","location_rts":"[4418,2099,1407,1123,661,2150,1149,1531,907]","trial_type":"fractal-mutation","trial_index":57,"time_elapsed":2042865,"internal_node_id":"0.0-5.0-3.0"},{"group":"hexagon_tri","fractal_assignment":["../images/gry_blk.png","../images/blu_wht.png","../images/cyn_red.png","../images/org_blu.png","../images/pnk_blu.png","../images/ylw_slt.png"],"mutagen_generator_assignment":[0,1],"goal":1,"start":2,"action_noise":0.15,"location_history":"[2,3,4,2,1]","action_history":"[1,1,1,0]","mutagen_history":"[1,1,1,0]","location_rts":"[5982,1004,659,1061]","trial_type":"fractal-mutation","trial_index":58,"time_elapsed":2059244,"internal_node_id":"0.0-5.0-4.0"},{"group":"hexagon_tri","fractal_assignment":["../images/gry_blk.png","../images/blu_wht.png","../images/cyn_red.png","../images/org_blu.png","../images/pnk_blu.png","../images/ylw_slt.png"],"mutagen_generator_assignment":[0,1],"goal":4,"start":1,"action_noise":0.15,"location_history":"[1,3,2,3,2,1,5,4]","action_history":"[0,0,1,0,0,1,1]","mutagen_history":"[0,0,1,0,0,1,1]","location_rts":"[2617,2155,968,681,895,505,1620]","trial_type":"fractal-mutation","trial_index":59,"time_elapsed":2079456,"internal_node_id":"0.0-5.0-5.0"},{"group":"hexagon_tri","fractal_assignment":["../images/gry_blk.png","../images/blu_wht.png","../images/cyn_red.png","../images/org_blu.png","../images/pnk_blu.png","../images/ylw_slt.png"],"mutagen_generator_assignment":[0,1],"goal":1,"start":4,"action_noise":0.15,"location_history":"[4,2,3,2,3,4,2,3,2,3,2,1]","action_history":"[0,1,0,0,1,1,1,0,1,0,0]","mutagen_history":"[0,1,0,0,1,1,1,0,1,0,0]","location_rts":"[2850,664,772,865,903,658,673,449,564,550,703]","trial_type":"fractal-mutation","trial_index":60,"time_elapsed":2104031,"internal_node_id":"0.0-5.0-6.0"},{"group":"hexagon_tri","fractal_assignment":["../images/gry_blk.png","../images/blu_wht.png","../images/cyn_red.png","../images/org_blu.png","../images/pnk_blu.png","../images/ylw_slt.png"],"mutagen_generator_assignment":[0,1],"goal":5,"start":1,"action_noise":0.15,"location_history":"[1,5]","action_history":"[1]","mutagen_history":"[1]","location_rts":"[2452]","trial_type":"fractal-mutation","trial_index":61,"time_elapsed":2111041,"internal_node_id":"0.0-5.0-7.0"},{"group":"hexagon_tri","fractal_assignment":["../images/gry_blk.png","../images/blu_wht.png","../images/cyn_red.png","../images/org_blu.png","../images/pnk_blu.png","../images/ylw_slt.png"],"mutagen_generator_assignment":[0,1],"goal":0,"start":5,"action_noise":0.15,"location_history":"[5,0]","action_history":"[1]","mutagen_history":"[1]","location_rts":"[1986]","trial_type":"fractal-mutation","trial_index":62,"time_elapsed":2117579,"internal_node_id":"0.0-5.0-8.0"},{"group":"hexagon_tri","fractal_assignment":["../images/gry_blk.png","../images/blu_wht.png","../images/cyn_red.png","../images/org_blu.png","../images/pnk_blu.png","../images/ylw_slt.png"],"mutagen_generator_assignment":[0,1],"goal":2,"start":0,"action_noise":0.15,"location_history":"[0,5,4,2]","action_history":"[0,0,1]","mutagen_history":"[0,0,1]","location_rts":"[2429,2161,428]","trial_type":"fractal-mutation","trial_index":63,"time_elapsed":2129211,"internal_node_id":"0.0-5.0-9.0"},{"group":"hexagon_tri","fractal_assignment":["../images/gry_blk.png","../images/blu_wht.png","../images/cyn_red.png","../images/org_blu.png","../images/pnk_blu.png","../images/ylw_slt.png"],"mutagen_generator_assignment":[0,1],"goal":3,"start":2,"action_noise":0.15,"location_history":"[2,1,3]","action_history":"[1,0]","mutagen_history":"[1,0]","location_rts":"[2156,1404]","trial_type":"fractal-mutation","trial_index":64,"time_elapsed":2138349,"internal_node_id":"0.0-5.0-10.0"},{"group":"hexagon_tri","fractal_assignment":["../images/gry_blk.png","../images/blu_wht.png","../images/cyn_red.png","../images/org_blu.png","../images/pnk_blu.png","../images/ylw_slt.png"],"mutagen_generator_assignment":[0,1],"goal":0,"start":3,"action_noise":0.15,"location_history":"[3,2,3,2,3,4,0]","action_history":"[0,1,0,1,1,0]","mutagen_history":"[0,1,0,1,1,0]","location_rts":"[2579,626,703,704,313,573]","trial_type":"fractal-mutation","trial_index":65,"time_elapsed":2153614,"internal_node_id":"0.0-5.0-11.0"},{"group":"hexagon_tri","fractal_assignment":["../images/gry_blk.png","../images/blu_wht.png","../images/cyn_red.png","../images/org_blu.png","../images/pnk_blu.png","../images/ylw_slt.png"],"mutagen_generator_assignment":[0,1],"goal":2,"start":0,"action_noise":0.15,"location_history":"[0,5,0,1,3,4,2]","action_history":"[0,1,0,0,1,1]","mutagen_history":"[0,1,0,0,1,1]","location_rts":"[4139,1678,1140,1063,494,749]","trial_type":"fractal-mutation","trial_index":66,"time_elapsed":2172630,"internal_node_id":"0.0-5.0-12.0"},{"group":"hexagon_tri","fractal_assignment":["../images/gry_blk.png","../images/blu_wht.png","../images/cyn_red.png","../images/org_blu.png","../images/pnk_blu.png","../images/ylw_slt.png"],"mutagen_generator_assignment":[0,1],"goal":5,"start":2,"action_noise":0.15,"location_history":"[2,3,2,1,5]","action_history":"[1,0,1,1]","mutagen_history":"[1,0,1,1]","location_rts":"[3264,989,1090,663]","trial_type":"fractal-mutation","trial_index":67,"time_elapsed":2186314,"internal_node_id":"0.0-5.0-13.0"},{"group":"hexagon_tri","fractal_assignment":["../images/gry_blk.png","../images/blu_wht.png","../images/cyn_red.png","../images/org_blu.png","../images/pnk_blu.png","../images/ylw_slt.png"],"mutagen_generator_assignment":[0,1],"goal":4,"start":5,"action_noise":0.15,"location_history":"[5,0,5,4]","action_history":"[1,0,0]","mutagen_history":"[1,0,0]","location_rts":"[2458,1002,2163]","trial_type":"fractal-mutation","trial_index":68,"time_elapsed":2198556,"internal_node_id":"0.0-5.0-14.0"},{"group":"hexagon_tri","fractal_assignment":["../images/gry_blk.png","../images/blu_wht.png","../images/cyn_red.png","../images/org_blu.png","../images/pnk_blu.png","../images/ylw_slt.png"],"mutagen_generator_assignment":[0,1],"goal":3,"start":4,"action_noise":0.15,"location_history":"[4,0,5,0,1,3]","action_history":"[0,0,1,1,0]","mutagen_history":"[0,0,1,1,0]","location_rts":"[1734,1239,542,833,1054]","trial_type":"fractal-mutation","trial_index":69,"time_elapsed":2212650,"internal_node_id":"0.0-5.0-15.0"},{"group":"hexagon_tri","fractal_assignment":["../images/gry_blk.png","../images/blu_wht.png","../images/cyn_red.png","../images/org_blu.png","../images/pnk_blu.png","../images/ylw_slt.png"],"mutagen_generator_assignment":[0,1],"goal":1,"start":3,"action_noise":0.15,"location_history":"[3,2,3,4,2,1]","action_history":"[0,1,1,1,0]","mutagen_history":"[0,1,1,1,0]","location_rts":"[2951,611,946,1393,777]","trial_type":"fractal-mutation","trial_index":70,"time_elapsed":2228011,"internal_node_id":"0.0-5.0-16.0"},{"group":"hexagon_tri","fractal_assignment":["../images/gry_blk.png","../images/blu_wht.png","../images/cyn_red.png","../images/org_blu.png","../images/pnk_blu.png","../images/ylw_slt.png"],"mutagen_generator_assignment":[0,1],"goal":5,"start":1,"action_noise":0.15,"location_history":"[1,3,2,3,2,1,5]","action_history":"[0,0,1,0,0,1]","mutagen_history":"[0,0,1,0,0,1]","location_rts":"[1816,1415,1167,685,538,846]","trial_type":"fractal-mutation","trial_index":71,"time_elapsed":2244210,"internal_node_id":"0.0-5.0-17.0"},{"group":"hexagon_tri","fractal_assignment":["../images/gry_blk.png","../images/blu_wht.png","../images/cyn_red.png","../images/org_blu.png","../images/pnk_blu.png","../images/ylw_slt.png"],"mutagen_generator_assignment":[0,1],"goal":4,"start":5,"action_noise":0.15,"location_history":"[5,4]","action_history":"[0]","mutagen_history":"[0]","location_rts":"[1731]","trial_type":"fractal-mutation","trial_index":72,"time_elapsed":2250476,"internal_node_id":"0.0-5.0-18.0"},{"group":"hexagon_tri","fractal_assignment":["../images/gry_blk.png","../images/blu_wht.png","../images/cyn_red.png","../images/org_blu.png","../images/pnk_blu.png","../images/ylw_slt.png"],"mutagen_generator_assignment":[0,1],"goal":0,"start":4,"action_noise":0.15,"location_history":"[4,2,1,3,4,2,1,3,4,2,3,4,2,1,5,4,0]","action_history":"[0,1,0,1,1,0,0,1,0,1,1,0,0,1,0,0]","mutagen_history":"[0,1,0,1,1,0,0,1,0,1,1,0,0,1,0,0]","location_rts":"[2985,732,818,595,689,576,514,740,1179,756,508,547,778,899,1934,1047]","trial_type":"fractal-mutation","trial_index":73,"time_elapsed":2285909,"internal_node_id":"0.0-5.0-19.0"},{"group":"hexagon_tri","fractal_assignment":["../images/gry_blk.png","../images/blu_wht.png","../images/cyn_red.png","../images/org_blu.png","../images/pnk_blu.png","../images/ylw_slt.png"],"mutagen_generator_assignment":[0,1],"goal":1,"start":0,"action_noise":0.15,"location_history":"[0,5,4,0,5,4,0,5,4,0,5,0,5,0,1]","action_history":"[0,0,1,1,0,1,0,0,0,0,1,1,1,1]","mutagen_history":"[0,0,1,1,0,1,0,0,0,0,1,1,1,1]","location_rts":"[1957,616,503,1431,1230,959,1185,811,817,1076,1387,1534,1579,1027]","trial_type":"fractal-mutation","trial_index":74,"time_elapsed":2320088,"internal_node_id":"0.0-5.0-20.0"},{"group":"hexagon_tri","fractal_assignment":["../images/gry_blk.png","../images/blu_wht.png","../images/cyn_red.png","../images/org_blu.png","../images/pnk_blu.png","../images/ylw_slt.png"],"mutagen_generator_assignment":[0,1],"goal":3,"start":1,"action_noise":0.15,"location_history":"[1,5,4,2,1,3]","action_history":"[1,0,1,0,1]","mutagen_history":"[1,0,1,0,1]","location_rts":"[2791,686,1009,1152,1015]","trial_type":"fractal-mutation","trial_index":75,"time_elapsed":2335448,"internal_node_id":"0.0-5.0-21.0"},{"group":"hexagon_tri","fractal_assignment":["../images/gry_blk.png","../images/blu_wht.png","../images/cyn_red.png","../images/org_blu.png","../images/pnk_blu.png","../images/ylw_slt.png"],"mutagen_generator_assignment":[0,1],"goal":2,"start":3,"action_noise":0.15,"location_history":"[3,2]","action_history":"[0]","mutagen_history":"[0]","location_rts":"[2575]","trial_type":"fractal-mutation","trial_index":76,"time_elapsed":2342566,"internal_node_id":"0.0-5.0-22.0"},{"group":"hexagon_tri","fractal_assignment":["../images/gry_blk.png","../images/blu_wht.png","../images/cyn_red.png","../images/org_blu.png","../images/pnk_blu.png","../images/ylw_slt.png"],"mutagen_generator_assignment":[0,1],"goal":0,"start":2,"action_noise":0.15,"location_history":"[2,1,5,0]","action_history":"[0,1,1]","mutagen_history":"[0,1,1]","location_rts":"[2340,439,491]","trial_type":"fractal-mutation","trial_index":77,"time_elapsed":2352443,"internal_node_id":"0.0-5.0-23.0"},{"group":"hexagon_tri","fractal_assignment":["../images/gry_blk.png","../images/blu_wht.png","../images/cyn_red.png","../images/org_blu.png","../images/pnk_blu.png","../images/ylw_slt.png"],"mutagen_generator_assignment":[0,1],"goal":3,"start":0,"action_noise":0.15,"location_history":"[0,1,3]","action_history":"[0,0]","mutagen_history":"[0,0]","location_rts":"[2183,1497]","trial_type":"fractal-mutation","trial_index":78,"time_elapsed":2361691,"internal_node_id":"0.0-5.0-24.0"},{"group":"hexagon_tri","fractal_assignment":["../images/gry_blk.png","../images/blu_wht.png","../images/cyn_red.png","../images/org_blu.png","../images/pnk_blu.png","../images/ylw_slt.png"],"mutagen_generator_assignment":[0,1],"goal":1,"start":3,"action_noise":0.15,"location_history":"[3,4,0,5,0,5,0,1]","action_history":"[1,0,0,1,0,0,1]","mutagen_history":"[1,0,0,1,0,0,1]","location_rts":"[3337,696,1524,906,1125,421,851]","trial_type":"fractal-mutation","trial_index":79,"time_elapsed":2381316,"internal_node_id":"0.0-5.0-25.0"},{"group":"hexagon_tri","fractal_assignment":["../images/gry_blk.png","../images/blu_wht.png","../images/cyn_red.png","../images/org_blu.png","../images/pnk_blu.png","../images/ylw_slt.png"],"mutagen_generator_assignment":[0,1],"goal":2,"start":1,"action_noise":0.15,"location_history":"[1,3,4,2]","action_history":"[0,1,1]","mutagen_history":"[0,1,1]","location_rts":"[1768,1303,913]","trial_type":"fractal-mutation","trial_index":80,"time_elapsed":2391917,"internal_node_id":"0.0-5.0-26.0"},{"group":"hexagon_tri","fractal_assignment":["../images/gry_blk.png","../images/blu_wht.png","../images/cyn_red.png","../images/org_blu.png","../images/pnk_blu.png","../images/ylw_slt.png"],"mutagen_generator_assignment":[0,1],"goal":5,"start":2,"action_noise":0.15,"location_history":"[2,3,2,3,4,2,1,5]","action_history":"[1,0,0,1,0,0,1]","mutagen_history":"[1,0,0,1,0,0,1]","location_rts":"[3139,726,1254,747,1037,1211,1269]","trial_type":"fractal-mutation","trial_index":81,"time_elapsed":2412071,"internal_node_id":"0.0-5.0-27.0"},{"group":"hexagon_tri","fractal_assignment":["../images/gry_blk.png","../images/blu_wht.png","../images/cyn_red.png","../images/org_blu.png","../images/pnk_blu.png","../images/ylw_slt.png"],"mutagen_generator_assignment":[0,1],"goal":4,"start":5,"action_noise":0.15,"location_history":"[5,4]","action_history":"[1]","mutagen_history":"[1]","location_rts":"[8546]","trial_type":"fractal-mutation","trial_index":82,"time_elapsed":2425168,"internal_node_id":"0.0-5.0-28.0"},{"group":"hexagon_tri","fractal_assignment":["../images/gry_blk.png","../images/blu_wht.png","../images/cyn_red.png","../images/org_blu.png","../images/pnk_blu.png","../images/ylw_slt.png"],"mutagen_generator_assignment":[0,1],"goal":5,"start":4,"action_noise":0.15,"location_history":"[4,0,1,5]","action_history":"[0,1,1]","mutagen_history":"[0,1,1]","location_rts":"[2535,1992,1959]","trial_type":"fractal-mutation","trial_index":83,"time_elapsed":2438259,"internal_node_id":"0.0-5.0-29.0"},{"group":"hexagon_tri","fractal_assignment":["../images/gry_blk.png","../images/blu_wht.png","../images/cyn_red.png","../images/org_blu.png","../images/pnk_blu.png","../images/ylw_slt.png"],"mutagen_generator_assignment":[0,1],"goal":3,"start":5,"action_noise":0.15,"location_history":"[5,4,0,5,0,5,4,2,3]","action_history":"[0,0,0,1,0,0,1,1]","mutagen_history":"[0,0,0,1,0,0,1,1]","location_rts":"[20627,2371,711,297,767,729,664,1317]","trial_type":"fractal-mutation","trial_index":84,"time_elapsed":2477540,"internal_node_id":"0.0-5.0-30.0"},{"group":"hexagon_tri","fractal_assignment":["../images/gry_blk.png","../images/blu_wht.png","../images/cyn_red.png","../images/org_blu.png","../images/pnk_blu.png","../images/ylw_slt.png"],"mutagen_generator_assignment":[0,1],"goal":0,"start":3,"action_noise":0.15,"location_history":"[3,4,0]","action_history":"[1,1]","mutagen_history":"[1,1]","location_rts":"[2960,832]","trial_type":"fractal-mutation","trial_index":85,"time_elapsed":2486925,"internal_node_id":"0.0-5.0-31.0"},{"group":"hexagon_tri","fractal_assignment":["../images/gry_blk.png","../images/blu_wht.png","../images/cyn_red.png","../images/org_blu.png","../images/pnk_blu.png","../images/ylw_slt.png"],"mutagen_generator_assignment":[0,1],"goal":4,"start":0,"action_noise":0.15,"location_history":"[0,5,0,5,4]","action_history":"[0,1,0,0]","mutagen_history":"[0,1,0,0]","location_rts":"[1997,381,769,985]","trial_type":"fractal-mutation","trial_index":86,"time_elapsed":2498710,"internal_node_id":"0.0-5.0-32.0"},{"group":"hexagon_tri","fractal_assignment":["../images/gry_blk.png","../images/blu_wht.png","../images/cyn_red.png","../images/org_blu.png","../images/pnk_blu.png","../images/ylw_slt.png"],"mutagen_generator_assignment":[0,1],"goal":1,"start":4,"action_noise":0.15,"location_history":"[4,2,1]","action_history":"[1,0]","mutagen_history":"[1,0]","location_rts":"[1723,1030]","trial_type":"fractal-mutation","trial_index":87,"time_elapsed":2507031,"internal_node_id":"0.0-5.0-33.0"},{"group":"hexagon_tri","fractal_assignment":["../images/gry_blk.png","../images/blu_wht.png","../images/cyn_red.png","../images/org_blu.png","../images/pnk_blu.png","../images/ylw_slt.png"],"mutagen_generator_assignment":[0,1],"goal":2,"start":1,"action_noise":0.15,"location_history":"[1,3,4,0,1,5,0,5,0,1,3,4,2]","action_history":"[0,1,1,1,0,0,0,1,1,0,1,1]","mutagen_history":"[0,1,1,1,0,0,0,1,1,0,1,1]","location_rts":"[2526,624,611,920,1439,595,1220,295,1194,747,1258,841]","trial_type":"fractal-mutation","trial_index":88,"time_elapsed":2535284,"internal_node_id":"0.0-5.0-34.0"},{"group":"hexagon_tri","fractal_assignment":["../images/gry_blk.png","../images/blu_wht.png","../images/cyn_red.png","../images/org_blu.png","../images/pnk_blu.png","../images/ylw_slt.png"],"mutagen_generator_assignment":[0,1],"goal":0,"start":2,"action_noise":0.15,"location_history":"[2,3,2,1,5,0]","action_history":"[1,0,0,1,1]","mutagen_history":"[1,0,0,1,1]","location_rts":"[3483,914,968,608,409]","trial_type":"fractal-mutation","trial_index":89,"time_elapsed":2550349,"internal_node_id":"0.0-5.0-35.0"},{"group":"hexagon_tri","fractal_assignment":["../images/gry_blk.png","../images/blu_wht.png","../images/cyn_red.png","../images/org_blu.png","../images/pnk_blu.png","../images/ylw_slt.png"],"mutagen_generator_assignment":[0,1],"goal":5,"start":0,"action_noise":0.15,"location_history":"[0,1,5]","action_history":"[1,1]","mutagen_history":"[1,1]","location_rts":"[7468,700]","trial_type":"fractal-mutation","trial_index":90,"time_elapsed":2564114,"internal_node_id":"0.0-5.0-36.0"},{"group":"hexagon_tri","fractal_assignment":["../images/gry_blk.png","../images/blu_wht.png","../images/cyn_red.png","../images/org_blu.png","../images/pnk_blu.png","../images/ylw_slt.png"],"mutagen_generator_assignment":[0,1],"goal":2,"start":5,"action_noise":0.15,"location_history":"[5,4,2]","action_history":"[1,0]","mutagen_history":"[1,0]","location_rts":"[2005,693]","trial_type":"fractal-mutation","trial_index":91,"time_elapsed":2572401,"internal_node_id":"0.0-5.0-37.0"},{"group":"hexagon_tri","fractal_assignment":["../images/gry_blk.png","../images/blu_wht.png","../images/cyn_red.png","../images/org_blu.png","../images/pnk_blu.png","../images/ylw_slt.png"],"mutagen_generator_assignment":[0,1],"goal":1,"start":2,"action_noise":0.15,"location_history":"[2,1]","action_history":"[0]","mutagen_history":"[0]","location_rts":"[1899]","trial_type":"fractal-mutation","trial_index":92,"time_elapsed":2578837,"internal_node_id":"0.0-5.0-38.0"},{"group":"hexagon_tri","fractal_assignment":["../images/gry_blk.png","../images/blu_wht.png","../images/cyn_red.png","../images/org_blu.png","../images/pnk_blu.png","../images/ylw_slt.png"],"mutagen_generator_assignment":[0,1],"goal":4,"start":1,"action_noise":0.15,"location_history":"[1,3,2,3,2,1,5,4]","action_history":"[0,1,1,0,0,1,1]","mutagen_history":"[0,1,1,0,0,1,1]","location_rts":"[1861,1876,1753,1090,1094,954,1502]","trial_type":"fractal-mutation","trial_index":93,"time_elapsed":2599792,"internal_node_id":"0.0-5.0-39.0"},{"group":"hexagon_tri","fractal_assignment":["../images/gry_blk.png","../images/blu_wht.png","../images/cyn_red.png","../images/org_blu.png","../images/pnk_blu.png","../images/ylw_slt.png"],"mutagen_generator_assignment":[0,1],"goal":3,"start":4,"action_noise":0.15,"location_history":"[4,0,1,3]","action_history":"[0,1,0]","mutagen_history":"[0,1,0]","location_rts":"[3855,882,1103]","trial_type":"fractal-mutation","trial_index":94,"time_elapsed":2612251,"internal_node_id":"0.0-5.0-40.0"},{"group":"hexagon_tri","fractal_assignment":["../images/gry_blk.png","../images/blu_wht.png","../images/cyn_red.png","../images/org_blu.png","../images/pnk_blu.png","../images/ylw_slt.png"],"mutagen_generator_assignment":[0,1],"goal":5,"start":3,"action_noise":0.15,"location_history":"[3,2,3,2,1,3,2,1,3,2,1,5]","action_history":"[0,1,0,0,1,0,0,0,0,0,1]","mutagen_history":"[0,1,0,0,1,0,0,0,0,0,1]","location_rts":"[23534,1208,1327,801,1763,1573,849,3657,1079,495,485]","trial_type":"fractal-mutation","trial_index":95,"time_elapsed":2663923,"internal_node_id":"0.0-5.0-41.0"},{"group":"hexagon_tri","fractal_assignment":["../images/gry_blk.png","../images/blu_wht.png","../images/cyn_red.png","../images/org_blu.png","../images/pnk_blu.png","../images/ylw_slt.png"],"mutagen_generator_assignment":[0,1],"goal":3,"start":5,"action_noise":0.15,"location_history":"[5,4,0,1,3]","action_history":"[0,0,1,0]","mutagen_history":"[0,0,1,0]","location_rts":"[1588,1255,664,765]","trial_type":"fractal-mutation","trial_index":96,"time_elapsed":2675834,"internal_node_id":"0.0-5.0-42.0"},{"group":"hexagon_tri","fractal_assignment":["../images/gry_blk.png","../images/blu_wht.png","../images/cyn_red.png","../images/org_blu.png","../images/pnk_blu.png","../images/ylw_slt.png"],"mutagen_generator_assignment":[0,1],"goal":0,"start":3,"action_noise":0.15,"location_history":"[3,2,3,2,1,5,4,0]","action_history":"[0,1,0,0,1,0,0]","mutagen_history":"[0,1,0,0,1,0,0]","location_rts":"[2026,538,546,366,1507,1006,1035]","trial_type":"fractal-mutation","trial_index":97,"time_elapsed":2693626,"internal_node_id":"0.0-5.0-43.0"},{"group":"hexagon_tri","fractal_assignment":["../images/gry_blk.png","../images/blu_wht.png","../images/cyn_red.png","../images/org_blu.png","../images/pnk_blu.png","../images/ylw_slt.png"],"mutagen_generator_assignment":[0,1],"goal":2,"start":0,"action_noise":0.15,"location_history":"[0,5,0,1,5,4,2]","action_history":"[0,1,1,1,0,1]","mutagen_history":"[0,1,1,1,0,1]","location_rts":"[2462,1321,748,798,1031,1761]","trial_type":"fractal-mutation","trial_index":98,"time_elapsed":2711511,"internal_node_id":"0.0-5.0-44.0"},{"group":"hexagon_tri","fractal_assignment":["../images/gry_blk.png","../images/blu_wht.png","../images/cyn_red.png","../images/org_blu.png","../images/pnk_blu.png","../images/ylw_slt.png"],"mutagen_generator_assignment":[0,1],"goal":4,"start":2,"action_noise":0.15,"location_history":"[2,3,2,3,4]","action_history":"[1,0,1,1]","mutagen_history":"[1,0,1,1]","location_rts":"[2210,528,1120,313]","trial_type":"fractal-mutation","trial_index":99,"time_elapsed":2723374,"internal_node_id":"0.0-5.0-45.0"},{"group":"hexagon_tri","fractal_assignment":["../images/gry_blk.png","../images/blu_wht.png","../images/cyn_red.png","../images/org_blu.png","../images/pnk_blu.png","../images/ylw_slt.png"],"mutagen_generator_assignment":[0,1],"goal":1,"start":4,"action_noise":0.15,"location_history":"[4,0,5,0,5,0,1]","action_history":"[0,0,1,1,1,1]","mutagen_history":"[0,0,1,1,1,1]","location_rts":"[1915,1534,1337,701,1475,539]","trial_type":"fractal-mutation","trial_index":100,"time_elapsed":2740602,"internal_node_id":"0.0-5.0-46.0"},{"group":"hexagon_tri","fractal_assignment":["../images/gry_blk.png","../images/blu_wht.png","../images/cyn_red.png","../images/org_blu.png","../images/pnk_blu.png","../images/ylw_slt.png"],"mutagen_generator_assignment":[0,1],"goal":4,"start":1,"action_noise":0.15,"location_history":"[1,3,2,3,4]","action_history":"[0,0,1,0]","mutagen_history":"[0,0,1,0]","location_rts":"[1907,3133,863,856]","trial_type":"fractal-mutation","trial_index":101,"time_elapsed":2755016,"internal_node_id":"0.0-5.0-47.0"},{"group":"hexagon_tri","fractal_assignment":["../images/gry_blk.png","../images/blu_wht.png","../images/cyn_red.png","../images/org_blu.png","../images/pnk_blu.png","../images/ylw_slt.png"],"mutagen_generator_assignment":[0,1],"goal":3,"start":4,"action_noise":0.15,"location_history":"[4,0,1,3]","action_history":"[0,1,0]","mutagen_history":"[0,1,0]","location_rts":"[1768,600,644]","trial_type":"fractal-mutation","trial_index":102,"time_elapsed":2764645,"internal_node_id":"0.0-5.0-48.0"},{"group":"hexagon_tri","fractal_assignment":["../images/gry_blk.png","../images/blu_wht.png","../images/cyn_red.png","../images/org_blu.png","../images/pnk_blu.png","../images/ylw_slt.png"],"mutagen_generator_assignment":[0,1],"goal":5,"start":3,"action_noise":0.15,"location_history":"[3,2,1,3,4,0,5]","action_history":"[0,0,1,1,1,1]","mutagen_history":"[0,0,1,1,1,1]","location_rts":"[3966,1643,2350,1056,876,995]","trial_type":"fractal-mutation","trial_index":103,"time_elapsed":2785295,"internal_node_id":"0.0-5.0-49.0"},{"view_history":"[{\"page_index\":0,\"viewing_time\":16069}]","rt":16069,"trial_type":"instructions","trial_index":104,"time_elapsed":2802365,"internal_node_id":"0.0-6.0"},{"rt":18659,"responses":"{\"Q0\":\"One of the most fun HITs I've done!\"}","trial_type":"survey-text","trial_index":105,"time_elapsed":2822031,"internal_node_id":"0.0-7.0"}]