[{"view_history":"[{\"page_index\":0,\"viewing_time\":1095076},{\"page_index\":1,\"viewing_time\":9391},{\"page_index\":2,\"viewing_time\":1605},{\"page_index\":1,\"viewing_time\":24088},{\"page_index\":2,\"viewing_time\":37257},{\"page_index\":3,\"viewing_time\":7444}]","rt":1174861,"trial_type":"instructions","trial_index":0,"time_elapsed":1174863,"internal_node_id":"0.0-0.0"},{"view_history":"[{\"page_index\":0,\"viewing_time\":2290},{\"page_index\":1,\"viewing_time\":36025}]","rt":38315,"trial_type":"instructions","trial_index":1,"time_elapsed":1214178,"internal_node_id":"0.0-1.0"},{"group":"hexagon_tri","room_assignment":["red","yellow","grey","green","purple","blue"],"door_color_assignment":["black","white"],"door_generator_assignment":[0,1],"goal":4,"start":0,"action_noise":0.15,"location_history":"[0,5,0,1,5,0,1,5,4]","action_history":"[1,1,1,1,1,1,0,0]","door_history":"[1,1,1,1,1,1,0,0]","location_rts":"[6029,3696,2179,3296,2015,2388,1527,1385]","trial_type":"two-door-navigation","trial_index":2,"time_elapsed":1248396,"internal_node_id":"0.0-2.0-0.0"},{"group":"hexagon_tri","room_assignment":["red","yellow","grey","green","purple","blue"],"door_color_assignment":["black","white"],"door_generator_assignment":[0,1],"goal":3,"start":4,"action_noise":0.15,"location_history":"[4,0,5,0,5,0,5,0,1,5,4,2,1,5,4,2,3]","action_history":"[0,0,0,1,0,0,1,1,1,0,1,0,1,0,1,1]","door_history":"[0,0,0,1,0,0,1,1,1,0,1,0,1,0,1,1]","location_rts":"[2378,1496,966,2586,1474,1743,1317,864,1010,888,2127,3400,1237,1644,1031,1045]","trial_type":"two-door-navigation","trial_index":3,"time_elapsed":1293456,"internal_node_id":"0.0-2.0-1.0"},{"group":"hexagon_tri","room_assignment":["red","yellow","grey","green","purple","blue"],"door_color_assignment":["black","white"],"door_generator_assignment":[0,1],"goal":5,"start":3,"action_noise":0.15,"location_history":"[3,2,1,3,2,1,3,4,0,1,3,4,2,3,4,0,1,3,2,3,4,2,1,5]","action_history":"[0,0,1,0,0,0,1,0,1,0,1,1,1,1,1,0,0,0,0,1,1,0,1]","door_history":"[0,0,1,0,0,0,1,0,1,0,1,1,1,1,1,0,0,0,0,1,1,0,1]","location_rts":"[2352,1183,1273,1333,555,379,1186,1303,1229,827,693,599,866,888,1610,1738,1170,1067,669,884,847,2310,923]","trial_type":"two-door-navigation","trial_index":4,"time_elapsed":1346267,"internal_node_id":"0.0-2.0-2.0"},{"group":"hexagon_tri","room_assignment":["red","yellow","grey","green","purple","blue"],"door_color_assignment":["black","white"],"door_generator_assignment":[0,1],"goal":2,"start":5,"action_noise":0.15,"location_history":"[5,4,2]","action_history":"[0,1]","door_history":"[0,1]","location_rts":"[3822,1065]","trial_type":"two-door-navigation","trial_index":5,"time_elapsed":1356699,"internal_node_id":"0.0-2.0-3.0"},{"group":"hexagon_tri","room_assignment":["red","yellow","grey","green","purple","blue"],"door_color_assignment":["black","white"],"door_generator_assignment":[0,1],"goal":1,"start":2,"action_noise":0.15,"location_history":"[2,1]","action_history":"[0]","door_history":"[0]","location_rts":"[2039]","trial_type":"two-door-navigation","trial_index":6,"time_elapsed":1363264,"internal_node_id":"0.0-2.0-4.0"},{"group":"hexagon_tri","room_assignment":["red","yellow","grey","green","purple","blue"],"door_color_assignment":["black","white"],"door_generator_assignment":[0,1],"goal":4,"start":1,"action_noise":0.15,"location_history":"[1,5,4]","action_history":"[1,0]","door_history":"[1,0]","location_rts":"[2040,2337]","trial_type":"two-door-navigation","trial_index":7,"time_elapsed":1373176,"internal_node_id":"0.0-2.0-5.0"},{"group":"hexagon_tri","room_assignment":["red","yellow","grey","green","purple","blue"],"door_color_assignment":["black","white"],"door_generator_assignment":[0,1],"goal":1,"start":4,"action_noise":0.15,"location_history":"[4,2,3,4,2,3,4,0,1]","action_history":"[0,1,1,1,1,1,0,1]","door_history":"[0,1,1,1,1,1,0,1]","location_rts":"[3783,1200,788,576,532,785,881,1028]","trial_type":"two-door-navigation","trial_index":8,"time_elapsed":1394404,"internal_node_id":"0.0-2.0-6.0"},{"group":"hexagon_tri","room_assignment":["red","yellow","grey","green","purple","blue"],"door_color_assignment":["black","white"],"door_generator_assignment":[0,1],"goal":5,"start":1,"action_noise":0.15,"location_history":"[1,5]","action_history":"[1]","door_history":"[1]","location_rts":"[9607]","trial_type":"two-door-navigation","trial_index":9,"time_elapsed":1408540,"internal_node_id":"0.0-2.0-7.0"},{"group":"hexagon_tri","room_assignment":["red","yellow","grey","green","purple","blue"],"door_color_assignment":["black","white"],"door_generator_assignment":[0,1],"goal":0,"start":5,"action_noise":0.15,"location_history":"[5,0]","action_history":"[1]","door_history":"[1]","location_rts":"[5755]","trial_type":"two-door-navigation","trial_index":10,"time_elapsed":1418822,"internal_node_id":"0.0-2.0-8.0"},{"group":"hexagon_tri","room_assignment":["red","yellow","grey","green","purple","blue"],"door_color_assignment":["black","white"],"door_generator_assignment":[0,1],"goal":2,"start":0,"action_noise":0.15,"location_history":"[0,1,3,4,2]","action_history":"[1,0,1,1]","door_history":"[1,0,1,1]","location_rts":"[4864,968,950,2297]","trial_type":"two-door-navigation","trial_index":11,"time_elapsed":1435485,"internal_node_id":"0.0-2.0-9.0"},{"group":"hexagon_tri","room_assignment":["red","yellow","grey","green","purple","blue"],"door_color_assignment":["black","white"],"door_generator_assignment":[0,1],"goal":3,"start":2,"action_noise":0.15,"location_history":"[2,3]","action_history":"[1]","door_history":"[1]","location_rts":"[8011]","trial_type":"two-door-navigation","trial_index":12,"time_elapsed":1448018,"internal_node_id":"0.0-2.0-10.0"},{"group":"hexagon_tri","room_assignment":["red","yellow","grey","green","purple","blue"],"door_color_assignment":["black","white"],"door_generator_assignment":[0,1],"goal":0,"start":3,"action_noise":0.15,"location_history":"[3,2,1,3,2,1,5,0]","action_history":"[1,0,0,0,0,0,1]","door_history":"[1,0,0,0,0,0,1]","location_rts":"[2438,1088,691,520,554,516,561]","trial_type":"two-door-navigation","trial_index":13,"time_elapsed":1465035,"internal_node_id":"0.0-2.0-11.0"},{"group":"hexagon_tri","room_assignment":["red","yellow","grey","green","purple","blue"],"door_color_assignment":["black","white"],"door_generator_assignment":[0,1],"goal":2,"start":0,"action_noise":0.15,"location_history":"[0,1,3,2]","action_history":"[1,1,0]","door_history":"[1,1,0]","location_rts":"[5319,722,822]","trial_type":"two-door-navigation","trial_index":14,"time_elapsed":1478467,"internal_node_id":"0.0-2.0-12.0"},{"group":"hexagon_tri","room_assignment":["red","yellow","grey","green","purple","blue"],"door_color_assignment":["black","white"],"door_generator_assignment":[0,1],"goal":5,"start":2,"action_noise":0.15,"location_history":"[2,3,2,1,5]","action_history":"[1,0,0,1]","door_history":"[1,0,0,1]","location_rts":"[1429,1008,780,546]","trial_type":"two-door-navigation","trial_index":15,"time_elapsed":1489813,"internal_node_id":"0.0-2.0-13.0"},{"group":"hexagon_tri","room_assignment":["red","yellow","grey","green","purple","blue"],"door_color_assignment":["black","white"],"door_generator_assignment":[0,1],"goal":4,"start":5,"action_noise":0.15,"location_history":"[5,4]","action_history":"[0]","door_history":"[0]","location_rts":"[2083]","trial_type":"two-door-navigation","trial_index":16,"time_elapsed":1496421,"internal_node_id":"0.0-2.0-14.0"},{"group":"hexagon_tri","room_assignment":["red","yellow","grey","green","purple","blue"],"door_color_assignment":["black","white"],"door_generator_assignment":[0,1],"goal":3,"start":4,"action_noise":0.15,"location_history":"[4,0,1,3]","action_history":"[0,1,1]","door_history":"[0,1,1]","location_rts":"[1916,1034,743]","trial_type":"two-door-navigation","trial_index":17,"time_elapsed":1506680,"internal_node_id":"0.0-2.0-15.0"},{"group":"hexagon_tri","room_assignment":["red","yellow","grey","green","purple","blue"],"door_color_assignment":["black","white"],"door_generator_assignment":[0,1],"goal":1,"start":3,"action_noise":0.15,"location_history":"[3,2,3,4,0,5,4,2,3,4,2,1]","action_history":"[0,1,1,0,1,1,1,1,0,1,0]","door_history":"[0,1,1,0,1,1,1,1,0,1,0]","location_rts":"[1491,866,667,906,486,705,549,500,593,494,440]","trial_type":"two-door-navigation","trial_index":18,"time_elapsed":1529105,"internal_node_id":"0.0-2.0-16.0"},{"group":"hexagon_tri","room_assignment":["red","yellow","grey","green","purple","blue"],"door_color_assignment":["black","white"],"door_generator_assignment":[0,1],"goal":5,"start":1,"action_noise":0.15,"location_history":"[1,5]","action_history":"[1]","door_history":"[1]","location_rts":"[2329]","trial_type":"two-door-navigation","trial_index":19,"time_elapsed":1535962,"internal_node_id":"0.0-2.0-17.0"},{"group":"hexagon_tri","room_assignment":["red","yellow","grey","green","purple","blue"],"door_color_assignment":["black","white"],"door_generator_assignment":[0,1],"goal":4,"start":5,"action_noise":0.15,"location_history":"[5,4]","action_history":"[0]","door_history":"[0]","location_rts":"[1726]","trial_type":"two-door-navigation","trial_index":20,"time_elapsed":1542212,"internal_node_id":"0.0-2.0-18.0"},{"group":"hexagon_tri","room_assignment":["red","yellow","grey","green","purple","blue"],"door_color_assignment":["black","white"],"door_generator_assignment":[0,1],"goal":0,"start":4,"action_noise":0.15,"location_history":"[4,2,1,5,4,2,1,3,2,3,4,2,3,2,3,2,3,4,0]","action_history":"[1,0,1,1,1,0,0,0,1,1,1,0,0,1,1,1,1,0]","door_history":"[1,0,1,1,1,0,0,0,1,1,1,0,0,1,1,1,1,0]","location_rts":"[2741,742,990,661,525,1207,632,541,1118,1068,905,658,903,905,1166,399,417,2211]","trial_type":"two-door-navigation","trial_index":21,"time_elapsed":1581876,"internal_node_id":"0.0-2.0-19.0"},{"group":"hexagon_tri","room_assignment":["red","yellow","grey","green","purple","blue"],"door_color_assignment":["black","white"],"door_generator_assignment":[0,1],"goal":1,"start":0,"action_noise":0.15,"location_history":"[0,1]","action_history":"[1]","door_history":"[1]","location_rts":"[3329]","trial_type":"two-door-navigation","trial_index":22,"time_elapsed":1589729,"internal_node_id":"0.0-2.0-20.0"},{"group":"hexagon_tri","room_assignment":["red","yellow","grey","green","purple","blue"],"door_color_assignment":["black","white"],"door_generator_assignment":[0,1],"goal":3,"start":1,"action_noise":0.15,"location_history":"[1,3]","action_history":"[0]","door_history":"[0]","location_rts":"[2478]","trial_type":"two-door-navigation","trial_index":23,"time_elapsed":1596728,"internal_node_id":"0.0-2.0-21.0"},{"group":"hexagon_tri","room_assignment":["red","yellow","grey","green","purple","blue"],"door_color_assignment":["black","white"],"door_generator_assignment":[0,1],"goal":2,"start":3,"action_noise":0.15,"location_history":"[3,4,2]","action_history":"[0,1]","door_history":"[0,1]","location_rts":"[1713,1111]","trial_type":"two-door-navigation","trial_index":24,"time_elapsed":1605098,"internal_node_id":"0.0-2.0-22.0"},{"group":"hexagon_tri","room_assignment":["red","yellow","grey","green","purple","blue"],"door_color_assignment":["black","white"],"door_generator_assignment":[0,1],"goal":0,"start":2,"action_noise":0.15,"location_history":"[2,3,4,0]","action_history":"[1,1,0]","door_history":"[1,1,0]","location_rts":"[1997,544,629]","trial_type":"two-door-navigation","trial_index":25,"time_elapsed":1614831,"internal_node_id":"0.0-2.0-23.0"},{"group":"hexagon_tri","room_assignment":["red","yellow","grey","green","purple","blue"],"door_color_assignment":["black","white"],"door_generator_assignment":[0,1],"goal":3,"start":0,"action_noise":0.15,"location_history":"[0,5,0,1,3]","action_history":"[0,1,1,0]","door_history":"[0,1,1,0]","location_rts":"[1878,1294,501,1161]","trial_type":"two-door-navigation","trial_index":26,"time_elapsed":1627253,"internal_node_id":"0.0-2.0-24.0"},{"group":"hexagon_tri","room_assignment":["red","yellow","grey","green","purple","blue"],"door_color_assignment":["black","white"],"door_generator_assignment":[0,1],"goal":1,"start":3,"action_noise":0.15,"location_history":"[3,4,2,1]","action_history":"[1,1,0]","door_history":"[1,1,0]","location_rts":"[1761,1435,1025]","trial_type":"two-door-navigation","trial_index":27,"time_elapsed":1638043,"internal_node_id":"0.0-2.0-25.0"},{"group":"hexagon_tri","room_assignment":["red","yellow","grey","green","purple","blue"],"door_color_assignment":["black","white"],"door_generator_assignment":[0,1],"goal":2,"start":1,"action_noise":0.15,"location_history":"[1,5,4,2]","action_history":"[1,0,1]","door_history":"[1,0,1]","location_rts":"[5830,1583,326]","trial_type":"two-door-navigation","trial_index":28,"time_elapsed":1652358,"internal_node_id":"0.0-2.0-26.0"},{"group":"hexagon_tri","room_assignment":["red","yellow","grey","green","purple","blue"],"door_color_assignment":["black","white"],"door_generator_assignment":[0,1],"goal":5,"start":2,"action_noise":0.15,"location_history":"[2,1,5]","action_history":"[0,1]","door_history":"[0,1]","location_rts":"[3296,702]","trial_type":"two-door-navigation","trial_index":29,"time_elapsed":1661903,"internal_node_id":"0.0-2.0-27.0"},{"group":"hexagon_tri","room_assignment":["red","yellow","grey","green","purple","blue"],"door_color_assignment":["black","white"],"door_generator_assignment":[0,1],"goal":4,"start":5,"action_noise":0.15,"location_history":"[5,4]","action_history":"[0]","door_history":"[0]","location_rts":"[1674]","trial_type":"two-door-navigation","trial_index":30,"time_elapsed":1668104,"internal_node_id":"0.0-2.0-28.0"},{"group":"hexagon_tri","room_assignment":["red","yellow","grey","green","purple","blue"],"door_color_assignment":["black","white"],"door_generator_assignment":[0,1],"goal":5,"start":4,"action_noise":0.15,"location_history":"[4,2,1,3,2,3,4,2,3,2,1,5]","action_history":"[1,1,0,1,1,1,1,1,0,0,0]","door_history":"[1,1,0,1,1,1,1,1,0,0,0]","location_rts":"[2044,255,665,2588,1325,884,1401,338,675,928,1118]","trial_type":"two-door-navigation","trial_index":31,"time_elapsed":1695089,"internal_node_id":"0.0-2.0-29.0"},{"group":"hexagon_tri","room_assignment":["red","yellow","grey","green","purple","blue"],"door_color_assignment":["black","white"],"door_generator_assignment":[0,1],"goal":3,"start":5,"action_noise":0.15,"location_history":"[5,0,5,0,1,3]","action_history":"[1,0,0,1,1]","door_history":"[1,0,0,1,1]","location_rts":"[2015,1327,967,954,521]","trial_type":"two-door-navigation","trial_index":32,"time_elapsed":1709488,"internal_node_id":"0.0-2.0-30.0"},{"group":"hexagon_tri","room_assignment":["red","yellow","grey","green","purple","blue"],"door_color_assignment":["black","white"],"door_generator_assignment":[0,1],"goal":0,"start":3,"action_noise":0.15,"location_history":"[3,2,3,4,0]","action_history":"[0,1,1,0]","door_history":"[0,1,1,0]","location_rts":"[7480,1312,377,1711]","trial_type":"two-door-navigation","trial_index":33,"time_elapsed":1727955,"internal_node_id":"0.0-2.0-31.0"},{"group":"hexagon_tri","room_assignment":["red","yellow","grey","green","purple","blue"],"door_color_assignment":["black","white"],"door_generator_assignment":[0,1],"goal":4,"start":0,"action_noise":0.15,"location_history":"[0,1,3,2,1,5,4]","action_history":"[1,0,0,0,1,0]","door_history":"[1,0,0,0,1,0]","location_rts":"[2061,1218,1013,1140,737,1126]","trial_type":"two-door-navigation","trial_index":34,"time_elapsed":1744884,"internal_node_id":"0.0-2.0-32.0"},{"group":"hexagon_tri","room_assignment":["red","yellow","grey","green","purple","blue"],"door_color_assignment":["black","white"],"door_generator_assignment":[0,1],"goal":1,"start":4,"action_noise":0.15,"location_history":"[4,0,1]","action_history":"[0,1]","door_history":"[0,1]","location_rts":"[3434,1259]","trial_type":"two-door-navigation","trial_index":35,"time_elapsed":1755119,"internal_node_id":"0.0-2.0-33.0"},{"group":"hexagon_tri","room_assignment":["red","yellow","grey","green","purple","blue"],"door_color_assignment":["black","white"],"door_generator_assignment":[0,1],"goal":2,"start":1,"action_noise":0.15,"location_history":"[1,5,4,0,1,3,4,0,5,0,1,5,4,2]","action_history":"[1,0,1,1,0,1,0,0,1,1,1,1,1]","door_history":"[1,0,1,1,0,1,0,0,1,1,1,1,1]","location_rts":"[2943,1480,346,2710,1136,714,984,1447,879,793,558,886,2575]","trial_type":"two-door-navigation","trial_index":36,"time_elapsed":1789337,"internal_node_id":"0.0-2.0-34.0"},{"group":"hexagon_tri","room_assignment":["red","yellow","grey","green","purple","blue"],"door_color_assignment":["black","white"],"door_generator_assignment":[0,1],"goal":0,"start":2,"action_noise":0.15,"location_history":"[2,1,3,2,3,4,0]","action_history":"[0,1,0,1,1,0]","door_history":"[0,1,0,1,1,0]","location_rts":"[5289,644,713,927,354,701]","trial_type":"two-door-navigation","trial_index":37,"time_elapsed":1807600,"internal_node_id":"0.0-2.0-35.0"},{"group":"hexagon_tri","room_assignment":["red","yellow","grey","green","purple","blue"],"door_color_assignment":["black","white"],"door_generator_assignment":[0,1],"goal":5,"start":0,"action_noise":0.15,"location_history":"[0,5]","action_history":"[0]","door_history":"[0]","location_rts":"[2963]","trial_type":"two-door-navigation","trial_index":38,"time_elapsed":1815091,"internal_node_id":"0.0-2.0-36.0"},{"group":"hexagon_tri","room_assignment":["red","yellow","grey","green","purple","blue"],"door_color_assignment":["black","white"],"door_generator_assignment":[0,1],"goal":2,"start":5,"action_noise":0.15,"location_history":"[5,4,2]","action_history":"[0,1]","door_history":"[0,1]","location_rts":"[1832,374]","trial_type":"two-door-navigation","trial_index":39,"time_elapsed":1822844,"internal_node_id":"0.0-2.0-37.0"},{"group":"hexagon_tri","room_assignment":["red","yellow","grey","green","purple","blue"],"door_color_assignment":["black","white"],"door_generator_assignment":[0,1],"goal":1,"start":2,"action_noise":0.15,"location_history":"[2,3,2,1]","action_history":"[1,0,0]","door_history":"[1,0,0]","location_rts":"[4799,822,526]","trial_type":"two-door-navigation","trial_index":40,"time_elapsed":1835551,"internal_node_id":"0.0-2.0-38.0"},{"group":"hexagon_tri","room_assignment":["red","yellow","grey","green","purple","blue"],"door_color_assignment":["black","white"],"door_generator_assignment":[0,1],"goal":4,"start":1,"action_noise":0.15,"location_history":"[1,5,4]","action_history":"[0,0]","door_history":"[0,0]","location_rts":"[4030,789]","trial_type":"two-door-navigation","trial_index":41,"time_elapsed":1845919,"internal_node_id":"0.0-2.0-39.0"},{"group":"hexagon_tri","room_assignment":["red","yellow","grey","green","purple","blue"],"door_color_assignment":["black","white"],"door_generator_assignment":[0,1],"goal":3,"start":4,"action_noise":0.15,"location_history":"[4,2,3]","action_history":"[1,1]","door_history":"[1,1]","location_rts":"[2782,318]","trial_type":"two-door-navigation","trial_index":42,"time_elapsed":1854568,"internal_node_id":"0.0-2.0-40.0"},{"group":"hexagon_tri","room_assignment":["red","yellow","grey","green","purple","blue"],"door_color_assignment":["black","white"],"door_generator_assignment":[0,1],"goal":5,"start":3,"action_noise":0.15,"location_history":"[3,4,0,1,5]","action_history":"[0,0,0,1]","door_history":"[0,0,0,1]","location_rts":"[1998,1147,606,603]","trial_type":"two-door-navigation","trial_index":43,"time_elapsed":1866508,"internal_node_id":"0.0-2.0-41.0"},{"group":"hexagon_tri","room_assignment":["red","yellow","grey","green","purple","blue"],"door_color_assignment":["black","white"],"door_generator_assignment":[0,1],"goal":3,"start":5,"action_noise":0.15,"location_history":"[5,4,2,3]","action_history":"[0,1,1]","door_history":"[0,1,1]","location_rts":"[9490,568,223]","trial_type":"two-door-navigation","trial_index":44,"time_elapsed":1884057,"internal_node_id":"0.0-2.0-42.0"},{"group":"hexagon_tri","room_assignment":["red","yellow","grey","green","purple","blue"],"door_color_assignment":["black","white"],"door_generator_assignment":[0,1],"goal":0,"start":3,"action_noise":0.15,"location_history":"[3,2,1,5,4,2,1,5,4,2,3,4,2,3,4,0]","action_history":"[0,0,1,0,0,0,1,0,1,1,1,1,0,1,0]","door_history":"[0,0,1,0,0,0,1,0,1,1,1,1,0,1,0]","location_rts":"[6235,974,872,963,300,784,776,508,924,744,953,565,852,628,493]","trial_type":"two-door-navigation","trial_index":45,"time_elapsed":1920056,"internal_node_id":"0.0-2.0-43.0"},{"group":"hexagon_tri","room_assignment":["red","yellow","grey","green","purple","blue"],"door_color_assignment":["black","white"],"door_generator_assignment":[0,1],"goal":2,"start":0,"action_noise":0.15,"location_history":"[0,5,4,2]","action_history":"[0,0,1]","door_history":"[0,0,1]","location_rts":"[3175,1853,498]","trial_type":"two-door-navigation","trial_index":46,"time_elapsed":1933134,"internal_node_id":"0.0-2.0-44.0"},{"group":"hexagon_tri","room_assignment":["red","yellow","grey","green","purple","blue"],"door_color_assignment":["black","white"],"door_generator_assignment":[0,1],"goal":4,"start":2,"action_noise":0.15,"location_history":"[2,3,2,1,5,0,1,3,2,1,3,4]","action_history":"[1,0,0,1,1,1,0,0,0,1,1]","door_history":"[1,0,0,1,1,1,0,0,0,1,1]","location_rts":"[4518,753,669,647,408,685,821,558,1092,544,402]","trial_type":"two-door-navigation","trial_index":47,"time_elapsed":1959057,"internal_node_id":"0.0-2.0-45.0"},{"group":"hexagon_tri","room_assignment":["red","yellow","grey","green","purple","blue"],"door_color_assignment":["black","white"],"door_generator_assignment":[0,1],"goal":1,"start":4,"action_noise":0.15,"location_history":"[4,2,3,2,1]","action_history":"[1,1,0,0]","door_history":"[1,1,0,0]","location_rts":"[2064,924,792,575]","trial_type":"two-door-navigation","trial_index":48,"time_elapsed":1971515,"internal_node_id":"0.0-2.0-46.0"},{"group":"hexagon_tri","room_assignment":["red","yellow","grey","green","purple","blue"],"door_color_assignment":["black","white"],"door_generator_assignment":[0,1],"goal":4,"start":1,"action_noise":0.15,"location_history":"[1,3,4]","action_history":"[0,1]","door_history":"[0,1]","location_rts":"[11195,1196]","trial_type":"two-door-navigation","trial_index":49,"time_elapsed":1989446,"internal_node_id":"0.0-2.0-47.0"},{"group":"hexagon_tri","room_assignment":["red","yellow","grey","green","purple","blue"],"door_color_assignment":["black","white"],"door_generator_assignment":[0,1],"goal":3,"start":4,"action_noise":0.15,"location_history":"[4,2,3]","action_history":"[1,1]","door_history":"[1,1]","location_rts":"[10710,10767]","trial_type":"two-door-navigation","trial_index":50,"time_elapsed":2016458,"internal_node_id":"0.0-2.0-48.0"},{"group":"hexagon_tri","room_assignment":["red","yellow","grey","green","purple","blue"],"door_color_assignment":["black","white"],"door_generator_assignment":[0,1],"goal":5,"start":3,"action_noise":0.15,"location_history":"[3,2,3,2,1,5]","action_history":"[0,1,1,0,1]","door_history":"[0,1,1,0,1]","location_rts":"[6496,768,1403,1144,908]","trial_type":"two-door-navigation","trial_index":51,"time_elapsed":2036057,"internal_node_id":"0.0-2.0-49.0"},{"view_history":"[{\"page_index\":0,\"viewing_time\":18325}]","rt":18325,"trial_type":"instructions","trial_index":52,"time_elapsed":2055578,"internal_node_id":"0.0-3.0"},{"view_history":"[{\"page_index\":0,\"viewing_time\":3405},{\"page_index\":1,\"viewing_time\":48860}]","rt":52265,"trial_type":"instructions","trial_index":53,"time_elapsed":2108844,"internal_node_id":"0.0-4.0"},{"group":"hexagon_bi","fractal_assignment":["../images/pnk_blu.png","../images/org_blu.png","../images/ylw_slt.png","../images/blu_wht.png","../images/cyn_red.png","../images/gry_blk.png"],"mutagen_generator_assignment":[1,0],"goal":4,"start":0,"action_noise":0.15,"location_history":"[0,5,4]","action_history":"[0,1]","mutagen_history":"[1,0]","location_rts":"[14110,1235]","trial_type":"fractal-mutation","trial_index":54,"time_elapsed":2129750,"internal_node_id":"0.0-5.0-0.0"},{"group":"hexagon_bi","fractal_assignment":["../images/pnk_blu.png","../images/org_blu.png","../images/ylw_slt.png","../images/blu_wht.png","../images/cyn_red.png","../images/gry_blk.png"],"mutagen_generator_assignment":[1,0],"goal":3,"start":4,"action_noise":0.15,"location_history":"[4,5,4,3]","action_history":"[1,0,0]","mutagen_history":"[0,1,1]","location_rts":"[1955,1064,2704]","trial_type":"fractal-mutation","trial_index":55,"time_elapsed":2142059,"internal_node_id":"0.0-5.0-1.0"},{"group":"hexagon_bi","fractal_assignment":["../images/pnk_blu.png","../images/org_blu.png","../images/ylw_slt.png","../images/blu_wht.png","../images/cyn_red.png","../images/gry_blk.png"],"mutagen_generator_assignment":[1,0],"goal":5,"start":3,"action_noise":0.15,"location_history":"[3,4,5]","action_history":"[0,1]","mutagen_history":"[1,0]","location_rts":"[1824,997]","trial_type":"fractal-mutation","trial_index":56,"time_elapsed":2150443,"internal_node_id":"0.0-5.0-2.0"},{"group":"hexagon_bi","fractal_assignment":["../images/pnk_blu.png","../images/org_blu.png","../images/ylw_slt.png","../images/blu_wht.png","../images/cyn_red.png","../images/gry_blk.png"],"mutagen_generator_assignment":[1,0],"goal":2,"start":5,"action_noise":0.15,"location_history":"[5,4,3,4,5,4,5,0,1,2]","action_history":"[0,0,0,1,1,1,0,1,0]","mutagen_history":"[1,1,1,0,0,0,1,0,1]","location_rts":"[1847,821,1048,797,846,666,543,1155,824]","trial_type":"fractal-mutation","trial_index":57,"time_elapsed":2171780,"internal_node_id":"0.0-5.0-3.0"},{"group":"hexagon_bi","fractal_assignment":["../images/pnk_blu.png","../images/org_blu.png","../images/ylw_slt.png","../images/blu_wht.png","../images/cyn_red.png","../images/gry_blk.png"],"mutagen_generator_assignment":[1,0],"goal":1,"start":2,"action_noise":0.15,"location_history":"[2,3,4,5,4,3,2,1]","action_history":"[1,0,1,1,0,0,0]","mutagen_history":"[0,1,0,0,1,1,1]","location_rts":"[2557,1318,676,596,715,382,1683]","trial_type":"fractal-mutation","trial_index":58,"time_elapsed":2190408,"internal_node_id":"0.0-5.0-4.0"},{"group":"hexagon_bi","fractal_assignment":["../images/pnk_blu.png","../images/org_blu.png","../images/ylw_slt.png","../images/blu_wht.png","../images/cyn_red.png","../images/gry_blk.png"],"mutagen_generator_assignment":[1,0],"goal":4,"start":1,"action_noise":0.15,"location_history":"[1,0,5,0,1,2,1,2,1,0,1,0,1,0,1,0,5,0,5,0,5,4]","action_history":"[1,0,0,0,0,1,1,1,1,1,1,1,1,1,1,0,0,0,1,0,1]","mutagen_history":"[0,1,1,1,1,0,0,0,0,0,0,0,0,0,0,1,1,1,0,1,0]","location_rts":"[1689,929,580,809,597,553,688,597,588,871,512,438,538,416,500,264,668,849,427,1012,509]","trial_type":"fractal-mutation","trial_index":59,"time_elapsed":2229499,"internal_node_id":"0.0-5.0-5.0"},{"group":"hexagon_bi","fractal_assignment":["../images/pnk_blu.png","../images/org_blu.png","../images/ylw_slt.png","../images/blu_wht.png","../images/cyn_red.png","../images/gry_blk.png"],"mutagen_generator_assignment":[1,0],"goal":1,"start":4,"action_noise":0.15,"location_history":"[4,5,0,1]","action_history":"[1,0,1]","mutagen_history":"[0,1,0]","location_rts":"[6086,1035,829]","trial_type":"fractal-mutation","trial_index":60,"time_elapsed":2244009,"internal_node_id":"0.0-5.0-6.0"},{"group":"hexagon_bi","fractal_assignment":["../images/pnk_blu.png","../images/org_blu.png","../images/ylw_slt.png","../images/blu_wht.png","../images/cyn_red.png","../images/gry_blk.png"],"mutagen_generator_assignment":[1,0],"goal":5,"start":1,"action_noise":0.15,"location_history":"[1,0,5]","action_history":"[1,1]","mutagen_history":"[0,0]","location_rts":"[1614,1171]","trial_type":"fractal-mutation","trial_index":61,"time_elapsed":2252345,"internal_node_id":"0.0-5.0-7.0"},{"group":"hexagon_bi","fractal_assignment":["../images/pnk_blu.png","../images/org_blu.png","../images/ylw_slt.png","../images/blu_wht.png","../images/cyn_red.png","../images/gry_blk.png"],"mutagen_generator_assignment":[1,0],"goal":0,"start":5,"action_noise":0.15,"location_history":"[5,0]","action_history":"[0]","mutagen_history":"[1]","location_rts":"[1713]","trial_type":"fractal-mutation","trial_index":62,"time_elapsed":2258580,"internal_node_id":"0.0-5.0-8.0"},{"group":"hexagon_bi","fractal_assignment":["../images/pnk_blu.png","../images/org_blu.png","../images/ylw_slt.png","../images/blu_wht.png","../images/cyn_red.png","../images/gry_blk.png"],"mutagen_generator_assignment":[1,0],"goal":2,"start":0,"action_noise":0.15,"location_history":"[0,1,0,5,0,5,4,3,4,5,4,3,2]","action_history":"[0,1,0,0,0,1,0,0,1,1,0,1]","mutagen_history":"[1,0,1,1,1,0,1,1,0,0,1,0]","location_rts":"[1499,334,784,391,634,634,961,902,652,658,729,1020]","trial_type":"fractal-mutation","trial_index":63,"time_elapsed":2283545,"internal_node_id":"0.0-5.0-9.0"},{"group":"hexagon_bi","fractal_assignment":["../images/pnk_blu.png","../images/org_blu.png","../images/ylw_slt.png","../images/blu_wht.png","../images/cyn_red.png","../images/gry_blk.png"],"mutagen_generator_assignment":[1,0],"goal":3,"start":2,"action_noise":0.15,"location_history":"[2,1,2,1,2,3]","action_history":"[1,0,0,0,1]","mutagen_history":"[0,1,1,1,0]","location_rts":"[7895,766,804,691,678]","trial_type":"fractal-mutation","trial_index":64,"time_elapsed":2302989,"internal_node_id":"0.0-5.0-10.0"},{"group":"hexagon_bi","fractal_assignment":["../images/pnk_blu.png","../images/org_blu.png","../images/ylw_slt.png","../images/blu_wht.png","../images/cyn_red.png","../images/gry_blk.png"],"mutagen_generator_assignment":[1,0],"goal":0,"start":3,"action_noise":0.15,"location_history":"[3,2,1,2,3,2,3,4,3,4,5,4,5,0]","action_history":"[1,0,0,1,1,1,0,0,0,1,1,1,0]","mutagen_history":"[0,1,1,0,0,0,1,1,1,0,0,0,1]","location_rts":"[2297,588,446,907,385,731,598,623,788,337,748,591,93]","trial_type":"fractal-mutation","trial_index":65,"time_elapsed":2329002,"internal_node_id":"0.0-5.0-11.0"},{"group":"hexagon_bi","fractal_assignment":["../images/pnk_blu.png","../images/org_blu.png","../images/ylw_slt.png","../images/blu_wht.png","../images/cyn_red.png","../images/gry_blk.png"],"mutagen_generator_assignment":[1,0],"goal":2,"start":0,"action_noise":0.15,"location_history":"[0,5,0,1,0,1,0,5,0,5,0,1,2]","action_history":"[0,0,1,0,1,1,0,0,0,1,1,0]","mutagen_history":"[1,1,0,1,0,0,1,1,1,0,0,1]","location_rts":"[2159,669,778,989,1453,1074,1044,1106,1041,146,605,751]","trial_type":"fractal-mutation","trial_index":66,"time_elapsed":2356604,"internal_node_id":"0.0-5.0-12.0"},{"group":"hexagon_bi","fractal_assignment":["../images/pnk_blu.png","../images/org_blu.png","../images/ylw_slt.png","../images/blu_wht.png","../images/cyn_red.png","../images/gry_blk.png"],"mutagen_generator_assignment":[1,0],"goal":5,"start":2,"action_noise":0.15,"location_history":"[2,3,2,3,4,3,2,3,2,3,4,5]","action_history":"[1,1,0,1,0,1,1,1,0,0,1]","mutagen_history":"[0,0,1,0,1,0,0,0,1,1,0]","location_rts":"[11394,620,364,747,539,930,322,493,542,399,657]","trial_type":"fractal-mutation","trial_index":67,"time_elapsed":2388371,"internal_node_id":"0.0-5.0-13.0"},{"group":"hexagon_bi","fractal_assignment":["../images/pnk_blu.png","../images/org_blu.png","../images/ylw_slt.png","../images/blu_wht.png","../images/cyn_red.png","../images/gry_blk.png"],"mutagen_generator_assignment":[1,0],"goal":4,"start":5,"action_noise":0.15,"location_history":"[5,4]","action_history":"[0]","mutagen_history":"[1]","location_rts":"[989]","trial_type":"fractal-mutation","trial_index":68,"time_elapsed":2393894,"internal_node_id":"0.0-5.0-14.0"},{"group":"hexagon_bi","fractal_assignment":["../images/pnk_blu.png","../images/org_blu.png","../images/ylw_slt.png","../images/blu_wht.png","../images/cyn_red.png","../images/gry_blk.png"],"mutagen_generator_assignment":[1,0],"goal":3,"start":4,"action_noise":0.15,"location_history":"[4,5,4,3]","action_history":"[1,1,0]","mutagen_history":"[0,0,1]","location_rts":"[907,492,276]","trial_type":"fractal-mutation","trial_index":69,"time_elapsed":2402143,"internal_node_id":"0.0-5.0-15.0"},{"group":"hexagon_bi","fractal_assignment":["../images/pnk_blu.png","../images/org_blu.png","../images/ylw_slt.png","../images/blu_wht.png","../images/cyn_red.png","../images/gry_blk.png"],"mutagen_generator_assignment":[1,0],"goal":1,"start":3,"action_noise":0.15,"location_history":"[3,4,3,2,3,2,3,2,1]","action_history":"[0,1,1,0,1,1,1,0]","mutagen_history":"[1,0,0,1,0,0,0,1]","location_rts":"[995,841,338,478,978,581,761,213]","trial_type":"fractal-mutation","trial_index":70,"time_elapsed":2419023,"internal_node_id":"0.0-5.0-16.0"},{"group":"hexagon_bi","fractal_assignment":["../images/pnk_blu.png","../images/org_blu.png","../images/ylw_slt.png","../images/blu_wht.png","../images/cyn_red.png","../images/gry_blk.png"],"mutagen_generator_assignment":[1,0],"goal":5,"start":1,"action_noise":0.15,"location_history":"[1,0,5]","action_history":"[1,1]","mutagen_history":"[0,0]","location_rts":"[3532,1506]","trial_type":"fractal-mutation","trial_index":71,"time_elapsed":2429603,"internal_node_id":"0.0-5.0-17.0"},{"group":"hexagon_bi","fractal_assignment":["../images/pnk_blu.png","../images/org_blu.png","../images/ylw_slt.png","../images/blu_wht.png","../images/cyn_red.png","../images/gry_blk.png"],"mutagen_generator_assignment":[1,0],"goal":4,"start":5,"action_noise":0.15,"location_history":"[5,0,5,4]","action_history":"[0,0,1]","mutagen_history":"[1,1,0]","location_rts":"[4943,1124,535]","trial_type":"fractal-mutation","trial_index":72,"time_elapsed":2442771,"internal_node_id":"0.0-5.0-18.0"},{"group":"hexagon_bi","fractal_assignment":["../images/pnk_blu.png","../images/org_blu.png","../images/ylw_slt.png","../images/blu_wht.png","../images/cyn_red.png","../images/gry_blk.png"],"mutagen_generator_assignment":[1,0],"goal":0,"start":4,"action_noise":0.15,"location_history":"[4,3,4,5,0]","action_history":"[0,0,1,0]","mutagen_history":"[1,1,0,1]","location_rts":"[1469,741,619,785]","trial_type":"fractal-mutation","trial_index":73,"time_elapsed":2453988,"internal_node_id":"0.0-5.0-19.0"},{"group":"hexagon_bi","fractal_assignment":["../images/pnk_blu.png","../images/org_blu.png","../images/ylw_slt.png","../images/blu_wht.png","../images/cyn_red.png","../images/gry_blk.png"],"mutagen_generator_assignment":[1,0],"goal":1,"start":0,"action_noise":0.15,"location_history":"[0,1]","action_history":"[1]","mutagen_history":"[0]","location_rts":"[1697]","trial_type":"fractal-mutation","trial_index":74,"time_elapsed":2460221,"internal_node_id":"0.0-5.0-20.0"},{"group":"hexagon_bi","fractal_assignment":["../images/pnk_blu.png","../images/org_blu.png","../images/ylw_slt.png","../images/blu_wht.png","../images/cyn_red.png","../images/gry_blk.png"],"mutagen_generator_assignment":[1,0],"goal":3,"start":1,"action_noise":0.15,"location_history":"[1,2,3]","action_history":"[1,1]","mutagen_history":"[0,0]","location_rts":"[1730,884]","trial_type":"fractal-mutation","trial_index":75,"time_elapsed":2468390,"internal_node_id":"0.0-5.0-21.0"},{"group":"hexagon_bi","fractal_assignment":["../images/pnk_blu.png","../images/org_blu.png","../images/ylw_slt.png","../images/blu_wht.png","../images/cyn_red.png","../images/gry_blk.png"],"mutagen_generator_assignment":[1,0],"goal":2,"start":3,"action_noise":0.15,"location_history":"[3,4,5,4,3,4,5,0,5,4,5,4,3,2]","action_history":"[0,1,0,0,0,1,0,0,1,1,1,0,0]","mutagen_history":"[1,0,1,1,1,0,1,1,0,0,0,1,1]","location_rts":"[1228,699,648,423,572,829,633,858,862,265,572,430,527]","trial_type":"fractal-mutation","trial_index":76,"time_elapsed":2493763,"internal_node_id":"0.0-5.0-22.0"},{"group":"hexagon_bi","fractal_assignment":["../images/pnk_blu.png","../images/org_blu.png","../images/ylw_slt.png","../images/blu_wht.png","../images/cyn_red.png","../images/gry_blk.png"],"mutagen_generator_assignment":[1,0],"goal":0,"start":2,"action_noise":0.15,"location_history":"[2,3,4,3,4,5,4,5,4,5,0]","action_history":"[0,1,0,0,1,1,1,0,0,0]","mutagen_history":"[1,0,1,1,0,0,0,1,1,1]","location_rts":"[3495,773,808,658,865,560,484,244,597,560]","trial_type":"fractal-mutation","trial_index":77,"time_elapsed":2517057,"internal_node_id":"0.0-5.0-23.0"},{"group":"hexagon_bi","fractal_assignment":["../images/pnk_blu.png","../images/org_blu.png","../images/ylw_slt.png","../images/blu_wht.png","../images/cyn_red.png","../images/gry_blk.png"],"mutagen_generator_assignment":[1,0],"goal":3,"start":0,"action_noise":0.15,"location_history":"[0,5,4,5,0,5,0,5,4,3]","action_history":"[0,1,1,0,0,0,1,1,1]","mutagen_history":"[1,0,0,1,1,1,0,0,0]","location_rts":"[2129,817,588,663,559,568,1345,763,651]","trial_type":"fractal-mutation","trial_index":78,"time_elapsed":2538205,"internal_node_id":"0.0-5.0-24.0"},{"group":"hexagon_bi","fractal_assignment":["../images/pnk_blu.png","../images/org_blu.png","../images/ylw_slt.png","../images/blu_wht.png","../images/cyn_red.png","../images/gry_blk.png"],"mutagen_generator_assignment":[1,0],"goal":1,"start":3,"action_noise":0.15,"location_history":"[3,2,1]","action_history":"[1,0]","mutagen_history":"[0,1]","location_rts":"[1532,523]","trial_type":"fractal-mutation","trial_index":79,"time_elapsed":2545809,"internal_node_id":"0.0-5.0-25.0"},{"group":"hexagon_bi","fractal_assignment":["../images/pnk_blu.png","../images/org_blu.png","../images/ylw_slt.png","../images/blu_wht.png","../images/cyn_red.png","../images/gry_blk.png"],"mutagen_generator_assignment":[1,0],"goal":2,"start":1,"action_noise":0.15,"location_history":"[1,0,1,2]","action_history":"[1,1,0]","mutagen_history":"[0,0,1]","location_rts":"[1239,596,370]","trial_type":"fractal-mutation","trial_index":80,"time_elapsed":2554587,"internal_node_id":"0.0-5.0-26.0"},{"group":"hexagon_bi","fractal_assignment":["../images/pnk_blu.png","../images/org_blu.png","../images/ylw_slt.png","../images/blu_wht.png","../images/cyn_red.png","../images/gry_blk.png"],"mutagen_generator_assignment":[1,0],"goal":5,"start":2,"action_noise":0.15,"location_history":"[2,3,4,3,2,3,4,3,4,3,4,3,2,1,0,5]","action_history":"[1,0,0,1,1,0,0,1,0,0,0,1,1,1,0]","mutagen_history":"[0,1,1,0,0,1,1,0,1,1,1,0,0,0,1]","location_rts":"[1127,864,510,513,633,537,610,604,424,500,691,420,558,605,286]","trial_type":"fractal-mutation","trial_index":81,"time_elapsed":2582330,"internal_node_id":"0.0-5.0-27.0"},{"group":"hexagon_bi","fractal_assignment":["../images/pnk_blu.png","../images/org_blu.png","../images/ylw_slt.png","../images/blu_wht.png","../images/cyn_red.png","../images/gry_blk.png"],"mutagen_generator_assignment":[1,0],"goal":4,"start":5,"action_noise":0.15,"location_history":"[5,4]","action_history":"[1]","mutagen_history":"[0]","location_rts":"[1710]","trial_type":"fractal-mutation","trial_index":82,"time_elapsed":2588571,"internal_node_id":"0.0-5.0-28.0"},{"group":"hexagon_bi","fractal_assignment":["../images/pnk_blu.png","../images/org_blu.png","../images/ylw_slt.png","../images/blu_wht.png","../images/cyn_red.png","../images/gry_blk.png"],"mutagen_generator_assignment":[1,0],"goal":5,"start":4,"action_noise":0.15,"location_history":"[4,5]","action_history":"[1]","mutagen_history":"[0]","location_rts":"[2149]","trial_type":"fractal-mutation","trial_index":83,"time_elapsed":2595244,"internal_node_id":"0.0-5.0-29.0"},{"group":"hexagon_bi","fractal_assignment":["../images/pnk_blu.png","../images/org_blu.png","../images/ylw_slt.png","../images/blu_wht.png","../images/cyn_red.png","../images/gry_blk.png"],"mutagen_generator_assignment":[1,0],"goal":3,"start":5,"action_noise":0.15,"location_history":"[5,0,1,2,1,0,5,0,5,4,5,4,5,0,1,0,1,2,3]","action_history":"[0,1,0,0,1,0,0,0,1,1,1,0,0,0,1,1,0,1]","mutagen_history":"[1,0,1,1,0,1,1,1,0,0,0,1,1,1,0,0,1,0]","location_rts":"[1172,16874,860,588,627,988,461,463,275,593,668,499,611,1545,617,751,317,925]","trial_type":"fractal-mutation","trial_index":84,"time_elapsed":2645988,"internal_node_id":"0.0-5.0-30.0"},{"group":"hexagon_bi","fractal_assignment":["../images/pnk_blu.png","../images/org_blu.png","../images/ylw_slt.png","../images/blu_wht.png","../images/cyn_red.png","../images/gry_blk.png"],"mutagen_generator_assignment":[1,0],"goal":0,"start":3,"action_noise":0.15,"location_history":"[3,4,3,2,1,2,3,4,3,4,5,0]","action_history":"[0,1,1,0,0,0,1,0,0,0,1]","mutagen_history":"[1,0,0,1,1,1,0,1,1,1,0]","location_rts":"[2765,767,543,492,434,530,958,589,237,558,482]","trial_type":"fractal-mutation","trial_index":85,"time_elapsed":2669107,"internal_node_id":"0.0-5.0-31.0"},{"group":"hexagon_bi","fractal_assignment":["../images/pnk_blu.png","../images/org_blu.png","../images/ylw_slt.png","../images/blu_wht.png","../images/cyn_red.png","../images/gry_blk.png"],"mutagen_generator_assignment":[1,0],"goal":4,"start":0,"action_noise":0.15,"location_history":"[0,1,2,3,2,3,4]","action_history":"[1,0,1,1,1,0]","mutagen_history":"[0,1,0,0,0,1]","location_rts":"[1333,8037,660,306,686,376]","trial_type":"fractal-mutation","trial_index":86,"time_elapsed":2690141,"internal_node_id":"0.0-5.0-32.0"},{"group":"hexagon_bi","fractal_assignment":["../images/pnk_blu.png","../images/org_blu.png","../images/ylw_slt.png","../images/blu_wht.png","../images/cyn_red.png","../images/gry_blk.png"],"mutagen_generator_assignment":[1,0],"goal":1,"start":4,"action_noise":0.15,"location_history":"[4,3,4,5,0,5,0,1]","action_history":"[0,0,1,0,0,1,1]","mutagen_history":"[1,1,0,1,1,0,0]","location_rts":"[1452,580,878,548,543,702,1031]","trial_type":"fractal-mutation","trial_index":87,"time_elapsed":2706534,"internal_node_id":"0.0-5.0-33.0"},{"group":"hexagon_bi","fractal_assignment":["../images/pnk_blu.png","../images/org_blu.png","../images/ylw_slt.png","../images/blu_wht.png","../images/cyn_red.png","../images/gry_blk.png"],"mutagen_generator_assignment":[1,0],"goal":2,"start":1,"action_noise":0.15,"location_history":"[1,2]","action_history":"[0]","mutagen_history":"[1]","location_rts":"[3158]","trial_type":"fractal-mutation","trial_index":88,"time_elapsed":2714221,"internal_node_id":"0.0-5.0-34.0"},{"group":"hexagon_bi","fractal_assignment":["../images/pnk_blu.png","../images/org_blu.png","../images/ylw_slt.png","../images/blu_wht.png","../images/cyn_red.png","../images/gry_blk.png"],"mutagen_generator_assignment":[1,0],"goal":0,"start":2,"action_noise":0.15,"location_history":"[2,1,0]","action_history":"[0,1]","mutagen_history":"[1,0]","location_rts":"[6768,771]","trial_type":"fractal-mutation","trial_index":89,"time_elapsed":2728140,"internal_node_id":"0.0-5.0-35.0"},{"group":"hexagon_bi","fractal_assignment":["../images/pnk_blu.png","../images/org_blu.png","../images/ylw_slt.png","../images/blu_wht.png","../images/cyn_red.png","../images/gry_blk.png"],"mutagen_generator_assignment":[1,0],"goal":5,"start":0,"action_noise":0.15,"location_history":"[0,1,2,3,4,5]","action_history":"[1,0,0,1,1]","mutagen_history":"[0,1,1,0,0]","location_rts":"[2138,558,469,484,460]","trial_type":"fractal-mutation","trial_index":90,"time_elapsed":2740869,"internal_node_id":"0.0-5.0-36.0"},{"group":"hexagon_bi","fractal_assignment":["../images/pnk_blu.png","../images/org_blu.png","../images/ylw_slt.png","../images/blu_wht.png","../images/cyn_red.png","../images/gry_blk.png"],"mutagen_generator_assignment":[1,0],"goal":2,"start":5,"action_noise":0.15,"location_history":"[5,0,1,2]","action_history":"[0,1,0]","mutagen_history":"[1,0,1]","location_rts":"[1123,788,413]","trial_type":"fractal-mutation","trial_index":91,"time_elapsed":2749758,"internal_node_id":"0.0-5.0-37.0"},{"group":"hexagon_bi","fractal_assignment":["../images/pnk_blu.png","../images/org_blu.png","../images/ylw_slt.png","../images/blu_wht.png","../images/cyn_red.png","../images/gry_blk.png"],"mutagen_generator_assignment":[1,0],"goal":1,"start":2,"action_noise":0.15,"location_history":"[2,1]","action_history":"[1]","mutagen_history":"[0]","location_rts":"[2043]","trial_type":"fractal-mutation","trial_index":92,"time_elapsed":2756328,"internal_node_id":"0.0-5.0-38.0"},{"group":"hexagon_bi","fractal_assignment":["../images/pnk_blu.png","../images/org_blu.png","../images/ylw_slt.png","../images/blu_wht.png","../images/cyn_red.png","../images/gry_blk.png"],"mutagen_generator_assignment":[1,0],"goal":4,"start":1,"action_noise":0.15,"location_history":"[1,0,5,4]","action_history":"[0,1,1]","mutagen_history":"[1,0,0]","location_rts":"[2008,663,613]","trial_type":"fractal-mutation","trial_index":93,"time_elapsed":2766195,"internal_node_id":"0.0-5.0-39.0"},{"group":"hexagon_bi","fractal_assignment":["../images/pnk_blu.png","../images/org_blu.png","../images/ylw_slt.png","../images/blu_wht.png","../images/cyn_red.png","../images/gry_blk.png"],"mutagen_generator_assignment":[1,0],"goal":3,"start":4,"action_noise":0.15,"location_history":"[4,5,0,5,4,5,0,5,0,1,0,5,0,5,0,1,0,1,2,1,0,1,2,3]","action_history":"[1,0,0,1,1,0,0,0,1,1,0,0,0,0,1,1,1,0,0,1,1,0,1]","mutagen_history":"[0,1,1,0,0,1,1,1,0,0,1,1,1,1,0,0,0,1,1,0,0,1,0]","location_rts":"[5386,749,526,687,310,628,349,550,710,554,483,406,569,708,463,525,683,276,747,612,1483,137,273]","trial_type":"fractal-mutation","trial_index":94,"time_elapsed":2811021,"internal_node_id":"0.0-5.0-40.0"},{"group":"hexagon_bi","fractal_assignment":["../images/pnk_blu.png","../images/org_blu.png","../images/ylw_slt.png","../images/blu_wht.png","../images/cyn_red.png","../images/gry_blk.png"],"mutagen_generator_assignment":[1,0],"goal":5,"start":3,"action_noise":0.15,"location_history":"[3,2,1,2,3,2,3,4,5]","action_history":"[1,0,0,1,1,0,0,1]","mutagen_history":"[0,1,1,0,0,1,1,0]","location_rts":"[15898,433,327,492,790,487,282,1174]","trial_type":"fractal-mutation","trial_index":95,"time_elapsed":2842624,"internal_node_id":"0.0-5.0-41.0"},{"group":"hexagon_bi","fractal_assignment":["../images/pnk_blu.png","../images/org_blu.png","../images/ylw_slt.png","../images/blu_wht.png","../images/cyn_red.png","../images/gry_blk.png"],"mutagen_generator_assignment":[1,0],"goal":3,"start":5,"action_noise":0.15,"location_history":"[5,4,3]","action_history":"[1,0]","mutagen_history":"[0,1]","location_rts":"[2144,541]","trial_type":"fractal-mutation","trial_index":96,"time_elapsed":2850851,"internal_node_id":"0.0-5.0-42.0"},{"group":"hexagon_bi","fractal_assignment":["../images/pnk_blu.png","../images/org_blu.png","../images/ylw_slt.png","../images/blu_wht.png","../images/cyn_red.png","../images/gry_blk.png"],"mutagen_generator_assignment":[1,0],"goal":0,"start":3,"action_noise":0.15,"location_history":"[3,2,1,2,1,0]","action_history":"[1,0,0,1,1]","mutagen_history":"[0,1,1,0,0]","location_rts":"[7599,541,671,803,506]","trial_type":"fractal-mutation","trial_index":97,"time_elapsed":2869590,"internal_node_id":"0.0-5.0-43.0"},{"group":"hexagon_bi","fractal_assignment":["../images/pnk_blu.png","../images/org_blu.png","../images/ylw_slt.png","../images/blu_wht.png","../images/cyn_red.png","../images/gry_blk.png"],"mutagen_generator_assignment":[1,0],"goal":2,"start":0,"action_noise":0.15,"location_history":"[0,1,0,5,0,1,2]","action_history":"[1,0,0,0,1,0]","mutagen_history":"[0,1,1,1,0,1]","location_rts":"[4797,884,733,810,623,739]","trial_type":"fractal-mutation","trial_index":98,"time_elapsed":2887830,"internal_node_id":"0.0-5.0-44.0"},{"group":"hexagon_bi","fractal_assignment":["../images/pnk_blu.png","../images/org_blu.png","../images/ylw_slt.png","../images/blu_wht.png","../images/cyn_red.png","../images/gry_blk.png"],"mutagen_generator_assignment":[1,0],"goal":4,"start":2,"action_noise":0.15,"location_history":"[2,3,2,1,2,3,4]","action_history":"[1,1,0,0,1,0]","mutagen_history":"[0,0,1,1,0,1]","location_rts":"[9753,836,266,767,572,478]","trial_type":"fractal-mutation","trial_index":99,"time_elapsed":2910378,"internal_node_id":"0.0-5.0-45.0"},{"group":"hexagon_bi","fractal_assignment":["../images/pnk_blu.png","../images/org_blu.png","../images/ylw_slt.png","../images/blu_wht.png","../images/cyn_red.png","../images/gry_blk.png"],"mutagen_generator_assignment":[1,0],"goal":1,"start":4,"action_noise":0.15,"location_history":"[4,3,4,3,2,1]","action_history":"[0,0,0,1,0]","mutagen_history":"[1,1,1,0,1]","location_rts":"[2188,532,441,198,833]","trial_type":"fractal-mutation","trial_index":100,"time_elapsed":2923194,"internal_node_id":"0.0-5.0-46.0"},{"group":"hexagon_bi","fractal_assignment":["../images/pnk_blu.png","../images/org_blu.png","../images/ylw_slt.png","../images/blu_wht.png","../images/cyn_red.png","../images/gry_blk.png"],"mutagen_generator_assignment":[1,0],"goal":4,"start":1,"action_noise":0.15,"location_history":"[1,2,3,2,3,4]","action_history":"[0,1,1,0,1]","mutagen_history":"[1,0,0,1,0]","location_rts":"[1041,459,404,261,603]","trial_type":"fractal-mutation","trial_index":101,"time_elapsed":2934586,"internal_node_id":"0.0-5.0-47.0"},{"group":"hexagon_bi","fractal_assignment":["../images/pnk_blu.png","../images/org_blu.png","../images/ylw_slt.png","../images/blu_wht.png","../images/cyn_red.png","../images/gry_blk.png"],"mutagen_generator_assignment":[1,0],"goal":3,"start":4,"action_noise":0.15,"location_history":"[4,3]","action_history":"[0]","mutagen_history":"[1]","location_rts":"[1064]","trial_type":"fractal-mutation","trial_index":102,"time_elapsed":2940177,"internal_node_id":"0.0-5.0-48.0"},{"group":"hexagon_bi","fractal_assignment":["../images/pnk_blu.png","../images/org_blu.png","../images/ylw_slt.png","../images/blu_wht.png","../images/cyn_red.png","../images/gry_blk.png"],"mutagen_generator_assignment":[1,0],"goal":5,"start":3,"action_noise":0.15,"location_history":"[3,4,5]","action_history":"[0,1]","mutagen_history":"[1,0]","location_rts":"[1072,391]","trial_type":"fractal-mutation","trial_index":103,"time_elapsed":2947195,"internal_node_id":"0.0-5.0-49.0"},{"view_history":"[{\"page_index\":0,\"viewing_time\":10627}]","rt":10627,"trial_type":"instructions","trial_index":104,"time_elapsed":2958823,"internal_node_id":"0.0-6.0"},{"rt":25018,"responses":"{\"Q0\":\"Can you email me notifying me when the hit is about to go up or is up?  If not I'll try to keep an eye out for it.\"}","trial_type":"survey-text","trial_index":105,"time_elapsed":2984844,"internal_node_id":"0.0-7.0"}]