[{"view_history":"[{\"page_index\":0,\"viewing_time\":2623},{\"page_index\":1,\"viewing_time\":8607},{\"page_index\":2,\"viewing_time\":15618},{\"page_index\":3,\"viewing_time\":6295}]","rt":33149,"trial_type":"instructions","trial_index":0,"time_elapsed":33155,"internal_node_id":"0.0-0.0"},{"view_history":"[{\"page_index\":0,\"viewing_time\":2415},{\"page_index\":1,\"viewing_time\":28452}]","rt":30869,"trial_type":"instructions","trial_index":1,"time_elapsed":65180,"internal_node_id":"0.0-1.0"},{"group":"hexagon_tri","room_assignment":["red","grey","purple","yellow","blue","green"],"door_color_assignment":["black","white"],"door_generator_assignment":[1,0],"goal":4,"start":0,"action_noise":0.15,"location_history":"[0,5,4]","action_history":"[0,0]","door_history":"[1,1]","location_rts":"[3540,2525]","trial_type":"two-door-navigation","trial_index":2,"time_elapsed":76846,"internal_node_id":"0.0-2.0-0.0"},{"group":"hexagon_tri","room_assignment":["red","grey","purple","yellow","blue","green"],"door_color_assignment":["black","white"],"door_generator_assignment":[1,0],"goal":3,"start":4,"action_noise":0.15,"location_history":"[4,2,1,3]","action_history":"[1,0,0]","door_history":"[0,1,1]","location_rts":"[2127,1160,790]","trial_type":"two-door-navigation","trial_index":3,"time_elapsed":87646,"internal_node_id":"0.0-2.0-1.0"},{"group":"hexagon_tri","room_assignment":["red","grey","purple","yellow","blue","green"],"door_color_assignment":["black","white"],"door_generator_assignment":[1,0],"goal":5,"start":3,"action_noise":0.15,"location_history":"[3,2,3,4,2,1,3,2,1,5]","action_history":"[0,1,1,1,0,0,1,0,0]","door_history":"[1,0,0,0,1,1,0,1,1]","location_rts":"[1446,725,792,1059,1188,719,1020,1612,2041]","trial_type":"two-door-navigation","trial_index":4,"time_elapsed":116681,"internal_node_id":"0.0-2.0-2.0"},{"group":"hexagon_tri","room_assignment":["red","grey","purple","yellow","blue","green"],"door_color_assignment":["black","white"],"door_generator_assignment":[1,0],"goal":2,"start":5,"action_noise":0.15,"location_history":"[5,0,5,0,1,5,0,5,4,0,1,5,0,1,5,0,5,0,1,5,4,0,1,5,4,0,5,4,2]","action_history":"[1,0,1,1,1,1,0,0,0,1,1,1,1,1,1,0,1,0,0,0,0,0,1,0,1,0,0,1]","door_history":"[0,1,0,0,0,0,1,1,1,0,0,0,0,0,0,1,0,1,1,1,1,1,0,1,0,1,1,0]","location_rts":"[1994,6073,2040,5696,830,770,1354,817,581,1961,897,887,724,675,580,993,1077,504,598,569,589,645,566,525,1290,454,539,989]","trial_type":"two-door-navigation","trial_index":5,"time_elapsed":195720,"internal_node_id":"0.0-2.0-3.0"},{"group":"hexagon_tri","room_assignment":["red","grey","purple","yellow","blue","green"],"door_color_assignment":["black","white"],"door_generator_assignment":[1,0],"goal":1,"start":2,"action_noise":0.15,"location_history":"[2,1]","action_history":"[0]","door_history":"[1]","location_rts":"[4821]","trial_type":"two-door-navigation","trial_index":6,"time_elapsed":205180,"internal_node_id":"0.0-2.0-4.0"},{"group":"hexagon_tri","room_assignment":["red","grey","purple","yellow","blue","green"],"door_color_assignment":["black","white"],"door_generator_assignment":[1,0],"goal":4,"start":1,"action_noise":0.15,"location_history":"[1,5,4]","action_history":"[1,0]","door_history":"[0,1]","location_rts":"[1208,815]","trial_type":"two-door-navigation","trial_index":7,"time_elapsed":212765,"internal_node_id":"0.0-2.0-5.0"},{"group":"hexagon_tri","room_assignment":["red","grey","purple","yellow","blue","green"],"door_color_assignment":["black","white"],"door_generator_assignment":[1,0],"goal":1,"start":4,"action_noise":0.15,"location_history":"[4,2,1]","action_history":"[1,0]","door_history":"[0,1]","location_rts":"[1183,531]","trial_type":"two-door-navigation","trial_index":8,"time_elapsed":220520,"internal_node_id":"0.0-2.0-6.0"},{"group":"hexagon_tri","room_assignment":["red","grey","purple","yellow","blue","green"],"door_color_assignment":["black","white"],"door_generator_assignment":[1,0],"goal":5,"start":1,"action_noise":0.15,"location_history":"[1,5]","action_history":"[1]","door_history":"[0]","location_rts":"[1976]","trial_type":"two-door-navigation","trial_index":9,"time_elapsed":227443,"internal_node_id":"0.0-2.0-7.0"},{"group":"hexagon_tri","room_assignment":["red","grey","purple","yellow","blue","green"],"door_color_assignment":["black","white"],"door_generator_assignment":[1,0],"goal":0,"start":5,"action_noise":0.15,"location_history":"[5,0]","action_history":"[0]","door_history":"[1]","location_rts":"[1153]","trial_type":"two-door-navigation","trial_index":10,"time_elapsed":233229,"internal_node_id":"0.0-2.0-8.0"},{"group":"hexagon_tri","room_assignment":["red","grey","purple","yellow","blue","green"],"door_color_assignment":["black","white"],"door_generator_assignment":[1,0],"goal":2,"start":0,"action_noise":0.15,"location_history":"[0,1,3,4,0,1,3,2]","action_history":"[1,0,1,0,1,0,1]","door_history":"[0,1,0,1,0,1,0]","location_rts":"[1507,768,547,525,492,498,469]","trial_type":"two-door-navigation","trial_index":11,"time_elapsed":248739,"internal_node_id":"0.0-2.0-9.0"},{"group":"hexagon_tri","room_assignment":["red","grey","purple","yellow","blue","green"],"door_color_assignment":["black","white"],"door_generator_assignment":[1,0],"goal":3,"start":2,"action_noise":0.15,"location_history":"[2,1,5,0,5,0,1,3]","action_history":"[0,1,0,0,1,1,0]","door_history":"[1,0,1,1,0,0,1]","location_rts":"[589,620,634,552,847,964,546]","trial_type":"two-door-navigation","trial_index":12,"time_elapsed":265037,"internal_node_id":"0.0-2.0-10.0"},{"group":"hexagon_tri","room_assignment":["red","grey","purple","yellow","blue","green"],"door_color_assignment":["black","white"],"door_generator_assignment":[1,0],"goal":0,"start":3,"action_noise":0.15,"location_history":"[3,4,0]","action_history":"[1,0]","door_history":"[0,1]","location_rts":"[824,617]","trial_type":"two-door-navigation","trial_index":13,"time_elapsed":272017,"internal_node_id":"0.0-2.0-11.0"},{"group":"hexagon_tri","room_assignment":["red","grey","purple","yellow","blue","green"],"door_color_assignment":["black","white"],"door_generator_assignment":[1,0],"goal":2,"start":0,"action_noise":0.15,"location_history":"[0,5,0,5,0,5,0,5,0,5,0,1,5,4,2]","action_history":"[0,1,0,1,0,1,0,1,0,1,1,1,0,1]","door_history":"[1,0,1,0,1,0,1,0,1,0,0,0,1,0]","location_rts":"[699,581,1192,384,458,371,547,550,1053,451,573,599,524,485]","trial_type":"two-door-navigation","trial_index":14,"time_elapsed":299077,"internal_node_id":"0.0-2.0-12.0"},{"group":"hexagon_tri","room_assignment":["red","grey","purple","yellow","blue","green"],"door_color_assignment":["black","white"],"door_generator_assignment":[1,0],"goal":5,"start":2,"action_noise":0.15,"location_history":"[2,1,3,2,1,5]","action_history":"[1,0,0,1,1]","door_history":"[0,1,1,0,0]","location_rts":"[1484,552,508,948,542]","trial_type":"two-door-navigation","trial_index":15,"time_elapsed":311903,"internal_node_id":"0.0-2.0-13.0"},{"group":"hexagon_tri","room_assignment":["red","grey","purple","yellow","blue","green"],"door_color_assignment":["black","white"],"door_generator_assignment":[1,0],"goal":4,"start":5,"action_noise":0.15,"location_history":"[5,0,1,5,0,1,3,2,3,2,1,3,4]","action_history":"[1,0,0,1,1,0,0,1,1,0,0,0]","door_history":"[0,1,1,0,0,1,1,0,0,1,1,1]","location_rts":"[588,497,652,725,459,580,496,523,715,540,540,498]","trial_type":"two-door-navigation","trial_index":16,"time_elapsed":335112,"internal_node_id":"0.0-2.0-14.0"},{"group":"hexagon_tri","room_assignment":["red","grey","purple","yellow","blue","green"],"door_color_assignment":["black","white"],"door_generator_assignment":[1,0],"goal":3,"start":4,"action_noise":0.15,"location_history":"[4,2,1,3]","action_history":"[1,0,0]","door_history":"[0,1,1]","location_rts":"[591,621,583]","trial_type":"two-door-navigation","trial_index":17,"time_elapsed":343933,"internal_node_id":"0.0-2.0-15.0"},{"group":"hexagon_tri","room_assignment":["red","grey","purple","yellow","blue","green"],"door_color_assignment":["black","white"],"door_generator_assignment":[1,0],"goal":1,"start":3,"action_noise":0.15,"location_history":"[3,2,3,4,0,1]","action_history":"[0,1,1,0,0]","door_history":"[1,0,0,1,1]","location_rts":"[1543,671,641,526,637]","trial_type":"two-door-navigation","trial_index":18,"time_elapsed":357859,"internal_node_id":"0.0-2.0-16.0"},{"group":"hexagon_tri","room_assignment":["red","grey","purple","yellow","blue","green"],"door_color_assignment":["black","white"],"door_generator_assignment":[1,0],"goal":5,"start":1,"action_noise":0.15,"location_history":"[1,5]","action_history":"[1]","door_history":"[0]","location_rts":"[929]","trial_type":"two-door-navigation","trial_index":19,"time_elapsed":363502,"internal_node_id":"0.0-2.0-17.0"},{"group":"hexagon_tri","room_assignment":["red","grey","purple","yellow","blue","green"],"door_color_assignment":["black","white"],"door_generator_assignment":[1,0],"goal":4,"start":5,"action_noise":0.15,"location_history":"[5,0,5,4]","action_history":"[0,0,0]","door_history":"[1,1,1]","location_rts":"[2109,586,756]","trial_type":"two-door-navigation","trial_index":20,"time_elapsed":373716,"internal_node_id":"0.0-2.0-18.0"},{"group":"hexagon_tri","room_assignment":["red","grey","purple","yellow","blue","green"],"door_color_assignment":["black","white"],"door_generator_assignment":[1,0],"goal":0,"start":4,"action_noise":0.15,"location_history":"[4,2,1,3,2,3,2,1,5,0]","action_history":"[1,0,0,0,1,0,0,1,1]","door_history":"[0,1,1,1,0,1,1,0,0]","location_rts":"[876,919,640,613,567,533,653,613,611]","trial_type":"two-door-navigation","trial_index":21,"time_elapsed":393507,"internal_node_id":"0.0-2.0-19.0"},{"group":"hexagon_tri","room_assignment":["red","grey","purple","yellow","blue","green"],"door_color_assignment":["black","white"],"door_generator_assignment":[1,0],"goal":1,"start":0,"action_noise":0.15,"location_history":"[0,5,0,5,4,0,5,4,0,5,4,0,1]","action_history":"[0,1,1,0,0,1,1,0,0,0,0,1]","door_history":"[1,0,0,1,1,0,0,1,1,1,1,0]","location_rts":"[2099,975,785,496,675,458,599,1065,580,884,621,576]","trial_type":"two-door-navigation","trial_index":22,"time_elapsed":423186,"internal_node_id":"0.0-2.0-20.0"},{"group":"hexagon_tri","room_assignment":["red","grey","purple","yellow","blue","green"],"door_color_assignment":["black","white"],"door_generator_assignment":[1,0],"goal":3,"start":1,"action_noise":0.15,"location_history":"[1,3]","action_history":"[0]","door_history":"[1]","location_rts":"[748]","trial_type":"two-door-navigation","trial_index":23,"time_elapsed":428922,"internal_node_id":"0.0-2.0-21.0"},{"group":"hexagon_tri","room_assignment":["red","grey","purple","yellow","blue","green"],"door_color_assignment":["black","white"],"door_generator_assignment":[1,0],"goal":2,"start":3,"action_noise":0.15,"location_history":"[3,2]","action_history":"[0]","door_history":"[1]","location_rts":"[3226]","trial_type":"two-door-navigation","trial_index":24,"time_elapsed":437376,"internal_node_id":"0.0-2.0-22.0"},{"group":"hexagon_tri","room_assignment":["red","grey","purple","yellow","blue","green"],"door_color_assignment":["black","white"],"door_generator_assignment":[1,0],"goal":0,"start":2,"action_noise":0.15,"location_history":"[2,1,5,0]","action_history":"[0,1,1]","door_history":"[1,0,0]","location_rts":"[649,616,660]","trial_type":"two-door-navigation","trial_index":25,"time_elapsed":446481,"internal_node_id":"0.0-2.0-23.0"},{"group":"hexagon_tri","room_assignment":["red","grey","purple","yellow","blue","green"],"door_color_assignment":["black","white"],"door_generator_assignment":[1,0],"goal":3,"start":0,"action_noise":0.15,"location_history":"[0,5,4,0,1,3]","action_history":"[1,0,0,1,0]","door_history":"[0,1,1,0,1]","location_rts":"[1323,637,650,535,1012]","trial_type":"two-door-navigation","trial_index":26,"time_elapsed":459957,"internal_node_id":"0.0-2.0-24.0"},{"group":"hexagon_tri","room_assignment":["red","grey","purple","yellow","blue","green"],"door_color_assignment":["black","white"],"door_generator_assignment":[1,0],"goal":1,"start":3,"action_noise":0.15,"location_history":"[3,2,1]","action_history":"[0,0]","door_history":"[1,1]","location_rts":"[1237,835]","trial_type":"two-door-navigation","trial_index":27,"time_elapsed":468362,"internal_node_id":"0.0-2.0-25.0"},{"group":"hexagon_tri","room_assignment":["red","grey","purple","yellow","blue","green"],"door_color_assignment":["black","white"],"door_generator_assignment":[1,0],"goal":2,"start":1,"action_noise":0.15,"location_history":"[1,3,4,2]","action_history":"[0,1,1]","door_history":"[1,0,0]","location_rts":"[922,680,799]","trial_type":"two-door-navigation","trial_index":28,"time_elapsed":479360,"internal_node_id":"0.0-2.0-26.0"},{"group":"hexagon_tri","room_assignment":["red","grey","purple","yellow","blue","green"],"door_color_assignment":["black","white"],"door_generator_assignment":[1,0],"goal":5,"start":2,"action_noise":0.15,"location_history":"[2,3,4,2,1,3,2,3,2,3,4,0,5]","action_history":"[0,1,0,1,0,0,0,0,1,1,1,0]","door_history":"[1,0,1,0,1,1,1,1,0,0,0,1]","location_rts":"[1513,895,639,1270,1051,1422,968,1092,5773,1916,1252,1032]","trial_type":"two-door-navigation","trial_index":29,"time_elapsed":532924,"internal_node_id":"0.0-2.0-27.0"},{"group":"hexagon_tri","room_assignment":["red","grey","purple","yellow","blue","green"],"door_color_assignment":["black","white"],"door_generator_assignment":[1,0],"goal":4,"start":5,"action_noise":0.15,"location_history":"[5,4]","action_history":"[0]","door_history":"[1]","location_rts":"[1690]","trial_type":"two-door-navigation","trial_index":30,"time_elapsed":539202,"internal_node_id":"0.0-2.0-28.0"},{"group":"hexagon_tri","room_assignment":["red","grey","purple","yellow","blue","green"],"door_color_assignment":["black","white"],"door_generator_assignment":[1,0],"goal":5,"start":4,"action_noise":0.15,"location_history":"[4,2,3,4,0,5]","action_history":"[0,0,1,0,0]","door_history":"[1,1,0,1,1]","location_rts":"[1282,694,800,825,591]","trial_type":"two-door-navigation","trial_index":31,"time_elapsed":552875,"internal_node_id":"0.0-2.0-29.0"},{"group":"hexagon_tri","room_assignment":["red","grey","purple","yellow","blue","green"],"door_color_assignment":["black","white"],"door_generator_assignment":[1,0],"goal":3,"start":5,"action_noise":0.15,"location_history":"[5,4,2,3]","action_history":"[0,1,0]","door_history":"[1,0,1]","location_rts":"[1288,490,851]","trial_type":"two-door-navigation","trial_index":32,"time_elapsed":562138,"internal_node_id":"0.0-2.0-30.0"},{"group":"hexagon_tri","room_assignment":["red","grey","purple","yellow","blue","green"],"door_color_assignment":["black","white"],"door_generator_assignment":[1,0],"goal":0,"start":3,"action_noise":0.15,"location_history":"[3,4,0]","action_history":"[1,0]","door_history":"[0,1]","location_rts":"[2140,571]","trial_type":"two-door-navigation","trial_index":33,"time_elapsed":570550,"internal_node_id":"0.0-2.0-31.0"},{"group":"hexagon_tri","room_assignment":["red","grey","purple","yellow","blue","green"],"door_color_assignment":["black","white"],"door_generator_assignment":[1,0],"goal":4,"start":0,"action_noise":0.15,"location_history":"[0,1,3,4]","action_history":"[1,0,1]","door_history":"[0,1,0]","location_rts":"[1445,651,511]","trial_type":"two-door-navigation","trial_index":34,"time_elapsed":579794,"internal_node_id":"0.0-2.0-32.0"},{"group":"hexagon_tri","room_assignment":["red","grey","purple","yellow","blue","green"],"door_color_assignment":["black","white"],"door_generator_assignment":[1,0],"goal":1,"start":4,"action_noise":0.15,"location_history":"[4,0,5,0,5,4,0,5,4,0,1]","action_history":"[0,0,1,0,0,0,0,1,0,1]","door_history":"[1,1,0,1,1,1,1,0,1,0]","location_rts":"[1322,598,1655,571,612,571,665,524,546,758]","trial_type":"two-door-navigation","trial_index":35,"time_elapsed":602204,"internal_node_id":"0.0-2.0-33.0"},{"group":"hexagon_tri","room_assignment":["red","grey","purple","yellow","blue","green"],"door_color_assignment":["black","white"],"door_generator_assignment":[1,0],"goal":2,"start":1,"action_noise":0.15,"location_history":"[1,3,4,2]","action_history":"[0,1,1]","door_history":"[1,0,0]","location_rts":"[5088,565,469]","trial_type":"two-door-navigation","trial_index":36,"time_elapsed":615218,"internal_node_id":"0.0-2.0-34.0"},{"group":"hexagon_tri","room_assignment":["red","grey","purple","yellow","blue","green"],"door_color_assignment":["black","white"],"door_generator_assignment":[1,0],"goal":0,"start":2,"action_noise":0.15,"location_history":"[2,1,5,0]","action_history":"[0,1,1]","door_history":"[1,0,0]","location_rts":"[875,1079,754]","trial_type":"two-door-navigation","trial_index":37,"time_elapsed":624950,"internal_node_id":"0.0-2.0-35.0"},{"group":"hexagon_tri","room_assignment":["red","grey","purple","yellow","blue","green"],"door_color_assignment":["black","white"],"door_generator_assignment":[1,0],"goal":5,"start":0,"action_noise":0.15,"location_history":"[0,1,5]","action_history":"[0,1]","door_history":"[1,0]","location_rts":"[3134,834]","trial_type":"two-door-navigation","trial_index":38,"time_elapsed":634583,"internal_node_id":"0.0-2.0-36.0"},{"group":"hexagon_tri","room_assignment":["red","grey","purple","yellow","blue","green"],"door_color_assignment":["black","white"],"door_generator_assignment":[1,0],"goal":2,"start":5,"action_noise":0.15,"location_history":"[5,0,5,4,2]","action_history":"[1,0,0,1]","door_history":"[0,1,1,0]","location_rts":"[1798,985,756,849]","trial_type":"two-door-navigation","trial_index":39,"time_elapsed":646923,"internal_node_id":"0.0-2.0-37.0"},{"group":"hexagon_tri","room_assignment":["red","grey","purple","yellow","blue","green"],"door_color_assignment":["black","white"],"door_generator_assignment":[1,0],"goal":1,"start":2,"action_noise":0.15,"location_history":"[2,3,4,2,1]","action_history":"[0,1,0,0]","door_history":"[1,0,1,1]","location_rts":"[2740,438,135,535]","trial_type":"two-door-navigation","trial_index":40,"time_elapsed":658507,"internal_node_id":"0.0-2.0-38.0"},{"group":"hexagon_tri","room_assignment":["red","grey","purple","yellow","blue","green"],"door_color_assignment":["black","white"],"door_generator_assignment":[1,0],"goal":4,"start":1,"action_noise":0.15,"location_history":"[1,3,4]","action_history":"[0,1]","door_history":"[1,0]","location_rts":"[1475,616]","trial_type":"two-door-navigation","trial_index":41,"time_elapsed":666230,"internal_node_id":"0.0-2.0-39.0"},{"group":"hexagon_tri","room_assignment":["red","grey","purple","yellow","blue","green"],"door_color_assignment":["black","white"],"door_generator_assignment":[1,0],"goal":3,"start":4,"action_noise":0.15,"location_history":"[4,0,1,5,0,5,0,1,3]","action_history":"[0,1,1,0,0,1,1,0]","door_history":"[1,0,0,1,1,0,0,1]","location_rts":"[5706,821,560,499,473,489,509,432]","trial_type":"two-door-navigation","trial_index":42,"time_elapsed":687379,"internal_node_id":"0.0-2.0-40.0"},{"group":"hexagon_tri","room_assignment":["red","grey","purple","yellow","blue","green"],"door_color_assignment":["black","white"],"door_generator_assignment":[1,0],"goal":5,"start":3,"action_noise":0.15,"location_history":"[3,4,0,5]","action_history":"[1,0,0]","door_history":"[0,1,1]","location_rts":"[1449,500,580]","trial_type":"two-door-navigation","trial_index":43,"time_elapsed":696450,"internal_node_id":"0.0-2.0-41.0"},{"group":"hexagon_tri","room_assignment":["red","grey","purple","yellow","blue","green"],"door_color_assignment":["black","white"],"door_generator_assignment":[1,0],"goal":3,"start":5,"action_noise":0.15,"location_history":"[5,4,2,1,5,0,5,4,2,3]","action_history":"[0,1,0,1,1,1,1,1,1]","door_history":"[1,0,1,0,0,0,0,0,0]","location_rts":"[1343,520,506,559,679,531,302,538,511]","trial_type":"two-door-navigation","trial_index":44,"time_elapsed":714583,"internal_node_id":"0.0-2.0-42.0"},{"group":"hexagon_tri","room_assignment":["red","grey","purple","yellow","blue","green"],"door_color_assignment":["black","white"],"door_generator_assignment":[1,0],"goal":0,"start":3,"action_noise":0.15,"location_history":"[3,2,3,2,1,3,2,1,3,4,2,1,3,4,2,3,2,3,4,0]","action_history":"[0,1,0,0,0,0,0,1,1,1,1,0,1,0,1,0,1,1,0]","door_history":"[1,0,1,1,1,1,1,0,0,0,0,1,0,1,0,1,0,0,1]","location_rts":"[1574,726,480,566,514,538,575,969,466,602,520,1052,308,447,526,600,493,447,1993]","trial_type":"two-door-navigation","trial_index":45,"time_elapsed":750827,"internal_node_id":"0.0-2.0-43.0"},{"group":"hexagon_tri","room_assignment":["red","grey","purple","yellow","blue","green"],"door_color_assignment":["black","white"],"door_generator_assignment":[1,0],"goal":2,"start":0,"action_noise":0.15,"location_history":"[0,1,5,4,2]","action_history":"[1,0,0,1]","door_history":"[0,1,1,0]","location_rts":"[1219,399,1554,947]","trial_type":"two-door-navigation","trial_index":46,"time_elapsed":762762,"internal_node_id":"0.0-2.0-44.0"},{"group":"hexagon_tri","room_assignment":["red","grey","purple","yellow","blue","green"],"door_color_assignment":["black","white"],"door_generator_assignment":[1,0],"goal":4,"start":2,"action_noise":0.15,"location_history":"[2,3,2,3,2,1,3,4]","action_history":"[1,0,1,0,0,0,0]","door_history":"[0,1,0,1,1,1,1]","location_rts":"[647,377,576,538,400,554,592]","trial_type":"two-door-navigation","trial_index":47,"time_elapsed":777031,"internal_node_id":"0.0-2.0-45.0"},{"group":"hexagon_tri","room_assignment":["red","grey","purple","yellow","blue","green"],"door_color_assignment":["black","white"],"door_generator_assignment":[1,0],"goal":1,"start":4,"action_noise":0.15,"location_history":"[4,0,1]","action_history":"[0,1]","door_history":"[1,0]","location_rts":"[560,500]","trial_type":"two-door-navigation","trial_index":48,"time_elapsed":783696,"internal_node_id":"0.0-2.0-46.0"},{"group":"hexagon_tri","room_assignment":["red","grey","purple","yellow","blue","green"],"door_color_assignment":["black","white"],"door_generator_assignment":[1,0],"goal":4,"start":1,"action_noise":0.15,"location_history":"[1,5,0,5,4]","action_history":"[1,1,0,1]","door_history":"[0,0,1,0]","location_rts":"[3311,1444,540,438]","trial_type":"two-door-navigation","trial_index":49,"time_elapsed":797227,"internal_node_id":"0.0-2.0-47.0"},{"group":"hexagon_tri","room_assignment":["red","grey","purple","yellow","blue","green"],"door_color_assignment":["black","white"],"door_generator_assignment":[1,0],"goal":3,"start":4,"action_noise":0.15,"location_history":"[4,2,1,5,4,2,3]","action_history":"[1,0,0,0,1,0]","door_history":"[0,1,1,1,0,1]","location_rts":"[946,482,583,567,918,515]","trial_type":"two-door-navigation","trial_index":50,"time_elapsed":810917,"internal_node_id":"0.0-2.0-48.0"},{"group":"hexagon_tri","room_assignment":["red","grey","purple","yellow","blue","green"],"door_color_assignment":["black","white"],"door_generator_assignment":[1,0],"goal":5,"start":3,"action_noise":0.15,"location_history":"[3,4,2,1,3,4,2,1,5]","action_history":"[0,1,1,0,1,1,0,1]","door_history":"[1,0,0,1,0,0,1,0]","location_rts":"[892,1429,451,419,1320,452,402,557]","trial_type":"two-door-navigation","trial_index":51,"time_elapsed":828653,"internal_node_id":"0.0-2.0-49.0"},{"view_history":"[{\"page_index\":0,\"viewing_time\":3637}]","rt":3639,"trial_type":"instructions","trial_index":52,"time_elapsed":833292,"internal_node_id":"0.0-3.0"},{"view_history":"[{\"page_index\":0,\"viewing_time\":4702},{\"page_index\":1,\"viewing_time\":10078}]","rt":14782,"trial_type":"instructions","trial_index":53,"time_elapsed":849074,"internal_node_id":"0.0-4.0"},{"group":"hexagon_bi","fractal_assignment":["../images/ylw_slt.png","../images/pnk_blu.png","../images/gry_blk.png","../images/cyn_red.png","../images/org_blu.png","../images/blu_wht.png"],"mutagen_generator_assignment":[1,0],"goal":4,"start":0,"action_noise":0.15,"location_history":"[0,1,0,1,2,3,2,1,0,5,0,1,2,1,0,5,4]","action_history":"[1,1,0,1,0,0,0,1,0,0,1,0,1,1,1,1]","mutagen_history":"[0,0,1,0,1,1,1,0,1,1,0,1,0,0,0,0]","location_rts":"[9384,1374,12,707,1223,148,662,1101,1164,600,61,648,314,384,536,190]","trial_type":"fractal-mutation","trial_index":54,"time_elapsed":890157,"internal_node_id":"0.0-5.0-0.0"},{"group":"hexagon_bi","fractal_assignment":["../images/ylw_slt.png","../images/pnk_blu.png","../images/gry_blk.png","../images/cyn_red.png","../images/org_blu.png","../images/blu_wht.png"],"mutagen_generator_assignment":[1,0],"goal":3,"start":4,"action_noise":0.15,"location_history":"[4,5,4,5,0,5,0,5,4,3]","action_history":"[1,1,1,0,0,0,0,1,0]","mutagen_history":"[0,0,0,1,1,1,1,0,1]","location_rts":"[1193,625,841,344,794,557,609,562,908]","trial_type":"fractal-mutation","trial_index":55,"time_elapsed":912396,"internal_node_id":"0.0-5.0-1.0"},{"group":"hexagon_bi","fractal_assignment":["../images/ylw_slt.png","../images/pnk_blu.png","../images/gry_blk.png","../images/cyn_red.png","../images/org_blu.png","../images/blu_wht.png"],"mutagen_generator_assignment":[1,0],"goal":5,"start":3,"action_noise":0.15,"location_history":"[3,2,3,4,3,4,3,2,3,2,1,2,1,2,1,2,3,2,3,2,3,2,1,0,5]","action_history":"[1,1,0,0,0,0,1,1,1,1,0,0,0,0,0,1,1,1,1,1,1,0,1,0]","mutagen_history":"[0,0,1,1,1,1,0,0,0,0,1,1,1,1,1,0,0,0,0,0,0,1,0,1]","location_rts":"[1629,548,457,186,123,684,363,735,669,627,614,605,608,523,565,381,531,553,688,580,814,18,583,36]","trial_type":"fractal-mutation","trial_index":56,"time_elapsed":957225,"internal_node_id":"0.0-5.0-2.0"},{"group":"hexagon_bi","fractal_assignment":["../images/ylw_slt.png","../images/pnk_blu.png","../images/gry_blk.png","../images/cyn_red.png","../images/org_blu.png","../images/blu_wht.png"],"mutagen_generator_assignment":[1,0],"goal":2,"start":5,"action_noise":0.15,"location_history":"[5,4,5,4,5,0,5,0,1,2]","action_history":"[1,1,1,1,1,0,1,1,0]","mutagen_history":"[0,0,0,0,0,1,0,0,1]","location_rts":"[1308,390,939,476,649,330,64,626,603]","trial_type":"fractal-mutation","trial_index":57,"time_elapsed":976411,"internal_node_id":"0.0-5.0-3.0"},{"group":"hexagon_bi","fractal_assignment":["../images/ylw_slt.png","../images/pnk_blu.png","../images/gry_blk.png","../images/cyn_red.png","../images/org_blu.png","../images/blu_wht.png"],"mutagen_generator_assignment":[1,0],"goal":1,"start":2,"action_noise":0.15,"location_history":"[2,1]","action_history":"[0]","mutagen_history":"[1]","location_rts":"[1835]","trial_type":"fractal-mutation","trial_index":58,"time_elapsed":982852,"internal_node_id":"0.0-5.0-4.0"},{"group":"hexagon_bi","fractal_assignment":["../images/ylw_slt.png","../images/pnk_blu.png","../images/gry_blk.png","../images/cyn_red.png","../images/org_blu.png","../images/blu_wht.png"],"mutagen_generator_assignment":[1,0],"goal":4,"start":1,"action_noise":0.15,"location_history":"[1,0,5,0,5,0,1,2,3,4]","action_history":"[1,0,0,0,0,1,0,1,0]","mutagen_history":"[0,1,1,1,1,0,1,0,1]","location_rts":"[1022,453,423,442,549,258,479,487,503]","trial_type":"fractal-mutation","trial_index":59,"time_elapsed":1001139,"internal_node_id":"0.0-5.0-5.0"},{"group":"hexagon_bi","fractal_assignment":["../images/ylw_slt.png","../images/pnk_blu.png","../images/gry_blk.png","../images/cyn_red.png","../images/org_blu.png","../images/blu_wht.png"],"mutagen_generator_assignment":[1,0],"goal":1,"start":4,"action_noise":0.15,"location_history":"[4,3,4,5,0,1]","action_history":"[0,0,0,0,1]","mutagen_history":"[1,1,1,1,0]","location_rts":"[1504,180,522,665,26]","trial_type":"fractal-mutation","trial_index":60,"time_elapsed":1013097,"internal_node_id":"0.0-5.0-6.0"},{"group":"hexagon_bi","fractal_assignment":["../images/ylw_slt.png","../images/pnk_blu.png","../images/gry_blk.png","../images/cyn_red.png","../images/org_blu.png","../images/blu_wht.png"],"mutagen_generator_assignment":[1,0],"goal":5,"start":1,"action_noise":0.15,"location_history":"[1,2,3,4,5]","action_history":"[0,1,0,1]","mutagen_history":"[1,0,1,0]","location_rts":"[1811,971,527,481]","trial_type":"fractal-mutation","trial_index":61,"time_elapsed":1025094,"internal_node_id":"0.0-5.0-7.0"},{"group":"hexagon_bi","fractal_assignment":["../images/ylw_slt.png","../images/pnk_blu.png","../images/gry_blk.png","../images/cyn_red.png","../images/org_blu.png","../images/blu_wht.png"],"mutagen_generator_assignment":[1,0],"goal":0,"start":5,"action_noise":0.15,"location_history":"[5,0]","action_history":"[0]","mutagen_history":"[1]","location_rts":"[1077]","trial_type":"fractal-mutation","trial_index":62,"time_elapsed":1030834,"internal_node_id":"0.0-5.0-8.0"},{"group":"hexagon_bi","fractal_assignment":["../images/ylw_slt.png","../images/pnk_blu.png","../images/gry_blk.png","../images/cyn_red.png","../images/org_blu.png","../images/blu_wht.png"],"mutagen_generator_assignment":[1,0],"goal":2,"start":0,"action_noise":0.15,"location_history":"[0,5,0,1,0,1,0,1,0,5,4,3,2]","action_history":"[0,1,1,1,1,1,0,1,0,1,0,1]","mutagen_history":"[1,0,0,0,0,0,1,0,1,0,1,0]","location_rts":"[1016,772,516,364,376,433,1127,651,721,576,514,442]","trial_type":"fractal-mutation","trial_index":63,"time_elapsed":1054724,"internal_node_id":"0.0-5.0-9.0"},{"group":"hexagon_bi","fractal_assignment":["../images/ylw_slt.png","../images/pnk_blu.png","../images/gry_blk.png","../images/cyn_red.png","../images/org_blu.png","../images/blu_wht.png"],"mutagen_generator_assignment":[1,0],"goal":3,"start":2,"action_noise":0.15,"location_history":"[2,3]","action_history":"[1]","mutagen_history":"[0]","location_rts":"[1908]","trial_type":"fractal-mutation","trial_index":64,"time_elapsed":1061216,"internal_node_id":"0.0-5.0-10.0"},{"group":"hexagon_bi","fractal_assignment":["../images/ylw_slt.png","../images/pnk_blu.png","../images/gry_blk.png","../images/cyn_red.png","../images/org_blu.png","../images/blu_wht.png"],"mutagen_generator_assignment":[1,0],"goal":0,"start":3,"action_noise":0.15,"location_history":"[3,2,3,2,3,4,5,4,3,2,1,0]","action_history":"[1,0,1,1,0,1,1,0,1,0,1]","mutagen_history":"[0,1,0,0,1,0,0,1,0,1,0]","location_rts":"[1670,374,713,486,537,547,609,1009,465,539,540]","trial_type":"fractal-mutation","trial_index":65,"time_elapsed":1084032,"internal_node_id":"0.0-5.0-11.0"},{"group":"hexagon_bi","fractal_assignment":["../images/ylw_slt.png","../images/pnk_blu.png","../images/gry_blk.png","../images/cyn_red.png","../images/org_blu.png","../images/blu_wht.png"],"mutagen_generator_assignment":[1,0],"goal":2,"start":0,"action_noise":0.15,"location_history":"[0,5,0,5,0,1,0,5,0,1,2]","action_history":"[1,0,1,0,1,1,0,0,1,0]","mutagen_history":"[0,1,0,1,0,0,1,1,0,1]","location_rts":"[1628,384,433,487,463,381,317,403,411,463]","trial_type":"fractal-mutation","trial_index":66,"time_elapsed":1103743,"internal_node_id":"0.0-5.0-12.0"},{"group":"hexagon_bi","fractal_assignment":["../images/ylw_slt.png","../images/pnk_blu.png","../images/gry_blk.png","../images/cyn_red.png","../images/org_blu.png","../images/blu_wht.png"],"mutagen_generator_assignment":[1,0],"goal":5,"start":2,"action_noise":0.15,"location_history":"[2,3,2,1,0,5]","action_history":"[1,1,0,1,0]","mutagen_history":"[0,0,1,0,1]","location_rts":"[1058,399,245,359,401]","trial_type":"fractal-mutation","trial_index":67,"time_elapsed":1115127,"internal_node_id":"0.0-5.0-13.0"},{"group":"hexagon_bi","fractal_assignment":["../images/ylw_slt.png","../images/pnk_blu.png","../images/gry_blk.png","../images/cyn_red.png","../images/org_blu.png","../images/blu_wht.png"],"mutagen_generator_assignment":[1,0],"goal":4,"start":5,"action_noise":0.15,"location_history":"[5,4]","action_history":"[0]","mutagen_history":"[1]","location_rts":"[1325]","trial_type":"fractal-mutation","trial_index":68,"time_elapsed":1121069,"internal_node_id":"0.0-5.0-14.0"},{"group":"hexagon_bi","fractal_assignment":["../images/ylw_slt.png","../images/pnk_blu.png","../images/gry_blk.png","../images/cyn_red.png","../images/org_blu.png","../images/blu_wht.png"],"mutagen_generator_assignment":[1,0],"goal":3,"start":4,"action_noise":0.15,"location_history":"[4,3]","action_history":"[0]","mutagen_history":"[1]","location_rts":"[1294]","trial_type":"fractal-mutation","trial_index":69,"time_elapsed":1127015,"internal_node_id":"0.0-5.0-15.0"},{"group":"hexagon_bi","fractal_assignment":["../images/ylw_slt.png","../images/pnk_blu.png","../images/gry_blk.png","../images/cyn_red.png","../images/org_blu.png","../images/blu_wht.png"],"mutagen_generator_assignment":[1,0],"goal":1,"start":3,"action_noise":0.15,"location_history":"[3,2,1]","action_history":"[0,1]","mutagen_history":"[1,0]","location_rts":"[1858,403]","trial_type":"fractal-mutation","trial_index":70,"time_elapsed":1135050,"internal_node_id":"0.0-5.0-16.0"},{"group":"hexagon_bi","fractal_assignment":["../images/ylw_slt.png","../images/pnk_blu.png","../images/gry_blk.png","../images/cyn_red.png","../images/org_blu.png","../images/blu_wht.png"],"mutagen_generator_assignment":[1,0],"goal":5,"start":1,"action_noise":0.15,"location_history":"[1,0,5]","action_history":"[1,0]","mutagen_history":"[0,1]","location_rts":"[1209,954]","trial_type":"fractal-mutation","trial_index":71,"time_elapsed":1143441,"internal_node_id":"0.0-5.0-17.0"},{"group":"hexagon_bi","fractal_assignment":["../images/ylw_slt.png","../images/pnk_blu.png","../images/gry_blk.png","../images/cyn_red.png","../images/org_blu.png","../images/blu_wht.png"],"mutagen_generator_assignment":[1,0],"goal":4,"start":5,"action_noise":0.15,"location_history":"[5,0,1,0,1,0,1,0,5,0,5,4]","action_history":"[0,1,0,1,1,0,1,0,0,0,1]","mutagen_history":"[1,0,1,0,0,1,0,1,1,1,0]","location_rts":"[995,355,556,464,564,349,468,455,42,428,498]","trial_type":"fractal-mutation","trial_index":72,"time_elapsed":1164000,"internal_node_id":"0.0-5.0-18.0"},{"group":"hexagon_bi","fractal_assignment":["../images/ylw_slt.png","../images/pnk_blu.png","../images/gry_blk.png","../images/cyn_red.png","../images/org_blu.png","../images/blu_wht.png"],"mutagen_generator_assignment":[1,0],"goal":0,"start":4,"action_noise":0.15,"location_history":"[4,5,0]","action_history":"[1,0]","mutagen_history":"[0,1]","location_rts":"[1142,917]","trial_type":"fractal-mutation","trial_index":73,"time_elapsed":1171694,"internal_node_id":"0.0-5.0-19.0"},{"group":"hexagon_bi","fractal_assignment":["../images/ylw_slt.png","../images/pnk_blu.png","../images/gry_blk.png","../images/cyn_red.png","../images/org_blu.png","../images/blu_wht.png"],"mutagen_generator_assignment":[1,0],"goal":1,"start":0,"action_noise":0.15,"location_history":"[0,5,4,5,0,5,0,1]","action_history":"[0,1,1,0,0,0,1]","mutagen_history":"[1,0,0,1,1,1,0]","location_rts":"[728,2,511,329,535,538,362]","trial_type":"fractal-mutation","trial_index":74,"time_elapsed":1185670,"internal_node_id":"0.0-5.0-20.0"},{"group":"hexagon_bi","fractal_assignment":["../images/ylw_slt.png","../images/pnk_blu.png","../images/gry_blk.png","../images/cyn_red.png","../images/org_blu.png","../images/blu_wht.png"],"mutagen_generator_assignment":[1,0],"goal":3,"start":1,"action_noise":0.15,"location_history":"[1,0,5,0,1,2,1,0,5,4,3]","action_history":"[1,0,0,1,1,0,0,0,0,0]","mutagen_history":"[0,1,1,0,0,1,1,1,1,1]","location_rts":"[1492,490,373,486,666,587,386,382,349,678]","trial_type":"fractal-mutation","trial_index":75,"time_elapsed":1205858,"internal_node_id":"0.0-5.0-21.0"},{"group":"hexagon_bi","fractal_assignment":["../images/ylw_slt.png","../images/pnk_blu.png","../images/gry_blk.png","../images/cyn_red.png","../images/org_blu.png","../images/blu_wht.png"],"mutagen_generator_assignment":[1,0],"goal":2,"start":3,"action_noise":0.15,"location_history":"[3,4,3,2]","action_history":"[1,0,1]","mutagen_history":"[0,1,0]","location_rts":"[1046,467,452]","trial_type":"fractal-mutation","trial_index":76,"time_elapsed":1214563,"internal_node_id":"0.0-5.0-22.0"},{"group":"hexagon_bi","fractal_assignment":["../images/ylw_slt.png","../images/pnk_blu.png","../images/gry_blk.png","../images/cyn_red.png","../images/org_blu.png","../images/blu_wht.png"],"mutagen_generator_assignment":[1,0],"goal":0,"start":2,"action_noise":0.15,"location_history":"[2,3,4,3,4,5,4,3,2,3,2,3,2,1,0]","action_history":"[1,0,0,1,1,1,0,1,0,1,1,1,0,1]","mutagen_history":"[0,1,1,0,0,0,1,0,1,0,0,0,1,0]","location_rts":"[961,371,490,367,577,556,461,427,426,393,317,391,498,409]","trial_type":"fractal-mutation","trial_index":77,"time_elapsed":1239575,"internal_node_id":"0.0-5.0-23.0"},{"group":"hexagon_bi","fractal_assignment":["../images/ylw_slt.png","../images/pnk_blu.png","../images/gry_blk.png","../images/cyn_red.png","../images/org_blu.png","../images/blu_wht.png"],"mutagen_generator_assignment":[1,0],"goal":3,"start":0,"action_noise":0.15,"location_history":"[0,1,0,1,2,3]","action_history":"[1,0,1,0,1]","mutagen_history":"[0,1,0,1,0]","location_rts":"[754,467,347,387,216]","trial_type":"fractal-mutation","trial_index":78,"time_elapsed":1250544,"internal_node_id":"0.0-5.0-24.0"},{"group":"hexagon_bi","fractal_assignment":["../images/ylw_slt.png","../images/pnk_blu.png","../images/gry_blk.png","../images/cyn_red.png","../images/org_blu.png","../images/blu_wht.png"],"mutagen_generator_assignment":[1,0],"goal":1,"start":3,"action_noise":0.15,"location_history":"[3,2,1]","action_history":"[1,0]","mutagen_history":"[0,1]","location_rts":"[517,194]","trial_type":"fractal-mutation","trial_index":79,"time_elapsed":1256890,"internal_node_id":"0.0-5.0-25.0"},{"group":"hexagon_bi","fractal_assignment":["../images/ylw_slt.png","../images/pnk_blu.png","../images/gry_blk.png","../images/cyn_red.png","../images/org_blu.png","../images/blu_wht.png"],"mutagen_generator_assignment":[1,0],"goal":2,"start":1,"action_noise":0.15,"location_history":"[1,2]","action_history":"[0]","mutagen_history":"[1]","location_rts":"[684]","trial_type":"fractal-mutation","trial_index":80,"time_elapsed":1262165,"internal_node_id":"0.0-5.0-26.0"},{"group":"hexagon_bi","fractal_assignment":["../images/ylw_slt.png","../images/pnk_blu.png","../images/gry_blk.png","../images/cyn_red.png","../images/org_blu.png","../images/blu_wht.png"],"mutagen_generator_assignment":[1,0],"goal":5,"start":2,"action_noise":0.15,"location_history":"[2,3,4,5]","action_history":"[1,0,1]","mutagen_history":"[0,1,0]","location_rts":"[792,326,451]","trial_type":"fractal-mutation","trial_index":81,"time_elapsed":1270431,"internal_node_id":"0.0-5.0-27.0"},{"group":"hexagon_bi","fractal_assignment":["../images/ylw_slt.png","../images/pnk_blu.png","../images/gry_blk.png","../images/cyn_red.png","../images/org_blu.png","../images/blu_wht.png"],"mutagen_generator_assignment":[1,0],"goal":4,"start":5,"action_noise":0.15,"location_history":"[5,0,5,0,1,0,5,4]","action_history":"[0,1,0,1,1,0,1]","mutagen_history":"[1,0,1,0,0,1,0]","location_rts":"[480,133,438,380,399,34,390]","trial_type":"fractal-mutation","trial_index":82,"time_elapsed":1283613,"internal_node_id":"0.0-5.0-28.0"},{"group":"hexagon_bi","fractal_assignment":["../images/ylw_slt.png","../images/pnk_blu.png","../images/gry_blk.png","../images/cyn_red.png","../images/org_blu.png","../images/blu_wht.png"],"mutagen_generator_assignment":[1,0],"goal":5,"start":4,"action_noise":0.15,"location_history":"[4,5]","action_history":"[1]","mutagen_history":"[0]","location_rts":"[629]","trial_type":"fractal-mutation","trial_index":83,"time_elapsed":1288798,"internal_node_id":"0.0-5.0-29.0"},{"group":"hexagon_bi","fractal_assignment":["../images/ylw_slt.png","../images/pnk_blu.png","../images/gry_blk.png","../images/cyn_red.png","../images/org_blu.png","../images/blu_wht.png"],"mutagen_generator_assignment":[1,0],"goal":3,"start":5,"action_noise":0.15,"location_history":"[5,0,5,0,5,0,1,2,3]","action_history":"[0,1,0,0,0,1,0,0]","mutagen_history":"[1,0,1,1,1,0,1,1]","location_rts":"[611,323,636,332,441,676,974,473]","trial_type":"fractal-mutation","trial_index":84,"time_elapsed":1305376,"internal_node_id":"0.0-5.0-30.0"},{"group":"hexagon_bi","fractal_assignment":["../images/ylw_slt.png","../images/pnk_blu.png","../images/gry_blk.png","../images/cyn_red.png","../images/org_blu.png","../images/blu_wht.png"],"mutagen_generator_assignment":[1,0],"goal":0,"start":3,"action_noise":0.15,"location_history":"[3,2,3,2,3,2,3,2,3,2,1,2,3,2,1,0]","action_history":"[1,0,1,1,0,1,1,1,1,0,0,0,1,0,1]","mutagen_history":"[0,1,0,0,1,0,0,0,0,1,1,1,0,1,0]","location_rts":"[716,397,421,361,475,378,435,370,382,283,0,466,333,313,497]","trial_type":"fractal-mutation","trial_index":85,"time_elapsed":1330729,"internal_node_id":"0.0-5.0-31.0"},{"group":"hexagon_bi","fractal_assignment":["../images/ylw_slt.png","../images/pnk_blu.png","../images/gry_blk.png","../images/cyn_red.png","../images/org_blu.png","../images/blu_wht.png"],"mutagen_generator_assignment":[1,0],"goal":4,"start":0,"action_noise":0.15,"location_history":"[0,5,4]","action_history":"[0,1]","mutagen_history":"[1,0]","location_rts":"[550,240]","trial_type":"fractal-mutation","trial_index":86,"time_elapsed":1337147,"internal_node_id":"0.0-5.0-32.0"},{"group":"hexagon_bi","fractal_assignment":["../images/ylw_slt.png","../images/pnk_blu.png","../images/gry_blk.png","../images/cyn_red.png","../images/org_blu.png","../images/blu_wht.png"],"mutagen_generator_assignment":[1,0],"goal":1,"start":4,"action_noise":0.15,"location_history":"[4,3,2,3,2,1]","action_history":"[0,1,1,1,1]","mutagen_history":"[1,0,0,0,0]","location_rts":"[516,290,314,414,385]","trial_type":"fractal-mutation","trial_index":87,"time_elapsed":1347868,"internal_node_id":"0.0-5.0-33.0"},{"group":"hexagon_bi","fractal_assignment":["../images/ylw_slt.png","../images/pnk_blu.png","../images/gry_blk.png","../images/cyn_red.png","../images/org_blu.png","../images/blu_wht.png"],"mutagen_generator_assignment":[1,0],"goal":2,"start":1,"action_noise":0.15,"location_history":"[1,0,5,4,5,0,1,2]","action_history":"[1,0,1,1,0,1,0]","mutagen_history":"[0,1,0,0,1,0,1]","location_rts":"[427,314,366,286,315,355,443]","trial_type":"fractal-mutation","trial_index":88,"time_elapsed":1361465,"internal_node_id":"0.0-5.0-34.0"},{"group":"hexagon_bi","fractal_assignment":["../images/ylw_slt.png","../images/pnk_blu.png","../images/gry_blk.png","../images/cyn_red.png","../images/org_blu.png","../images/blu_wht.png"],"mutagen_generator_assignment":[1,0],"goal":0,"start":2,"action_noise":0.15,"location_history":"[2,3,2,1,0]","action_history":"[0,1,0,1]","mutagen_history":"[1,0,1,0]","location_rts":"[557,279,923,282]","trial_type":"fractal-mutation","trial_index":89,"time_elapsed":1371257,"internal_node_id":"0.0-5.0-35.0"},{"group":"hexagon_bi","fractal_assignment":["../images/ylw_slt.png","../images/pnk_blu.png","../images/gry_blk.png","../images/cyn_red.png","../images/org_blu.png","../images/blu_wht.png"],"mutagen_generator_assignment":[1,0],"goal":5,"start":0,"action_noise":0.15,"location_history":"[0,1,2,1,0,1,2,1,0,5]","action_history":"[1,0,0,1,1,0,0,1,0]","mutagen_history":"[0,1,1,0,0,1,1,0,1]","location_rts":"[614,471,371,313,553,390,447,415,604]","trial_type":"fractal-mutation","trial_index":90,"time_elapsed":1388481,"internal_node_id":"0.0-5.0-36.0"},{"group":"hexagon_bi","fractal_assignment":["../images/ylw_slt.png","../images/pnk_blu.png","../images/gry_blk.png","../images/cyn_red.png","../images/org_blu.png","../images/blu_wht.png"],"mutagen_generator_assignment":[1,0],"goal":2,"start":5,"action_noise":0.15,"location_history":"[5,0,1,0,1,0,5,4,3,4,3,4,5,0,1,2]","action_history":"[1,0,1,1,1,0,1,0,0,0,0,1,0,1,0]","mutagen_history":"[0,1,0,0,0,1,0,1,1,1,1,0,1,0,1]","location_rts":"[575,624,333,246,334,1,312,919,353,393,426,316,315,383,420]","trial_type":"fractal-mutation","trial_index":91,"time_elapsed":1414003,"internal_node_id":"0.0-5.0-37.0"},{"group":"hexagon_bi","fractal_assignment":["../images/ylw_slt.png","../images/pnk_blu.png","../images/gry_blk.png","../images/cyn_red.png","../images/org_blu.png","../images/blu_wht.png"],"mutagen_generator_assignment":[1,0],"goal":1,"start":2,"action_noise":0.15,"location_history":"[2,1]","action_history":"[0]","mutagen_history":"[1]","location_rts":"[808]","trial_type":"fractal-mutation","trial_index":92,"time_elapsed":1419422,"internal_node_id":"0.0-5.0-38.0"},{"group":"hexagon_bi","fractal_assignment":["../images/ylw_slt.png","../images/pnk_blu.png","../images/gry_blk.png","../images/cyn_red.png","../images/org_blu.png","../images/blu_wht.png"],"mutagen_generator_assignment":[1,0],"goal":4,"start":1,"action_noise":0.15,"location_history":"[1,2,3,4]","action_history":"[0,1,0]","mutagen_history":"[1,0,1]","location_rts":"[604,187,393]","trial_type":"fractal-mutation","trial_index":93,"time_elapsed":1427349,"internal_node_id":"0.0-5.0-39.0"},{"group":"hexagon_bi","fractal_assignment":["../images/ylw_slt.png","../images/pnk_blu.png","../images/gry_blk.png","../images/cyn_red.png","../images/org_blu.png","../images/blu_wht.png"],"mutagen_generator_assignment":[1,0],"goal":3,"start":4,"action_noise":0.15,"location_history":"[4,5,0,1,2,1,0,5,4,5,4,5,4,5,0,1,0,5,0,5,0,1,2,3]","action_history":"[1,0,1,0,0,1,0,0,1,1,0,1,1,1,1,1,0,0,0,0,1,0,1]","mutagen_history":"[0,1,0,1,1,0,1,1,0,0,1,0,0,0,0,0,1,1,1,1,0,1,0]","location_rts":"[410,323,108,317,323,281,382,465,288,526,491,317,77,90,434,475,276,341,410,336,465,459,154]","trial_type":"fractal-mutation","trial_index":94,"time_elapsed":1463065,"internal_node_id":"0.0-5.0-40.0"},{"group":"hexagon_bi","fractal_assignment":["../images/ylw_slt.png","../images/pnk_blu.png","../images/gry_blk.png","../images/cyn_red.png","../images/org_blu.png","../images/blu_wht.png"],"mutagen_generator_assignment":[1,0],"goal":5,"start":3,"action_noise":0.15,"location_history":"[3,2,1,0,1,2,1,2,3,2,1,2,3,2,1,0,1,0,1,2,3,2,1,2,1,2,1,2,3,2,1,0,5]","action_history":"[1,0,1,1,1,0,0,1,1,0,0,1,1,0,0,0,0,1,0,1,1,0,0,0,0,0,0,1,1,0,1,0]","mutagen_history":"[0,1,0,0,0,1,1,0,0,1,1,0,0,1,1,1,1,0,1,0,0,1,1,1,1,1,1,0,0,1,0,1]","location_rts":"[636,299,501,153,362,314,545,218,340,270,331,227,362,367,275,332,374,246,316,296,336,402,371,423,369,394,446,790,730,391,428,331]","trial_type":"fractal-mutation","trial_index":95,"time_elapsed":1512805,"internal_node_id":"0.0-5.0-41.0"},{"group":"hexagon_bi","fractal_assignment":["../images/ylw_slt.png","../images/pnk_blu.png","../images/gry_blk.png","../images/cyn_red.png","../images/org_blu.png","../images/blu_wht.png"],"mutagen_generator_assignment":[1,0],"goal":3,"start":5,"action_noise":0.15,"location_history":"[5,4,5,0,5,0,1,0,5,0,5,0,5,4,3]","action_history":"[0,1,0,0,0,1,1,0,0,0,0,0,1,0]","mutagen_history":"[1,0,1,1,1,0,0,1,1,1,1,1,0,1]","location_rts":"[480,824,594,542,538,548,702,281,350,350,396,419,346,536]","trial_type":"fractal-mutation","trial_index":96,"time_elapsed":1538181,"internal_node_id":"0.0-5.0-42.0"},{"group":"hexagon_bi","fractal_assignment":["../images/ylw_slt.png","../images/pnk_blu.png","../images/gry_blk.png","../images/cyn_red.png","../images/org_blu.png","../images/blu_wht.png"],"mutagen_generator_assignment":[1,0],"goal":0,"start":3,"action_noise":0.15,"location_history":"[3,4,5,4,3,4,3,2,1,2,3,4,3,4,5,4,3,2,3,2,3,4,3,2,1,0]","action_history":"[0,1,1,0,0,1,1,1,0,0,0,1,0,1,0,0,1,0,1,0,0,0,1,0,1]","mutagen_history":"[1,0,0,1,1,0,0,0,1,1,1,0,1,0,1,1,0,1,0,1,1,1,0,1,0]","location_rts":"[892,319,505,468,400,367,453,395,87,351,280,345,889,845,312,463,253,246,288,347,336,426,357,397,213]","trial_type":"fractal-mutation","trial_index":97,"time_elapsed":1578642,"internal_node_id":"0.0-5.0-43.0"},{"group":"hexagon_bi","fractal_assignment":["../images/ylw_slt.png","../images/pnk_blu.png","../images/gry_blk.png","../images/cyn_red.png","../images/org_blu.png","../images/blu_wht.png"],"mutagen_generator_assignment":[1,0],"goal":2,"start":0,"action_noise":0.15,"location_history":"[0,5,4,5,4,3,4,5,4,5,4,3,2]","action_history":"[0,1,1,1,0,0,1,1,0,0,0,1]","mutagen_history":"[1,0,0,0,1,1,0,0,1,1,1,0]","location_rts":"[1470,246,387,73,472,376,248,320,31,413,281,269]","trial_type":"fractal-mutation","trial_index":98,"time_elapsed":1599495,"internal_node_id":"0.0-5.0-44.0"},{"group":"hexagon_bi","fractal_assignment":["../images/ylw_slt.png","../images/pnk_blu.png","../images/gry_blk.png","../images/cyn_red.png","../images/org_blu.png","../images/blu_wht.png"],"mutagen_generator_assignment":[1,0],"goal":4,"start":2,"action_noise":0.15,"location_history":"[2,3,2,1,2,3,4]","action_history":"[0,1,0,1,1,0]","mutagen_history":"[1,0,1,0,0,1]","location_rts":"[98,396,368,499,303,25]","trial_type":"fractal-mutation","trial_index":99,"time_elapsed":1611067,"internal_node_id":"0.0-5.0-45.0"},{"group":"hexagon_bi","fractal_assignment":["../images/ylw_slt.png","../images/pnk_blu.png","../images/gry_blk.png","../images/cyn_red.png","../images/org_blu.png","../images/blu_wht.png"],"mutagen_generator_assignment":[1,0],"goal":1,"start":4,"action_noise":0.15,"location_history":"[4,3,2,1]","action_history":"[0,1,0]","mutagen_history":"[1,0,1]","location_rts":"[1029,496,292]","trial_type":"fractal-mutation","trial_index":100,"time_elapsed":1619606,"internal_node_id":"0.0-5.0-46.0"},{"group":"hexagon_bi","fractal_assignment":["../images/ylw_slt.png","../images/pnk_blu.png","../images/gry_blk.png","../images/cyn_red.png","../images/org_blu.png","../images/blu_wht.png"],"mutagen_generator_assignment":[1,0],"goal":4,"start":1,"action_noise":0.15,"location_history":"[1,0,1,2,3,2,1,2,3,2,3,2,1,2,3,2,3,2,3,2,1,0,5,4]","action_history":"[0,1,0,1,0,0,0,1,0,1,1,0,0,1,0,1,1,1,1,0,1,0,1]","mutagen_history":"[1,0,1,0,1,1,1,0,1,0,0,1,1,0,1,0,0,0,0,1,0,1,0]","location_rts":"[1352,127,540,622,363,332,403,301,430,360,363,282,506,350,457,353,1257,384,433,314,313,316,873]","trial_type":"fractal-mutation","trial_index":101,"time_elapsed":1658672,"internal_node_id":"0.0-5.0-47.0"},{"group":"hexagon_bi","fractal_assignment":["../images/ylw_slt.png","../images/pnk_blu.png","../images/gry_blk.png","../images/cyn_red.png","../images/org_blu.png","../images/blu_wht.png"],"mutagen_generator_assignment":[1,0],"goal":3,"start":4,"action_noise":0.15,"location_history":"[4,5,4,3]","action_history":"[0,1,0]","mutagen_history":"[1,0,1]","location_rts":"[881,383,350]","trial_type":"fractal-mutation","trial_index":102,"time_elapsed":1666995,"internal_node_id":"0.0-5.0-48.0"},{"group":"hexagon_bi","fractal_assignment":["../images/ylw_slt.png","../images/pnk_blu.png","../images/gry_blk.png","../images/cyn_red.png","../images/org_blu.png","../images/blu_wht.png"],"mutagen_generator_assignment":[1,0],"goal":5,"start":3,"action_noise":0.15,"location_history":"[3,4,3,2,1,0,5]","action_history":"[0,0,1,0,1,1]","mutagen_history":"[1,1,0,1,0,0]","location_rts":"[1023,422,46,655,447,478]","trial_type":"fractal-mutation","trial_index":103,"time_elapsed":1680153,"internal_node_id":"0.0-5.0-49.0"},{"view_history":"[{\"page_index\":0,\"viewing_time\":11803}]","rt":11805,"trial_type":"instructions","trial_index":104,"time_elapsed":1692958,"internal_node_id":"0.0-6.0"},{"rt":5763,"responses":"{\"Q0\":\"n/a\"}","trial_type":"survey-text","trial_index":105,"time_elapsed":1699741,"internal_node_id":"0.0-7.0"}]