[{"view_history":"[{\"page_index\":0,\"viewing_time\":8708},{\"page_index\":1,\"viewing_time\":54095},{\"page_index\":2,\"viewing_time\":27903},{\"page_index\":3,\"viewing_time\":5874}]","rt":96580,"trial_type":"instructions","trial_index":0,"time_elapsed":96582,"internal_node_id":"0.0-0.0"},{"view_history":"[{\"page_index\":0,\"viewing_time\":2342},{\"page_index\":1,\"viewing_time\":79271}]","rt":81613,"trial_type":"instructions","trial_index":1,"time_elapsed":179197,"internal_node_id":"0.0-1.0"},{"group":"hexagon_bi","room_assignment":["purple","yellow","grey","blue","green","red"],"door_color_assignment":["white","black"],"door_generator_assignment":[1,0],"goal":4,"start":0,"action_noise":0.15,"location_history":"[0,1,0,5,4]","action_history":"[1,1,0,1]","door_history":"[0,0,1,0]","location_rts":"[2992,3231,1879,1600]","trial_type":"two-door-navigation","trial_index":2,"time_elapsed":196551,"internal_node_id":"0.0-2.0-0.0"},{"group":"hexagon_bi","room_assignment":["purple","yellow","grey","blue","green","red"],"door_color_assignment":["white","black"],"door_generator_assignment":[1,0],"goal":3,"start":4,"action_noise":0.15,"location_history":"[4,5,0,5,0,1,0,1,2,3]","action_history":"[1,0,0,1,1,1,1,0,1]","door_history":"[0,1,1,0,0,0,0,1,0]","location_rts":"[2453,1223,1033,1318,330,760,1483,762,1876]","trial_type":"two-door-navigation","trial_index":3,"time_elapsed":220477,"internal_node_id":"0.0-2.0-1.0"},{"group":"hexagon_bi","room_assignment":["purple","yellow","grey","blue","green","red"],"door_color_assignment":["white","black"],"door_generator_assignment":[1,0],"goal":5,"start":3,"action_noise":0.15,"location_history":"[3,4,3,2,1,2,1,0,1,0,1,0,1,2,3,4,5]","action_history":"[0,1,0,0,0,1,1,0,1,1,1,1,0,1,0,1]","door_history":"[1,0,1,1,1,0,0,1,0,0,0,0,1,0,1,0]","location_rts":"[2238,601,1119,255,583,1110,607,800,825,240,954,418,496,647,693,798]","trial_type":"two-door-navigation","trial_index":4,"time_elapsed":252604,"internal_node_id":"0.0-2.0-2.0"},{"group":"hexagon_bi","room_assignment":["purple","yellow","grey","blue","green","red"],"door_color_assignment":["white","black"],"door_generator_assignment":[1,0],"goal":2,"start":5,"action_noise":0.15,"location_history":"[5,0,5,0,5,0,5,0,1,0,1,2]","action_history":"[0,0,0,1,1,0,1,1,1,1,0]","door_history":"[1,1,1,0,0,1,0,0,0,0,1]","location_rts":"[1990,397,606,287,599,755,508,445,533,364,251]","trial_type":"two-door-navigation","trial_index":5,"time_elapsed":274100,"internal_node_id":"0.0-2.0-3.0"},{"group":"hexagon_bi","room_assignment":["purple","yellow","grey","blue","green","red"],"door_color_assignment":["white","black"],"door_generator_assignment":[1,0],"goal":1,"start":2,"action_noise":0.15,"location_history":"[2,3,4,3,4,5,0,1]","action_history":"[1,1,1,0,1,0,1]","door_history":"[0,0,0,1,0,1,0]","location_rts":"[2937,527,502,993,285,587,580]","trial_type":"two-door-navigation","trial_index":6,"time_elapsed":291275,"internal_node_id":"0.0-2.0-4.0"},{"group":"hexagon_bi","room_assignment":["purple","yellow","grey","blue","green","red"],"door_color_assignment":["white","black"],"door_generator_assignment":[1,0],"goal":4,"start":1,"action_noise":0.15,"location_history":"[1,2,1,0,1,0,1,2,1,2,3,4]","action_history":"[0,0,1,0,1,1,0,0,0,0,0]","door_history":"[1,1,0,1,0,0,1,1,1,1,1]","location_rts":"[1303,270,466,269,833,563,627,632,565,409,564]","trial_type":"two-door-navigation","trial_index":7,"time_elapsed":312448,"internal_node_id":"0.0-2.0-5.0"},{"group":"hexagon_bi","room_assignment":["purple","yellow","grey","blue","green","red"],"door_color_assignment":["white","black"],"door_generator_assignment":[1,0],"goal":1,"start":4,"action_noise":0.15,"location_history":"[4,5,0,1]","action_history":"[1,0,1]","door_history":"[0,1,0]","location_rts":"[2126,530,635]","trial_type":"two-door-navigation","trial_index":8,"time_elapsed":322348,"internal_node_id":"0.0-2.0-6.0"},{"group":"hexagon_bi","room_assignment":["purple","yellow","grey","blue","green","red"],"door_color_assignment":["white","black"],"door_generator_assignment":[1,0],"goal":5,"start":1,"action_noise":0.15,"location_history":"[1,0,1,2,1,0,5]","action_history":"[0,1,0,0,1,0]","door_history":"[1,0,1,1,0,1]","location_rts":"[1466,718,377,240,399,510]","trial_type":"two-door-navigation","trial_index":9,"time_elapsed":335637,"internal_node_id":"0.0-2.0-7.0"},{"group":"hexagon_bi","room_assignment":["purple","yellow","grey","blue","green","red"],"door_color_assignment":["white","black"],"door_generator_assignment":[1,0],"goal":0,"start":5,"action_noise":0.15,"location_history":"[5,4,3,2,1,0]","action_history":"[1,0,1,1,1]","door_history":"[0,1,0,0,0]","location_rts":"[1698,552,649,536,469]","trial_type":"two-door-navigation","trial_index":10,"time_elapsed":348154,"internal_node_id":"0.0-2.0-8.0"},{"group":"hexagon_bi","room_assignment":["purple","yellow","grey","blue","green","red"],"door_color_assignment":["white","black"],"door_generator_assignment":[1,0],"goal":2,"start":0,"action_noise":0.15,"location_history":"[0,1,2]","action_history":"[0,0]","door_history":"[1,1]","location_rts":"[1435,1005]","trial_type":"two-door-navigation","trial_index":11,"time_elapsed":356137,"internal_node_id":"0.0-2.0-9.0"},{"group":"hexagon_bi","room_assignment":["purple","yellow","grey","blue","green","red"],"door_color_assignment":["white","black"],"door_generator_assignment":[1,0],"goal":3,"start":2,"action_noise":0.15,"location_history":"[2,3]","action_history":"[1]","door_history":"[0]","location_rts":"[2860]","trial_type":"two-door-navigation","trial_index":12,"time_elapsed":363555,"internal_node_id":"0.0-2.0-10.0"},{"group":"hexagon_bi","room_assignment":["purple","yellow","grey","blue","green","red"],"door_color_assignment":["white","black"],"door_generator_assignment":[1,0],"goal":0,"start":3,"action_noise":0.15,"location_history":"[3,4,3,4,3,2,1,0]","action_history":"[1,1,0,0,0,0,0]","door_history":"[0,0,1,1,1,1,1]","location_rts":"[1395,539,1138,405,955,460,437]","trial_type":"two-door-navigation","trial_index":13,"time_elapsed":379564,"internal_node_id":"0.0-2.0-11.0"},{"group":"hexagon_bi","room_assignment":["purple","yellow","grey","blue","green","red"],"door_color_assignment":["white","black"],"door_generator_assignment":[1,0],"goal":2,"start":0,"action_noise":0.15,"location_history":"[0,5,0,1,0,1,2]","action_history":"[1,0,1,0,1,0]","door_history":"[0,1,0,1,0,1]","location_rts":"[1613,329,635,440,1132,281]","trial_type":"two-door-navigation","trial_index":14,"time_elapsed":393593,"internal_node_id":"0.0-2.0-12.0"},{"group":"hexagon_bi","room_assignment":["purple","yellow","grey","blue","green","red"],"door_color_assignment":["white","black"],"door_generator_assignment":[1,0],"goal":5,"start":2,"action_noise":0.15,"location_history":"[2,1,0,5]","action_history":"[0,1,0]","door_history":"[1,0,1]","location_rts":"[1311,278,448]","trial_type":"two-door-navigation","trial_index":15,"time_elapsed":402162,"internal_node_id":"0.0-2.0-13.0"},{"group":"hexagon_bi","room_assignment":["purple","yellow","grey","blue","green","red"],"door_color_assignment":["white","black"],"door_generator_assignment":[1,0],"goal":4,"start":5,"action_noise":0.15,"location_history":"[5,0,1,0,5,0,5,4]","action_history":"[0,1,0,0,0,0,1]","door_history":"[1,0,1,1,1,1,0]","location_rts":"[832,358,289,502,693,445,755]","trial_type":"two-door-navigation","trial_index":16,"time_elapsed":416638,"internal_node_id":"0.0-2.0-14.0"},{"group":"hexagon_bi","room_assignment":["purple","yellow","grey","blue","green","red"],"door_color_assignment":["white","black"],"door_generator_assignment":[1,0],"goal":3,"start":4,"action_noise":0.15,"location_history":"[4,3]","action_history":"[0]","door_history":"[1]","location_rts":"[1045]","trial_type":"two-door-navigation","trial_index":17,"time_elapsed":422208,"internal_node_id":"0.0-2.0-15.0"},{"group":"hexagon_bi","room_assignment":["purple","yellow","grey","blue","green","red"],"door_color_assignment":["white","black"],"door_generator_assignment":[1,0],"goal":1,"start":3,"action_noise":0.15,"location_history":"[3,2,1]","action_history":"[1,0]","door_history":"[0,1]","location_rts":"[1579,653]","trial_type":"two-door-navigation","trial_index":18,"time_elapsed":430003,"internal_node_id":"0.0-2.0-16.0"},{"group":"hexagon_bi","room_assignment":["purple","yellow","grey","blue","green","red"],"door_color_assignment":["white","black"],"door_generator_assignment":[1,0],"goal":5,"start":1,"action_noise":0.15,"location_history":"[1,2,3,4,3,4,3,2,1,2,1,0,1,0,1,0,5]","action_history":"[0,1,0,0,0,0,1,0,0,0,1,0,1,1,1,0]","door_history":"[1,0,1,1,1,1,0,1,1,1,0,1,0,0,0,1]","location_rts":"[1289,1313,800,1101,622,399,544,626,475,442,400,548,634,389,436,607]","trial_type":"two-door-navigation","trial_index":19,"time_elapsed":460778,"internal_node_id":"0.0-2.0-17.0"},{"group":"hexagon_bi","room_assignment":["purple","yellow","grey","blue","green","red"],"door_color_assignment":["white","black"],"door_generator_assignment":[1,0],"goal":4,"start":5,"action_noise":0.15,"location_history":"[5,4]","action_history":"[1]","door_history":"[0]","location_rts":"[1822]","trial_type":"two-door-navigation","trial_index":20,"time_elapsed":467113,"internal_node_id":"0.0-2.0-18.0"},{"group":"hexagon_bi","room_assignment":["purple","yellow","grey","blue","green","red"],"door_color_assignment":["white","black"],"door_generator_assignment":[1,0],"goal":0,"start":4,"action_noise":0.15,"location_history":"[4,3,2,1,0]","action_history":"[0,1,0,1]","door_history":"[1,0,1,0]","location_rts":"[1445,793,573,533]","trial_type":"two-door-navigation","trial_index":21,"time_elapsed":478481,"internal_node_id":"0.0-2.0-19.0"},{"group":"hexagon_bi","room_assignment":["purple","yellow","grey","blue","green","red"],"door_color_assignment":["white","black"],"door_generator_assignment":[1,0],"goal":1,"start":0,"action_noise":0.15,"location_history":"[0,1]","action_history":"[0]","door_history":"[1]","location_rts":"[1418]","trial_type":"two-door-navigation","trial_index":22,"time_elapsed":484473,"internal_node_id":"0.0-2.0-20.0"},{"group":"hexagon_bi","room_assignment":["purple","yellow","grey","blue","green","red"],"door_color_assignment":["white","black"],"door_generator_assignment":[1,0],"goal":3,"start":1,"action_noise":0.15,"location_history":"[1,2,1,2,1,2,1,0,1,2,3]","action_history":"[0,1,0,0,0,0,1,1,1,1]","door_history":"[1,0,1,1,1,1,0,0,0,0]","location_rts":"[3517,464,702,112,681,450,545,408,361,335]","trial_type":"two-door-navigation","trial_index":23,"time_elapsed":506129,"internal_node_id":"0.0-2.0-21.0"},{"group":"hexagon_bi","room_assignment":["purple","yellow","grey","blue","green","red"],"door_color_assignment":["white","black"],"door_generator_assignment":[1,0],"goal":2,"start":3,"action_noise":0.15,"location_history":"[3,4,3,4,3,2]","action_history":"[0,0,0,0,1]","door_history":"[1,1,1,1,0]","location_rts":"[3470,2553,882,390,377]","trial_type":"two-door-navigation","trial_index":24,"time_elapsed":522777,"internal_node_id":"0.0-2.0-22.0"},{"group":"hexagon_bi","room_assignment":["purple","yellow","grey","blue","green","red"],"door_color_assignment":["white","black"],"door_generator_assignment":[1,0],"goal":0,"start":2,"action_noise":0.15,"location_history":"[2,1,0]","action_history":"[0,1]","door_history":"[1,0]","location_rts":"[1033,415]","trial_type":"two-door-navigation","trial_index":25,"time_elapsed":529773,"internal_node_id":"0.0-2.0-23.0"},{"group":"hexagon_bi","room_assignment":["purple","yellow","grey","blue","green","red"],"door_color_assignment":["white","black"],"door_generator_assignment":[1,0],"goal":3,"start":0,"action_noise":0.15,"location_history":"[0,5,4,3]","action_history":"[0,1,0]","door_history":"[1,0,1]","location_rts":"[1759,1018,906]","trial_type":"two-door-navigation","trial_index":26,"time_elapsed":540293,"internal_node_id":"0.0-2.0-24.0"},{"group":"hexagon_bi","room_assignment":["purple","yellow","grey","blue","green","red"],"door_color_assignment":["white","black"],"door_generator_assignment":[1,0],"goal":1,"start":3,"action_noise":0.15,"location_history":"[3,4,5,0,1]","action_history":"[0,1,0,1]","door_history":"[1,0,1,0]","location_rts":"[459,508,267,895]","trial_type":"two-door-navigation","trial_index":27,"time_elapsed":551499,"internal_node_id":"0.0-2.0-25.0"},{"group":"hexagon_bi","room_assignment":["purple","yellow","grey","blue","green","red"],"door_color_assignment":["white","black"],"door_generator_assignment":[1,0],"goal":2,"start":1,"action_noise":0.15,"location_history":"[1,0,5,4,5,4,3,4,5,0,5,4,5,0,5,0,5,0,5,0,5,0,1,2]","action_history":"[1,0,0,1,1,0,0,1,0,1,0,1,1,0,0,0,0,1,1,1,0,1,0]","door_history":"[0,1,1,0,0,1,1,0,1,0,1,0,0,1,1,1,1,0,0,0,1,0,1]","location_rts":"[8246,472,447,1199,605,391,418,370,337,526,978,584,483,765,558,676,838,560,831,459,357,922,848]","trial_type":"two-door-navigation","trial_index":28,"time_elapsed":604567,"internal_node_id":"0.0-2.0-26.0"},{"group":"hexagon_bi","room_assignment":["purple","yellow","grey","blue","green","red"],"door_color_assignment":["white","black"],"door_generator_assignment":[1,0],"goal":5,"start":2,"action_noise":0.15,"location_history":"[2,3,4,5]","action_history":"[1,0,1]","door_history":"[0,1,0]","location_rts":"[1782,597,767]","trial_type":"two-door-navigation","trial_index":29,"time_elapsed":614825,"internal_node_id":"0.0-2.0-27.0"},{"group":"hexagon_bi","room_assignment":["purple","yellow","grey","blue","green","red"],"door_color_assignment":["white","black"],"door_generator_assignment":[1,0],"goal":4,"start":5,"action_noise":0.15,"location_history":"[5,0,1,2,1,0,5,4]","action_history":"[0,1,0,0,1,0,1]","door_history":"[1,0,1,1,0,1,0]","location_rts":"[3405,346,305,637,1214,377,656]","trial_type":"two-door-navigation","trial_index":30,"time_elapsed":634036,"internal_node_id":"0.0-2.0-28.0"},{"group":"hexagon_bi","room_assignment":["purple","yellow","grey","blue","green","red"],"door_color_assignment":["white","black"],"door_generator_assignment":[1,0],"goal":5,"start":4,"action_noise":0.15,"location_history":"[4,3,2,1,0,5]","action_history":"[0,1,0,1,1]","door_history":"[1,0,1,0,0]","location_rts":"[30768,667,610,807,600]","trial_type":"two-door-navigation","trial_index":31,"time_elapsed":676072,"internal_node_id":"0.0-2.0-29.0"},{"group":"hexagon_bi","room_assignment":["purple","yellow","grey","blue","green","red"],"door_color_assignment":["white","black"],"door_generator_assignment":[1,0],"goal":3,"start":5,"action_noise":0.15,"location_history":"[5,4,5,4,5,4,3]","action_history":"[1,0,1,1,1,0]","door_history":"[0,1,0,0,0,1]","location_rts":"[1467,334,531,409,493,236]","trial_type":"two-door-navigation","trial_index":32,"time_elapsed":689134,"internal_node_id":"0.0-2.0-30.0"},{"group":"hexagon_bi","room_assignment":["purple","yellow","grey","blue","green","red"],"door_color_assignment":["white","black"],"door_generator_assignment":[1,0],"goal":0,"start":3,"action_noise":0.15,"location_history":"[3,4,3,4,5,4,3,4,5,4,3,2,1,2,3,2,1,0]","action_history":"[0,1,0,1,1,0,0,0,1,0,1,0,0,1,1,0,1]","door_history":"[1,0,1,0,0,1,1,1,0,1,0,1,1,0,0,1,0]","location_rts":"[3414,1692,2911,594,693,565,1192,441,505,439,570,535,446,789,277,319,857]","trial_type":"two-door-navigation","trial_index":33,"time_elapsed":726097,"internal_node_id":"0.0-2.0-31.0"},{"group":"hexagon_bi","room_assignment":["purple","yellow","grey","blue","green","red"],"door_color_assignment":["white","black"],"door_generator_assignment":[1,0],"goal":4,"start":0,"action_noise":0.15,"location_history":"[0,5,4]","action_history":"[0,1]","door_history":"[1,0]","location_rts":"[15055,798]","trial_type":"two-door-navigation","trial_index":34,"time_elapsed":747475,"internal_node_id":"0.0-2.0-32.0"},{"group":"hexagon_bi","room_assignment":["purple","yellow","grey","blue","green","red"],"door_color_assignment":["white","black"],"door_generator_assignment":[1,0],"goal":1,"start":4,"action_noise":0.15,"location_history":"[4,3,2,1]","action_history":"[0,1,0]","door_history":"[1,0,1]","location_rts":"[2347,803,760]","trial_type":"two-door-navigation","trial_index":35,"time_elapsed":757919,"internal_node_id":"0.0-2.0-33.0"},{"group":"hexagon_bi","room_assignment":["purple","yellow","grey","blue","green","red"],"door_color_assignment":["white","black"],"door_generator_assignment":[1,0],"goal":2,"start":1,"action_noise":0.15,"location_history":"[1,2]","action_history":"[0]","door_history":"[1]","location_rts":"[3131]","trial_type":"two-door-navigation","trial_index":36,"time_elapsed":765569,"internal_node_id":"0.0-2.0-34.0"},{"group":"hexagon_bi","room_assignment":["purple","yellow","grey","blue","green","red"],"door_color_assignment":["white","black"],"door_generator_assignment":[1,0],"goal":0,"start":2,"action_noise":0.15,"location_history":"[2,3,4,5,4,3,4,3,2,1,0]","action_history":"[1,0,1,1,0,0,0,1,0,1]","door_history":"[0,1,0,0,1,1,1,0,1,0]","location_rts":"[5035,672,626,502,20211,413,442,110,379,574]","trial_type":"two-door-navigation","trial_index":37,"time_elapsed":808462,"internal_node_id":"0.0-2.0-35.0"},{"group":"hexagon_bi","room_assignment":["purple","yellow","grey","blue","green","red"],"door_color_assignment":["white","black"],"door_generator_assignment":[1,0],"goal":5,"start":0,"action_noise":0.15,"location_history":"[0,1,2,1,0,1,0,1,2,3,4,5]","action_history":"[1,0,0,1,1,1,0,0,1,0,1]","door_history":"[0,1,1,0,0,0,1,1,0,1,0]","location_rts":"[4259,350,439,577,33,526,228,817,398,822,594]","trial_type":"two-door-navigation","trial_index":38,"time_elapsed":832150,"internal_node_id":"0.0-2.0-36.0"},{"group":"hexagon_bi","room_assignment":["purple","yellow","grey","blue","green","red"],"door_color_assignment":["white","black"],"door_generator_assignment":[1,0],"goal":2,"start":5,"action_noise":0.15,"location_history":"[5,4,5,4,3,4,3,2]","action_history":"[1,1,1,0,1,0,1]","door_history":"[0,0,0,1,0,1,0]","location_rts":"[1733,1289,521,625,577,341,369]","trial_type":"two-door-navigation","trial_index":39,"time_elapsed":848234,"internal_node_id":"0.0-2.0-37.0"},{"group":"hexagon_bi","room_assignment":["purple","yellow","grey","blue","green","red"],"door_color_assignment":["white","black"],"door_generator_assignment":[1,0],"goal":1,"start":2,"action_noise":0.15,"location_history":"[2,3,4,3,2,1]","action_history":"[1,0,0,1,0]","door_history":"[0,1,1,0,1]","location_rts":"[5651,971,280,357,577]","trial_type":"two-door-navigation","trial_index":40,"time_elapsed":864632,"internal_node_id":"0.0-2.0-38.0"},{"group":"hexagon_bi","room_assignment":["purple","yellow","grey","blue","green","red"],"door_color_assignment":["white","black"],"door_generator_assignment":[1,0],"goal":4,"start":1,"action_noise":0.15,"location_history":"[1,0,5,0,1,0,1,0,5,4]","action_history":"[1,0,0,1,1,0,1,0,1]","door_history":"[0,1,1,0,0,1,0,1,0]","location_rts":"[1760,626,330,845,492,357,539,539,569]","trial_type":"two-door-navigation","trial_index":41,"time_elapsed":883441,"internal_node_id":"0.0-2.0-39.0"},{"group":"hexagon_bi","room_assignment":["purple","yellow","grey","blue","green","red"],"door_color_assignment":["white","black"],"door_generator_assignment":[1,0],"goal":3,"start":4,"action_noise":0.15,"location_history":"[4,5,0,1,2,1,2,3]","action_history":"[0,1,0,1,0,0,1]","door_history":"[1,0,1,0,1,1,0]","location_rts":"[1187,888,639,475,576,478,580]","trial_type":"two-door-navigation","trial_index":42,"time_elapsed":898873,"internal_node_id":"0.0-2.0-40.0"},{"group":"hexagon_bi","room_assignment":["purple","yellow","grey","blue","green","red"],"door_color_assignment":["white","black"],"door_generator_assignment":[1,0],"goal":5,"start":3,"action_noise":0.15,"location_history":"[3,4,5]","action_history":"[0,1]","door_history":"[1,0]","location_rts":"[725,238]","trial_type":"two-door-navigation","trial_index":43,"time_elapsed":905358,"internal_node_id":"0.0-2.0-41.0"},{"group":"hexagon_bi","room_assignment":["purple","yellow","grey","blue","green","red"],"door_color_assignment":["white","black"],"door_generator_assignment":[1,0],"goal":3,"start":5,"action_noise":0.15,"location_history":"[5,0,1,2,3]","action_history":"[0,1,0,1]","door_history":"[1,0,1,0]","location_rts":"[2537,665,448,466]","trial_type":"two-door-navigation","trial_index":44,"time_elapsed":917019,"internal_node_id":"0.0-2.0-42.0"},{"group":"hexagon_bi","room_assignment":["purple","yellow","grey","blue","green","red"],"door_color_assignment":["white","black"],"door_generator_assignment":[1,0],"goal":0,"start":3,"action_noise":0.15,"location_history":"[3,4,5,0]","action_history":"[0,1,0]","door_history":"[1,0,1]","location_rts":"[2342,391,394]","trial_type":"two-door-navigation","trial_index":45,"time_elapsed":926731,"internal_node_id":"0.0-2.0-43.0"},{"group":"hexagon_bi","room_assignment":["purple","yellow","grey","blue","green","red"],"door_color_assignment":["white","black"],"door_generator_assignment":[1,0],"goal":2,"start":0,"action_noise":0.15,"location_history":"[0,5,4,5,4,5,4,3,2]","action_history":"[0,1,0,1,1,0,0,1]","door_history":"[1,0,1,0,0,1,1,0]","location_rts":"[403,303,289,505,266,473,475,700]","trial_type":"two-door-navigation","trial_index":46,"time_elapsed":941831,"internal_node_id":"0.0-2.0-44.0"},{"group":"hexagon_bi","room_assignment":["purple","yellow","grey","blue","green","red"],"door_color_assignment":["white","black"],"door_generator_assignment":[1,0],"goal":4,"start":2,"action_noise":0.15,"location_history":"[2,3,4]","action_history":"[1,0]","door_history":"[0,1]","location_rts":"[1076,414]","trial_type":"two-door-navigation","trial_index":47,"time_elapsed":948865,"internal_node_id":"0.0-2.0-45.0"},{"group":"hexagon_bi","room_assignment":["purple","yellow","grey","blue","green","red"],"door_color_assignment":["white","black"],"door_generator_assignment":[1,0],"goal":1,"start":4,"action_noise":0.15,"location_history":"[4,3,2,3,4,5,0,1]","action_history":"[0,1,1,0,1,0,1]","door_history":"[1,0,0,1,0,1,0]","location_rts":"[820,1059,759,573,858,841,976]","trial_type":"two-door-navigation","trial_index":48,"time_elapsed":965363,"internal_node_id":"0.0-2.0-46.0"},{"group":"hexagon_bi","room_assignment":["purple","yellow","grey","blue","green","red"],"door_color_assignment":["white","black"],"door_generator_assignment":[1,0],"goal":4,"start":1,"action_noise":0.15,"location_history":"[1,2,3,4]","action_history":"[0,1,0]","door_history":"[1,0,1]","location_rts":"[4193,1187,1746]","trial_type":"two-door-navigation","trial_index":49,"time_elapsed":979023,"internal_node_id":"0.0-2.0-47.0"},{"group":"hexagon_bi","room_assignment":["purple","yellow","grey","blue","green","red"],"door_color_assignment":["white","black"],"door_generator_assignment":[1,0],"goal":3,"start":4,"action_noise":0.15,"location_history":"[4,3]","action_history":"[0]","door_history":"[1]","location_rts":"[1380]","trial_type":"two-door-navigation","trial_index":50,"time_elapsed":984930,"internal_node_id":"0.0-2.0-48.0"},{"group":"hexagon_bi","room_assignment":["purple","yellow","grey","blue","green","red"],"door_color_assignment":["white","black"],"door_generator_assignment":[1,0],"goal":5,"start":3,"action_noise":0.15,"location_history":"[3,4,5]","action_history":"[0,1]","door_history":"[1,0]","location_rts":"[591,116]","trial_type":"two-door-navigation","trial_index":51,"time_elapsed":991163,"internal_node_id":"0.0-2.0-49.0"},{"view_history":"[{\"page_index\":0,\"viewing_time\":3714}]","rt":3715,"trial_type":"instructions","trial_index":52,"time_elapsed":995878,"internal_node_id":"0.0-3.0"},{"view_history":"[{\"page_index\":0,\"viewing_time\":4262},{\"page_index\":1,\"viewing_time\":71263}]","rt":75527,"trial_type":"instructions","trial_index":53,"time_elapsed":1072405,"internal_node_id":"0.0-4.0"},{"group":"hexagon_bi","fractal_assignment":["../images/org_blu.png","../images/blu_wht.png","../images/ylw_slt.png","../images/cyn_red.png","../images/gry_blk.png","../images/pnk_blu.png"],"mutagen_generator_assignment":[0,1],"goal":4,"start":0,"action_noise":0.15,"location_history":"[0,1,0,1,2,3,4]","action_history":"[0,1,1,0,1,0]","mutagen_history":"[0,1,1,0,1,0]","location_rts":"[5260,1972,1312,1000,1455,1176]","trial_type":"fractal-mutation","trial_index":54,"time_elapsed":1094323,"internal_node_id":"0.0-5.0-0.0"},{"group":"hexagon_bi","fractal_assignment":["../images/org_blu.png","../images/blu_wht.png","../images/ylw_slt.png","../images/cyn_red.png","../images/gry_blk.png","../images/pnk_blu.png"],"mutagen_generator_assignment":[0,1],"goal":3,"start":4,"action_noise":0.15,"location_history":"[4,3]","action_history":"[0]","mutagen_history":"[0]","location_rts":"[1839]","trial_type":"fractal-mutation","trial_index":55,"time_elapsed":1100700,"internal_node_id":"0.0-5.0-1.0"},{"group":"hexagon_bi","fractal_assignment":["../images/org_blu.png","../images/blu_wht.png","../images/ylw_slt.png","../images/cyn_red.png","../images/gry_blk.png","../images/pnk_blu.png"],"mutagen_generator_assignment":[0,1],"goal":5,"start":3,"action_noise":0.15,"location_history":"[3,2,3,4,3,4,3,2,1,0,5]","action_history":"[1,1,1,1,0,0,1,0,1,0]","mutagen_history":"[1,1,1,1,0,0,1,0,1,0]","location_rts":"[1468,1429,843,989,845,1304,1668,426,1317,763]","trial_type":"fractal-mutation","trial_index":56,"time_elapsed":1125655,"internal_node_id":"0.0-5.0-2.0"},{"group":"hexagon_bi","fractal_assignment":["../images/org_blu.png","../images/blu_wht.png","../images/ylw_slt.png","../images/cyn_red.png","../images/gry_blk.png","../images/pnk_blu.png"],"mutagen_generator_assignment":[0,1],"goal":2,"start":5,"action_noise":0.15,"location_history":"[5,4,3,2]","action_history":"[1,0,1]","mutagen_history":"[1,0,1]","location_rts":"[1332,700,749]","trial_type":"fractal-mutation","trial_index":57,"time_elapsed":1135023,"internal_node_id":"0.0-5.0-3.0"},{"group":"hexagon_bi","fractal_assignment":["../images/org_blu.png","../images/blu_wht.png","../images/ylw_slt.png","../images/cyn_red.png","../images/gry_blk.png","../images/pnk_blu.png"],"mutagen_generator_assignment":[0,1],"goal":1,"start":2,"action_noise":0.15,"location_history":"[2,1]","action_history":"[0]","mutagen_history":"[0]","location_rts":"[3018]","trial_type":"fractal-mutation","trial_index":58,"time_elapsed":1142566,"internal_node_id":"0.0-5.0-4.0"},{"group":"hexagon_bi","fractal_assignment":["../images/org_blu.png","../images/blu_wht.png","../images/ylw_slt.png","../images/cyn_red.png","../images/gry_blk.png","../images/pnk_blu.png"],"mutagen_generator_assignment":[0,1],"goal":4,"start":1,"action_noise":0.15,"location_history":"[1,2,3,2,1,0,5,4]","action_history":"[1,1,1,0,1,0,1]","mutagen_history":"[1,1,1,0,1,0,1]","location_rts":"[1397,998,660,959,661,792,948]","trial_type":"fractal-mutation","trial_index":59,"time_elapsed":1159696,"internal_node_id":"0.0-5.0-5.0"},{"group":"hexagon_bi","fractal_assignment":["../images/org_blu.png","../images/blu_wht.png","../images/ylw_slt.png","../images/cyn_red.png","../images/gry_blk.png","../images/pnk_blu.png"],"mutagen_generator_assignment":[0,1],"goal":1,"start":4,"action_noise":0.15,"location_history":"[4,5,0,5,4,3,2,1]","action_history":"[1,0,0,1,0,1,0]","mutagen_history":"[1,0,0,1,0,1,0]","location_rts":"[2539,710,809,1740,531,855,756]","trial_type":"fractal-mutation","trial_index":60,"time_elapsed":1178430,"internal_node_id":"0.0-5.0-6.0"},{"group":"hexagon_bi","fractal_assignment":["../images/org_blu.png","../images/blu_wht.png","../images/ylw_slt.png","../images/cyn_red.png","../images/gry_blk.png","../images/pnk_blu.png"],"mutagen_generator_assignment":[0,1],"goal":5,"start":1,"action_noise":0.15,"location_history":"[1,0,5]","action_history":"[1,0]","mutagen_history":"[1,0]","location_rts":"[8101,673]","trial_type":"fractal-mutation","trial_index":61,"time_elapsed":1192767,"internal_node_id":"0.0-5.0-7.0"},{"group":"hexagon_bi","fractal_assignment":["../images/org_blu.png","../images/blu_wht.png","../images/ylw_slt.png","../images/cyn_red.png","../images/gry_blk.png","../images/pnk_blu.png"],"mutagen_generator_assignment":[0,1],"goal":0,"start":5,"action_noise":0.15,"location_history":"[5,4,3,4,5,0]","action_history":"[1,0,0,1,0]","mutagen_history":"[1,0,0,1,0]","location_rts":"[2234,598,761,479,594]","trial_type":"fractal-mutation","trial_index":62,"time_elapsed":1206105,"internal_node_id":"0.0-5.0-8.0"},{"group":"hexagon_bi","fractal_assignment":["../images/org_blu.png","../images/blu_wht.png","../images/ylw_slt.png","../images/cyn_red.png","../images/gry_blk.png","../images/pnk_blu.png"],"mutagen_generator_assignment":[0,1],"goal":2,"start":0,"action_noise":0.15,"location_history":"[0,5,4,3,4,5,0,5,4,3,2]","action_history":"[0,1,1,0,0,0,0,1,0,1]","mutagen_history":"[0,1,1,0,0,0,0,1,0,1]","location_rts":"[1843,741,1197,2130,701,724,684,938,830,1191]","trial_type":"fractal-mutation","trial_index":63,"time_elapsed":1230938,"internal_node_id":"0.0-5.0-9.0"},{"group":"hexagon_bi","fractal_assignment":["../images/org_blu.png","../images/blu_wht.png","../images/ylw_slt.png","../images/cyn_red.png","../images/gry_blk.png","../images/pnk_blu.png"],"mutagen_generator_assignment":[0,1],"goal":3,"start":2,"action_noise":0.15,"location_history":"[2,3]","action_history":"[1]","mutagen_history":"[1]","location_rts":"[3104]","trial_type":"fractal-mutation","trial_index":64,"time_elapsed":1238571,"internal_node_id":"0.0-5.0-10.0"},{"group":"hexagon_bi","fractal_assignment":["../images/org_blu.png","../images/blu_wht.png","../images/ylw_slt.png","../images/cyn_red.png","../images/gry_blk.png","../images/pnk_blu.png"],"mutagen_generator_assignment":[0,1],"goal":0,"start":3,"action_noise":0.15,"location_history":"[3,4,5,0]","action_history":"[0,1,0]","mutagen_history":"[0,1,0]","location_rts":"[1313,879,1060]","trial_type":"fractal-mutation","trial_index":65,"time_elapsed":1248518,"internal_node_id":"0.0-5.0-11.0"},{"group":"hexagon_bi","fractal_assignment":["../images/org_blu.png","../images/blu_wht.png","../images/ylw_slt.png","../images/cyn_red.png","../images/gry_blk.png","../images/pnk_blu.png"],"mutagen_generator_assignment":[0,1],"goal":2,"start":0,"action_noise":0.15,"location_history":"[0,5,4,3,2]","action_history":"[0,1,0,1]","mutagen_history":"[0,1,0,1]","location_rts":"[509,450,431,1126]","trial_type":"fractal-mutation","trial_index":66,"time_elapsed":1258717,"internal_node_id":"0.0-5.0-12.0"},{"group":"hexagon_bi","fractal_assignment":["../images/org_blu.png","../images/blu_wht.png","../images/ylw_slt.png","../images/cyn_red.png","../images/gry_blk.png","../images/pnk_blu.png"],"mutagen_generator_assignment":[0,1],"goal":5,"start":2,"action_noise":0.15,"location_history":"[2,3,2,3,2,3,4,5]","action_history":"[0,1,0,1,1,0,1]","mutagen_history":"[0,1,0,1,1,0,1]","location_rts":"[8291,613,353,428,460,661,993]","trial_type":"fractal-mutation","trial_index":67,"time_elapsed":1281277,"internal_node_id":"0.0-5.0-13.0"},{"group":"hexagon_bi","fractal_assignment":["../images/org_blu.png","../images/blu_wht.png","../images/ylw_slt.png","../images/cyn_red.png","../images/gry_blk.png","../images/pnk_blu.png"],"mutagen_generator_assignment":[0,1],"goal":4,"start":5,"action_noise":0.15,"location_history":"[5,0,1,2,3,4]","action_history":"[0,1,0,1,0]","mutagen_history":"[0,1,0,1,0]","location_rts":"[1757,722,660,666,1127]","trial_type":"fractal-mutation","trial_index":68,"time_elapsed":1294890,"internal_node_id":"0.0-5.0-14.0"},{"group":"hexagon_bi","fractal_assignment":["../images/org_blu.png","../images/blu_wht.png","../images/ylw_slt.png","../images/cyn_red.png","../images/gry_blk.png","../images/pnk_blu.png"],"mutagen_generator_assignment":[0,1],"goal":3,"start":4,"action_noise":0.15,"location_history":"[4,5,0,1,0,5,4,3]","action_history":"[1,0,1,0,0,1,0]","mutagen_history":"[1,0,1,0,0,1,0]","location_rts":"[771,732,790,600,657,1093,838]","trial_type":"fractal-mutation","trial_index":69,"time_elapsed":1311158,"internal_node_id":"0.0-5.0-15.0"},{"group":"hexagon_bi","fractal_assignment":["../images/org_blu.png","../images/blu_wht.png","../images/ylw_slt.png","../images/cyn_red.png","../images/gry_blk.png","../images/pnk_blu.png"],"mutagen_generator_assignment":[0,1],"goal":1,"start":3,"action_noise":0.15,"location_history":"[3,2,1]","action_history":"[1,0]","mutagen_history":"[1,0]","location_rts":"[1186,1308]","trial_type":"fractal-mutation","trial_index":70,"time_elapsed":1319202,"internal_node_id":"0.0-5.0-16.0"},{"group":"hexagon_bi","fractal_assignment":["../images/org_blu.png","../images/blu_wht.png","../images/ylw_slt.png","../images/cyn_red.png","../images/gry_blk.png","../images/pnk_blu.png"],"mutagen_generator_assignment":[0,1],"goal":5,"start":1,"action_noise":0.15,"location_history":"[1,0,1,0,5]","action_history":"[1,1,1,0]","mutagen_history":"[1,1,1,0]","location_rts":"[19517,833,646,754]","trial_type":"fractal-mutation","trial_index":71,"time_elapsed":1348562,"internal_node_id":"0.0-5.0-17.0"},{"group":"hexagon_bi","fractal_assignment":["../images/org_blu.png","../images/blu_wht.png","../images/ylw_slt.png","../images/cyn_red.png","../images/gry_blk.png","../images/pnk_blu.png"],"mutagen_generator_assignment":[0,1],"goal":4,"start":5,"action_noise":0.15,"location_history":"[5,4]","action_history":"[1]","mutagen_history":"[1]","location_rts":"[1978]","trial_type":"fractal-mutation","trial_index":72,"time_elapsed":1355086,"internal_node_id":"0.0-5.0-18.0"},{"group":"hexagon_bi","fractal_assignment":["../images/org_blu.png","../images/blu_wht.png","../images/ylw_slt.png","../images/cyn_red.png","../images/gry_blk.png","../images/pnk_blu.png"],"mutagen_generator_assignment":[0,1],"goal":0,"start":4,"action_noise":0.15,"location_history":"[4,3,4,5,0]","action_history":"[0,0,1,0]","mutagen_history":"[0,0,1,0]","location_rts":"[2780,1880,734,985]","trial_type":"fractal-mutation","trial_index":73,"time_elapsed":1369056,"internal_node_id":"0.0-5.0-19.0"},{"group":"hexagon_bi","fractal_assignment":["../images/org_blu.png","../images/blu_wht.png","../images/ylw_slt.png","../images/cyn_red.png","../images/gry_blk.png","../images/pnk_blu.png"],"mutagen_generator_assignment":[0,1],"goal":1,"start":0,"action_noise":0.15,"location_history":"[0,1]","action_history":"[1]","mutagen_history":"[1]","location_rts":"[2642]","trial_type":"fractal-mutation","trial_index":74,"time_elapsed":1376230,"internal_node_id":"0.0-5.0-20.0"},{"group":"hexagon_bi","fractal_assignment":["../images/org_blu.png","../images/blu_wht.png","../images/ylw_slt.png","../images/cyn_red.png","../images/gry_blk.png","../images/pnk_blu.png"],"mutagen_generator_assignment":[0,1],"goal":3,"start":1,"action_noise":0.15,"location_history":"[1,2,3]","action_history":"[0,1]","mutagen_history":"[0,1]","location_rts":"[1186,1762]","trial_type":"fractal-mutation","trial_index":75,"time_elapsed":1384772,"internal_node_id":"0.0-5.0-21.0"},{"group":"hexagon_bi","fractal_assignment":["../images/org_blu.png","../images/blu_wht.png","../images/ylw_slt.png","../images/cyn_red.png","../images/gry_blk.png","../images/pnk_blu.png"],"mutagen_generator_assignment":[0,1],"goal":2,"start":3,"action_noise":0.15,"location_history":"[3,2]","action_history":"[1]","mutagen_history":"[1]","location_rts":"[1175]","trial_type":"fractal-mutation","trial_index":76,"time_elapsed":1390490,"internal_node_id":"0.0-5.0-22.0"},{"group":"hexagon_bi","fractal_assignment":["../images/org_blu.png","../images/blu_wht.png","../images/ylw_slt.png","../images/cyn_red.png","../images/gry_blk.png","../images/pnk_blu.png"],"mutagen_generator_assignment":[0,1],"goal":0,"start":2,"action_noise":0.15,"location_history":"[2,1,0]","action_history":"[0,1]","mutagen_history":"[0,1]","location_rts":"[848,709]","trial_type":"fractal-mutation","trial_index":77,"time_elapsed":1397607,"internal_node_id":"0.0-5.0-23.0"},{"group":"hexagon_bi","fractal_assignment":["../images/org_blu.png","../images/blu_wht.png","../images/ylw_slt.png","../images/cyn_red.png","../images/gry_blk.png","../images/pnk_blu.png"],"mutagen_generator_assignment":[0,1],"goal":3,"start":0,"action_noise":0.15,"location_history":"[0,5,4,3]","action_history":"[1,1,0]","mutagen_history":"[1,1,0]","location_rts":"[3420,23099,486]","trial_type":"fractal-mutation","trial_index":78,"time_elapsed":1431192,"internal_node_id":"0.0-5.0-24.0"},{"group":"hexagon_bi","fractal_assignment":["../images/org_blu.png","../images/blu_wht.png","../images/ylw_slt.png","../images/cyn_red.png","../images/gry_blk.png","../images/pnk_blu.png"],"mutagen_generator_assignment":[0,1],"goal":1,"start":3,"action_noise":0.15,"location_history":"[3,2,1]","action_history":"[1,0]","mutagen_history":"[1,0]","location_rts":"[1962,457]","trial_type":"fractal-mutation","trial_index":79,"time_elapsed":1439309,"internal_node_id":"0.0-5.0-25.0"},{"group":"hexagon_bi","fractal_assignment":["../images/org_blu.png","../images/blu_wht.png","../images/ylw_slt.png","../images/cyn_red.png","../images/gry_blk.png","../images/pnk_blu.png"],"mutagen_generator_assignment":[0,1],"goal":2,"start":1,"action_noise":0.15,"location_history":"[1,0,5,4,5,0,5,4,5,4,3,4,5,4,5,4,3,4,5,4,3,2]","action_history":"[1,0,1,1,0,0,1,0,1,0,0,1,1,0,1,0,0,1,1,0,1]","mutagen_history":"[1,0,1,1,0,0,1,0,1,0,0,1,1,0,1,0,0,1,1,0,1]","location_rts":"[1178,820,770,649,498,493,533,375,326,501,254,1240,843,389,382,562,313,522,524,382,770]","trial_type":"fractal-mutation","trial_index":80,"time_elapsed":1476930,"internal_node_id":"0.0-5.0-26.0"},{"group":"hexagon_bi","fractal_assignment":["../images/org_blu.png","../images/blu_wht.png","../images/ylw_slt.png","../images/cyn_red.png","../images/gry_blk.png","../images/pnk_blu.png"],"mutagen_generator_assignment":[0,1],"goal":5,"start":2,"action_noise":0.15,"location_history":"[2,1,0,1,0,5]","action_history":"[0,1,1,1,0]","mutagen_history":"[0,1,1,1,0]","location_rts":"[2457,1014,778,683,195]","trial_type":"fractal-mutation","trial_index":81,"time_elapsed":1490717,"internal_node_id":"0.0-5.0-27.0"},{"group":"hexagon_bi","fractal_assignment":["../images/org_blu.png","../images/blu_wht.png","../images/ylw_slt.png","../images/cyn_red.png","../images/gry_blk.png","../images/pnk_blu.png"],"mutagen_generator_assignment":[0,1],"goal":4,"start":5,"action_noise":0.15,"location_history":"[5,0,1,0,5,4]","action_history":"[1,0,1,0,0]","mutagen_history":"[1,0,1,0,0]","location_rts":"[1924,448,631,228,366]","trial_type":"fractal-mutation","trial_index":82,"time_elapsed":1502982,"internal_node_id":"0.0-5.0-28.0"},{"group":"hexagon_bi","fractal_assignment":["../images/org_blu.png","../images/blu_wht.png","../images/ylw_slt.png","../images/cyn_red.png","../images/gry_blk.png","../images/pnk_blu.png"],"mutagen_generator_assignment":[0,1],"goal":5,"start":4,"action_noise":0.15,"location_history":"[4,5]","action_history":"[0]","mutagen_history":"[0]","location_rts":"[1942]","trial_type":"fractal-mutation","trial_index":83,"time_elapsed":1509460,"internal_node_id":"0.0-5.0-29.0"},{"group":"hexagon_bi","fractal_assignment":["../images/org_blu.png","../images/blu_wht.png","../images/ylw_slt.png","../images/cyn_red.png","../images/gry_blk.png","../images/pnk_blu.png"],"mutagen_generator_assignment":[0,1],"goal":3,"start":5,"action_noise":0.15,"location_history":"[5,4,3]","action_history":"[1,0]","mutagen_history":"[1,0]","location_rts":"[4397,787]","trial_type":"fractal-mutation","trial_index":84,"time_elapsed":1520222,"internal_node_id":"0.0-5.0-30.0"},{"group":"hexagon_bi","fractal_assignment":["../images/org_blu.png","../images/blu_wht.png","../images/ylw_slt.png","../images/cyn_red.png","../images/gry_blk.png","../images/pnk_blu.png"],"mutagen_generator_assignment":[0,1],"goal":0,"start":3,"action_noise":0.15,"location_history":"[3,2,1,0]","action_history":"[1,0,0]","mutagen_history":"[1,0,0]","location_rts":"[1947,295,789]","trial_type":"fractal-mutation","trial_index":85,"time_elapsed":1529835,"internal_node_id":"0.0-5.0-31.0"},{"group":"hexagon_bi","fractal_assignment":["../images/org_blu.png","../images/blu_wht.png","../images/ylw_slt.png","../images/cyn_red.png","../images/gry_blk.png","../images/pnk_blu.png"],"mutagen_generator_assignment":[0,1],"goal":4,"start":0,"action_noise":0.15,"location_history":"[0,1,2,3,4]","action_history":"[1,0,1,0]","mutagen_history":"[1,0,1,0]","location_rts":"[1207,642,737,573]","trial_type":"fractal-mutation","trial_index":86,"time_elapsed":1540591,"internal_node_id":"0.0-5.0-32.0"},{"group":"hexagon_bi","fractal_assignment":["../images/org_blu.png","../images/blu_wht.png","../images/ylw_slt.png","../images/cyn_red.png","../images/gry_blk.png","../images/pnk_blu.png"],"mutagen_generator_assignment":[0,1],"goal":1,"start":4,"action_noise":0.15,"location_history":"[4,5,4,3,2,3,4,5,0,5,4,3,4,3,4,3,4,5,4,5,0,1]","action_history":"[0,1,0,1,1,0,1,0,0,1,0,0,0,0,0,0,1,1,1,1,1]","mutagen_history":"[0,1,0,1,1,0,1,0,0,1,0,0,0,0,0,0,1,1,1,1,1]","location_rts":"[1247,1013,643,530,239,771,519,649,701,937,288,545,618,486,427,401,621,674,536,481,730]","trial_type":"fractal-mutation","trial_index":87,"time_elapsed":1578692,"internal_node_id":"0.0-5.0-33.0"},{"group":"hexagon_bi","fractal_assignment":["../images/org_blu.png","../images/blu_wht.png","../images/ylw_slt.png","../images/cyn_red.png","../images/gry_blk.png","../images/pnk_blu.png"],"mutagen_generator_assignment":[0,1],"goal":2,"start":1,"action_noise":0.15,"location_history":"[1,0,1,0,5,0,1,0,5,0,5,0,5,0,1,0,5,4,5,4,3,4,3,2]","action_history":"[1,1,1,0,0,1,0,0,1,0,0,0,0,1,1,0,1,1,0,0,0,0,1]","mutagen_history":"[1,1,1,0,0,1,0,0,1,0,0,0,0,1,1,0,1,1,0,0,0,0,1]","location_rts":"[31467,869,428,264,534,175,117,764,504,558,812,946,566,387,611,629,319,769,637,470,840,472,292]","trial_type":"fractal-mutation","trial_index":88,"time_elapsed":1649317,"internal_node_id":"0.0-5.0-34.0"},{"group":"hexagon_bi","fractal_assignment":["../images/org_blu.png","../images/blu_wht.png","../images/ylw_slt.png","../images/cyn_red.png","../images/gry_blk.png","../images/pnk_blu.png"],"mutagen_generator_assignment":[0,1],"goal":0,"start":2,"action_noise":0.15,"location_history":"[2,1,0]","action_history":"[0,1]","mutagen_history":"[0,1]","location_rts":"[2260,598]","trial_type":"fractal-mutation","trial_index":89,"time_elapsed":1657817,"internal_node_id":"0.0-5.0-35.0"},{"group":"hexagon_bi","fractal_assignment":["../images/org_blu.png","../images/blu_wht.png","../images/ylw_slt.png","../images/cyn_red.png","../images/gry_blk.png","../images/pnk_blu.png"],"mutagen_generator_assignment":[0,1],"goal":5,"start":0,"action_noise":0.15,"location_history":"[0,5]","action_history":"[1]","mutagen_history":"[1]","location_rts":"[1025]","trial_type":"fractal-mutation","trial_index":90,"time_elapsed":1663419,"internal_node_id":"0.0-5.0-36.0"},{"group":"hexagon_bi","fractal_assignment":["../images/org_blu.png","../images/blu_wht.png","../images/ylw_slt.png","../images/cyn_red.png","../images/gry_blk.png","../images/pnk_blu.png"],"mutagen_generator_assignment":[0,1],"goal":2,"start":5,"action_noise":0.15,"location_history":"[5,0,1,2]","action_history":"[0,1,0]","mutagen_history":"[0,1,0]","location_rts":"[10902,2019,738]","trial_type":"fractal-mutation","trial_index":91,"time_elapsed":1684938,"internal_node_id":"0.0-5.0-37.0"},{"group":"hexagon_bi","fractal_assignment":["../images/org_blu.png","../images/blu_wht.png","../images/ylw_slt.png","../images/cyn_red.png","../images/gry_blk.png","../images/pnk_blu.png"],"mutagen_generator_assignment":[0,1],"goal":1,"start":2,"action_noise":0.15,"location_history":"[2,1]","action_history":"[0]","mutagen_history":"[0]","location_rts":"[1772]","trial_type":"fractal-mutation","trial_index":92,"time_elapsed":1691733,"internal_node_id":"0.0-5.0-38.0"},{"group":"hexagon_bi","fractal_assignment":["../images/org_blu.png","../images/blu_wht.png","../images/ylw_slt.png","../images/cyn_red.png","../images/gry_blk.png","../images/pnk_blu.png"],"mutagen_generator_assignment":[0,1],"goal":4,"start":1,"action_noise":0.15,"location_history":"[1,2,3,2,1,0,1,2,1,0,5,4]","action_history":"[0,1,1,0,1,1,0,0,1,1,1]","mutagen_history":"[0,1,1,0,1,1,0,0,1,1,1]","location_rts":"[1793,683,3622,878,499,522,666,589,561,658,8766]","trial_type":"fractal-mutation","trial_index":93,"time_elapsed":1731844,"internal_node_id":"0.0-5.0-39.0"},{"group":"hexagon_bi","fractal_assignment":["../images/org_blu.png","../images/blu_wht.png","../images/ylw_slt.png","../images/cyn_red.png","../images/gry_blk.png","../images/pnk_blu.png"],"mutagen_generator_assignment":[0,1],"goal":3,"start":4,"action_noise":0.15,"location_history":"[4,5,0,1,2,3]","action_history":"[0,0,1,1,1]","mutagen_history":"[0,0,1,1,1]","location_rts":"[1950,1583,246,647,519]","trial_type":"fractal-mutation","trial_index":94,"time_elapsed":1745494,"internal_node_id":"0.0-5.0-40.0"},{"group":"hexagon_bi","fractal_assignment":["../images/org_blu.png","../images/blu_wht.png","../images/ylw_slt.png","../images/cyn_red.png","../images/gry_blk.png","../images/pnk_blu.png"],"mutagen_generator_assignment":[0,1],"goal":5,"start":3,"action_noise":0.15,"location_history":"[3,4,5]","action_history":"[0,1]","mutagen_history":"[0,1]","location_rts":"[3164,1417]","trial_type":"fractal-mutation","trial_index":95,"time_elapsed":1755784,"internal_node_id":"0.0-5.0-41.0"},{"group":"hexagon_bi","fractal_assignment":["../images/org_blu.png","../images/blu_wht.png","../images/ylw_slt.png","../images/cyn_red.png","../images/gry_blk.png","../images/pnk_blu.png"],"mutagen_generator_assignment":[0,1],"goal":3,"start":5,"action_noise":0.15,"location_history":"[5,4,5,0,5,0,5,4,5,4,5,0,5,0,5,0,1,0,5,4,5,4,3]","action_history":"[1,0,0,1,0,0,1,1,1,1,0,0,0,0,0,1,1,1,1,1,1,0]","mutagen_history":"[1,0,0,1,0,0,1,1,1,1,0,0,0,0,0,1,1,1,1,1,1,0]","location_rts":"[2085,516,1019,589,706,310,541,814,1988,733,539,530,477,419,495,547,543,685,553,465,822,491]","trial_type":"fractal-mutation","trial_index":96,"time_elapsed":1798254,"internal_node_id":"0.0-5.0-42.0"},{"group":"hexagon_bi","fractal_assignment":["../images/org_blu.png","../images/blu_wht.png","../images/ylw_slt.png","../images/cyn_red.png","../images/gry_blk.png","../images/pnk_blu.png"],"mutagen_generator_assignment":[0,1],"goal":0,"start":3,"action_noise":0.15,"location_history":"[3,4,5,0]","action_history":"[0,1,0]","mutagen_history":"[0,1,0]","location_rts":"[877,490,596]","trial_type":"fractal-mutation","trial_index":97,"time_elapsed":1806844,"internal_node_id":"0.0-5.0-43.0"},{"group":"hexagon_bi","fractal_assignment":["../images/org_blu.png","../images/blu_wht.png","../images/ylw_slt.png","../images/cyn_red.png","../images/gry_blk.png","../images/pnk_blu.png"],"mutagen_generator_assignment":[0,1],"goal":2,"start":0,"action_noise":0.15,"location_history":"[0,1,2]","action_history":"[1,0]","mutagen_history":"[1,0]","location_rts":"[389,251]","trial_type":"fractal-mutation","trial_index":98,"time_elapsed":1813094,"internal_node_id":"0.0-5.0-44.0"},{"group":"hexagon_bi","fractal_assignment":["../images/org_blu.png","../images/blu_wht.png","../images/ylw_slt.png","../images/cyn_red.png","../images/gry_blk.png","../images/pnk_blu.png"],"mutagen_generator_assignment":[0,1],"goal":4,"start":2,"action_noise":0.15,"location_history":"[2,3,4]","action_history":"[1,0]","mutagen_history":"[1,0]","location_rts":"[1964,304]","trial_type":"fractal-mutation","trial_index":99,"time_elapsed":1820945,"internal_node_id":"0.0-5.0-45.0"},{"group":"hexagon_bi","fractal_assignment":["../images/org_blu.png","../images/blu_wht.png","../images/ylw_slt.png","../images/cyn_red.png","../images/gry_blk.png","../images/pnk_blu.png"],"mutagen_generator_assignment":[0,1],"goal":1,"start":4,"action_noise":0.15,"location_history":"[4,5,0,1]","action_history":"[1,0,1]","mutagen_history":"[1,0,1]","location_rts":"[799,605,706]","trial_type":"fractal-mutation","trial_index":100,"time_elapsed":1829642,"internal_node_id":"0.0-5.0-46.0"},{"group":"hexagon_bi","fractal_assignment":["../images/org_blu.png","../images/blu_wht.png","../images/ylw_slt.png","../images/cyn_red.png","../images/gry_blk.png","../images/pnk_blu.png"],"mutagen_generator_assignment":[0,1],"goal":4,"start":1,"action_noise":0.15,"location_history":"[1,0,5,4]","action_history":"[1,0,1]","mutagen_history":"[1,0,1]","location_rts":"[1015,314,359]","trial_type":"fractal-mutation","trial_index":101,"time_elapsed":1837995,"internal_node_id":"0.0-5.0-47.0"},{"group":"hexagon_bi","fractal_assignment":["../images/org_blu.png","../images/blu_wht.png","../images/ylw_slt.png","../images/cyn_red.png","../images/gry_blk.png","../images/pnk_blu.png"],"mutagen_generator_assignment":[0,1],"goal":3,"start":4,"action_noise":0.15,"location_history":"[4,5,0,1,2,1,0,5,4,3]","action_history":"[1,0,1,0,0,1,0,1,0]","mutagen_history":"[1,0,1,0,0,1,0,1,0]","location_rts":"[1505,852,476,563,1034,581,410,868,805]","trial_type":"fractal-mutation","trial_index":102,"time_elapsed":1858175,"internal_node_id":"0.0-5.0-48.0"},{"group":"hexagon_bi","fractal_assignment":["../images/org_blu.png","../images/blu_wht.png","../images/ylw_slt.png","../images/cyn_red.png","../images/gry_blk.png","../images/pnk_blu.png"],"mutagen_generator_assignment":[0,1],"goal":5,"start":3,"action_noise":0.15,"location_history":"[3,2,1,0,5]","action_history":"[1,0,1,0]","mutagen_history":"[1,0,1,0]","location_rts":"[1639,503,502,638]","trial_type":"fractal-mutation","trial_index":103,"time_elapsed":1869097,"internal_node_id":"0.0-5.0-49.0"},{"view_history":"[{\"page_index\":0,\"viewing_time\":47338}]","rt":47340,"trial_type":"instructions","trial_index":104,"time_elapsed":1917437,"internal_node_id":"0.0-6.0"},{"rt":5340,"responses":"{\"Q0\":\"None\"}","trial_type":"survey-text","trial_index":105,"time_elapsed":1923784,"internal_node_id":"0.0-7.0"}]