[{"view_history":"[{\"page_index\":0,\"viewing_time\":7205},{\"page_index\":1,\"viewing_time\":9762},{\"page_index\":2,\"viewing_time\":22496},{\"page_index\":3,\"viewing_time\":63775}]","rt":103239,"trial_type":"instructions","trial_index":0,"time_elapsed":103243,"internal_node_id":"0.0-0.0"},{"view_history":"[{\"page_index\":0,\"viewing_time\":2863},{\"page_index\":1,\"viewing_time\":25049}]","rt":27913,"trial_type":"instructions","trial_index":1,"time_elapsed":132159,"internal_node_id":"0.0-1.0"},{"group":"hexagon_bi","room_assignment":["grey","green","purple","blue","yellow","red"],"door_color_assignment":["white","black"],"door_generator_assignment":[1,0],"goal":4,"start":0,"action_noise":0.15,"location_history":"[0,1,2,1,2,1,2,3,4]","action_history":"[1,0,0,0,1,1,1,0]","door_history":"[0,1,1,1,0,0,0,1]","location_rts":"[5152,3959,2877,2288,631,2623,1519,3187]","trial_type":"two-door-navigation","trial_index":2,"time_elapsed":165931,"internal_node_id":"0.0-2.0-0.0"},{"group":"hexagon_bi","room_assignment":["grey","green","purple","blue","yellow","red"],"door_color_assignment":["white","black"],"door_generator_assignment":[1,0],"goal":3,"start":4,"action_noise":0.15,"location_history":"[4,3]","action_history":"[0]","door_history":"[1]","location_rts":"[8818]","trial_type":"two-door-navigation","trial_index":3,"time_elapsed":179256,"internal_node_id":"0.0-2.0-1.0"},{"group":"hexagon_bi","room_assignment":["grey","green","purple","blue","yellow","red"],"door_color_assignment":["white","black"],"door_generator_assignment":[1,0],"goal":5,"start":3,"action_noise":0.15,"location_history":"[3,4,5]","action_history":"[0,1]","door_history":"[1,0]","location_rts":"[65122,920]","trial_type":"two-door-navigation","trial_index":4,"time_elapsed":250805,"internal_node_id":"0.0-2.0-2.0"},{"group":"hexagon_bi","room_assignment":["grey","green","purple","blue","yellow","red"],"door_color_assignment":["white","black"],"door_generator_assignment":[1,0],"goal":2,"start":5,"action_noise":0.15,"location_history":"[5,4,3,2]","action_history":"[0,0,1]","door_history":"[1,1,0]","location_rts":"[1354,1242,1265]","trial_type":"two-door-navigation","trial_index":5,"time_elapsed":261176,"internal_node_id":"0.0-2.0-3.0"},{"group":"hexagon_bi","room_assignment":["grey","green","purple","blue","yellow","red"],"door_color_assignment":["white","black"],"door_generator_assignment":[1,0],"goal":1,"start":2,"action_noise":0.15,"location_history":"[2,1]","action_history":"[0]","door_history":"[1]","location_rts":"[1098]","trial_type":"two-door-navigation","trial_index":6,"time_elapsed":266776,"internal_node_id":"0.0-2.0-4.0"},{"group":"hexagon_bi","room_assignment":["grey","green","purple","blue","yellow","red"],"door_color_assignment":["white","black"],"door_generator_assignment":[1,0],"goal":4,"start":1,"action_noise":0.15,"location_history":"[1,0,5,4]","action_history":"[1,0,1]","door_history":"[0,1,0]","location_rts":"[1320,809,944]","trial_type":"two-door-navigation","trial_index":7,"time_elapsed":276360,"internal_node_id":"0.0-2.0-5.0"},{"group":"hexagon_bi","room_assignment":["grey","green","purple","blue","yellow","red"],"door_color_assignment":["white","black"],"door_generator_assignment":[1,0],"goal":1,"start":4,"action_noise":0.15,"location_history":"[4,5,0,1]","action_history":"[1,0,1]","door_history":"[0,1,0]","location_rts":"[602,1353,915]","trial_type":"two-door-navigation","trial_index":8,"time_elapsed":285741,"internal_node_id":"0.0-2.0-6.0"},{"group":"hexagon_bi","room_assignment":["grey","green","purple","blue","yellow","red"],"door_color_assignment":["white","black"],"door_generator_assignment":[1,0],"goal":5,"start":1,"action_noise":0.15,"location_history":"[1,2,3,4,3,2,3,2,1,2,1,0,5]","action_history":"[0,1,0,0,1,1,1,0,0,0,1,0]","door_history":"[1,0,1,1,0,0,0,1,1,1,0,1]","location_rts":"[1982,890,783,1030,947,624,1274,771,816,1387,2106,1605]","trial_type":"two-door-navigation","trial_index":9,"time_elapsed":315483,"internal_node_id":"0.0-2.0-7.0"},{"group":"hexagon_bi","room_assignment":["grey","green","purple","blue","yellow","red"],"door_color_assignment":["white","black"],"door_generator_assignment":[1,0],"goal":0,"start":5,"action_noise":0.15,"location_history":"[5,4,3,4,3,2,1,0]","action_history":"[1,0,0,1,1,0,0]","door_history":"[0,1,1,0,0,1,1]","location_rts":"[1369,875,622,891,481,1223,665]","trial_type":"two-door-navigation","trial_index":10,"time_elapsed":332120,"internal_node_id":"0.0-2.0-8.0"},{"group":"hexagon_bi","room_assignment":["grey","green","purple","blue","yellow","red"],"door_color_assignment":["white","black"],"door_generator_assignment":[1,0],"goal":2,"start":0,"action_noise":0.15,"location_history":"[0,5,4,5,4,3,2]","action_history":"[0,1,1,1,0,0]","door_history":"[1,0,0,0,1,1]","location_rts":"[3475,898,670,584,874,530]","trial_type":"two-door-navigation","trial_index":11,"time_elapsed":348657,"internal_node_id":"0.0-2.0-9.0"},{"group":"hexagon_bi","room_assignment":["grey","green","purple","blue","yellow","red"],"door_color_assignment":["white","black"],"door_generator_assignment":[1,0],"goal":3,"start":2,"action_noise":0.15,"location_history":"[2,3]","action_history":"[1]","door_history":"[0]","location_rts":"[1170]","trial_type":"two-door-navigation","trial_index":12,"time_elapsed":354331,"internal_node_id":"0.0-2.0-10.0"},{"group":"hexagon_bi","room_assignment":["grey","green","purple","blue","yellow","red"],"door_color_assignment":["white","black"],"door_generator_assignment":[1,0],"goal":0,"start":3,"action_noise":0.15,"location_history":"[3,4,3,2,1,2,3,2,3,2,3,2,1,2,1,0]","action_history":"[0,0,1,1,0,0,1,1,0,0,1,0,0,0,1]","door_history":"[1,1,0,0,1,1,0,0,1,1,0,1,1,1,0]","location_rts":"[918,819,647,1062,943,1338,772,559,843,1087,3078,1167,529,1249,400]","trial_type":"two-door-navigation","trial_index":13,"time_elapsed":388266,"internal_node_id":"0.0-2.0-11.0"},{"group":"hexagon_bi","room_assignment":["grey","green","purple","blue","yellow","red"],"door_color_assignment":["white","black"],"door_generator_assignment":[1,0],"goal":2,"start":0,"action_noise":0.15,"location_history":"[0,5,0,1,2]","action_history":"[0,0,1,0]","door_history":"[1,1,0,1]","location_rts":"[1316,1412,1103,709]","trial_type":"two-door-navigation","trial_index":14,"time_elapsed":400313,"internal_node_id":"0.0-2.0-12.0"},{"group":"hexagon_bi","room_assignment":["grey","green","purple","blue","yellow","red"],"door_color_assignment":["white","black"],"door_generator_assignment":[1,0],"goal":5,"start":2,"action_noise":0.15,"location_history":"[2,3,4,5]","action_history":"[1,0,0]","door_history":"[0,1,1]","location_rts":"[791,777,740]","trial_type":"two-door-navigation","trial_index":15,"time_elapsed":409132,"internal_node_id":"0.0-2.0-13.0"},{"group":"hexagon_bi","room_assignment":["grey","green","purple","blue","yellow","red"],"door_color_assignment":["white","black"],"door_generator_assignment":[1,0],"goal":4,"start":5,"action_noise":0.15,"location_history":"[5,0,5,4]","action_history":"[0,1,1]","door_history":"[1,0,0]","location_rts":"[1531,671,1034]","trial_type":"two-door-navigation","trial_index":16,"time_elapsed":418874,"internal_node_id":"0.0-2.0-14.0"},{"group":"hexagon_bi","room_assignment":["grey","green","purple","blue","yellow","red"],"door_color_assignment":["white","black"],"door_generator_assignment":[1,0],"goal":3,"start":4,"action_noise":0.15,"location_history":"[4,3]","action_history":"[0]","door_history":"[1]","location_rts":"[1704]","trial_type":"two-door-navigation","trial_index":17,"time_elapsed":425083,"internal_node_id":"0.0-2.0-15.0"},{"group":"hexagon_bi","room_assignment":["grey","green","purple","blue","yellow","red"],"door_color_assignment":["white","black"],"door_generator_assignment":[1,0],"goal":1,"start":3,"action_noise":0.15,"location_history":"[3,2,1]","action_history":"[1,0]","door_history":"[0,1]","location_rts":"[633,575]","trial_type":"two-door-navigation","trial_index":18,"time_elapsed":431795,"internal_node_id":"0.0-2.0-16.0"},{"group":"hexagon_bi","room_assignment":["grey","green","purple","blue","yellow","red"],"door_color_assignment":["white","black"],"door_generator_assignment":[1,0],"goal":5,"start":1,"action_noise":0.15,"location_history":"[1,0,5]","action_history":"[1,0]","door_history":"[0,1]","location_rts":"[489,582]","trial_type":"two-door-navigation","trial_index":19,"time_elapsed":438371,"internal_node_id":"0.0-2.0-17.0"},{"group":"hexagon_bi","room_assignment":["grey","green","purple","blue","yellow","red"],"door_color_assignment":["white","black"],"door_generator_assignment":[1,0],"goal":4,"start":5,"action_noise":0.15,"location_history":"[5,4]","action_history":"[1]","door_history":"[0]","location_rts":"[1665]","trial_type":"two-door-navigation","trial_index":20,"time_elapsed":444539,"internal_node_id":"0.0-2.0-18.0"},{"group":"hexagon_bi","room_assignment":["grey","green","purple","blue","yellow","red"],"door_color_assignment":["white","black"],"door_generator_assignment":[1,0],"goal":0,"start":4,"action_noise":0.15,"location_history":"[4,3,2,1,0]","action_history":"[0,1,0,1]","door_history":"[1,0,1,0]","location_rts":"[2292,1317,999,1016]","trial_type":"two-door-navigation","trial_index":21,"time_elapsed":457670,"internal_node_id":"0.0-2.0-19.0"},{"group":"hexagon_bi","room_assignment":["grey","green","purple","blue","yellow","red"],"door_color_assignment":["white","black"],"door_generator_assignment":[1,0],"goal":1,"start":0,"action_noise":0.15,"location_history":"[0,1]","action_history":"[0]","door_history":"[1]","location_rts":"[1123]","trial_type":"two-door-navigation","trial_index":22,"time_elapsed":463297,"internal_node_id":"0.0-2.0-20.0"},{"group":"hexagon_bi","room_assignment":["grey","green","purple","blue","yellow","red"],"door_color_assignment":["white","black"],"door_generator_assignment":[1,0],"goal":3,"start":1,"action_noise":0.15,"location_history":"[1,2,1,0,1,0,5,0,5,0,1,0,1,0,5,0,5,4,5,4,3]","action_history":"[1,0,1,1,1,0,0,0,1,0,1,1,0,0,0,0,1,1,1,0]","door_history":"[0,1,0,0,0,1,1,1,0,1,0,0,1,1,1,1,0,0,0,1]","location_rts":"[1033,637,837,879,682,637,774,616,498,1322,1550,907,864,1188,672,556,641,887,781,505]","trial_type":"two-door-navigation","trial_index":23,"time_elapsed":503306,"internal_node_id":"0.0-2.0-21.0"},{"group":"hexagon_bi","room_assignment":["grey","green","purple","blue","yellow","red"],"door_color_assignment":["white","black"],"door_generator_assignment":[1,0],"goal":2,"start":3,"action_noise":0.15,"location_history":"[3,2]","action_history":"[1]","door_history":"[0]","location_rts":"[1003]","trial_type":"two-door-navigation","trial_index":24,"time_elapsed":508812,"internal_node_id":"0.0-2.0-22.0"},{"group":"hexagon_bi","room_assignment":["grey","green","purple","blue","yellow","red"],"door_color_assignment":["white","black"],"door_generator_assignment":[1,0],"goal":0,"start":2,"action_noise":0.15,"location_history":"[2,1,0]","action_history":"[0,1]","door_history":"[1,0]","location_rts":"[2479,779]","trial_type":"two-door-navigation","trial_index":25,"time_elapsed":517573,"internal_node_id":"0.0-2.0-23.0"},{"group":"hexagon_bi","room_assignment":["grey","green","purple","blue","yellow","red"],"door_color_assignment":["white","black"],"door_generator_assignment":[1,0],"goal":3,"start":0,"action_noise":0.15,"location_history":"[0,5,4,3]","action_history":"[0,1,0]","door_history":"[1,0,1]","location_rts":"[1539,1038,1532]","trial_type":"two-door-navigation","trial_index":26,"time_elapsed":528191,"internal_node_id":"0.0-2.0-24.0"},{"group":"hexagon_bi","room_assignment":["grey","green","purple","blue","yellow","red"],"door_color_assignment":["white","black"],"door_generator_assignment":[1,0],"goal":1,"start":3,"action_noise":0.15,"location_history":"[3,4,5,0,1]","action_history":"[0,1,0,0]","door_history":"[1,0,1,1]","location_rts":"[735,2138,692,709]","trial_type":"two-door-navigation","trial_index":27,"time_elapsed":539971,"internal_node_id":"0.0-2.0-25.0"},{"group":"hexagon_bi","room_assignment":["grey","green","purple","blue","yellow","red"],"door_color_assignment":["white","black"],"door_generator_assignment":[1,0],"goal":2,"start":1,"action_noise":0.15,"location_history":"[1,2]","action_history":"[0]","door_history":"[1]","location_rts":"[674]","trial_type":"two-door-navigation","trial_index":28,"time_elapsed":545150,"internal_node_id":"0.0-2.0-26.0"},{"group":"hexagon_bi","room_assignment":["grey","green","purple","blue","yellow","red"],"door_color_assignment":["white","black"],"door_generator_assignment":[1,0],"goal":5,"start":2,"action_noise":0.15,"location_history":"[2,1,0,1,2,3,2,3,2,1,2,1,0,5]","action_history":"[0,1,1,0,1,0,0,1,1,0,0,1,0]","door_history":"[1,0,0,1,0,1,1,0,0,1,1,0,1]","location_rts":"[1059,621,528,1060,1200,796,1126,786,755,723,853,709,1075]","trial_type":"two-door-navigation","trial_index":29,"time_elapsed":572967,"internal_node_id":"0.0-2.0-27.0"},{"group":"hexagon_bi","room_assignment":["grey","green","purple","blue","yellow","red"],"door_color_assignment":["white","black"],"door_generator_assignment":[1,0],"goal":4,"start":5,"action_noise":0.15,"location_history":"[5,4]","action_history":"[1]","door_history":"[0]","location_rts":"[821]","trial_type":"two-door-navigation","trial_index":30,"time_elapsed":578293,"internal_node_id":"0.0-2.0-28.0"},{"group":"hexagon_bi","room_assignment":["grey","green","purple","blue","yellow","red"],"door_color_assignment":["white","black"],"door_generator_assignment":[1,0],"goal":5,"start":4,"action_noise":0.15,"location_history":"[4,3,2,1,0,1,2,1,2,1,0,1,0,5]","action_history":"[0,1,1,1,1,0,1,0,0,1,1,1,0]","door_history":"[1,0,0,0,0,1,0,1,1,0,0,0,1]","location_rts":"[807,993,1008,818,740,998,1323,1312,420,716,426,1227,334]","trial_type":"two-door-navigation","trial_index":31,"time_elapsed":605931,"internal_node_id":"0.0-2.0-29.0"},{"group":"hexagon_bi","room_assignment":["grey","green","purple","blue","yellow","red"],"door_color_assignment":["white","black"],"door_generator_assignment":[1,0],"goal":3,"start":5,"action_noise":0.15,"location_history":"[5,4,3]","action_history":"[1,0]","door_history":"[0,1]","location_rts":"[794,621]","trial_type":"two-door-navigation","trial_index":32,"time_elapsed":612856,"internal_node_id":"0.0-2.0-30.0"},{"group":"hexagon_bi","room_assignment":["grey","green","purple","blue","yellow","red"],"door_color_assignment":["white","black"],"door_generator_assignment":[1,0],"goal":0,"start":3,"action_noise":0.15,"location_history":"[3,4,5,4,3,2,1,0]","action_history":"[1,1,1,0,1,0,1]","door_history":"[0,0,0,1,0,1,0]","location_rts":"[949,755,630,358,412,828,453]","trial_type":"two-door-navigation","trial_index":33,"time_elapsed":627751,"internal_node_id":"0.0-2.0-31.0"},{"group":"hexagon_bi","room_assignment":["grey","green","purple","blue","yellow","red"],"door_color_assignment":["white","black"],"door_generator_assignment":[1,0],"goal":4,"start":0,"action_noise":0.15,"location_history":"[0,1,2,1,2,3,2,1,2,1,0,5,4]","action_history":"[1,0,1,0,1,1,0,0,0,1,0,0]","door_history":"[0,1,0,1,0,0,1,1,1,0,1,1]","location_rts":"[416,615,1217,859,751,408,1392,693,896,348,1182,941]","trial_type":"two-door-navigation","trial_index":34,"time_elapsed":652992,"internal_node_id":"0.0-2.0-32.0"},{"group":"hexagon_bi","room_assignment":["grey","green","purple","blue","yellow","red"],"door_color_assignment":["white","black"],"door_generator_assignment":[1,0],"goal":1,"start":4,"action_noise":0.15,"location_history":"[4,5,0,5,4,5,4,3,4,5,4,3,4,3,4,5,0,1]","action_history":"[1,0,0,1,1,0,1,0,1,1,0,0,0,1,1,0,1]","door_history":"[0,1,1,0,0,1,0,1,0,0,1,1,1,0,0,1,0]","location_rts":"[3376,592,558,890,1537,1606,928,726,1017,473,761,524,716,430,869,1217,1131]","trial_type":"two-door-navigation","trial_index":35,"time_elapsed":690882,"internal_node_id":"0.0-2.0-33.0"},{"group":"hexagon_bi","room_assignment":["grey","green","purple","blue","yellow","red"],"door_color_assignment":["white","black"],"door_generator_assignment":[1,0],"goal":2,"start":1,"action_noise":0.15,"location_history":"[1,0,1,2]","action_history":"[1,0,0]","door_history":"[0,1,1]","location_rts":"[455,589,700]","trial_type":"two-door-navigation","trial_index":36,"time_elapsed":699137,"internal_node_id":"0.0-2.0-34.0"},{"group":"hexagon_bi","room_assignment":["grey","green","purple","blue","yellow","red"],"door_color_assignment":["white","black"],"door_generator_assignment":[1,0],"goal":0,"start":2,"action_noise":0.15,"location_history":"[2,3,4,5,0]","action_history":"[1,0,1,0]","door_history":"[0,1,0,1]","location_rts":"[663,442,463,615]","trial_type":"two-door-navigation","trial_index":37,"time_elapsed":708828,"internal_node_id":"0.0-2.0-35.0"},{"group":"hexagon_bi","room_assignment":["grey","green","purple","blue","yellow","red"],"door_color_assignment":["white","black"],"door_generator_assignment":[1,0],"goal":5,"start":0,"action_noise":0.15,"location_history":"[0,1,2,1,0,5]","action_history":"[1,0,0,1,0]","door_history":"[0,1,1,0,1]","location_rts":"[875,467,506,348,1129]","trial_type":"two-door-navigation","trial_index":38,"time_elapsed":720665,"internal_node_id":"0.0-2.0-36.0"},{"group":"hexagon_bi","room_assignment":["grey","green","purple","blue","yellow","red"],"door_color_assignment":["white","black"],"door_generator_assignment":[1,0],"goal":2,"start":5,"action_noise":0.15,"location_history":"[5,4,3,2]","action_history":"[1,0,1]","door_history":"[0,1,0]","location_rts":"[787,706,775]","trial_type":"two-door-navigation","trial_index":39,"time_elapsed":729449,"internal_node_id":"0.0-2.0-37.0"},{"group":"hexagon_bi","room_assignment":["grey","green","purple","blue","yellow","red"],"door_color_assignment":["white","black"],"door_generator_assignment":[1,0],"goal":1,"start":2,"action_noise":0.15,"location_history":"[2,3,2,1]","action_history":"[1,0,0]","door_history":"[0,1,1]","location_rts":"[586,560,1537]","trial_type":"two-door-navigation","trial_index":40,"time_elapsed":738641,"internal_node_id":"0.0-2.0-38.0"},{"group":"hexagon_bi","room_assignment":["grey","green","purple","blue","yellow","red"],"door_color_assignment":["white","black"],"door_generator_assignment":[1,0],"goal":4,"start":1,"action_noise":0.15,"location_history":"[1,0,5,0,1,2,3,2,1,2,1,0,5,0,1,2,3,4]","action_history":"[1,0,0,1,0,1,1,0,0,0,1,0,0,1,0,1,1]","door_history":"[0,1,1,0,1,0,0,1,1,1,0,1,1,0,1,0,0]","location_rts":"[835,418,738,365,741,936,591,725,718,732,360,1300,849,734,982,1131,443]","trial_type":"two-door-navigation","trial_index":41,"time_elapsed":771756,"internal_node_id":"0.0-2.0-39.0"},{"group":"hexagon_bi","room_assignment":["grey","green","purple","blue","yellow","red"],"door_color_assignment":["white","black"],"door_generator_assignment":[1,0],"goal":3,"start":4,"action_noise":0.15,"location_history":"[4,3]","action_history":"[1]","door_history":"[0]","location_rts":"[808]","trial_type":"two-door-navigation","trial_index":42,"time_elapsed":777069,"internal_node_id":"0.0-2.0-40.0"},{"group":"hexagon_bi","room_assignment":["grey","green","purple","blue","yellow","red"],"door_color_assignment":["white","black"],"door_generator_assignment":[1,0],"goal":5,"start":3,"action_noise":0.15,"location_history":"[3,4,3,4,5]","action_history":"[0,1,0,1]","door_history":"[1,0,1,0]","location_rts":"[1845,716,841,618]","trial_type":"two-door-navigation","trial_index":43,"time_elapsed":788604,"internal_node_id":"0.0-2.0-41.0"},{"group":"hexagon_bi","room_assignment":["grey","green","purple","blue","yellow","red"],"door_color_assignment":["white","black"],"door_generator_assignment":[1,0],"goal":3,"start":5,"action_noise":0.15,"location_history":"[5,0,1,2,3]","action_history":"[0,1,0,1]","door_history":"[1,0,1,0]","location_rts":"[10110,724,620,1227]","trial_type":"two-door-navigation","trial_index":44,"time_elapsed":808793,"internal_node_id":"0.0-2.0-42.0"},{"group":"hexagon_bi","room_assignment":["grey","green","purple","blue","yellow","red"],"door_color_assignment":["white","black"],"door_generator_assignment":[1,0],"goal":0,"start":3,"action_noise":0.15,"location_history":"[3,2,3,2,3,2,1,0]","action_history":"[1,0,1,1,0,0,1]","door_history":"[0,1,0,0,1,1,0]","location_rts":"[3660,522,676,669,836,560,577]","trial_type":"two-door-navigation","trial_index":45,"time_elapsed":826819,"internal_node_id":"0.0-2.0-43.0"},{"group":"hexagon_bi","room_assignment":["grey","green","purple","blue","yellow","red"],"door_color_assignment":["white","black"],"door_generator_assignment":[1,0],"goal":2,"start":0,"action_noise":0.15,"location_history":"[0,5,0,1,2]","action_history":"[0,0,1,0]","door_history":"[1,1,0,1]","location_rts":"[5153,374,559,310]","trial_type":"two-door-navigation","trial_index":46,"time_elapsed":840721,"internal_node_id":"0.0-2.0-44.0"},{"group":"hexagon_bi","room_assignment":["grey","green","purple","blue","yellow","red"],"door_color_assignment":["white","black"],"door_generator_assignment":[1,0],"goal":4,"start":2,"action_noise":0.15,"location_history":"[2,1,0,1,2,1,2,3,4]","action_history":"[0,1,1,1,0,0,1,0]","door_history":"[1,0,0,0,1,1,0,1]","location_rts":"[16213,449,1072,1140,368,935,1603,778]","trial_type":"two-door-navigation","trial_index":47,"time_elapsed":874798,"internal_node_id":"0.0-2.0-45.0"},{"group":"hexagon_bi","room_assignment":["grey","green","purple","blue","yellow","red"],"door_color_assignment":["white","black"],"door_generator_assignment":[1,0],"goal":1,"start":4,"action_noise":0.15,"location_history":"[4,5,0,1]","action_history":"[1,0,1]","door_history":"[0,1,0]","location_rts":"[9423,530,959]","trial_type":"two-door-navigation","trial_index":48,"time_elapsed":892215,"internal_node_id":"0.0-2.0-46.0"},{"group":"hexagon_bi","room_assignment":["grey","green","purple","blue","yellow","red"],"door_color_assignment":["white","black"],"door_generator_assignment":[1,0],"goal":4,"start":1,"action_noise":0.15,"location_history":"[1,0,1,2,3,2,3,4]","action_history":"[1,1,0,0,1,1,0]","door_history":"[0,0,1,1,0,0,1]","location_rts":"[7866,1099,793,952,1429,1032,394]","trial_type":"two-door-navigation","trial_index":49,"time_elapsed":916292,"internal_node_id":"0.0-2.0-47.0"},{"group":"hexagon_bi","room_assignment":["grey","green","purple","blue","yellow","red"],"door_color_assignment":["white","black"],"door_generator_assignment":[1,0],"goal":3,"start":4,"action_noise":0.15,"location_history":"[4,3]","action_history":"[0]","door_history":"[1]","location_rts":"[17568]","trial_type":"two-door-navigation","trial_index":50,"time_elapsed":938364,"internal_node_id":"0.0-2.0-48.0"},{"group":"hexagon_bi","room_assignment":["grey","green","purple","blue","yellow","red"],"door_color_assignment":["white","black"],"door_generator_assignment":[1,0],"goal":5,"start":3,"action_noise":0.15,"location_history":"[3,4,3,2,1,0,1,2,3,4,3,4,3,4,3,2,1,2,3,2,3,2,3,4,5]","action_history":"[1,0,1,0,1,1,0,1,0,0,0,1,0,1,1,0,0,0,1,0,1,1,0,1]","door_history":"[0,1,0,1,0,0,1,0,1,1,1,0,1,0,0,1,1,1,0,1,0,0,1,0]","location_rts":"[2316,544,879,806,568,641,608,677,1141,668,597,325,1083,1053,459,1008,693,675,372,894,642,560,1122,1407]","trial_type":"two-door-navigation","trial_index":51,"time_elapsed":985651,"internal_node_id":"0.0-2.0-49.0"},{"view_history":"[{\"page_index\":0,\"viewing_time\":3443}]","rt":3444,"trial_type":"instructions","trial_index":52,"time_elapsed":990094,"internal_node_id":"0.0-3.0"},{"view_history":"[{\"page_index\":0,\"viewing_time\":44929},{\"page_index\":1,\"viewing_time\":17908}]","rt":62838,"trial_type":"instructions","trial_index":53,"time_elapsed":1053932,"internal_node_id":"0.0-4.0"},{"group":"hexagon_bi","fractal_assignment":["../images/gry_blk.png","../images/blu_wht.png","../images/cyn_red.png","../images/pnk_blu.png","../images/ylw_slt.png","../images/org_blu.png"],"mutagen_generator_assignment":[1,0],"goal":4,"start":0,"action_noise":0.15,"location_history":"[0,1,0,5,0,5,0,5,4]","action_history":"[1,0,0,1,0,0,1,1]","mutagen_history":"[0,1,1,0,1,1,0,0]","location_rts":"[6690,2420,1575,999,1713,2253,1194,1638]","trial_type":"fractal-mutation","trial_index":54,"time_elapsed":1084162,"internal_node_id":"0.0-5.0-0.0"},{"group":"hexagon_bi","fractal_assignment":["../images/gry_blk.png","../images/blu_wht.png","../images/cyn_red.png","../images/pnk_blu.png","../images/ylw_slt.png","../images/org_blu.png"],"mutagen_generator_assignment":[1,0],"goal":3,"start":4,"action_noise":0.15,"location_history":"[4,3]","action_history":"[0]","mutagen_history":"[1]","location_rts":"[1435]","trial_type":"fractal-mutation","trial_index":55,"time_elapsed":1090150,"internal_node_id":"0.0-5.0-1.0"},{"group":"hexagon_bi","fractal_assignment":["../images/gry_blk.png","../images/blu_wht.png","../images/cyn_red.png","../images/pnk_blu.png","../images/ylw_slt.png","../images/org_blu.png"],"mutagen_generator_assignment":[1,0],"goal":5,"start":3,"action_noise":0.15,"location_history":"[3,2,3,4,5]","action_history":"[1,1,0,1]","mutagen_history":"[0,0,1,0]","location_rts":"[751,911,708,1143]","trial_type":"fractal-mutation","trial_index":56,"time_elapsed":1101289,"internal_node_id":"0.0-5.0-2.0"},{"group":"hexagon_bi","fractal_assignment":["../images/gry_blk.png","../images/blu_wht.png","../images/cyn_red.png","../images/pnk_blu.png","../images/ylw_slt.png","../images/org_blu.png"],"mutagen_generator_assignment":[1,0],"goal":2,"start":5,"action_noise":0.15,"location_history":"[5,0,1,2]","action_history":"[0,0,0]","mutagen_history":"[1,1,1]","location_rts":"[455,723,800]","trial_type":"fractal-mutation","trial_index":57,"time_elapsed":1109875,"internal_node_id":"0.0-5.0-3.0"},{"group":"hexagon_bi","fractal_assignment":["../images/gry_blk.png","../images/blu_wht.png","../images/cyn_red.png","../images/pnk_blu.png","../images/ylw_slt.png","../images/org_blu.png"],"mutagen_generator_assignment":[1,0],"goal":1,"start":2,"action_noise":0.15,"location_history":"[2,3,2,3,4,5,0,1]","action_history":"[1,1,1,0,0,0,1]","mutagen_history":"[0,0,0,1,1,1,0]","location_rts":"[1441,1162,835,621,1079,1292,1106]","trial_type":"fractal-mutation","trial_index":58,"time_elapsed":1128079,"internal_node_id":"0.0-5.0-4.0"},{"group":"hexagon_bi","fractal_assignment":["../images/gry_blk.png","../images/blu_wht.png","../images/cyn_red.png","../images/pnk_blu.png","../images/ylw_slt.png","../images/org_blu.png"],"mutagen_generator_assignment":[1,0],"goal":4,"start":1,"action_noise":0.15,"location_history":"[1,2,1,2,1,2,3,4]","action_history":"[0,1,0,0,0,0,0]","mutagen_history":"[1,0,1,1,1,1,1]","location_rts":"[392,575,916,514,478,577,711]","trial_type":"fractal-mutation","trial_index":59,"time_elapsed":1142925,"internal_node_id":"0.0-5.0-5.0"},{"group":"hexagon_bi","fractal_assignment":["../images/gry_blk.png","../images/blu_wht.png","../images/cyn_red.png","../images/pnk_blu.png","../images/ylw_slt.png","../images/org_blu.png"],"mutagen_generator_assignment":[1,0],"goal":1,"start":4,"action_noise":0.15,"location_history":"[4,3,2,3,2,1]","action_history":"[0,1,1,1,0]","mutagen_history":"[1,0,0,0,1]","location_rts":"[688,508,792,550,781]","trial_type":"fractal-mutation","trial_index":60,"time_elapsed":1154853,"internal_node_id":"0.0-5.0-6.0"},{"group":"hexagon_bi","fractal_assignment":["../images/gry_blk.png","../images/blu_wht.png","../images/cyn_red.png","../images/pnk_blu.png","../images/ylw_slt.png","../images/org_blu.png"],"mutagen_generator_assignment":[1,0],"goal":5,"start":1,"action_noise":0.15,"location_history":"[1,0,1,2,3,4,5]","action_history":"[1,1,0,1,0,0]","mutagen_history":"[0,0,1,0,1,1]","location_rts":"[812,1239,668,758,567,611]","trial_type":"fractal-mutation","trial_index":61,"time_elapsed":1169141,"internal_node_id":"0.0-5.0-7.0"},{"group":"hexagon_bi","fractal_assignment":["../images/gry_blk.png","../images/blu_wht.png","../images/cyn_red.png","../images/pnk_blu.png","../images/ylw_slt.png","../images/org_blu.png"],"mutagen_generator_assignment":[1,0],"goal":0,"start":5,"action_noise":0.15,"location_history":"[5,0]","action_history":"[0]","mutagen_history":"[1]","location_rts":"[319]","trial_type":"fractal-mutation","trial_index":62,"time_elapsed":1173990,"internal_node_id":"0.0-5.0-8.0"},{"group":"hexagon_bi","fractal_assignment":["../images/gry_blk.png","../images/blu_wht.png","../images/cyn_red.png","../images/pnk_blu.png","../images/ylw_slt.png","../images/org_blu.png"],"mutagen_generator_assignment":[1,0],"goal":2,"start":0,"action_noise":0.15,"location_history":"[0,1,0,1,2]","action_history":"[1,1,1,0]","mutagen_history":"[0,0,0,1]","location_rts":"[311,486,487,385]","trial_type":"fractal-mutation","trial_index":63,"time_elapsed":1183228,"internal_node_id":"0.0-5.0-9.0"},{"group":"hexagon_bi","fractal_assignment":["../images/gry_blk.png","../images/blu_wht.png","../images/cyn_red.png","../images/pnk_blu.png","../images/ylw_slt.png","../images/org_blu.png"],"mutagen_generator_assignment":[1,0],"goal":3,"start":2,"action_noise":0.15,"location_history":"[2,3]","action_history":"[0]","mutagen_history":"[1]","location_rts":"[437]","trial_type":"fractal-mutation","trial_index":64,"time_elapsed":1188208,"internal_node_id":"0.0-5.0-10.0"},{"group":"hexagon_bi","fractal_assignment":["../images/gry_blk.png","../images/blu_wht.png","../images/cyn_red.png","../images/pnk_blu.png","../images/ylw_slt.png","../images/org_blu.png"],"mutagen_generator_assignment":[1,0],"goal":0,"start":3,"action_noise":0.15,"location_history":"[3,2,1,2,3,4,3,2,1,0]","action_history":"[1,1,0,0,0,0,1,1,1]","mutagen_history":"[0,0,1,1,1,1,0,0,0]","location_rts":"[1604,586,381,456,419,442,733,537,803]","trial_type":"fractal-mutation","trial_index":65,"time_elapsed":1206895,"internal_node_id":"0.0-5.0-11.0"},{"group":"hexagon_bi","fractal_assignment":["../images/gry_blk.png","../images/blu_wht.png","../images/cyn_red.png","../images/pnk_blu.png","../images/ylw_slt.png","../images/org_blu.png"],"mutagen_generator_assignment":[1,0],"goal":2,"start":0,"action_noise":0.15,"location_history":"[0,5,4,5,0,1,0,1,0,1,2]","action_history":"[0,1,1,0,1,1,1,0,1,0]","mutagen_history":"[1,0,0,1,0,0,0,1,0,1]","location_rts":"[609,1355,463,522,678,494,542,420,1027,727]","trial_type":"fractal-mutation","trial_index":66,"time_elapsed":1227456,"internal_node_id":"0.0-5.0-12.0"},{"group":"hexagon_bi","fractal_assignment":["../images/gry_blk.png","../images/blu_wht.png","../images/cyn_red.png","../images/pnk_blu.png","../images/ylw_slt.png","../images/org_blu.png"],"mutagen_generator_assignment":[1,0],"goal":5,"start":2,"action_noise":0.15,"location_history":"[2,3,4,3,4,5]","action_history":"[1,0,0,0,1]","mutagen_history":"[0,1,1,1,0]","location_rts":"[310,896,436,508,592]","trial_type":"fractal-mutation","trial_index":67,"time_elapsed":1238829,"internal_node_id":"0.0-5.0-13.0"},{"group":"hexagon_bi","fractal_assignment":["../images/gry_blk.png","../images/blu_wht.png","../images/cyn_red.png","../images/pnk_blu.png","../images/ylw_slt.png","../images/org_blu.png"],"mutagen_generator_assignment":[1,0],"goal":4,"start":5,"action_noise":0.15,"location_history":"[5,0,5,0,5,4]","action_history":"[1,0,0,0,1]","mutagen_history":"[0,1,1,1,0]","location_rts":"[867,443,506,772,488]","trial_type":"fractal-mutation","trial_index":68,"time_elapsed":1250570,"internal_node_id":"0.0-5.0-14.0"},{"group":"hexagon_bi","fractal_assignment":["../images/gry_blk.png","../images/blu_wht.png","../images/cyn_red.png","../images/pnk_blu.png","../images/ylw_slt.png","../images/org_blu.png"],"mutagen_generator_assignment":[1,0],"goal":3,"start":4,"action_noise":0.15,"location_history":"[4,5,4,3]","action_history":"[0,1,0]","mutagen_history":"[1,0,1]","location_rts":"[452,637,456]","trial_type":"fractal-mutation","trial_index":69,"time_elapsed":1258709,"internal_node_id":"0.0-5.0-15.0"},{"group":"hexagon_bi","fractal_assignment":["../images/gry_blk.png","../images/blu_wht.png","../images/cyn_red.png","../images/pnk_blu.png","../images/ylw_slt.png","../images/org_blu.png"],"mutagen_generator_assignment":[1,0],"goal":1,"start":3,"action_noise":0.15,"location_history":"[3,4,5,4,3,2,3,2,3,4,5,0,5,4,3,4,5,0,5,0,1]","action_history":"[0,1,1,0,1,1,1,1,0,1,0,1,1,0,1,1,0,0,0,1]","mutagen_history":"[1,0,0,1,0,0,0,0,1,0,1,0,0,1,0,0,1,1,1,0]","location_rts":"[559,331,482,620,374,668,884,762,484,478,638,1049,894,879,1046,738,626,943,742,376]","trial_type":"fractal-mutation","trial_index":70,"time_elapsed":1296238,"internal_node_id":"0.0-5.0-16.0"},{"group":"hexagon_bi","fractal_assignment":["../images/gry_blk.png","../images/blu_wht.png","../images/cyn_red.png","../images/pnk_blu.png","../images/ylw_slt.png","../images/org_blu.png"],"mutagen_generator_assignment":[1,0],"goal":5,"start":1,"action_noise":0.15,"location_history":"[1,0,5]","action_history":"[1,0]","mutagen_history":"[0,1]","location_rts":"[511,798]","trial_type":"fractal-mutation","trial_index":71,"time_elapsed":1303093,"internal_node_id":"0.0-5.0-17.0"},{"group":"hexagon_bi","fractal_assignment":["../images/gry_blk.png","../images/blu_wht.png","../images/cyn_red.png","../images/pnk_blu.png","../images/ylw_slt.png","../images/org_blu.png"],"mutagen_generator_assignment":[1,0],"goal":4,"start":5,"action_noise":0.15,"location_history":"[5,4]","action_history":"[1]","mutagen_history":"[0]","location_rts":"[20990]","trial_type":"fractal-mutation","trial_index":72,"time_elapsed":1328609,"internal_node_id":"0.0-5.0-18.0"},{"group":"hexagon_bi","fractal_assignment":["../images/gry_blk.png","../images/blu_wht.png","../images/cyn_red.png","../images/pnk_blu.png","../images/ylw_slt.png","../images/org_blu.png"],"mutagen_generator_assignment":[1,0],"goal":0,"start":4,"action_noise":0.15,"location_history":"[4,5,0]","action_history":"[1,0]","mutagen_history":"[0,1]","location_rts":"[1037,403]","trial_type":"fractal-mutation","trial_index":73,"time_elapsed":1335586,"internal_node_id":"0.0-5.0-19.0"},{"group":"hexagon_bi","fractal_assignment":["../images/gry_blk.png","../images/blu_wht.png","../images/cyn_red.png","../images/pnk_blu.png","../images/ylw_slt.png","../images/org_blu.png"],"mutagen_generator_assignment":[1,0],"goal":1,"start":0,"action_noise":0.15,"location_history":"[0,1]","action_history":"[1]","mutagen_history":"[0]","location_rts":"[3669]","trial_type":"fractal-mutation","trial_index":74,"time_elapsed":1343766,"internal_node_id":"0.0-5.0-20.0"},{"group":"hexagon_bi","fractal_assignment":["../images/gry_blk.png","../images/blu_wht.png","../images/cyn_red.png","../images/pnk_blu.png","../images/ylw_slt.png","../images/org_blu.png"],"mutagen_generator_assignment":[1,0],"goal":3,"start":1,"action_noise":0.15,"location_history":"[1,2,3]","action_history":"[0,1]","mutagen_history":"[1,0]","location_rts":"[1167,618]","trial_type":"fractal-mutation","trial_index":75,"time_elapsed":1351092,"internal_node_id":"0.0-5.0-21.0"},{"group":"hexagon_bi","fractal_assignment":["../images/gry_blk.png","../images/blu_wht.png","../images/cyn_red.png","../images/pnk_blu.png","../images/ylw_slt.png","../images/org_blu.png"],"mutagen_generator_assignment":[1,0],"goal":2,"start":3,"action_noise":0.15,"location_history":"[3,2]","action_history":"[0]","mutagen_history":"[1]","location_rts":"[650]","trial_type":"fractal-mutation","trial_index":76,"time_elapsed":1356276,"internal_node_id":"0.0-5.0-22.0"},{"group":"hexagon_bi","fractal_assignment":["../images/gry_blk.png","../images/blu_wht.png","../images/cyn_red.png","../images/pnk_blu.png","../images/ylw_slt.png","../images/org_blu.png"],"mutagen_generator_assignment":[1,0],"goal":0,"start":2,"action_noise":0.15,"location_history":"[2,3,2,1,2,3,4,5,4,3,4,3,2,1,2,1,2,3,2,1,0]","action_history":"[1,0,0,0,1,0,0,1,0,0,1,1,0,1,0,0,1,1,0,0]","mutagen_history":"[0,1,1,1,0,1,1,0,1,1,0,0,1,0,1,1,0,0,1,1]","location_rts":"[25813,1849,738,1150,651,461,1162,750,468,844,435,321,462,852,650,450,707,727,606,423]","trial_type":"fractal-mutation","trial_index":77,"time_elapsed":1419802,"internal_node_id":"0.0-5.0-23.0"},{"group":"hexagon_bi","fractal_assignment":["../images/gry_blk.png","../images/blu_wht.png","../images/cyn_red.png","../images/pnk_blu.png","../images/ylw_slt.png","../images/org_blu.png"],"mutagen_generator_assignment":[1,0],"goal":3,"start":0,"action_noise":0.15,"location_history":"[0,5,0,5,4,5,4,3]","action_history":"[0,0,1,0,1,1,0]","mutagen_history":"[1,1,0,1,0,0,1]","location_rts":"[42869,1067,419,542,453,549,735]","trial_type":"fractal-mutation","trial_index":78,"time_elapsed":1477119,"internal_node_id":"0.0-5.0-24.0"},{"group":"hexagon_bi","fractal_assignment":["../images/gry_blk.png","../images/blu_wht.png","../images/cyn_red.png","../images/pnk_blu.png","../images/ylw_slt.png","../images/org_blu.png"],"mutagen_generator_assignment":[1,0],"goal":1,"start":3,"action_noise":0.15,"location_history":"[3,4,5,0,5,0,5,0,1]","action_history":"[0,1,1,0,1,0,0,1]","mutagen_history":"[1,0,0,1,0,1,1,0]","location_rts":"[900,452,442,395,655,513,303,796]","trial_type":"fractal-mutation","trial_index":79,"time_elapsed":1493274,"internal_node_id":"0.0-5.0-25.0"},{"group":"hexagon_bi","fractal_assignment":["../images/gry_blk.png","../images/blu_wht.png","../images/cyn_red.png","../images/pnk_blu.png","../images/ylw_slt.png","../images/org_blu.png"],"mutagen_generator_assignment":[1,0],"goal":2,"start":1,"action_noise":0.15,"location_history":"[1,2]","action_history":"[0]","mutagen_history":"[1]","location_rts":"[590]","trial_type":"fractal-mutation","trial_index":80,"time_elapsed":1498395,"internal_node_id":"0.0-5.0-26.0"},{"group":"hexagon_bi","fractal_assignment":["../images/gry_blk.png","../images/blu_wht.png","../images/cyn_red.png","../images/pnk_blu.png","../images/ylw_slt.png","../images/org_blu.png"],"mutagen_generator_assignment":[1,0],"goal":5,"start":2,"action_noise":0.15,"location_history":"[2,3,4,3,4,3,2,3,4,3,2,1,0,5]","action_history":"[1,0,0,0,1,1,1,0,0,1,0,1,0]","mutagen_history":"[0,1,1,1,0,0,0,1,1,0,1,0,1]","location_rts":"[867,851,557,625,274,644,727,1280,560,591,922,1273,804]","trial_type":"fractal-mutation","trial_index":81,"time_elapsed":1525178,"internal_node_id":"0.0-5.0-27.0"},{"group":"hexagon_bi","fractal_assignment":["../images/gry_blk.png","../images/blu_wht.png","../images/cyn_red.png","../images/pnk_blu.png","../images/ylw_slt.png","../images/org_blu.png"],"mutagen_generator_assignment":[1,0],"goal":4,"start":5,"action_noise":0.15,"location_history":"[5,4]","action_history":"[1]","mutagen_history":"[0]","location_rts":"[805]","trial_type":"fractal-mutation","trial_index":82,"time_elapsed":1530509,"internal_node_id":"0.0-5.0-28.0"},{"group":"hexagon_bi","fractal_assignment":["../images/gry_blk.png","../images/blu_wht.png","../images/cyn_red.png","../images/pnk_blu.png","../images/ylw_slt.png","../images/org_blu.png"],"mutagen_generator_assignment":[1,0],"goal":5,"start":4,"action_noise":0.15,"location_history":"[4,3,4,5]","action_history":"[0,1,1]","mutagen_history":"[1,0,0]","location_rts":"[571,506,1023]","trial_type":"fractal-mutation","trial_index":83,"time_elapsed":1539164,"internal_node_id":"0.0-5.0-29.0"},{"group":"hexagon_bi","fractal_assignment":["../images/gry_blk.png","../images/blu_wht.png","../images/cyn_red.png","../images/pnk_blu.png","../images/ylw_slt.png","../images/org_blu.png"],"mutagen_generator_assignment":[1,0],"goal":3,"start":5,"action_noise":0.15,"location_history":"[5,4,3]","action_history":"[1,0]","mutagen_history":"[0,1]","location_rts":"[1491,674]","trial_type":"fractal-mutation","trial_index":84,"time_elapsed":1546869,"internal_node_id":"0.0-5.0-30.0"},{"group":"hexagon_bi","fractal_assignment":["../images/gry_blk.png","../images/blu_wht.png","../images/cyn_red.png","../images/pnk_blu.png","../images/ylw_slt.png","../images/org_blu.png"],"mutagen_generator_assignment":[1,0],"goal":0,"start":3,"action_noise":0.15,"location_history":"[3,2,1,2,1,2,3,2,1,2,3,2,1,2,1,2,3,2,1,2,3,2,3,4,5,0]","action_history":"[1,0,0,0,1,1,1,0,1,0,1,0,0,0,0,1,0,0,0,1,1,1,0,1,0]","mutagen_history":"[0,1,1,1,0,0,0,1,0,1,0,1,1,1,1,0,1,1,1,0,0,0,1,0,1]","location_rts":"[1040,713,849,576,1224,753,837,431,1052,1557,1088,681,430,534,560,933,719,907,1012,849,879,1321,641,1107,658]","trial_type":"fractal-mutation","trial_index":85,"time_elapsed":1597322,"internal_node_id":"0.0-5.0-31.0"},{"group":"hexagon_bi","fractal_assignment":["../images/gry_blk.png","../images/blu_wht.png","../images/cyn_red.png","../images/pnk_blu.png","../images/ylw_slt.png","../images/org_blu.png"],"mutagen_generator_assignment":[1,0],"goal":4,"start":0,"action_noise":0.15,"location_history":"[0,5,4]","action_history":"[0,1]","mutagen_history":"[1,0]","location_rts":"[955,560]","trial_type":"fractal-mutation","trial_index":86,"time_elapsed":1604379,"internal_node_id":"0.0-5.0-32.0"},{"group":"hexagon_bi","fractal_assignment":["../images/gry_blk.png","../images/blu_wht.png","../images/cyn_red.png","../images/pnk_blu.png","../images/ylw_slt.png","../images/org_blu.png"],"mutagen_generator_assignment":[1,0],"goal":1,"start":4,"action_noise":0.15,"location_history":"[4,3,4,5,4,3,4,3,2,1]","action_history":"[1,0,1,1,0,0,0,1,0]","mutagen_history":"[0,1,0,0,1,1,1,0,1]","location_rts":"[1472,1169,763,737,549,633,746,424,862]","trial_type":"fractal-mutation","trial_index":87,"time_elapsed":1624461,"internal_node_id":"0.0-5.0-33.0"},{"group":"hexagon_bi","fractal_assignment":["../images/gry_blk.png","../images/blu_wht.png","../images/cyn_red.png","../images/pnk_blu.png","../images/ylw_slt.png","../images/org_blu.png"],"mutagen_generator_assignment":[1,0],"goal":2,"start":1,"action_noise":0.15,"location_history":"[1,0,5,4,3,4,5,0,1,2]","action_history":"[1,0,1,0,0,1,0,1,0]","mutagen_history":"[0,1,0,1,1,0,1,0,1]","location_rts":"[1046,658,628,1155,836,400,983,644,888]","trial_type":"fractal-mutation","trial_index":88,"time_elapsed":1644433,"internal_node_id":"0.0-5.0-34.0"},{"group":"hexagon_bi","fractal_assignment":["../images/gry_blk.png","../images/blu_wht.png","../images/cyn_red.png","../images/pnk_blu.png","../images/ylw_slt.png","../images/org_blu.png"],"mutagen_generator_assignment":[1,0],"goal":0,"start":2,"action_noise":0.15,"location_history":"[2,1,0]","action_history":"[0,1]","mutagen_history":"[1,0]","location_rts":"[653,448]","trial_type":"fractal-mutation","trial_index":89,"time_elapsed":1651083,"internal_node_id":"0.0-5.0-35.0"},{"group":"hexagon_bi","fractal_assignment":["../images/gry_blk.png","../images/blu_wht.png","../images/cyn_red.png","../images/pnk_blu.png","../images/ylw_slt.png","../images/org_blu.png"],"mutagen_generator_assignment":[1,0],"goal":5,"start":0,"action_noise":0.15,"location_history":"[0,5]","action_history":"[1]","mutagen_history":"[0]","location_rts":"[846]","trial_type":"fractal-mutation","trial_index":90,"time_elapsed":1656445,"internal_node_id":"0.0-5.0-36.0"},{"group":"hexagon_bi","fractal_assignment":["../images/gry_blk.png","../images/blu_wht.png","../images/cyn_red.png","../images/pnk_blu.png","../images/ylw_slt.png","../images/org_blu.png"],"mutagen_generator_assignment":[1,0],"goal":2,"start":5,"action_noise":0.15,"location_history":"[5,0,1,0,1,2]","action_history":"[0,1,1,0,0]","mutagen_history":"[1,0,0,1,1]","location_rts":"[724,658,1154,966,959]","trial_type":"fractal-mutation","trial_index":91,"time_elapsed":1669534,"internal_node_id":"0.0-5.0-37.0"},{"group":"hexagon_bi","fractal_assignment":["../images/gry_blk.png","../images/blu_wht.png","../images/cyn_red.png","../images/pnk_blu.png","../images/ylw_slt.png","../images/org_blu.png"],"mutagen_generator_assignment":[1,0],"goal":1,"start":2,"action_noise":0.15,"location_history":"[2,3,4,5,0,5,4,3,2,1]","action_history":"[1,0,1,0,0,1,0,1,0]","mutagen_history":"[0,1,0,1,1,0,1,0,1]","location_rts":"[1221,914,1391,799,1376,990,681,1327,768]","trial_type":"fractal-mutation","trial_index":92,"time_elapsed":1691738,"internal_node_id":"0.0-5.0-38.0"},{"group":"hexagon_bi","fractal_assignment":["../images/gry_blk.png","../images/blu_wht.png","../images/cyn_red.png","../images/pnk_blu.png","../images/ylw_slt.png","../images/org_blu.png"],"mutagen_generator_assignment":[1,0],"goal":4,"start":1,"action_noise":0.15,"location_history":"[1,2,1,2,3,4]","action_history":"[1,0,0,1,1]","mutagen_history":"[0,1,1,0,0]","location_rts":"[464,442,1012,959,1000]","trial_type":"fractal-mutation","trial_index":93,"time_elapsed":1704209,"internal_node_id":"0.0-5.0-39.0"},{"group":"hexagon_bi","fractal_assignment":["../images/gry_blk.png","../images/blu_wht.png","../images/cyn_red.png","../images/pnk_blu.png","../images/ylw_slt.png","../images/org_blu.png"],"mutagen_generator_assignment":[1,0],"goal":3,"start":4,"action_noise":0.15,"location_history":"[4,3]","action_history":"[0]","mutagen_history":"[1]","location_rts":"[657]","trial_type":"fractal-mutation","trial_index":94,"time_elapsed":1709401,"internal_node_id":"0.0-5.0-40.0"},{"group":"hexagon_bi","fractal_assignment":["../images/gry_blk.png","../images/blu_wht.png","../images/cyn_red.png","../images/pnk_blu.png","../images/ylw_slt.png","../images/org_blu.png"],"mutagen_generator_assignment":[1,0],"goal":5,"start":3,"action_noise":0.15,"location_history":"[3,2,1,2,1,2,3,2,1,2,3,2,1,2,1,0,1,2,3,4,3,4,5]","action_history":"[1,0,0,1,0,1,1,0,0,1,1,0,0,0,1,1,0,1,0,1,0,1]","mutagen_history":"[0,1,1,0,1,0,0,1,1,0,0,1,1,1,0,0,1,0,1,0,1,0]","location_rts":"[556,925,1487,1827,802,1230,962,583,531,609,548,770,1395,1566,493,798,733,753,705,660,719,995]","trial_type":"fractal-mutation","trial_index":95,"time_elapsed":1755064,"internal_node_id":"0.0-5.0-41.0"},{"group":"hexagon_bi","fractal_assignment":["../images/gry_blk.png","../images/blu_wht.png","../images/cyn_red.png","../images/pnk_blu.png","../images/ylw_slt.png","../images/org_blu.png"],"mutagen_generator_assignment":[1,0],"goal":3,"start":5,"action_noise":0.15,"location_history":"[5,4,3]","action_history":"[1,0]","mutagen_history":"[0,1]","location_rts":"[1837,547]","trial_type":"fractal-mutation","trial_index":96,"time_elapsed":1762988,"internal_node_id":"0.0-5.0-42.0"},{"group":"hexagon_bi","fractal_assignment":["../images/gry_blk.png","../images/blu_wht.png","../images/cyn_red.png","../images/pnk_blu.png","../images/ylw_slt.png","../images/org_blu.png"],"mutagen_generator_assignment":[1,0],"goal":0,"start":3,"action_noise":0.15,"location_history":"[3,4,5,4,5,4,5,0]","action_history":"[0,1,1,0,1,1,0]","mutagen_history":"[1,0,0,1,0,0,1]","location_rts":"[6656,518,629,370,617,965,636]","trial_type":"fractal-mutation","trial_index":97,"time_elapsed":1784031,"internal_node_id":"0.0-5.0-43.0"},{"group":"hexagon_bi","fractal_assignment":["../images/gry_blk.png","../images/blu_wht.png","../images/cyn_red.png","../images/pnk_blu.png","../images/ylw_slt.png","../images/org_blu.png"],"mutagen_generator_assignment":[1,0],"goal":2,"start":0,"action_noise":0.15,"location_history":"[0,1,2]","action_history":"[1,0]","mutagen_history":"[0,1]","location_rts":"[610,608]","trial_type":"fractal-mutation","trial_index":98,"time_elapsed":1790792,"internal_node_id":"0.0-5.0-44.0"},{"group":"hexagon_bi","fractal_assignment":["../images/gry_blk.png","../images/blu_wht.png","../images/cyn_red.png","../images/pnk_blu.png","../images/ylw_slt.png","../images/org_blu.png"],"mutagen_generator_assignment":[1,0],"goal":4,"start":2,"action_noise":0.15,"location_history":"[2,1,0,5,4]","action_history":"[0,1,0,1]","mutagen_history":"[1,0,1,0]","location_rts":"[1111,491,598,680]","trial_type":"fractal-mutation","trial_index":99,"time_elapsed":1801281,"internal_node_id":"0.0-5.0-45.0"},{"group":"hexagon_bi","fractal_assignment":["../images/gry_blk.png","../images/blu_wht.png","../images/cyn_red.png","../images/pnk_blu.png","../images/ylw_slt.png","../images/org_blu.png"],"mutagen_generator_assignment":[1,0],"goal":1,"start":4,"action_noise":0.15,"location_history":"[4,5,4,3,4,3,4,5,4,5,0,1]","action_history":"[1,1,0,1,0,0,1,1,1,0,1]","mutagen_history":"[0,0,1,0,1,1,0,0,0,1,0]","location_rts":"[969,583,747,747,1240,595,465,705,677,288,824]","trial_type":"fractal-mutation","trial_index":100,"time_elapsed":1823874,"internal_node_id":"0.0-5.0-46.0"},{"group":"hexagon_bi","fractal_assignment":["../images/gry_blk.png","../images/blu_wht.png","../images/cyn_red.png","../images/pnk_blu.png","../images/ylw_slt.png","../images/org_blu.png"],"mutagen_generator_assignment":[1,0],"goal":4,"start":1,"action_noise":0.15,"location_history":"[1,0,5,4]","action_history":"[1,0,1]","mutagen_history":"[0,1,0]","location_rts":"[703,449,563]","trial_type":"fractal-mutation","trial_index":101,"time_elapsed":1832144,"internal_node_id":"0.0-5.0-47.0"},{"group":"hexagon_bi","fractal_assignment":["../images/gry_blk.png","../images/blu_wht.png","../images/cyn_red.png","../images/pnk_blu.png","../images/ylw_slt.png","../images/org_blu.png"],"mutagen_generator_assignment":[1,0],"goal":3,"start":4,"action_noise":0.15,"location_history":"[4,3]","action_history":"[0]","mutagen_history":"[1]","location_rts":"[697]","trial_type":"fractal-mutation","trial_index":102,"time_elapsed":1837373,"internal_node_id":"0.0-5.0-48.0"},{"group":"hexagon_bi","fractal_assignment":["../images/gry_blk.png","../images/blu_wht.png","../images/cyn_red.png","../images/pnk_blu.png","../images/ylw_slt.png","../images/org_blu.png"],"mutagen_generator_assignment":[1,0],"goal":5,"start":3,"action_noise":0.15,"location_history":"[3,2,3,4,5]","action_history":"[1,1,0,1]","mutagen_history":"[0,0,1,0]","location_rts":"[761,771,615,478]","trial_type":"fractal-mutation","trial_index":103,"time_elapsed":1847590,"internal_node_id":"0.0-5.0-49.0"},{"view_history":"[{\"page_index\":0,\"viewing_time\":10209}]","rt":10210,"trial_type":"instructions","trial_index":104,"time_elapsed":1858801,"internal_node_id":"0.0-6.0"},{"rt":6133,"responses":"{\"Q0\":\"this was interesting \"}","trial_type":"survey-text","trial_index":105,"time_elapsed":1865947,"internal_node_id":"0.0-7.0"}]