[{"view_history":"[{\"page_index\":0,\"viewing_time\":75189},{\"page_index\":1,\"viewing_time\":20560},{\"page_index\":2,\"viewing_time\":18051},{\"page_index\":3,\"viewing_time\":11296}]","rt":125096,"trial_type":"instructions","trial_index":0,"time_elapsed":125099,"internal_node_id":"0.0-0.0"},{"view_history":"[{\"page_index\":0,\"viewing_time\":2706},{\"page_index\":1,\"viewing_time\":27194}]","rt":29902,"trial_type":"instructions","trial_index":1,"time_elapsed":156003,"internal_node_id":"0.0-1.0"},{"group":"hexagon_bi","room_assignment":["purple","yellow","red","blue","green","grey"],"door_color_assignment":["white","black"],"door_generator_assignment":[0,1],"goal":4,"start":0,"action_noise":0.15,"location_history":"[0,5,4]","action_history":"[0,0]","door_history":"[0,0]","location_rts":"[9696,2479]","trial_type":"two-door-navigation","trial_index":2,"time_elapsed":173734,"internal_node_id":"0.0-2.0-0.0"},{"group":"hexagon_bi","room_assignment":["purple","yellow","red","blue","green","grey"],"door_color_assignment":["white","black"],"door_generator_assignment":[0,1],"goal":3,"start":4,"action_noise":0.15,"location_history":"[4,3]","action_history":"[0]","door_history":"[0]","location_rts":"[3119]","trial_type":"two-door-navigation","trial_index":3,"time_elapsed":181370,"internal_node_id":"0.0-2.0-1.0"},{"group":"hexagon_bi","room_assignment":["purple","yellow","red","blue","green","grey"],"door_color_assignment":["white","black"],"door_generator_assignment":[0,1],"goal":5,"start":3,"action_noise":0.15,"location_history":"[3,4,3,4,3,2,3,2,3,2,3,4,3,2,3,2,1,2,1,0,1,2,3,4,3,2,3,4,5]","action_history":"[0,0,0,0,1,1,1,1,1,1,0,0,1,1,1,0,0,0,1,1,1,1,0,0,0,0,0,1]","door_history":"[0,0,0,0,1,1,1,1,1,1,0,0,1,1,1,0,0,0,1,1,1,1,0,0,0,0,0,1]","location_rts":"[2135,919,699,786,1228,812,793,791,765,684,2423,787,1199,4131,1267,2737,1909,1096,2290,1820,1733,1015,1350,2642,850,682,756,2208]","trial_type":"two-door-navigation","trial_index":4,"time_elapsed":253700,"internal_node_id":"0.0-2.0-2.0"},{"group":"hexagon_bi","room_assignment":["purple","yellow","red","blue","green","grey"],"door_color_assignment":["white","black"],"door_generator_assignment":[0,1],"goal":2,"start":5,"action_noise":0.15,"location_history":"[5,0,5,4,3,2]","action_history":"[0,0,1,1,1]","door_history":"[0,0,1,1,1]","location_rts":"[2754,873,1965,667,791]","trial_type":"two-door-navigation","trial_index":5,"time_elapsed":269306,"internal_node_id":"0.0-2.0-3.0"},{"group":"hexagon_bi","room_assignment":["purple","yellow","red","blue","green","grey"],"door_color_assignment":["white","black"],"door_generator_assignment":[0,1],"goal":1,"start":2,"action_noise":0.15,"location_history":"[2,1]","action_history":"[0]","door_history":"[0]","location_rts":"[3252]","trial_type":"two-door-navigation","trial_index":6,"time_elapsed":277069,"internal_node_id":"0.0-2.0-4.0"},{"group":"hexagon_bi","room_assignment":["purple","yellow","red","blue","green","grey"],"door_color_assignment":["white","black"],"door_generator_assignment":[0,1],"goal":4,"start":1,"action_noise":0.15,"location_history":"[1,2,3,4]","action_history":"[0,0,0]","door_history":"[0,0,0]","location_rts":"[1902,1100,587]","trial_type":"two-door-navigation","trial_index":7,"time_elapsed":287196,"internal_node_id":"0.0-2.0-5.0"},{"group":"hexagon_bi","room_assignment":["purple","yellow","red","blue","green","grey"],"door_color_assignment":["white","black"],"door_generator_assignment":[0,1],"goal":1,"start":4,"action_noise":0.15,"location_history":"[4,3,4,5,4,5,0,5,0,5,4,5,0,1]","action_history":"[0,0,1,1,1,0,0,0,0,1,1,0,1]","door_history":"[0,0,1,1,1,0,0,0,0,1,1,0,1]","location_rts":"[1452,518,1091,574,587,1263,728,1276,1767,1955,577,541,1411]","trial_type":"two-door-navigation","trial_index":8,"time_elapsed":317575,"internal_node_id":"0.0-2.0-6.0"},{"group":"hexagon_bi","room_assignment":["purple","yellow","red","blue","green","grey"],"door_color_assignment":["white","black"],"door_generator_assignment":[0,1],"goal":5,"start":1,"action_noise":0.15,"location_history":"[1,2,3,2,1,0,1,2,3,2,1,2,3,2,3,2,1,0,5]","action_history":"[1,1,1,0,0,0,1,1,0,0,0,1,0,1,1,0,1,1]","door_history":"[1,1,1,0,0,0,1,1,0,0,0,1,0,1,1,0,1,1]","location_rts":"[2289,556,793,1024,952,768,1954,842,1293,1252,1301,3942,2819,1522,478,1712,2015,911]","trial_type":"two-door-navigation","trial_index":9,"time_elapsed":365714,"internal_node_id":"0.0-2.0-7.0"},{"group":"hexagon_bi","room_assignment":["purple","yellow","red","blue","green","grey"],"door_color_assignment":["white","black"],"door_generator_assignment":[0,1],"goal":0,"start":5,"action_noise":0.15,"location_history":"[5,0]","action_history":"[0]","door_history":"[0]","location_rts":"[2490]","trial_type":"two-door-navigation","trial_index":10,"time_elapsed":372720,"internal_node_id":"0.0-2.0-8.0"},{"group":"hexagon_bi","room_assignment":["purple","yellow","red","blue","green","grey"],"door_color_assignment":["white","black"],"door_generator_assignment":[0,1],"goal":2,"start":0,"action_noise":0.15,"location_history":"[0,5,0,1,2]","action_history":"[0,0,1,1]","door_history":"[0,0,1,1]","location_rts":"[2510,816,996,1243]","trial_type":"two-door-navigation","trial_index":11,"time_elapsed":385839,"internal_node_id":"0.0-2.0-9.0"},{"group":"hexagon_bi","room_assignment":["purple","yellow","red","blue","green","grey"],"door_color_assignment":["white","black"],"door_generator_assignment":[0,1],"goal":3,"start":2,"action_noise":0.15,"location_history":"[2,1,2,3]","action_history":"[0,0,1]","door_history":"[0,0,1]","location_rts":"[4303,1644,1340]","trial_type":"two-door-navigation","trial_index":12,"time_elapsed":399661,"internal_node_id":"0.0-2.0-10.0"},{"group":"hexagon_bi","room_assignment":["purple","yellow","red","blue","green","grey"],"door_color_assignment":["white","black"],"door_generator_assignment":[0,1],"goal":0,"start":3,"action_noise":0.15,"location_history":"[3,2,3,4,3,2,3,2,1,0]","action_history":"[1,1,0,0,0,1,0,0,1]","door_history":"[1,1,0,0,0,1,0,0,1]","location_rts":"[2147,1036,1080,1816,1359,322,1702,731,1609]","trial_type":"two-door-navigation","trial_index":13,"time_elapsed":424076,"internal_node_id":"0.0-2.0-11.0"},{"group":"hexagon_bi","room_assignment":["purple","yellow","red","blue","green","grey"],"door_color_assignment":["white","black"],"door_generator_assignment":[0,1],"goal":2,"start":0,"action_noise":0.15,"location_history":"[0,1,0,5,0,5,4,5,4,3,4,3,2]","action_history":"[1,1,0,0,0,1,1,1,0,0,0,1]","door_history":"[1,1,0,0,0,1,1,1,0,0,0,1]","location_rts":"[2612,965,1216,747,621,991,831,890,549,827,1022,542]","trial_type":"two-door-navigation","trial_index":14,"time_elapsed":451514,"internal_node_id":"0.0-2.0-12.0"},{"group":"hexagon_bi","room_assignment":["purple","yellow","red","blue","green","grey"],"door_color_assignment":["white","black"],"door_generator_assignment":[0,1],"goal":5,"start":2,"action_noise":0.15,"location_history":"[2,1,0,1,2,1,0,5]","action_history":"[1,1,1,0,0,1,0]","door_history":"[1,1,1,0,0,1,0]","location_rts":"[18478,1439,872,1668,970,3589,1974]","trial_type":"two-door-navigation","trial_index":15,"time_elapsed":491081,"internal_node_id":"0.0-2.0-13.0"},{"group":"hexagon_bi","room_assignment":["purple","yellow","red","blue","green","grey"],"door_color_assignment":["white","black"],"door_generator_assignment":[0,1],"goal":4,"start":5,"action_noise":0.15,"location_history":"[5,0,5,4]","action_history":"[0,0,1]","door_history":"[0,0,1]","location_rts":"[2084,833,1648]","trial_type":"two-door-navigation","trial_index":16,"time_elapsed":502210,"internal_node_id":"0.0-2.0-14.0"},{"group":"hexagon_bi","room_assignment":["purple","yellow","red","blue","green","grey"],"door_color_assignment":["white","black"],"door_generator_assignment":[0,1],"goal":3,"start":4,"action_noise":0.15,"location_history":"[4,5,4,3]","action_history":"[1,1,0]","door_history":"[1,1,0]","location_rts":"[1364,1130,1316]","trial_type":"two-door-navigation","trial_index":17,"time_elapsed":512560,"internal_node_id":"0.0-2.0-15.0"},{"group":"hexagon_bi","room_assignment":["purple","yellow","red","blue","green","grey"],"door_color_assignment":["white","black"],"door_generator_assignment":[0,1],"goal":1,"start":3,"action_noise":0.15,"location_history":"[3,4,3,2,1]","action_history":"[0,0,1,1]","door_history":"[0,0,1,1]","location_rts":"[1858,1158,1398,1298]","trial_type":"two-door-navigation","trial_index":18,"time_elapsed":525826,"internal_node_id":"0.0-2.0-16.0"},{"group":"hexagon_bi","room_assignment":["purple","yellow","red","blue","green","grey"],"door_color_assignment":["white","black"],"door_generator_assignment":[0,1],"goal":5,"start":1,"action_noise":0.15,"location_history":"[1,2,1,0,1,0,5]","action_history":"[0,0,1,1,1,0]","door_history":"[0,0,1,1,1,0]","location_rts":"[22258,991,1442,960,1358,615]","trial_type":"two-door-navigation","trial_index":19,"time_elapsed":563036,"internal_node_id":"0.0-2.0-17.0"},{"group":"hexagon_bi","room_assignment":["purple","yellow","red","blue","green","grey"],"door_color_assignment":["white","black"],"door_generator_assignment":[0,1],"goal":4,"start":5,"action_noise":0.15,"location_history":"[5,0,5,4]","action_history":"[0,0,1]","door_history":"[0,0,1]","location_rts":"[1876,1311,1313]","trial_type":"two-door-navigation","trial_index":20,"time_elapsed":574074,"internal_node_id":"0.0-2.0-18.0"},{"group":"hexagon_bi","room_assignment":["purple","yellow","red","blue","green","grey"],"door_color_assignment":["white","black"],"door_generator_assignment":[0,1],"goal":0,"start":4,"action_noise":0.15,"location_history":"[4,5,4,3,4,3,2,3,2,3,4,3,4,5,0]","action_history":"[1,1,0,0,0,1,1,1,0,0,0,0,1,1]","door_history":"[1,1,0,0,0,1,1,1,0,0,0,0,1,1]","location_rts":"[2399,1459,1272,981,1497,965,3276,2614,700,1403,1571,1471,2235,2345]","trial_type":"two-door-navigation","trial_index":21,"time_elapsed":615900,"internal_node_id":"0.0-2.0-19.0"},{"group":"hexagon_bi","room_assignment":["purple","yellow","red","blue","green","grey"],"door_color_assignment":["white","black"],"door_generator_assignment":[0,1],"goal":1,"start":0,"action_noise":0.15,"location_history":"[0,1]","action_history":"[1]","door_history":"[1]","location_rts":"[1753]","trial_type":"two-door-navigation","trial_index":22,"time_elapsed":622172,"internal_node_id":"0.0-2.0-20.0"},{"group":"hexagon_bi","room_assignment":["purple","yellow","red","blue","green","grey"],"door_color_assignment":["white","black"],"door_generator_assignment":[0,1],"goal":3,"start":1,"action_noise":0.15,"location_history":"[1,0,1,2,1,2,3]","action_history":"[1,1,0,0,0,1]","door_history":"[1,1,0,0,0,1]","location_rts":"[1792,1369,2161,2276,1123,497]","trial_type":"two-door-navigation","trial_index":23,"time_elapsed":640977,"internal_node_id":"0.0-2.0-21.0"},{"group":"hexagon_bi","room_assignment":["purple","yellow","red","blue","green","grey"],"door_color_assignment":["white","black"],"door_generator_assignment":[0,1],"goal":2,"start":3,"action_noise":0.15,"location_history":"[3,2]","action_history":"[1]","door_history":"[1]","location_rts":"[3853]","trial_type":"two-door-navigation","trial_index":24,"time_elapsed":649350,"internal_node_id":"0.0-2.0-22.0"},{"group":"hexagon_bi","room_assignment":["purple","yellow","red","blue","green","grey"],"door_color_assignment":["white","black"],"door_generator_assignment":[0,1],"goal":0,"start":2,"action_noise":0.15,"location_history":"[2,1,2,3,2,1,0]","action_history":"[0,0,1,1,1,1]","door_history":"[0,0,1,1,1,1]","location_rts":"[2475,1477,2730,1453,2344,4815]","trial_type":"two-door-navigation","trial_index":25,"time_elapsed":674218,"internal_node_id":"0.0-2.0-23.0"},{"group":"hexagon_bi","room_assignment":["purple","yellow","red","blue","green","grey"],"door_color_assignment":["white","black"],"door_generator_assignment":[0,1],"goal":3,"start":0,"action_noise":0.15,"location_history":"[0,1,2,3]","action_history":"[1,1,1]","door_history":"[1,1,1]","location_rts":"[1990,1317,1657]","trial_type":"two-door-navigation","trial_index":26,"time_elapsed":685710,"internal_node_id":"0.0-2.0-24.0"},{"group":"hexagon_bi","room_assignment":["purple","yellow","red","blue","green","grey"],"door_color_assignment":["white","black"],"door_generator_assignment":[0,1],"goal":1,"start":3,"action_noise":0.15,"location_history":"[3,4,5,4,3,4,3,2,1]","action_history":"[1,1,1,0,0,0,1,0]","door_history":"[1,1,1,0,0,0,1,0]","location_rts":"[1888,1225,1195,1668,1300,1721,667,2537]","trial_type":"two-door-navigation","trial_index":27,"time_elapsed":709496,"internal_node_id":"0.0-2.0-25.0"},{"group":"hexagon_bi","room_assignment":["purple","yellow","red","blue","green","grey"],"door_color_assignment":["white","black"],"door_generator_assignment":[0,1],"goal":2,"start":1,"action_noise":0.15,"location_history":"[1,0,5,0,5,0,1,2]","action_history":"[0,0,0,0,1,1,1]","door_history":"[0,0,0,0,1,1,1]","location_rts":"[1821,1239,909,953,749,1831,1230]","trial_type":"two-door-navigation","trial_index":28,"time_elapsed":728813,"internal_node_id":"0.0-2.0-26.0"},{"group":"hexagon_bi","room_assignment":["purple","yellow","red","blue","green","grey"],"door_color_assignment":["white","black"],"door_generator_assignment":[0,1],"goal":5,"start":2,"action_noise":0.15,"location_history":"[2,3,2,1,2,3,2,3,2,1,0,1,2,1,2,1,0,5]","action_history":"[1,1,0,0,0,1,1,0,0,1,1,0,0,0,0,1,0]","door_history":"[1,1,0,0,0,1,1,0,0,1,1,0,0,0,0,1,0]","location_rts":"[1804,1444,1730,1325,1880,1218,1448,2841,1508,2480,1859,3737,2202,8916,1469,2479,1736]","trial_type":"two-door-navigation","trial_index":29,"time_elapsed":789562,"internal_node_id":"0.0-2.0-27.0"},{"group":"hexagon_bi","room_assignment":["purple","yellow","red","blue","green","grey"],"door_color_assignment":["white","black"],"door_generator_assignment":[0,1],"goal":4,"start":5,"action_noise":0.15,"location_history":"[5,0,5,4]","action_history":"[0,0,1]","door_history":"[0,0,1]","location_rts":"[2306,1167,1512]","trial_type":"two-door-navigation","trial_index":30,"time_elapsed":801081,"internal_node_id":"0.0-2.0-28.0"},{"group":"hexagon_bi","room_assignment":["purple","yellow","red","blue","green","grey"],"door_color_assignment":["white","black"],"door_generator_assignment":[0,1],"goal":5,"start":4,"action_noise":0.15,"location_history":"[4,5]","action_history":"[1]","door_history":"[1]","location_rts":"[2081]","trial_type":"two-door-navigation","trial_index":31,"time_elapsed":807682,"internal_node_id":"0.0-2.0-29.0"},{"group":"hexagon_bi","room_assignment":["purple","yellow","red","blue","green","grey"],"door_color_assignment":["white","black"],"door_generator_assignment":[0,1],"goal":3,"start":5,"action_noise":0.15,"location_history":"[5,0,5,0,1,0,1,2,1,2,1,0,1,2,1,2,3]","action_history":"[0,0,0,1,1,1,0,0,0,1,1,1,0,0,0,1]","door_history":"[0,0,0,1,1,1,0,0,0,1,1,1,0,0,0,1]","location_rts":"[3734,1422,2328,1598,1206,1683,586,2165,1468,896,3373,1638,2093,1766,1332,3536]","trial_type":"two-door-navigation","trial_index":32,"time_elapsed":858193,"internal_node_id":"0.0-2.0-30.0"},{"group":"hexagon_bi","room_assignment":["purple","yellow","red","blue","green","grey"],"door_color_assignment":["white","black"],"door_generator_assignment":[0,1],"goal":0,"start":3,"action_noise":0.15,"location_history":"[3,2,3,4,5,0]","action_history":"[1,1,0,0,0]","door_history":"[1,1,0,0,0]","location_rts":"[2504,1418,1820,1202,2156]","trial_type":"two-door-navigation","trial_index":33,"time_elapsed":875858,"internal_node_id":"0.0-2.0-31.0"},{"group":"hexagon_bi","room_assignment":["purple","yellow","red","blue","green","grey"],"door_color_assignment":["white","black"],"door_generator_assignment":[0,1],"goal":4,"start":0,"action_noise":0.15,"location_history":"[0,5,0,1,0,1,2,1,2,3,2,3,4]","action_history":"[0,0,1,1,1,0,0,0,1,1,1,0]","door_history":"[0,0,1,1,1,0,0,0,1,1,1,0]","location_rts":"[1908,1976,2175,1388,1677,690,1727,4852,1075,2567,2219,1241]","trial_type":"two-door-navigation","trial_index":34,"time_elapsed":914993,"internal_node_id":"0.0-2.0-32.0"},{"group":"hexagon_bi","room_assignment":["purple","yellow","red","blue","green","grey"],"door_color_assignment":["white","black"],"door_generator_assignment":[0,1],"goal":1,"start":4,"action_noise":0.15,"location_history":"[4,3,4,5,4,5,0,5,4,5,0,1]","action_history":"[0,0,1,1,1,0,0,1,0,0,1]","door_history":"[0,0,1,1,1,0,0,1,0,0,1]","location_rts":"[1588,1547,1726,1770,2575,851,1245,2475,1505,751,900]","trial_type":"two-door-navigation","trial_index":35,"time_elapsed":946554,"internal_node_id":"0.0-2.0-33.0"},{"group":"hexagon_bi","room_assignment":["purple","yellow","red","blue","green","grey"],"door_color_assignment":["white","black"],"door_generator_assignment":[0,1],"goal":2,"start":1,"action_noise":0.15,"location_history":"[1,0,1,2]","action_history":"[1,1,0]","door_history":"[1,1,0]","location_rts":"[6624,1424,2116]","trial_type":"two-door-navigation","trial_index":36,"time_elapsed":963244,"internal_node_id":"0.0-2.0-34.0"},{"group":"hexagon_bi","room_assignment":["purple","yellow","red","blue","green","grey"],"door_color_assignment":["white","black"],"door_generator_assignment":[0,1],"goal":0,"start":2,"action_noise":0.15,"location_history":"[2,1,2,3,2,1,0]","action_history":"[0,0,1,0,1,1]","door_history":"[0,0,1,0,1,1]","location_rts":"[2400,1043,2253,2396,2151,1472]","trial_type":"two-door-navigation","trial_index":37,"time_elapsed":984532,"internal_node_id":"0.0-2.0-35.0"},{"group":"hexagon_bi","room_assignment":["purple","yellow","red","blue","green","grey"],"door_color_assignment":["white","black"],"door_generator_assignment":[0,1],"goal":5,"start":0,"action_noise":0.15,"location_history":"[0,1,0,5]","action_history":"[1,1,0]","door_history":"[1,1,0]","location_rts":"[1573,1091,1278]","trial_type":"two-door-navigation","trial_index":38,"time_elapsed":995010,"internal_node_id":"0.0-2.0-36.0"},{"group":"hexagon_bi","room_assignment":["purple","yellow","red","blue","green","grey"],"door_color_assignment":["white","black"],"door_generator_assignment":[0,1],"goal":2,"start":5,"action_noise":0.15,"location_history":"[5,0,5,4,5,0,1,0,5,0,5,0,1,0,5,0,1,0,1,0,5,0,5,0,5,4,3,4,3,2]","action_history":"[0,0,1,1,1,1,1,0,0,0,1,1,0,0,0,1,1,1,1,0,0,0,0,0,1,0,0,0,1]","door_history":"[0,0,1,1,1,1,1,0,0,0,1,1,0,0,0,1,1,1,1,0,0,0,0,0,1,0,0,0,1]","location_rts":"[2066,1538,1086,1607,1373,2361,1671,2088,1159,1853,814,1482,4195,1578,1714,1676,1230,2152,1866,1824,1601,2100,1467,650,1228,2905,1788,1968,1006]","trial_type":"two-door-navigation","trial_index":39,"time_elapsed":1077858,"internal_node_id":"0.0-2.0-37.0"},{"group":"hexagon_bi","room_assignment":["purple","yellow","red","blue","green","grey"],"door_color_assignment":["white","black"],"door_generator_assignment":[0,1],"goal":1,"start":2,"action_noise":0.15,"location_history":"[2,3,2,3,2,3,4,3,4,3,2,3,2,3,4,3,2,3,4,3,4,5,0,5,0,1]","action_history":"[0,0,1,1,1,0,0,0,1,1,1,1,0,0,0,1,1,0,0,0,1,0,0,1,1]","door_history":"[0,0,1,1,1,0,0,0,1,1,1,1,0,0,0,1,1,0,0,0,1,0,0,1,1]","location_rts":"[11996,1947,3980,1410,2552,1067,1875,970,672,1706,1832,2896,584,1581,2731,2188,909,2194,3574,2273,2223,3199,2292,2649,1177]","trial_type":"two-door-navigation","trial_index":40,"time_elapsed":1167076,"internal_node_id":"0.0-2.0-38.0"},{"group":"hexagon_bi","room_assignment":["purple","yellow","red","blue","green","grey"],"door_color_assignment":["white","black"],"door_generator_assignment":[0,1],"goal":4,"start":1,"action_noise":0.15,"location_history":"[1,0,1,2,3,2,3,2,3,2,1,2,1,2,3,2,3,2,1,2,1,2,1,0,1,0,5,0,5,0,1,2,3,4]","action_history":"[1,1,0,1,1,0,0,1,0,0,0,0,1,1,1,1,0,0,0,0,0,1,1,1,1,0,0,0,1,1,1,0,1]","door_history":"[1,1,0,1,1,0,0,1,0,0,0,0,1,1,1,1,0,0,0,0,0,1,1,1,1,0,0,0,1,1,1,0,1]","location_rts":"[2118,1200,1751,2108,1846,2207,1370,2322,5193,1518,1950,2735,1353,1346,1330,1138,1177,779,1987,2327,1749,2275,1335,2542,2060,848,3358,1518,611,1991,3806,3005,2926]","trial_type":"two-door-navigation","trial_index":41,"time_elapsed":1269682,"internal_node_id":"0.0-2.0-39.0"},{"group":"hexagon_bi","room_assignment":["purple","yellow","red","blue","green","grey"],"door_color_assignment":["white","black"],"door_generator_assignment":[0,1],"goal":3,"start":4,"action_noise":0.15,"location_history":"[4,3]","action_history":"[1]","door_history":"[1]","location_rts":"[4419]","trial_type":"two-door-navigation","trial_index":42,"time_elapsed":1278614,"internal_node_id":"0.0-2.0-40.0"},{"group":"hexagon_bi","room_assignment":["purple","yellow","red","blue","green","grey"],"door_color_assignment":["white","black"],"door_generator_assignment":[0,1],"goal":5,"start":3,"action_noise":0.15,"location_history":"[3,4,5]","action_history":"[1,1]","door_history":"[1,1]","location_rts":"[4124,1872]","trial_type":"two-door-navigation","trial_index":43,"time_elapsed":1290135,"internal_node_id":"0.0-2.0-41.0"},{"group":"hexagon_bi","room_assignment":["purple","yellow","red","blue","green","grey"],"door_color_assignment":["white","black"],"door_generator_assignment":[0,1],"goal":3,"start":5,"action_noise":0.15,"location_history":"[5,4,5,0,1,0,1,0,1,2,3]","action_history":"[1,1,0,0,0,0,1,1,0,1]","door_history":"[1,1,0,0,0,0,1,1,0,1]","location_rts":"[2786,1304,1892,1614,1651,1428,621,3001,2312,2425]","trial_type":"two-door-navigation","trial_index":44,"time_elapsed":1322779,"internal_node_id":"0.0-2.0-42.0"},{"group":"hexagon_bi","room_assignment":["purple","yellow","red","blue","green","grey"],"door_color_assignment":["white","black"],"door_generator_assignment":[0,1],"goal":0,"start":3,"action_noise":0.15,"location_history":"[3,4,3,2,3,4,3,4,3,4,5,4,5,0]","action_history":"[1,1,0,1,1,1,0,0,0,1,1,1,0]","door_history":"[1,1,0,1,1,1,0,0,0,1,1,1,0]","location_rts":"[2134,1874,1600,2155,2067,2210,1500,1240,1812,1812,3006,1627,1335]","trial_type":"two-door-navigation","trial_index":45,"time_elapsed":1363791,"internal_node_id":"0.0-2.0-43.0"},{"group":"hexagon_bi","room_assignment":["purple","yellow","red","blue","green","grey"],"door_color_assignment":["white","black"],"door_generator_assignment":[0,1],"goal":2,"start":0,"action_noise":0.15,"location_history":"[0,5,0,1,2]","action_history":"[0,1,1,0]","door_history":"[0,1,1,0]","location_rts":"[9176,2515,1863,2064]","trial_type":"two-door-navigation","trial_index":46,"time_elapsed":1386949,"internal_node_id":"0.0-2.0-44.0"},{"group":"hexagon_bi","room_assignment":["purple","yellow","red","blue","green","grey"],"door_color_assignment":["white","black"],"door_generator_assignment":[0,1],"goal":4,"start":2,"action_noise":0.15,"location_history":"[2,3,2,3,4]","action_history":"[0,1,1,0]","door_history":"[0,1,1,0]","location_rts":"[1292,2213,1757,1852]","trial_type":"two-door-navigation","trial_index":47,"time_elapsed":1401611,"internal_node_id":"0.0-2.0-45.0"},{"group":"hexagon_bi","room_assignment":["purple","yellow","red","blue","green","grey"],"door_color_assignment":["white","black"],"door_generator_assignment":[0,1],"goal":1,"start":4,"action_noise":0.15,"location_history":"[4,3,2,1]","action_history":"[0,1,0]","door_history":"[0,1,0]","location_rts":"[1538,1635,1589]","trial_type":"two-door-navigation","trial_index":48,"time_elapsed":1412906,"internal_node_id":"0.0-2.0-46.0"},{"group":"hexagon_bi","room_assignment":["purple","yellow","red","blue","green","grey"],"door_color_assignment":["white","black"],"door_generator_assignment":[0,1],"goal":4,"start":1,"action_noise":0.15,"location_history":"[1,2,3,2,1,2,1,0,1,2,3,2,1,2,3,4]","action_history":"[0,1,1,0,0,0,1,0,0,1,1,1,0,1,0]","door_history":"[0,1,1,0,0,0,1,0,0,1,1,1,0,1,0]","location_rts":"[1721,2534,1873,1332,1836,1446,704,2021,937,2825,2867,1911,1457,1126,626]","trial_type":"two-door-navigation","trial_index":49,"time_elapsed":1456782,"internal_node_id":"0.0-2.0-47.0"},{"group":"hexagon_bi","room_assignment":["purple","yellow","red","blue","green","grey"],"door_color_assignment":["white","black"],"door_generator_assignment":[0,1],"goal":3,"start":4,"action_noise":0.15,"location_history":"[4,5,0,5,0,1,2,3]","action_history":"[1,0,1,0,1,0,1]","door_history":"[1,0,1,0,1,0,1]","location_rts":"[1073,1221,724,768,517,802,808]","trial_type":"two-door-navigation","trial_index":50,"time_elapsed":1473271,"internal_node_id":"0.0-2.0-48.0"},{"group":"hexagon_bi","room_assignment":["purple","yellow","red","blue","green","grey"],"door_color_assignment":["white","black"],"door_generator_assignment":[0,1],"goal":5,"start":3,"action_noise":0.15,"location_history":"[3,2,3,4,5]","action_history":"[0,1,0,1]","door_history":"[0,1,0,1]","location_rts":"[1259,885,723,623]","trial_type":"two-door-navigation","trial_index":51,"time_elapsed":1484311,"internal_node_id":"0.0-2.0-49.0"},{"view_history":"[{\"page_index\":0,\"viewing_time\":3496}]","rt":3496,"trial_type":"instructions","trial_index":52,"time_elapsed":1488807,"internal_node_id":"0.0-3.0"},{"view_history":"[{\"page_index\":0,\"viewing_time\":3267},{\"page_index\":1,\"viewing_time\":38404}]","rt":41671,"trial_type":"instructions","trial_index":53,"time_elapsed":1531478,"internal_node_id":"0.0-4.0"},{"group":"hexagon_tri","fractal_assignment":["../images/org_blu.png","../images/pnk_blu.png","../images/blu_wht.png","../images/ylw_slt.png","../images/gry_blk.png","../images/cyn_red.png"],"mutagen_generator_assignment":[1,0],"goal":4,"start":0,"action_noise":0.15,"location_history":"[0,5,0,1,5,4]","action_history":"[1,1,1,1,0]","mutagen_history":"[0,0,0,0,1]","location_rts":"[12757,2335,2148,1756,4052]","trial_type":"fractal-mutation","trial_index":54,"time_elapsed":1563259,"internal_node_id":"0.0-5.0-0.0"},{"group":"hexagon_tri","fractal_assignment":["../images/org_blu.png","../images/pnk_blu.png","../images/blu_wht.png","../images/ylw_slt.png","../images/gry_blk.png","../images/cyn_red.png"],"mutagen_generator_assignment":[1,0],"goal":3,"start":4,"action_noise":0.15,"location_history":"[4,2,3]","action_history":"[1,1]","mutagen_history":"[0,0]","location_rts":"[3734,1661]","trial_type":"fractal-mutation","trial_index":55,"time_elapsed":1574233,"internal_node_id":"0.0-5.0-1.0"},{"group":"hexagon_tri","fractal_assignment":["../images/org_blu.png","../images/pnk_blu.png","../images/blu_wht.png","../images/ylw_slt.png","../images/gry_blk.png","../images/cyn_red.png"],"mutagen_generator_assignment":[1,0],"goal":5,"start":3,"action_noise":0.15,"location_history":"[3,4,0,1,5]","action_history":"[1,0,1,1]","mutagen_history":"[0,1,0,0]","location_rts":"[2866,1726,1101,712]","trial_type":"fractal-mutation","trial_index":56,"time_elapsed":1588305,"internal_node_id":"0.0-5.0-2.0"},{"group":"hexagon_tri","fractal_assignment":["../images/org_blu.png","../images/pnk_blu.png","../images/blu_wht.png","../images/ylw_slt.png","../images/gry_blk.png","../images/cyn_red.png"],"mutagen_generator_assignment":[1,0],"goal":2,"start":5,"action_noise":0.15,"location_history":"[5,0,5,4,0,1,5,0,1,5,4,0,5,0,1,3,2]","action_history":"[0,0,0,0,1,1,1,1,0,0,0,0,1,1,0,1]","mutagen_history":"[1,1,1,1,0,0,0,0,1,1,1,1,0,0,1,0]","location_rts":"[3740,1339,1654,1731,639,1100,801,1233,1002,1177,886,679,2729,2085,1880,2568]","trial_type":"fractal-mutation","trial_index":57,"time_elapsed":1633646,"internal_node_id":"0.0-5.0-3.0"},{"group":"hexagon_tri","fractal_assignment":["../images/org_blu.png","../images/pnk_blu.png","../images/blu_wht.png","../images/ylw_slt.png","../images/gry_blk.png","../images/cyn_red.png"],"mutagen_generator_assignment":[1,0],"goal":1,"start":2,"action_noise":0.15,"location_history":"[2,1]","action_history":"[0]","mutagen_history":"[1]","location_rts":"[2832]","trial_type":"fractal-mutation","trial_index":58,"time_elapsed":1641024,"internal_node_id":"0.0-5.0-4.0"},{"group":"hexagon_tri","fractal_assignment":["../images/org_blu.png","../images/pnk_blu.png","../images/blu_wht.png","../images/ylw_slt.png","../images/gry_blk.png","../images/cyn_red.png"],"mutagen_generator_assignment":[1,0],"goal":4,"start":1,"action_noise":0.15,"location_history":"[1,3,2,1,5,0,5,4]","action_history":"[0,0,0,1,0,0,0]","mutagen_history":"[1,1,1,0,1,1,1]","location_rts":"[1505,802,1083,1663,1575,980,627]","trial_type":"fractal-mutation","trial_index":59,"time_elapsed":1660018,"internal_node_id":"0.0-5.0-5.0"},{"group":"hexagon_tri","fractal_assignment":["../images/org_blu.png","../images/pnk_blu.png","../images/blu_wht.png","../images/ylw_slt.png","../images/gry_blk.png","../images/cyn_red.png"],"mutagen_generator_assignment":[1,0],"goal":1,"start":4,"action_noise":0.15,"location_history":"[4,2,1]","action_history":"[1,0]","mutagen_history":"[0,1]","location_rts":"[1371,1543]","trial_type":"fractal-mutation","trial_index":60,"time_elapsed":1668516,"internal_node_id":"0.0-5.0-6.0"},{"group":"hexagon_tri","fractal_assignment":["../images/org_blu.png","../images/pnk_blu.png","../images/blu_wht.png","../images/ylw_slt.png","../images/gry_blk.png","../images/cyn_red.png"],"mutagen_generator_assignment":[1,0],"goal":5,"start":1,"action_noise":0.15,"location_history":"[1,3,2,1,3,4,2,1,3,4,2,3,4,0,5]","action_history":"[0,0,0,0,0,0,0,0,1,1,1,1,1,0]","mutagen_history":"[1,1,1,1,1,1,1,1,0,0,0,0,0,1]","location_rts":"[2878,489,380,424,511,473,467,519,794,441,447,540,808,509]","trial_type":"fractal-mutation","trial_index":61,"time_elapsed":1696196,"internal_node_id":"0.0-5.0-7.0"},{"group":"hexagon_tri","fractal_assignment":["../images/org_blu.png","../images/pnk_blu.png","../images/blu_wht.png","../images/ylw_slt.png","../images/gry_blk.png","../images/cyn_red.png"],"mutagen_generator_assignment":[1,0],"goal":0,"start":5,"action_noise":0.15,"location_history":"[5,4,2,3,2,1,3,2,3,2,3,4,0]","action_history":"[0,0,0,0,0,0,1,1,0,1,1,0]","mutagen_history":"[1,1,1,1,1,1,0,0,1,0,0,1]","location_rts":"[2195,451,459,474,652,792,652,626,654,1059,571,1303]","trial_type":"fractal-mutation","trial_index":62,"time_elapsed":1722034,"internal_node_id":"0.0-5.0-8.0"},{"group":"hexagon_tri","fractal_assignment":["../images/org_blu.png","../images/pnk_blu.png","../images/blu_wht.png","../images/ylw_slt.png","../images/gry_blk.png","../images/cyn_red.png"],"mutagen_generator_assignment":[1,0],"goal":2,"start":0,"action_noise":0.15,"location_history":"[0,1,3,2]","action_history":"[1,0,0]","mutagen_history":"[0,1,1]","location_rts":"[2657,541,453]","trial_type":"fractal-mutation","trial_index":63,"time_elapsed":1732318,"internal_node_id":"0.0-5.0-9.0"},{"group":"hexagon_tri","fractal_assignment":["../images/org_blu.png","../images/pnk_blu.png","../images/blu_wht.png","../images/ylw_slt.png","../images/gry_blk.png","../images/cyn_red.png"],"mutagen_generator_assignment":[1,0],"goal":3,"start":2,"action_noise":0.15,"location_history":"[2,1,3]","action_history":"[0,0]","mutagen_history":"[1,1]","location_rts":"[1980,753]","trial_type":"fractal-mutation","trial_index":64,"time_elapsed":1740627,"internal_node_id":"0.0-5.0-10.0"},{"group":"hexagon_tri","fractal_assignment":["../images/org_blu.png","../images/pnk_blu.png","../images/blu_wht.png","../images/ylw_slt.png","../images/gry_blk.png","../images/cyn_red.png"],"mutagen_generator_assignment":[1,0],"goal":0,"start":3,"action_noise":0.15,"location_history":"[3,2,3,4,0]","action_history":"[1,1,1,1]","mutagen_history":"[0,0,0,0]","location_rts":"[2779,466,478,510]","trial_type":"fractal-mutation","trial_index":65,"time_elapsed":1752490,"internal_node_id":"0.0-5.0-11.0"},{"group":"hexagon_tri","fractal_assignment":["../images/org_blu.png","../images/pnk_blu.png","../images/blu_wht.png","../images/ylw_slt.png","../images/gry_blk.png","../images/cyn_red.png"],"mutagen_generator_assignment":[1,0],"goal":2,"start":0,"action_noise":0.15,"location_history":"[0,1,3,2]","action_history":"[1,0,0]","mutagen_history":"[0,1,1]","location_rts":"[3891,936,432]","trial_type":"fractal-mutation","trial_index":66,"time_elapsed":1764377,"internal_node_id":"0.0-5.0-12.0"},{"group":"hexagon_tri","fractal_assignment":["../images/org_blu.png","../images/pnk_blu.png","../images/blu_wht.png","../images/ylw_slt.png","../images/gry_blk.png","../images/cyn_red.png"],"mutagen_generator_assignment":[1,0],"goal":5,"start":2,"action_noise":0.15,"location_history":"[2,1,3,4,2,3,4,2,1,5]","action_history":"[0,0,1,1,1,1,1,1,1]","mutagen_history":"[1,1,0,0,0,0,0,0,0]","location_rts":"[1796,1061,721,452,475,441,429,439,870]","trial_type":"fractal-mutation","trial_index":67,"time_elapsed":1783862,"internal_node_id":"0.0-5.0-13.0"},{"group":"hexagon_tri","fractal_assignment":["../images/org_blu.png","../images/pnk_blu.png","../images/blu_wht.png","../images/ylw_slt.png","../images/gry_blk.png","../images/cyn_red.png"],"mutagen_generator_assignment":[1,0],"goal":4,"start":5,"action_noise":0.15,"location_history":"[5,4]","action_history":"[0]","mutagen_history":"[1]","location_rts":"[1791]","trial_type":"fractal-mutation","trial_index":68,"time_elapsed":1790208,"internal_node_id":"0.0-5.0-14.0"},{"group":"hexagon_tri","fractal_assignment":["../images/org_blu.png","../images/pnk_blu.png","../images/blu_wht.png","../images/ylw_slt.png","../images/gry_blk.png","../images/cyn_red.png"],"mutagen_generator_assignment":[1,0],"goal":3,"start":4,"action_noise":0.15,"location_history":"[4,2,1,3]","action_history":"[1,0,0]","mutagen_history":"[0,1,1]","location_rts":"[1742,860,677]","trial_type":"fractal-mutation","trial_index":69,"time_elapsed":1800105,"internal_node_id":"0.0-5.0-15.0"},{"group":"hexagon_tri","fractal_assignment":["../images/org_blu.png","../images/pnk_blu.png","../images/blu_wht.png","../images/ylw_slt.png","../images/gry_blk.png","../images/cyn_red.png"],"mutagen_generator_assignment":[1,0],"goal":1,"start":3,"action_noise":0.15,"location_history":"[3,4,2,1]","action_history":"[0,0,0]","mutagen_history":"[1,1,1]","location_rts":"[1453,499,451]","trial_type":"fractal-mutation","trial_index":70,"time_elapsed":1809146,"internal_node_id":"0.0-5.0-16.0"},{"group":"hexagon_tri","fractal_assignment":["../images/org_blu.png","../images/pnk_blu.png","../images/blu_wht.png","../images/ylw_slt.png","../images/gry_blk.png","../images/cyn_red.png"],"mutagen_generator_assignment":[1,0],"goal":5,"start":1,"action_noise":0.15,"location_history":"[1,5]","action_history":"[1]","mutagen_history":"[0]","location_rts":"[2674]","trial_type":"fractal-mutation","trial_index":71,"time_elapsed":1816359,"internal_node_id":"0.0-5.0-17.0"},{"group":"hexagon_tri","fractal_assignment":["../images/org_blu.png","../images/pnk_blu.png","../images/blu_wht.png","../images/ylw_slt.png","../images/gry_blk.png","../images/cyn_red.png"],"mutagen_generator_assignment":[1,0],"goal":4,"start":5,"action_noise":0.15,"location_history":"[5,0,1,5,0,5,4]","action_history":"[1,1,1,1,0,0]","mutagen_history":"[0,0,0,0,1,1]","location_rts":"[2411,1088,685,882,584,802]","trial_type":"fractal-mutation","trial_index":72,"time_elapsed":1832535,"internal_node_id":"0.0-5.0-18.0"},{"group":"hexagon_tri","fractal_assignment":["../images/org_blu.png","../images/pnk_blu.png","../images/blu_wht.png","../images/ylw_slt.png","../images/gry_blk.png","../images/cyn_red.png"],"mutagen_generator_assignment":[1,0],"goal":0,"start":4,"action_noise":0.15,"location_history":"[4,0]","action_history":"[0]","mutagen_history":"[1]","location_rts":"[2034]","trial_type":"fractal-mutation","trial_index":73,"time_elapsed":1839127,"internal_node_id":"0.0-5.0-19.0"},{"group":"hexagon_tri","fractal_assignment":["../images/org_blu.png","../images/pnk_blu.png","../images/blu_wht.png","../images/ylw_slt.png","../images/gry_blk.png","../images/cyn_red.png"],"mutagen_generator_assignment":[1,0],"goal":1,"start":0,"action_noise":0.15,"location_history":"[0,5,0,5,4,0,1]","action_history":"[0,0,0,0,0,1]","mutagen_history":"[1,1,1,1,1,0]","location_rts":"[1690,502,780,558,735,837]","trial_type":"fractal-mutation","trial_index":74,"time_elapsed":1853962,"internal_node_id":"0.0-5.0-20.0"},{"group":"hexagon_tri","fractal_assignment":["../images/org_blu.png","../images/pnk_blu.png","../images/blu_wht.png","../images/ylw_slt.png","../images/gry_blk.png","../images/cyn_red.png"],"mutagen_generator_assignment":[1,0],"goal":3,"start":1,"action_noise":0.15,"location_history":"[1,3]","action_history":"[0]","mutagen_history":"[1]","location_rts":"[19962]","trial_type":"fractal-mutation","trial_index":75,"time_elapsed":1878475,"internal_node_id":"0.0-5.0-21.0"},{"group":"hexagon_tri","fractal_assignment":["../images/org_blu.png","../images/pnk_blu.png","../images/blu_wht.png","../images/ylw_slt.png","../images/gry_blk.png","../images/cyn_red.png"],"mutagen_generator_assignment":[1,0],"goal":2,"start":3,"action_noise":0.15,"location_history":"[3,2]","action_history":"[0]","mutagen_history":"[1]","location_rts":"[1388]","trial_type":"fractal-mutation","trial_index":76,"time_elapsed":1884412,"internal_node_id":"0.0-5.0-22.0"},{"group":"hexagon_tri","fractal_assignment":["../images/org_blu.png","../images/pnk_blu.png","../images/blu_wht.png","../images/ylw_slt.png","../images/gry_blk.png","../images/cyn_red.png"],"mutagen_generator_assignment":[1,0],"goal":0,"start":2,"action_noise":0.15,"location_history":"[2,3,4,0]","action_history":"[1,1,0]","mutagen_history":"[0,0,1]","location_rts":"[1743,550,1398]","trial_type":"fractal-mutation","trial_index":77,"time_elapsed":1894702,"internal_node_id":"0.0-5.0-23.0"},{"group":"hexagon_tri","fractal_assignment":["../images/org_blu.png","../images/pnk_blu.png","../images/blu_wht.png","../images/ylw_slt.png","../images/gry_blk.png","../images/cyn_red.png"],"mutagen_generator_assignment":[1,0],"goal":3,"start":0,"action_noise":0.15,"location_history":"[0,5,0,1,5,0,5,4,0,1,3]","action_history":"[0,1,1,1,1,1,0,0,0,0]","mutagen_history":"[1,0,0,0,0,0,1,1,1,1]","location_rts":"[1598,1028,490,608,384,426,801,423,481,812]","trial_type":"fractal-mutation","trial_index":78,"time_elapsed":1915657,"internal_node_id":"0.0-5.0-24.0"},{"group":"hexagon_tri","fractal_assignment":["../images/org_blu.png","../images/pnk_blu.png","../images/blu_wht.png","../images/ylw_slt.png","../images/gry_blk.png","../images/cyn_red.png"],"mutagen_generator_assignment":[1,0],"goal":1,"start":3,"action_noise":0.15,"location_history":"[3,4,0,5,4,2,1]","action_history":"[1,0,0,0,1,1]","mutagen_history":"[0,1,1,1,0,0]","location_rts":"[25940,450,410,448,1232,852]","trial_type":"fractal-mutation","trial_index":79,"time_elapsed":1954738,"internal_node_id":"0.0-5.0-25.0"},{"group":"hexagon_tri","fractal_assignment":["../images/org_blu.png","../images/pnk_blu.png","../images/blu_wht.png","../images/ylw_slt.png","../images/gry_blk.png","../images/cyn_red.png"],"mutagen_generator_assignment":[1,0],"goal":2,"start":1,"action_noise":0.15,"location_history":"[1,3,2]","action_history":"[0,0]","mutagen_history":"[1,1]","location_rts":"[1453,496]","trial_type":"fractal-mutation","trial_index":80,"time_elapsed":1962282,"internal_node_id":"0.0-5.0-26.0"},{"group":"hexagon_tri","fractal_assignment":["../images/org_blu.png","../images/pnk_blu.png","../images/blu_wht.png","../images/ylw_slt.png","../images/gry_blk.png","../images/cyn_red.png"],"mutagen_generator_assignment":[1,0],"goal":5,"start":2,"action_noise":0.15,"location_history":"[2,1,5]","action_history":"[1,1]","mutagen_history":"[0,0]","location_rts":"[1044,562]","trial_type":"fractal-mutation","trial_index":81,"time_elapsed":1969465,"internal_node_id":"0.0-5.0-27.0"},{"group":"hexagon_tri","fractal_assignment":["../images/org_blu.png","../images/pnk_blu.png","../images/blu_wht.png","../images/ylw_slt.png","../images/gry_blk.png","../images/cyn_red.png"],"mutagen_generator_assignment":[1,0],"goal":4,"start":5,"action_noise":0.15,"location_history":"[5,4]","action_history":"[0]","mutagen_history":"[1]","location_rts":"[1445]","trial_type":"fractal-mutation","trial_index":82,"time_elapsed":1975459,"internal_node_id":"0.0-5.0-28.0"},{"group":"hexagon_tri","fractal_assignment":["../images/org_blu.png","../images/pnk_blu.png","../images/blu_wht.png","../images/ylw_slt.png","../images/gry_blk.png","../images/cyn_red.png"],"mutagen_generator_assignment":[1,0],"goal":5,"start":4,"action_noise":0.15,"location_history":"[4,2,3,4,2,3,4,0,5]","action_history":"[1,1,1,1,1,1,0,0]","mutagen_history":"[0,0,0,0,0,0,1,1]","location_rts":"[4993,475,421,372,390,413,362,504]","trial_type":"fractal-mutation","trial_index":83,"time_elapsed":1995177,"internal_node_id":"0.0-5.0-29.0"},{"group":"hexagon_tri","fractal_assignment":["../images/org_blu.png","../images/pnk_blu.png","../images/blu_wht.png","../images/ylw_slt.png","../images/gry_blk.png","../images/cyn_red.png"],"mutagen_generator_assignment":[1,0],"goal":3,"start":5,"action_noise":0.15,"location_history":"[5,4,0,1,5,0,1,3]","action_history":"[0,0,1,1,1,0,0]","mutagen_history":"[1,1,0,0,0,1,1]","location_rts":"[2240,424,481,477,555,305,498]","trial_type":"fractal-mutation","trial_index":84,"time_elapsed":2010935,"internal_node_id":"0.0-5.0-30.0"},{"group":"hexagon_tri","fractal_assignment":["../images/org_blu.png","../images/pnk_blu.png","../images/blu_wht.png","../images/ylw_slt.png","../images/gry_blk.png","../images/cyn_red.png"],"mutagen_generator_assignment":[1,0],"goal":0,"start":3,"action_noise":0.15,"location_history":"[3,2,3,4,0]","action_history":"[1,1,1,0]","mutagen_history":"[0,0,0,1]","location_rts":"[1984,688,473,447]","trial_type":"fractal-mutation","trial_index":85,"time_elapsed":2022175,"internal_node_id":"0.0-5.0-31.0"},{"group":"hexagon_tri","fractal_assignment":["../images/org_blu.png","../images/pnk_blu.png","../images/blu_wht.png","../images/ylw_slt.png","../images/gry_blk.png","../images/cyn_red.png"],"mutagen_generator_assignment":[1,0],"goal":4,"start":0,"action_noise":0.15,"location_history":"[0,5,0,1,3,2,1,3,4]","action_history":"[0,1,0,0,0,0,0,0]","mutagen_history":"[1,0,1,1,1,1,1,1]","location_rts":"[888,626,958,454,420,430,440,453]","trial_type":"fractal-mutation","trial_index":86,"time_elapsed":2038703,"internal_node_id":"0.0-5.0-32.0"},{"group":"hexagon_tri","fractal_assignment":["../images/org_blu.png","../images/pnk_blu.png","../images/blu_wht.png","../images/ylw_slt.png","../images/gry_blk.png","../images/cyn_red.png"],"mutagen_generator_assignment":[1,0],"goal":1,"start":4,"action_noise":0.15,"location_history":"[4,2,3,2,3,2,3,2,1]","action_history":"[0,0,0,0,0,1,0,0]","mutagen_history":"[1,1,1,1,1,0,1,1]","location_rts":"[1369,545,435,467,535,790,1217,799]","trial_type":"fractal-mutation","trial_index":87,"time_elapsed":2056683,"internal_node_id":"0.0-5.0-33.0"},{"group":"hexagon_tri","fractal_assignment":["../images/org_blu.png","../images/pnk_blu.png","../images/blu_wht.png","../images/ylw_slt.png","../images/gry_blk.png","../images/cyn_red.png"],"mutagen_generator_assignment":[1,0],"goal":2,"start":1,"action_noise":0.15,"location_history":"[1,5,4,2]","action_history":"[0,0,0]","mutagen_history":"[1,1,1]","location_rts":"[2244,548,514]","trial_type":"fractal-mutation","trial_index":88,"time_elapsed":2066635,"internal_node_id":"0.0-5.0-34.0"},{"group":"hexagon_tri","fractal_assignment":["../images/org_blu.png","../images/pnk_blu.png","../images/blu_wht.png","../images/ylw_slt.png","../images/gry_blk.png","../images/cyn_red.png"],"mutagen_generator_assignment":[1,0],"goal":0,"start":2,"action_noise":0.15,"location_history":"[2,3,4,0]","action_history":"[1,1,0]","mutagen_history":"[0,0,1]","location_rts":"[1080,1223,882]","trial_type":"fractal-mutation","trial_index":89,"time_elapsed":2076458,"internal_node_id":"0.0-5.0-35.0"},{"group":"hexagon_tri","fractal_assignment":["../images/org_blu.png","../images/pnk_blu.png","../images/blu_wht.png","../images/ylw_slt.png","../images/gry_blk.png","../images/cyn_red.png"],"mutagen_generator_assignment":[1,0],"goal":5,"start":0,"action_noise":0.15,"location_history":"[0,1,5]","action_history":"[1,1]","mutagen_history":"[0,0]","location_rts":"[1849,1021]","trial_type":"fractal-mutation","trial_index":90,"time_elapsed":2084900,"internal_node_id":"0.0-5.0-36.0"},{"group":"hexagon_tri","fractal_assignment":["../images/org_blu.png","../images/pnk_blu.png","../images/blu_wht.png","../images/ylw_slt.png","../images/gry_blk.png","../images/cyn_red.png"],"mutagen_generator_assignment":[1,0],"goal":2,"start":5,"action_noise":0.15,"location_history":"[5,4,0,5,0,5,0,1,3,2]","action_history":"[1,0,0,1,0,1,1,0,0]","mutagen_history":"[0,1,1,0,1,0,0,1,1]","location_rts":"[2363,832,543,1128,1114,1097,1188,1398,888]","trial_type":"fractal-mutation","trial_index":91,"time_elapsed":2108299,"internal_node_id":"0.0-5.0-37.0"},{"group":"hexagon_tri","fractal_assignment":["../images/org_blu.png","../images/pnk_blu.png","../images/blu_wht.png","../images/ylw_slt.png","../images/gry_blk.png","../images/cyn_red.png"],"mutagen_generator_assignment":[1,0],"goal":1,"start":2,"action_noise":0.15,"location_history":"[2,1]","action_history":"[0]","mutagen_history":"[1]","location_rts":"[1993]","trial_type":"fractal-mutation","trial_index":92,"time_elapsed":2114843,"internal_node_id":"0.0-5.0-38.0"},{"group":"hexagon_tri","fractal_assignment":["../images/org_blu.png","../images/pnk_blu.png","../images/blu_wht.png","../images/ylw_slt.png","../images/gry_blk.png","../images/cyn_red.png"],"mutagen_generator_assignment":[1,0],"goal":4,"start":1,"action_noise":0.15,"location_history":"[1,5,4]","action_history":"[1,0]","mutagen_history":"[0,1]","location_rts":"[2290,740]","trial_type":"fractal-mutation","trial_index":93,"time_elapsed":2123457,"internal_node_id":"0.0-5.0-39.0"},{"group":"hexagon_tri","fractal_assignment":["../images/org_blu.png","../images/pnk_blu.png","../images/blu_wht.png","../images/ylw_slt.png","../images/gry_blk.png","../images/cyn_red.png"],"mutagen_generator_assignment":[1,0],"goal":3,"start":4,"action_noise":0.15,"location_history":"[4,2,3]","action_history":"[1,0]","mutagen_history":"[0,1]","location_rts":"[2356,797]","trial_type":"fractal-mutation","trial_index":94,"time_elapsed":2132191,"internal_node_id":"0.0-5.0-40.0"},{"group":"hexagon_tri","fractal_assignment":["../images/org_blu.png","../images/pnk_blu.png","../images/blu_wht.png","../images/ylw_slt.png","../images/gry_blk.png","../images/cyn_red.png"],"mutagen_generator_assignment":[1,0],"goal":5,"start":3,"action_noise":0.15,"location_history":"[3,2,1,5]","action_history":"[0,0,0]","mutagen_history":"[1,1,1]","location_rts":"[2176,501,413]","trial_type":"fractal-mutation","trial_index":95,"time_elapsed":2141905,"internal_node_id":"0.0-5.0-41.0"},{"group":"hexagon_tri","fractal_assignment":["../images/org_blu.png","../images/pnk_blu.png","../images/blu_wht.png","../images/ylw_slt.png","../images/gry_blk.png","../images/cyn_red.png"],"mutagen_generator_assignment":[1,0],"goal":3,"start":5,"action_noise":0.15,"location_history":"[5,0,1,3]","action_history":"[1,1,0]","mutagen_history":"[0,0,1]","location_rts":"[1699,1431,981]","trial_type":"fractal-mutation","trial_index":96,"time_elapsed":2152623,"internal_node_id":"0.0-5.0-42.0"},{"group":"hexagon_tri","fractal_assignment":["../images/org_blu.png","../images/pnk_blu.png","../images/blu_wht.png","../images/ylw_slt.png","../images/gry_blk.png","../images/cyn_red.png"],"mutagen_generator_assignment":[1,0],"goal":0,"start":3,"action_noise":0.15,"location_history":"[3,4,2,1,3,4,2,3,2,3,4,2,1,3,2,1,3,2,3,4,0]","action_history":"[1,0,0,0,1,1,1,0,1,1,1,0,0,0,0,1,1,1,1,0]","mutagen_history":"[0,1,1,1,0,0,0,1,0,0,0,1,1,1,1,0,0,0,0,1]","location_rts":"[1254,790,496,957,638,444,480,519,818,550,571,833,578,469,385,782,676,631,1089,976]","trial_type":"fractal-mutation","trial_index":97,"time_elapsed":2190810,"internal_node_id":"0.0-5.0-43.0"},{"group":"hexagon_tri","fractal_assignment":["../images/org_blu.png","../images/pnk_blu.png","../images/blu_wht.png","../images/ylw_slt.png","../images/gry_blk.png","../images/cyn_red.png"],"mutagen_generator_assignment":[1,0],"goal":2,"start":0,"action_noise":0.15,"location_history":"[0,1,3,2]","action_history":"[0,0,0]","mutagen_history":"[1,1,1]","location_rts":"[2052,839,842]","trial_type":"fractal-mutation","trial_index":98,"time_elapsed":2201169,"internal_node_id":"0.0-5.0-44.0"},{"group":"hexagon_tri","fractal_assignment":["../images/org_blu.png","../images/pnk_blu.png","../images/blu_wht.png","../images/ylw_slt.png","../images/gry_blk.png","../images/cyn_red.png"],"mutagen_generator_assignment":[1,0],"goal":4,"start":2,"action_noise":0.15,"location_history":"[2,1,5,0,5,4]","action_history":"[0,1,1,1,0]","mutagen_history":"[1,0,0,0,1]","location_rts":"[871,677,605,746,630]","trial_type":"fractal-mutation","trial_index":99,"time_elapsed":2213411,"internal_node_id":"0.0-5.0-45.0"},{"group":"hexagon_tri","fractal_assignment":["../images/org_blu.png","../images/pnk_blu.png","../images/blu_wht.png","../images/ylw_slt.png","../images/gry_blk.png","../images/cyn_red.png"],"mutagen_generator_assignment":[1,0],"goal":1,"start":4,"action_noise":0.15,"location_history":"[4,2,1]","action_history":"[0,0]","mutagen_history":"[1,1]","location_rts":"[1812,759]","trial_type":"fractal-mutation","trial_index":100,"time_elapsed":2221582,"internal_node_id":"0.0-5.0-46.0"},{"group":"hexagon_tri","fractal_assignment":["../images/org_blu.png","../images/pnk_blu.png","../images/blu_wht.png","../images/ylw_slt.png","../images/gry_blk.png","../images/cyn_red.png"],"mutagen_generator_assignment":[1,0],"goal":4,"start":1,"action_noise":0.15,"location_history":"[1,3,2,1,5,4]","action_history":"[0,0,0,1,0]","mutagen_history":"[1,1,1,0,1]","location_rts":"[2462,702,682,824,1033]","trial_type":"fractal-mutation","trial_index":101,"time_elapsed":2236018,"internal_node_id":"0.0-5.0-47.0"},{"group":"hexagon_tri","fractal_assignment":["../images/org_blu.png","../images/pnk_blu.png","../images/blu_wht.png","../images/ylw_slt.png","../images/gry_blk.png","../images/cyn_red.png"],"mutagen_generator_assignment":[1,0],"goal":3,"start":4,"action_noise":0.15,"location_history":"[4,2,3]","action_history":"[1,1]","mutagen_history":"[0,0]","location_rts":"[1664,723]","trial_type":"fractal-mutation","trial_index":102,"time_elapsed":2243981,"internal_node_id":"0.0-5.0-48.0"},{"group":"hexagon_tri","fractal_assignment":["../images/org_blu.png","../images/pnk_blu.png","../images/blu_wht.png","../images/ylw_slt.png","../images/gry_blk.png","../images/cyn_red.png"],"mutagen_generator_assignment":[1,0],"goal":5,"start":3,"action_noise":0.15,"location_history":"[3,2,3,4,2,3,2,3,4,0,1,3,4,0,5]","action_history":"[0,1,1,1,1,1,1,1,0,1,1,1,0,0]","mutagen_history":"[1,0,0,0,0,0,0,0,1,0,0,0,1,1]","location_rts":"[1100,1379,712,439,704,592,473,719,407,983,789,534,660,620]","trial_type":"fractal-mutation","trial_index":103,"time_elapsed":2272121,"internal_node_id":"0.0-5.0-49.0"},{"view_history":"[{\"page_index\":0,\"viewing_time\":14306}]","rt":14307,"trial_type":"instructions","trial_index":104,"time_elapsed":2287429,"internal_node_id":"0.0-6.0"},{"rt":2664,"responses":"{\"Q0\":\"\"}","trial_type":"survey-text","trial_index":105,"time_elapsed":2291109,"internal_node_id":"0.0-7.0"}]