[{"view_history":"[{\"page_index\":0,\"viewing_time\":1444017},{\"page_index\":1,\"viewing_time\":11919},{\"page_index\":2,\"viewing_time\":24240},{\"page_index\":3,\"viewing_time\":120004}]","rt":1600180,"trial_type":"instructions","trial_index":0,"time_elapsed":1600181,"internal_node_id":"0.0-0.0"},{"view_history":"[{\"page_index\":0,\"viewing_time\":2542},{\"page_index\":1,\"viewing_time\":22566}]","rt":25109,"trial_type":"instructions","trial_index":1,"time_elapsed":1626297,"internal_node_id":"0.0-1.0"},{"group":"hexagon_bi","room_assignment":["green","red","yellow","blue","grey","purple"],"door_color_assignment":["white","black"],"door_generator_assignment":[1,0],"goal":4,"start":0,"action_noise":0.15,"location_history":"[0,5,4]","action_history":"[0,1]","door_history":"[1,0]","location_rts":"[2683,1758]","trial_type":"two-door-navigation","trial_index":2,"time_elapsed":1638757,"internal_node_id":"0.0-2.0-0.0"},{"group":"hexagon_bi","room_assignment":["green","red","yellow","blue","grey","purple"],"door_color_assignment":["white","black"],"door_generator_assignment":[1,0],"goal":3,"start":4,"action_noise":0.15,"location_history":"[4,5,4,3]","action_history":"[1,1,0]","door_history":"[0,0,1]","location_rts":"[2153,1547,793]","trial_type":"two-door-navigation","trial_index":3,"time_elapsed":1651266,"internal_node_id":"0.0-2.0-1.0"},{"group":"hexagon_bi","room_assignment":["green","red","yellow","blue","grey","purple"],"door_color_assignment":["white","black"],"door_generator_assignment":[1,0],"goal":5,"start":3,"action_noise":0.15,"location_history":"[3,4,5]","action_history":"[0,1]","door_history":"[1,0]","location_rts":"[1037,1536]","trial_type":"two-door-navigation","trial_index":4,"time_elapsed":1660291,"internal_node_id":"0.0-2.0-2.0"},{"group":"hexagon_bi","room_assignment":["green","red","yellow","blue","grey","purple"],"door_color_assignment":["white","black"],"door_generator_assignment":[1,0],"goal":2,"start":5,"action_noise":0.15,"location_history":"[5,4,5,4,5,0,1,2]","action_history":"[1,1,1,1,0,1,0]","door_history":"[0,0,0,0,1,0,1]","location_rts":"[1002,324,432,2085,445,739,748]","trial_type":"two-door-navigation","trial_index":5,"time_elapsed":1678370,"internal_node_id":"0.0-2.0-3.0"},{"group":"hexagon_bi","room_assignment":["green","red","yellow","blue","grey","purple"],"door_color_assignment":["white","black"],"door_generator_assignment":[1,0],"goal":1,"start":2,"action_noise":0.15,"location_history":"[2,1]","action_history":"[0]","door_history":"[1]","location_rts":"[3277]","trial_type":"two-door-navigation","trial_index":6,"time_elapsed":1687488,"internal_node_id":"0.0-2.0-4.0"},{"group":"hexagon_bi","room_assignment":["green","red","yellow","blue","grey","purple"],"door_color_assignment":["white","black"],"door_generator_assignment":[1,0],"goal":4,"start":1,"action_noise":0.15,"location_history":"[1,0,1,2,3,2,3,2,3,4]","action_history":"[1,1,0,1,1,1,0,1,0]","door_history":"[0,0,1,0,0,0,1,0,1]","location_rts":"[1345,1050,1235,396,440,418,318,345,367]","trial_type":"two-door-navigation","trial_index":7,"time_elapsed":1712279,"internal_node_id":"0.0-2.0-5.0"},{"group":"hexagon_bi","room_assignment":["green","red","yellow","blue","grey","purple"],"door_color_assignment":["white","black"],"door_generator_assignment":[1,0],"goal":1,"start":4,"action_noise":0.15,"location_history":"[4,5,0,1]","action_history":"[1,0,1]","door_history":"[0,1,0]","location_rts":"[1190,427,438]","trial_type":"two-door-navigation","trial_index":8,"time_elapsed":1721897,"internal_node_id":"0.0-2.0-6.0"},{"group":"hexagon_bi","room_assignment":["green","red","yellow","blue","grey","purple"],"door_color_assignment":["white","black"],"door_generator_assignment":[1,0],"goal":5,"start":1,"action_noise":0.15,"location_history":"[1,2,3,2,1,0,1,0,5]","action_history":"[0,1,1,0,1,1,1,0]","door_history":"[1,0,0,1,0,0,0,1]","location_rts":"[1732,269,364,693,352,355,1995,436]","trial_type":"two-door-navigation","trial_index":9,"time_elapsed":1745167,"internal_node_id":"0.0-2.0-7.0"},{"group":"hexagon_bi","room_assignment":["green","red","yellow","blue","grey","purple"],"door_color_assignment":["white","black"],"door_generator_assignment":[1,0],"goal":0,"start":5,"action_noise":0.15,"location_history":"[5,0]","action_history":"[1]","door_history":"[0]","location_rts":"[4522]","trial_type":"two-door-navigation","trial_index":10,"time_elapsed":1756378,"internal_node_id":"0.0-2.0-8.0"},{"group":"hexagon_bi","room_assignment":["green","red","yellow","blue","grey","purple"],"door_color_assignment":["white","black"],"door_generator_assignment":[1,0],"goal":2,"start":0,"action_noise":0.15,"location_history":"[0,1,2]","action_history":"[1,0]","door_history":"[0,1]","location_rts":"[27785,602]","trial_type":"two-door-navigation","trial_index":11,"time_elapsed":1790347,"internal_node_id":"0.0-2.0-9.0"},{"group":"hexagon_bi","room_assignment":["green","red","yellow","blue","grey","purple"],"door_color_assignment":["white","black"],"door_generator_assignment":[1,0],"goal":3,"start":2,"action_noise":0.15,"location_history":"[2,3]","action_history":"[1]","door_history":"[0]","location_rts":"[6206]","trial_type":"two-door-navigation","trial_index":12,"time_elapsed":1801972,"internal_node_id":"0.0-2.0-10.0"},{"group":"hexagon_bi","room_assignment":["green","red","yellow","blue","grey","purple"],"door_color_assignment":["white","black"],"door_generator_assignment":[1,0],"goal":0,"start":3,"action_noise":0.15,"location_history":"[3,4,5,0]","action_history":"[0,1,0]","door_history":"[1,0,1]","location_rts":"[4787,2477,412]","trial_type":"two-door-navigation","trial_index":13,"time_elapsed":1817235,"internal_node_id":"0.0-2.0-11.0"},{"group":"hexagon_bi","room_assignment":["green","red","yellow","blue","grey","purple"],"door_color_assignment":["white","black"],"door_generator_assignment":[1,0],"goal":2,"start":0,"action_noise":0.15,"location_history":"[0,1,2]","action_history":"[1,0]","door_history":"[0,1]","location_rts":"[2422,473]","trial_type":"two-door-navigation","trial_index":14,"time_elapsed":1827008,"internal_node_id":"0.0-2.0-12.0"},{"group":"hexagon_bi","room_assignment":["green","red","yellow","blue","grey","purple"],"door_color_assignment":["white","black"],"door_generator_assignment":[1,0],"goal":5,"start":2,"action_noise":0.15,"location_history":"[2,3,4,3,4,5]","action_history":"[0,1,0,0,1]","door_history":"[1,0,1,1,0]","location_rts":"[4166,1105,442,563,273]","trial_type":"two-door-navigation","trial_index":15,"time_elapsed":1845564,"internal_node_id":"0.0-2.0-13.0"},{"group":"hexagon_bi","room_assignment":["green","red","yellow","blue","grey","purple"],"door_color_assignment":["white","black"],"door_generator_assignment":[1,0],"goal":4,"start":5,"action_noise":0.15,"location_history":"[5,4]","action_history":"[1]","door_history":"[0]","location_rts":"[3049]","trial_type":"two-door-navigation","trial_index":16,"time_elapsed":1854274,"internal_node_id":"0.0-2.0-14.0"},{"group":"hexagon_bi","room_assignment":["green","red","yellow","blue","grey","purple"],"door_color_assignment":["white","black"],"door_generator_assignment":[1,0],"goal":3,"start":4,"action_noise":0.15,"location_history":"[4,3]","action_history":"[0]","door_history":"[1]","location_rts":"[2548]","trial_type":"two-door-navigation","trial_index":17,"time_elapsed":1862342,"internal_node_id":"0.0-2.0-15.0"},{"group":"hexagon_bi","room_assignment":["green","red","yellow","blue","grey","purple"],"door_color_assignment":["white","black"],"door_generator_assignment":[1,0],"goal":1,"start":3,"action_noise":0.15,"location_history":"[3,4,3,2,1]","action_history":"[0,0,1,0]","door_history":"[1,1,0,1]","location_rts":"[6929,1719,1640,379]","trial_type":"two-door-navigation","trial_index":18,"time_elapsed":1881970,"internal_node_id":"0.0-2.0-16.0"},{"group":"hexagon_bi","room_assignment":["green","red","yellow","blue","grey","purple"],"door_color_assignment":["white","black"],"door_generator_assignment":[1,0],"goal":5,"start":1,"action_noise":0.15,"location_history":"[1,0,1,2,3,4,5]","action_history":"[0,1,0,1,0,1]","door_history":"[1,0,1,0,1,0]","location_rts":"[1900,343,569,950,930,487]","trial_type":"two-door-navigation","trial_index":19,"time_elapsed":1901446,"internal_node_id":"0.0-2.0-17.0"},{"group":"hexagon_bi","room_assignment":["green","red","yellow","blue","grey","purple"],"door_color_assignment":["white","black"],"door_generator_assignment":[1,0],"goal":4,"start":5,"action_noise":0.15,"location_history":"[5,4]","action_history":"[1]","door_history":"[0]","location_rts":"[2145]","trial_type":"two-door-navigation","trial_index":20,"time_elapsed":1909151,"internal_node_id":"0.0-2.0-18.0"},{"group":"hexagon_bi","room_assignment":["green","red","yellow","blue","grey","purple"],"door_color_assignment":["white","black"],"door_generator_assignment":[1,0],"goal":0,"start":4,"action_noise":0.15,"location_history":"[4,3,2,1,0]","action_history":"[0,1,0,1]","door_history":"[1,0,1,0]","location_rts":"[4516,2123,926,979]","trial_type":"two-door-navigation","trial_index":21,"time_elapsed":1928678,"internal_node_id":"0.0-2.0-19.0"},{"group":"hexagon_bi","room_assignment":["green","red","yellow","blue","grey","purple"],"door_color_assignment":["white","black"],"door_generator_assignment":[1,0],"goal":1,"start":0,"action_noise":0.15,"location_history":"[0,1]","action_history":"[1]","door_history":"[0]","location_rts":"[1742]","trial_type":"two-door-navigation","trial_index":22,"time_elapsed":1937199,"internal_node_id":"0.0-2.0-20.0"},{"group":"hexagon_bi","room_assignment":["green","red","yellow","blue","grey","purple"],"door_color_assignment":["white","black"],"door_generator_assignment":[1,0],"goal":3,"start":1,"action_noise":0.15,"location_history":"[1,0,5,4,3]","action_history":"[1,0,1,0]","door_history":"[0,1,0,1]","location_rts":"[4180,330,1034,1266]","trial_type":"two-door-navigation","trial_index":23,"time_elapsed":1952888,"internal_node_id":"0.0-2.0-21.0"},{"group":"hexagon_bi","room_assignment":["green","red","yellow","blue","grey","purple"],"door_color_assignment":["white","black"],"door_generator_assignment":[1,0],"goal":2,"start":3,"action_noise":0.15,"location_history":"[3,4,5,0,1,0,1,0,5,4,5,4,3,4,3,4,5,0,1,0,5,4,5,4,5,4,5,0,5,0,1,2]","action_history":"[0,1,0,1,0,1,1,0,1,1,1,0,1,1,0,1,0,1,1,1,0,0,1,0,1,1,0,0,0,1,0]","door_history":"[1,0,1,0,1,0,0,1,0,0,0,1,0,0,1,0,1,0,0,0,1,1,0,1,0,0,1,1,1,0,1]","location_rts":"[19617,1312,874,2891,2050,1873,1549,2382,2141,1007,452,311,1556,914,355,412,572,363,342,1603,281,1980,1373,3842,1020,738,338,1443,901,1180,5278]","trial_type":"two-door-navigation","trial_index":24,"time_elapsed":2066095,"internal_node_id":"0.0-2.0-22.0"},{"group":"hexagon_bi","room_assignment":["green","red","yellow","blue","grey","purple"],"door_color_assignment":["white","black"],"door_generator_assignment":[1,0],"goal":0,"start":2,"action_noise":0.15,"location_history":"[2,1,0]","action_history":"[0,1]","door_history":"[1,0]","location_rts":"[230912,1222]","trial_type":"two-door-navigation","trial_index":25,"time_elapsed":2307607,"internal_node_id":"0.0-2.0-23.0"},{"group":"hexagon_bi","room_assignment":["green","red","yellow","blue","grey","purple"],"door_color_assignment":["white","black"],"door_generator_assignment":[1,0],"goal":3,"start":0,"action_noise":0.15,"location_history":"[0,1,2,1,0,1,0,5,0,1,2,3]","action_history":"[1,0,0,1,0,1,0,0,1,0,1]","door_history":"[0,1,1,0,1,0,1,1,0,1,0]","location_rts":"[6323,4007,2804,1465,2837,3342,1909,6680,708,2034,1150]","trial_type":"two-door-navigation","trial_index":26,"time_elapsed":2362820,"internal_node_id":"0.0-2.0-24.0"},{"group":"hexagon_bi","room_assignment":["green","red","yellow","blue","grey","purple"],"door_color_assignment":["white","black"],"door_generator_assignment":[1,0],"goal":1,"start":3,"action_noise":0.15,"location_history":"[3,4,3,4,5,0,5,0,5,4,5,0,5,0,1]","action_history":"[0,0,1,0,0,1,0,0,1,1,0,1,0,1]","door_history":"[1,1,0,1,1,0,1,1,0,0,1,0,1,0]","location_rts":"[18630,1392,396,1432,80291,848,829,1290,452,2158,416,507,556,604]","trial_type":"two-door-navigation","trial_index":27,"time_elapsed":2495619,"internal_node_id":"0.0-2.0-25.0"},{"group":"hexagon_bi","room_assignment":["green","red","yellow","blue","grey","purple"],"door_color_assignment":["white","black"],"door_generator_assignment":[1,0],"goal":2,"start":1,"action_noise":0.15,"location_history":"[1,0,1,2]","action_history":"[0,1,1]","door_history":"[1,0,0]","location_rts":"[16538,769,562]","trial_type":"two-door-navigation","trial_index":28,"time_elapsed":2521212,"internal_node_id":"0.0-2.0-26.0"},{"group":"hexagon_bi","room_assignment":["green","red","yellow","blue","grey","purple"],"door_color_assignment":["white","black"],"door_generator_assignment":[1,0],"goal":5,"start":2,"action_noise":0.15,"location_history":"[2,1,0,5]","action_history":"[0,1,0]","door_history":"[1,0,1]","location_rts":"[2094,674,2117]","trial_type":"two-door-navigation","trial_index":29,"time_elapsed":2537793,"internal_node_id":"0.0-2.0-27.0"},{"group":"hexagon_bi","room_assignment":["green","red","yellow","blue","grey","purple"],"door_color_assignment":["white","black"],"door_generator_assignment":[1,0],"goal":4,"start":5,"action_noise":0.15,"location_history":"[5,0,5,4]","action_history":"[0,0,1]","door_history":"[1,1,0]","location_rts":"[21653,875,406]","trial_type":"two-door-navigation","trial_index":30,"time_elapsed":2572638,"internal_node_id":"0.0-2.0-28.0"},{"group":"hexagon_bi","room_assignment":["green","red","yellow","blue","grey","purple"],"door_color_assignment":["white","black"],"door_generator_assignment":[1,0],"goal":5,"start":4,"action_noise":0.15,"location_history":"[4,5]","action_history":"[0]","door_history":"[1]","location_rts":"[36918]","trial_type":"two-door-navigation","trial_index":31,"time_elapsed":2616233,"internal_node_id":"0.0-2.0-29.0"},{"group":"hexagon_bi","room_assignment":["green","red","yellow","blue","grey","purple"],"door_color_assignment":["white","black"],"door_generator_assignment":[1,0],"goal":3,"start":5,"action_noise":0.15,"location_history":"[5,4,3]","action_history":"[0,0]","door_history":"[1,1]","location_rts":"[5288,434]","trial_type":"two-door-navigation","trial_index":32,"time_elapsed":2628527,"internal_node_id":"0.0-2.0-30.0"},{"group":"hexagon_bi","room_assignment":["green","red","yellow","blue","grey","purple"],"door_color_assignment":["white","black"],"door_generator_assignment":[1,0],"goal":0,"start":3,"action_noise":0.15,"location_history":"[3,4,3,4,3,2,3,2,1,0]","action_history":"[0,0,1,0,1,1,1,0,1]","door_history":"[1,1,0,1,0,0,0,1,0]","location_rts":"[1650,571,286,1711,349,1447,566,365,1013]","trial_type":"two-door-navigation","trial_index":33,"time_elapsed":2655679,"internal_node_id":"0.0-2.0-31.0"},{"group":"hexagon_bi","room_assignment":["green","red","yellow","blue","grey","purple"],"door_color_assignment":["white","black"],"door_generator_assignment":[1,0],"goal":4,"start":0,"action_noise":0.15,"location_history":"[0,5,4]","action_history":"[0,1]","door_history":"[1,0]","location_rts":"[3587,1934]","trial_type":"two-door-navigation","trial_index":34,"time_elapsed":2669945,"internal_node_id":"0.0-2.0-32.0"},{"group":"hexagon_bi","room_assignment":["green","red","yellow","blue","grey","purple"],"door_color_assignment":["white","black"],"door_generator_assignment":[1,0],"goal":1,"start":4,"action_noise":0.15,"location_history":"[4,3,2,1]","action_history":"[0,1,0]","door_history":"[1,0,1]","location_rts":"[27866,1583,433]","trial_type":"two-door-navigation","trial_index":35,"time_elapsed":2707519,"internal_node_id":"0.0-2.0-33.0"},{"group":"hexagon_bi","room_assignment":["green","red","yellow","blue","grey","purple"],"door_color_assignment":["white","black"],"door_generator_assignment":[1,0],"goal":2,"start":1,"action_noise":0.15,"location_history":"[1,2]","action_history":"[0]","door_history":"[1]","location_rts":"[1434]","trial_type":"two-door-navigation","trial_index":36,"time_elapsed":2713565,"internal_node_id":"0.0-2.0-34.0"},{"group":"hexagon_bi","room_assignment":["green","red","yellow","blue","grey","purple"],"door_color_assignment":["white","black"],"door_generator_assignment":[1,0],"goal":0,"start":2,"action_noise":0.15,"location_history":"[2,3,2,3,2,1,2,3,4,5,0]","action_history":"[1,0,1,1,0,1,0,1,1,0]","door_history":"[0,1,0,0,1,0,1,0,0,1]","location_rts":"[1803,500,1982,640,321,1082,2109,742,434,275]","trial_type":"two-door-navigation","trial_index":37,"time_elapsed":2740409,"internal_node_id":"0.0-2.0-35.0"},{"group":"hexagon_bi","room_assignment":["green","red","yellow","blue","grey","purple"],"door_color_assignment":["white","black"],"door_generator_assignment":[1,0],"goal":5,"start":0,"action_noise":0.15,"location_history":"[0,1,2,3,4,5]","action_history":"[1,0,1,0,1]","door_history":"[0,1,0,1,0]","location_rts":"[4035,444,1600,567,1387]","trial_type":"two-door-navigation","trial_index":38,"time_elapsed":2759973,"internal_node_id":"0.0-2.0-36.0"},{"group":"hexagon_bi","room_assignment":["green","red","yellow","blue","grey","purple"],"door_color_assignment":["white","black"],"door_generator_assignment":[1,0],"goal":2,"start":5,"action_noise":0.15,"location_history":"[5,0,5,4,5,0,1,2]","action_history":"[0,0,1,1,0,1,0]","door_history":"[1,1,0,0,1,0,1]","location_rts":"[16204,26887,4903,1218,320,1128,534]","trial_type":"two-door-navigation","trial_index":39,"time_elapsed":2824263,"internal_node_id":"0.0-2.0-37.0"},{"group":"hexagon_bi","room_assignment":["green","red","yellow","blue","grey","purple"],"door_color_assignment":["white","black"],"door_generator_assignment":[1,0],"goal":1,"start":2,"action_noise":0.15,"location_history":"[2,3,2,3,2,1]","action_history":"[1,0,1,1,0]","door_history":"[0,1,0,0,1]","location_rts":"[2634,1025,584,449,299]","trial_type":"two-door-navigation","trial_index":40,"time_elapsed":2839206,"internal_node_id":"0.0-2.0-38.0"},{"group":"hexagon_bi","room_assignment":["green","red","yellow","blue","grey","purple"],"door_color_assignment":["white","black"],"door_generator_assignment":[1,0],"goal":4,"start":1,"action_noise":0.15,"location_history":"[1,0,5,0,1,0,5,4]","action_history":"[1,0,1,1,1,0,1]","door_history":"[0,1,0,0,0,1,0]","location_rts":"[3295,2793,1792,1612,2034,482,1045]","trial_type":"two-door-navigation","trial_index":41,"time_elapsed":2865136,"internal_node_id":"0.0-2.0-39.0"},{"group":"hexagon_bi","room_assignment":["green","red","yellow","blue","grey","purple"],"door_color_assignment":["white","black"],"door_generator_assignment":[1,0],"goal":3,"start":4,"action_noise":0.15,"location_history":"[4,3]","action_history":"[0]","door_history":"[1]","location_rts":"[72450]","trial_type":"two-door-navigation","trial_index":42,"time_elapsed":2942124,"internal_node_id":"0.0-2.0-40.0"},{"group":"hexagon_bi","room_assignment":["green","red","yellow","blue","grey","purple"],"door_color_assignment":["white","black"],"door_generator_assignment":[1,0],"goal":5,"start":3,"action_noise":0.15,"location_history":"[3,2,1,0,5]","action_history":"[1,0,1,0]","door_history":"[0,1,0,1]","location_rts":"[3157,462,1143,1470]","trial_type":"two-door-navigation","trial_index":43,"time_elapsed":2959867,"internal_node_id":"0.0-2.0-41.0"},{"group":"hexagon_bi","room_assignment":["green","red","yellow","blue","grey","purple"],"door_color_assignment":["white","black"],"door_generator_assignment":[1,0],"goal":3,"start":5,"action_noise":0.15,"location_history":"[5,0,1,0,5,0,1,2,3]","action_history":"[0,1,1,0,0,1,0,1]","door_history":"[1,0,0,1,1,0,1,0]","location_rts":"[8050,9229,11336,1586,24892,632,460,1748]","trial_type":"two-door-navigation","trial_index":44,"time_elapsed":3030656,"internal_node_id":"0.0-2.0-42.0"},{"group":"hexagon_bi","room_assignment":["green","red","yellow","blue","grey","purple"],"door_color_assignment":["white","black"],"door_generator_assignment":[1,0],"goal":0,"start":3,"action_noise":0.15,"location_history":"[3,4,3,2,3,4,5,0]","action_history":"[0,0,1,1,0,1,0]","door_history":"[1,1,0,0,1,0,1]","location_rts":"[92912,1944,301,3352,4554,8801,9000]","trial_type":"two-door-navigation","trial_index":45,"time_elapsed":3164580,"internal_node_id":"0.0-2.0-43.0"},{"group":"hexagon_bi","room_assignment":["green","red","yellow","blue","grey","purple"],"door_color_assignment":["white","black"],"door_generator_assignment":[1,0],"goal":2,"start":0,"action_noise":0.15,"location_history":"[0,1,0,1,2]","action_history":"[0,1,1,0]","door_history":"[1,0,0,1]","location_rts":"[3685,1199,2921,1728]","trial_type":"two-door-navigation","trial_index":46,"time_elapsed":3184975,"internal_node_id":"0.0-2.0-44.0"},{"group":"hexagon_bi","room_assignment":["green","red","yellow","blue","grey","purple"],"door_color_assignment":["white","black"],"door_generator_assignment":[1,0],"goal":4,"start":2,"action_noise":0.15,"location_history":"[2,1,0,5,0,1,2,3,2,1,0,5,0,5,4]","action_history":"[0,1,0,1,1,0,0,1,0,1,0,0,0,1]","door_history":"[1,0,1,0,0,1,1,0,1,0,1,1,1,0]","location_rts":"[47115,402,867,1512,631,327,1068,740,2187,1468,432,755,698,348]","trial_type":"two-door-navigation","trial_index":47,"time_elapsed":3265746,"internal_node_id":"0.0-2.0-45.0"},{"group":"hexagon_bi","room_assignment":["green","red","yellow","blue","grey","purple"],"door_color_assignment":["white","black"],"door_generator_assignment":[1,0],"goal":1,"start":4,"action_noise":0.15,"location_history":"[4,3,2,1]","action_history":"[0,1,0]","door_history":"[1,0,1]","location_rts":"[1757,769,1087]","trial_type":"two-door-navigation","trial_index":48,"time_elapsed":3287487,"internal_node_id":"0.0-2.0-46.0"},{"group":"hexagon_bi","room_assignment":["green","red","yellow","blue","grey","purple"],"door_color_assignment":["white","black"],"door_generator_assignment":[1,0],"goal":4,"start":1,"action_noise":0.15,"location_history":"[1,2,3,4]","action_history":"[0,1,0]","door_history":"[1,0,1]","location_rts":"[8565,864,1352]","trial_type":"two-door-navigation","trial_index":49,"time_elapsed":3306094,"internal_node_id":"0.0-2.0-47.0"},{"group":"hexagon_bi","room_assignment":["green","red","yellow","blue","grey","purple"],"door_color_assignment":["white","black"],"door_generator_assignment":[1,0],"goal":3,"start":4,"action_noise":0.15,"location_history":"[4,3]","action_history":"[0]","door_history":"[1]","location_rts":"[14914]","trial_type":"two-door-navigation","trial_index":50,"time_elapsed":3325750,"internal_node_id":"0.0-2.0-48.0"},{"group":"hexagon_bi","room_assignment":["green","red","yellow","blue","grey","purple"],"door_color_assignment":["white","black"],"door_generator_assignment":[1,0],"goal":5,"start":3,"action_noise":0.15,"location_history":"[3,2,3,4,3,4,5]","action_history":"[1,0,1,0,0,1]","door_history":"[0,1,0,1,1,0]","location_rts":"[5204,3505,1978,461,1969,641]","trial_type":"two-door-navigation","trial_index":51,"time_elapsed":3350777,"internal_node_id":"0.0-2.0-49.0"},{"view_history":"[{\"page_index\":0,\"viewing_time\":23695}]","rt":23696,"trial_type":"instructions","trial_index":52,"time_elapsed":3377239,"internal_node_id":"0.0-3.0"},{"view_history":"[{\"page_index\":0,\"viewing_time\":42399},{\"page_index\":1,\"viewing_time\":13308}]","rt":55708,"trial_type":"instructions","trial_index":53,"time_elapsed":3433948,"internal_node_id":"0.0-4.0"},{"group":"hexagon_tri","fractal_assignment":["../images/pnk_blu.png","../images/gry_blk.png","../images/org_blu.png","../images/ylw_slt.png","../images/cyn_red.png","../images/blu_wht.png"],"mutagen_generator_assignment":[1,0],"goal":4,"start":0,"action_noise":0.15,"location_history":"[0,5,4]","action_history":"[1,0]","mutagen_history":"[0,1]","location_rts":"[7064,3586]","trial_type":"fractal-mutation","trial_index":54,"time_elapsed":3450168,"internal_node_id":"0.0-5.0-0.0"},{"group":"hexagon_tri","fractal_assignment":["../images/pnk_blu.png","../images/gry_blk.png","../images/org_blu.png","../images/ylw_slt.png","../images/cyn_red.png","../images/blu_wht.png"],"mutagen_generator_assignment":[1,0],"goal":3,"start":4,"action_noise":0.15,"location_history":"[4,2,1,5,0,5,4,2,1,3]","action_history":"[1,0,1,1,0,0,1,0,1]","mutagen_history":"[0,1,0,0,1,1,0,1,0]","location_rts":"[475,635,592,1123,144,564,1573,1059,824]","trial_type":"fractal-mutation","trial_index":55,"time_elapsed":3474481,"internal_node_id":"0.0-5.0-1.0"},{"group":"hexagon_tri","fractal_assignment":["../images/pnk_blu.png","../images/gry_blk.png","../images/org_blu.png","../images/ylw_slt.png","../images/cyn_red.png","../images/blu_wht.png"],"mutagen_generator_assignment":[1,0],"goal":5,"start":3,"action_noise":0.15,"location_history":"[3,4,0,1,3,4,0,5]","action_history":"[1,0,1,1,1,0,0]","mutagen_history":"[0,1,0,0,0,1,1]","location_rts":"[5428,706,2029,508,666,762,616]","trial_type":"fractal-mutation","trial_index":56,"time_elapsed":3498106,"internal_node_id":"0.0-5.0-2.0"},{"group":"hexagon_tri","fractal_assignment":["../images/pnk_blu.png","../images/gry_blk.png","../images/org_blu.png","../images/ylw_slt.png","../images/cyn_red.png","../images/blu_wht.png"],"mutagen_generator_assignment":[1,0],"goal":2,"start":5,"action_noise":0.15,"location_history":"[5,4,2]","action_history":"[0,1]","mutagen_history":"[1,0]","location_rts":"[520,482]","trial_type":"fractal-mutation","trial_index":57,"time_elapsed":3505903,"internal_node_id":"0.0-5.0-3.0"},{"group":"hexagon_tri","fractal_assignment":["../images/pnk_blu.png","../images/gry_blk.png","../images/org_blu.png","../images/ylw_slt.png","../images/cyn_red.png","../images/blu_wht.png"],"mutagen_generator_assignment":[1,0],"goal":1,"start":2,"action_noise":0.15,"location_history":"[2,3,4,0,5,0,5,0,1]","action_history":"[1,1,0,0,1,0,1,1]","mutagen_history":"[0,0,1,1,0,1,0,0]","location_rts":"[1408,1838,2818,1045,708,1207,1528,696]","trial_type":"fractal-mutation","trial_index":58,"time_elapsed":3534119,"internal_node_id":"0.0-5.0-4.0"},{"group":"hexagon_tri","fractal_assignment":["../images/pnk_blu.png","../images/gry_blk.png","../images/org_blu.png","../images/ylw_slt.png","../images/cyn_red.png","../images/blu_wht.png"],"mutagen_generator_assignment":[1,0],"goal":4,"start":1,"action_noise":0.15,"location_history":"[1,5,4]","action_history":"[1,0]","mutagen_history":"[0,1]","location_rts":"[408,644]","trial_type":"fractal-mutation","trial_index":59,"time_elapsed":3543244,"internal_node_id":"0.0-5.0-5.0"},{"group":"hexagon_tri","fractal_assignment":["../images/pnk_blu.png","../images/gry_blk.png","../images/org_blu.png","../images/ylw_slt.png","../images/cyn_red.png","../images/blu_wht.png"],"mutagen_generator_assignment":[1,0],"goal":1,"start":4,"action_noise":0.15,"location_history":"[4,0,1]","action_history":"[0,1]","mutagen_history":"[1,0]","location_rts":"[1222,407]","trial_type":"fractal-mutation","trial_index":60,"time_elapsed":3550470,"internal_node_id":"0.0-5.0-6.0"},{"group":"hexagon_tri","fractal_assignment":["../images/pnk_blu.png","../images/gry_blk.png","../images/org_blu.png","../images/ylw_slt.png","../images/cyn_red.png","../images/blu_wht.png"],"mutagen_generator_assignment":[1,0],"goal":5,"start":1,"action_noise":0.15,"location_history":"[1,5]","action_history":"[1]","mutagen_history":"[0]","location_rts":"[3708]","trial_type":"fractal-mutation","trial_index":61,"time_elapsed":3559617,"internal_node_id":"0.0-5.0-7.0"},{"group":"hexagon_tri","fractal_assignment":["../images/pnk_blu.png","../images/gry_blk.png","../images/org_blu.png","../images/ylw_slt.png","../images/cyn_red.png","../images/blu_wht.png"],"mutagen_generator_assignment":[1,0],"goal":0,"start":5,"action_noise":0.15,"location_history":"[5,0]","action_history":"[1]","mutagen_history":"[0]","location_rts":"[1028]","trial_type":"fractal-mutation","trial_index":62,"time_elapsed":3566194,"internal_node_id":"0.0-5.0-8.0"},{"group":"hexagon_tri","fractal_assignment":["../images/pnk_blu.png","../images/gry_blk.png","../images/org_blu.png","../images/ylw_slt.png","../images/cyn_red.png","../images/blu_wht.png"],"mutagen_generator_assignment":[1,0],"goal":2,"start":0,"action_noise":0.15,"location_history":"[0,5,4,2]","action_history":"[1,0,1]","mutagen_history":"[0,1,0]","location_rts":"[1833,1808,461]","trial_type":"fractal-mutation","trial_index":63,"time_elapsed":3576958,"internal_node_id":"0.0-5.0-9.0"},{"group":"hexagon_tri","fractal_assignment":["../images/pnk_blu.png","../images/gry_blk.png","../images/org_blu.png","../images/ylw_slt.png","../images/cyn_red.png","../images/blu_wht.png"],"mutagen_generator_assignment":[1,0],"goal":3,"start":2,"action_noise":0.15,"location_history":"[2,3]","action_history":"[1]","mutagen_history":"[0]","location_rts":"[578]","trial_type":"fractal-mutation","trial_index":64,"time_elapsed":3584424,"internal_node_id":"0.0-5.0-10.0"},{"group":"hexagon_tri","fractal_assignment":["../images/pnk_blu.png","../images/gry_blk.png","../images/org_blu.png","../images/ylw_slt.png","../images/cyn_red.png","../images/blu_wht.png"],"mutagen_generator_assignment":[1,0],"goal":0,"start":3,"action_noise":0.15,"location_history":"[3,2,3,4,2,1,5,4,0]","action_history":"[0,1,1,1,0,1,0,1]","mutagen_history":"[1,0,0,0,1,0,1,0]","location_rts":"[1219,544,1724,3102,1012,1377,1430,842]","trial_type":"fractal-mutation","trial_index":65,"time_elapsed":3614180,"internal_node_id":"0.0-5.0-11.0"},{"group":"hexagon_tri","fractal_assignment":["../images/pnk_blu.png","../images/gry_blk.png","../images/org_blu.png","../images/ylw_slt.png","../images/cyn_red.png","../images/blu_wht.png"],"mutagen_generator_assignment":[1,0],"goal":2,"start":0,"action_noise":0.15,"location_history":"[0,1,3,4,2]","action_history":"[1,0,1,1]","mutagen_history":"[0,1,0,0]","location_rts":"[1071,1184,650,834]","trial_type":"fractal-mutation","trial_index":66,"time_elapsed":3628317,"internal_node_id":"0.0-5.0-12.0"},{"group":"hexagon_tri","fractal_assignment":["../images/pnk_blu.png","../images/gry_blk.png","../images/org_blu.png","../images/ylw_slt.png","../images/cyn_red.png","../images/blu_wht.png"],"mutagen_generator_assignment":[1,0],"goal":5,"start":2,"action_noise":0.15,"location_history":"[2,3,4,2,1,5]","action_history":"[0,1,1,0,1]","mutagen_history":"[1,0,0,1,0]","location_rts":"[1675,544,255,1291,1127]","trial_type":"fractal-mutation","trial_index":67,"time_elapsed":3645870,"internal_node_id":"0.0-5.0-13.0"},{"group":"hexagon_tri","fractal_assignment":["../images/pnk_blu.png","../images/gry_blk.png","../images/org_blu.png","../images/ylw_slt.png","../images/cyn_red.png","../images/blu_wht.png"],"mutagen_generator_assignment":[1,0],"goal":4,"start":5,"action_noise":0.15,"location_history":"[5,0,5,0,5,4]","action_history":"[0,0,1,1,0]","mutagen_history":"[1,1,0,0,1]","location_rts":"[1769,793,1702,554,743]","trial_type":"fractal-mutation","trial_index":68,"time_elapsed":3661193,"internal_node_id":"0.0-5.0-14.0"},{"group":"hexagon_tri","fractal_assignment":["../images/pnk_blu.png","../images/gry_blk.png","../images/org_blu.png","../images/ylw_slt.png","../images/cyn_red.png","../images/blu_wht.png"],"mutagen_generator_assignment":[1,0],"goal":3,"start":4,"action_noise":0.15,"location_history":"[4,2,3]","action_history":"[1,1]","mutagen_history":"[0,0]","location_rts":"[7814,1428]","trial_type":"fractal-mutation","trial_index":69,"time_elapsed":3677063,"internal_node_id":"0.0-5.0-15.0"},{"group":"hexagon_tri","fractal_assignment":["../images/pnk_blu.png","../images/gry_blk.png","../images/org_blu.png","../images/ylw_slt.png","../images/cyn_red.png","../images/blu_wht.png"],"mutagen_generator_assignment":[1,0],"goal":1,"start":3,"action_noise":0.15,"location_history":"[3,2,3,4,0,5,4,2,1]","action_history":"[0,1,1,0,0,0,1,0]","mutagen_history":"[1,0,0,1,1,1,0,1]","location_rts":"[1215,651,1964,843,478,2008,109,652]","trial_type":"fractal-mutation","trial_index":70,"time_elapsed":3699188,"internal_node_id":"0.0-5.0-16.0"},{"group":"hexagon_tri","fractal_assignment":["../images/pnk_blu.png","../images/gry_blk.png","../images/org_blu.png","../images/ylw_slt.png","../images/cyn_red.png","../images/blu_wht.png"],"mutagen_generator_assignment":[1,0],"goal":5,"start":1,"action_noise":0.15,"location_history":"[1,5]","action_history":"[1]","mutagen_history":"[0]","location_rts":"[3051]","trial_type":"fractal-mutation","trial_index":71,"time_elapsed":3708323,"internal_node_id":"0.0-5.0-17.0"},{"group":"hexagon_tri","fractal_assignment":["../images/pnk_blu.png","../images/gry_blk.png","../images/org_blu.png","../images/ylw_slt.png","../images/cyn_red.png","../images/blu_wht.png"],"mutagen_generator_assignment":[1,0],"goal":4,"start":5,"action_noise":0.15,"location_history":"[5,0,1,5,4]","action_history":"[0,1,1,0]","mutagen_history":"[1,0,0,1]","location_rts":"[2618,1551,1942,1084]","trial_type":"fractal-mutation","trial_index":72,"time_elapsed":3725066,"internal_node_id":"0.0-5.0-18.0"},{"group":"hexagon_tri","fractal_assignment":["../images/pnk_blu.png","../images/gry_blk.png","../images/org_blu.png","../images/ylw_slt.png","../images/cyn_red.png","../images/blu_wht.png"],"mutagen_generator_assignment":[1,0],"goal":0,"start":4,"action_noise":0.15,"location_history":"[4,2,3,2,3,4,0]","action_history":"[1,1,0,1,1,0]","mutagen_history":"[0,0,1,0,0,1]","location_rts":"[1167,2215,894,772,1130,738]","trial_type":"fractal-mutation","trial_index":73,"time_elapsed":3743637,"internal_node_id":"0.0-5.0-19.0"},{"group":"hexagon_tri","fractal_assignment":["../images/pnk_blu.png","../images/gry_blk.png","../images/org_blu.png","../images/ylw_slt.png","../images/cyn_red.png","../images/blu_wht.png"],"mutagen_generator_assignment":[1,0],"goal":1,"start":0,"action_noise":0.15,"location_history":"[0,1]","action_history":"[0]","mutagen_history":"[1]","location_rts":"[1115]","trial_type":"fractal-mutation","trial_index":74,"time_elapsed":3750251,"internal_node_id":"0.0-5.0-20.0"},{"group":"hexagon_tri","fractal_assignment":["../images/pnk_blu.png","../images/gry_blk.png","../images/org_blu.png","../images/ylw_slt.png","../images/cyn_red.png","../images/blu_wht.png"],"mutagen_generator_assignment":[1,0],"goal":3,"start":1,"action_noise":0.15,"location_history":"[1,5,0,5,0,5,4,0,1,3]","action_history":"[1,1,1,1,0,1,0,1,1]","mutagen_history":"[0,0,0,0,1,0,1,0,0]","location_rts":"[8070,758,254,561,348,1516,592,1790,1535]","trial_type":"fractal-mutation","trial_index":75,"time_elapsed":3783105,"internal_node_id":"0.0-5.0-21.0"},{"group":"hexagon_tri","fractal_assignment":["../images/pnk_blu.png","../images/gry_blk.png","../images/org_blu.png","../images/ylw_slt.png","../images/cyn_red.png","../images/blu_wht.png"],"mutagen_generator_assignment":[1,0],"goal":2,"start":3,"action_noise":0.15,"location_history":"[3,4,0,1,3,4,0,5,0,1,5,0,5,4,2]","action_history":"[1,0,0,1,1,0,1,1,1,0,1,0,0,1]","mutagen_history":"[0,1,1,0,0,1,0,0,0,1,0,1,1,0]","location_rts":"[5173,474,515,495,744,813,1794,487,484,730,58340,504,389,571]","trial_type":"fractal-mutation","trial_index":76,"time_elapsed":3883830,"internal_node_id":"0.0-5.0-22.0"},{"group":"hexagon_tri","fractal_assignment":["../images/pnk_blu.png","../images/gry_blk.png","../images/org_blu.png","../images/ylw_slt.png","../images/cyn_red.png","../images/blu_wht.png"],"mutagen_generator_assignment":[1,0],"goal":0,"start":2,"action_noise":0.15,"location_history":"[2,3,4,2,1,5,0]","action_history":"[1,1,1,0,1,1]","mutagen_history":"[0,0,0,1,0,0]","location_rts":"[151078,8134,3288,472,1536,4791]","trial_type":"fractal-mutation","trial_index":77,"time_elapsed":4064987,"internal_node_id":"0.0-5.0-23.0"},{"group":"hexagon_tri","fractal_assignment":["../images/pnk_blu.png","../images/gry_blk.png","../images/org_blu.png","../images/ylw_slt.png","../images/cyn_red.png","../images/blu_wht.png"],"mutagen_generator_assignment":[1,0],"goal":3,"start":0,"action_noise":0.15,"location_history":"[0,1,3]","action_history":"[1,0]","mutagen_history":"[0,1]","location_rts":"[26583,7604]","trial_type":"fractal-mutation","trial_index":78,"time_elapsed":4106164,"internal_node_id":"0.0-5.0-24.0"},{"group":"hexagon_tri","fractal_assignment":["../images/pnk_blu.png","../images/gry_blk.png","../images/org_blu.png","../images/ylw_slt.png","../images/cyn_red.png","../images/blu_wht.png"],"mutagen_generator_assignment":[1,0],"goal":1,"start":3,"action_noise":0.15,"location_history":"[3,2,1]","action_history":"[0,1]","mutagen_history":"[1,0]","location_rts":"[4417,3425]","trial_type":"fractal-mutation","trial_index":79,"time_elapsed":4120871,"internal_node_id":"0.0-5.0-25.0"},{"group":"hexagon_tri","fractal_assignment":["../images/pnk_blu.png","../images/gry_blk.png","../images/org_blu.png","../images/ylw_slt.png","../images/cyn_red.png","../images/blu_wht.png"],"mutagen_generator_assignment":[1,0],"goal":2,"start":1,"action_noise":0.15,"location_history":"[1,5,4,0,5,0,1,3,4,2]","action_history":"[1,1,0,1,1,0,0,1,1]","mutagen_history":"[0,0,1,0,0,1,1,0,0]","location_rts":"[33797,945,4990,4749,4546,537,678,4,939]","trial_type":"fractal-mutation","trial_index":80,"time_elapsed":4190013,"internal_node_id":"0.0-5.0-26.0"},{"group":"hexagon_tri","fractal_assignment":["../images/pnk_blu.png","../images/gry_blk.png","../images/org_blu.png","../images/ylw_slt.png","../images/cyn_red.png","../images/blu_wht.png"],"mutagen_generator_assignment":[1,0],"goal":5,"start":2,"action_noise":0.15,"location_history":"[2,3,2,3,2,3,4,0,1,3,2,1,3,2,3,4,0,5]","action_history":"[1,0,1,1,1,1,0,1,0,1,1,0,0,1,1,0,0]","mutagen_history":"[0,1,0,0,0,0,1,0,1,0,0,1,1,0,0,1,1]","location_rts":"[2799,443,803,2064,558,504,896,683,3986,1149,495,1402,105,690,576,644,21]","trial_type":"fractal-mutation","trial_index":81,"time_elapsed":4237524,"internal_node_id":"0.0-5.0-27.0"},{"group":"hexagon_tri","fractal_assignment":["../images/pnk_blu.png","../images/gry_blk.png","../images/org_blu.png","../images/ylw_slt.png","../images/cyn_red.png","../images/blu_wht.png"],"mutagen_generator_assignment":[1,0],"goal":4,"start":5,"action_noise":0.15,"location_history":"[5,0,1,5,4]","action_history":"[0,1,1,0]","mutagen_history":"[1,0,0,1]","location_rts":"[15698,1724,2278,113]","trial_type":"fractal-mutation","trial_index":82,"time_elapsed":4268634,"internal_node_id":"0.0-5.0-28.0"},{"group":"hexagon_tri","fractal_assignment":["../images/pnk_blu.png","../images/gry_blk.png","../images/org_blu.png","../images/ylw_slt.png","../images/cyn_red.png","../images/blu_wht.png"],"mutagen_generator_assignment":[1,0],"goal":5,"start":4,"action_noise":0.15,"location_history":"[4,0,1,3,4,2,3,2,3,4,0,1,5]","action_history":"[0,1,0,1,1,1,0,1,1,1,1,1]","mutagen_history":"[1,0,1,0,0,0,1,0,0,0,0,0]","location_rts":"[2441,3780,4199,555,961,3866,1470,2514,715,1870,552,612]","trial_type":"fractal-mutation","trial_index":83,"time_elapsed":4313311,"internal_node_id":"0.0-5.0-29.0"},{"group":"hexagon_tri","fractal_assignment":["../images/pnk_blu.png","../images/gry_blk.png","../images/org_blu.png","../images/ylw_slt.png","../images/cyn_red.png","../images/blu_wht.png"],"mutagen_generator_assignment":[1,0],"goal":3,"start":5,"action_noise":0.15,"location_history":"[5,0,5,0,5,4,0,1,3]","action_history":"[1,1,1,0,0,1,1,0]","mutagen_history":"[0,0,0,1,1,0,0,1]","location_rts":"[2959,592,5986,484,1567,735,6292,542]","trial_type":"fractal-mutation","trial_index":84,"time_elapsed":4348753,"internal_node_id":"0.0-5.0-30.0"},{"group":"hexagon_tri","fractal_assignment":["../images/pnk_blu.png","../images/gry_blk.png","../images/org_blu.png","../images/ylw_slt.png","../images/cyn_red.png","../images/blu_wht.png"],"mutagen_generator_assignment":[1,0],"goal":0,"start":3,"action_noise":0.15,"location_history":"[3,4,2,1,5,4,2,3,4,0]","action_history":"[1,1,0,0,0,0,1,1,0]","mutagen_history":"[0,0,1,1,1,1,0,0,1]","location_rts":"[5577,754,1826,885,625,2554,582,539,510]","trial_type":"fractal-mutation","trial_index":85,"time_elapsed":4381844,"internal_node_id":"0.0-5.0-31.0"},{"group":"hexagon_tri","fractal_assignment":["../images/pnk_blu.png","../images/gry_blk.png","../images/org_blu.png","../images/ylw_slt.png","../images/cyn_red.png","../images/blu_wht.png"],"mutagen_generator_assignment":[1,0],"goal":4,"start":0,"action_noise":0.15,"location_history":"[0,5,0,1,5,4]","action_history":"[0,1,1,1,0]","mutagen_history":"[1,0,0,0,1]","location_rts":"[6385,534,1466,1495,2739]","trial_type":"fractal-mutation","trial_index":86,"time_elapsed":4406547,"internal_node_id":"0.0-5.0-32.0"},{"group":"hexagon_tri","fractal_assignment":["../images/pnk_blu.png","../images/gry_blk.png","../images/org_blu.png","../images/ylw_slt.png","../images/cyn_red.png","../images/blu_wht.png"],"mutagen_generator_assignment":[1,0],"goal":1,"start":4,"action_noise":0.15,"location_history":"[4,0,5,0,1]","action_history":"[0,0,1,0]","mutagen_history":"[1,1,0,1]","location_rts":"[24841,691,607,638]","trial_type":"fractal-mutation","trial_index":87,"time_elapsed":4443418,"internal_node_id":"0.0-5.0-33.0"},{"group":"hexagon_tri","fractal_assignment":["../images/pnk_blu.png","../images/gry_blk.png","../images/org_blu.png","../images/ylw_slt.png","../images/cyn_red.png","../images/blu_wht.png"],"mutagen_generator_assignment":[1,0],"goal":2,"start":1,"action_noise":0.15,"location_history":"[1,3,4,2]","action_history":"[0,1,1]","mutagen_history":"[1,0,0]","location_rts":"[20815,3927,6202]","trial_type":"fractal-mutation","trial_index":88,"time_elapsed":4482090,"internal_node_id":"0.0-5.0-34.0"},{"group":"hexagon_tri","fractal_assignment":["../images/pnk_blu.png","../images/gry_blk.png","../images/org_blu.png","../images/ylw_slt.png","../images/cyn_red.png","../images/blu_wht.png"],"mutagen_generator_assignment":[1,0],"goal":0,"start":2,"action_noise":0.15,"location_history":"[2,1,5,4,2,1,3,4,2,1,3,2,3,4,0]","action_history":"[0,1,0,1,0,1,1,1,0,0,0,1,1,0]","mutagen_history":"[1,0,1,0,1,0,0,0,1,1,1,0,0,1]","location_rts":"[760,1909,960,53660,590,1237,2291,6943,825,1285,4867,515,330,336]","trial_type":"fractal-mutation","trial_index":89,"time_elapsed":4582049,"internal_node_id":"0.0-5.0-35.0"},{"group":"hexagon_tri","fractal_assignment":["../images/pnk_blu.png","../images/gry_blk.png","../images/org_blu.png","../images/ylw_slt.png","../images/cyn_red.png","../images/blu_wht.png"],"mutagen_generator_assignment":[1,0],"goal":5,"start":0,"action_noise":0.15,"location_history":"[0,1,5]","action_history":"[1,1]","mutagen_history":"[0,0]","location_rts":"[1468,1425]","trial_type":"fractal-mutation","trial_index":90,"time_elapsed":4592434,"internal_node_id":"0.0-5.0-36.0"},{"group":"hexagon_tri","fractal_assignment":["../images/pnk_blu.png","../images/gry_blk.png","../images/org_blu.png","../images/ylw_slt.png","../images/cyn_red.png","../images/blu_wht.png"],"mutagen_generator_assignment":[1,0],"goal":2,"start":5,"action_noise":0.15,"location_history":"[5,4,2]","action_history":"[0,0]","mutagen_history":"[1,1]","location_rts":"[3323,1388]","trial_type":"fractal-mutation","trial_index":91,"time_elapsed":4605290,"internal_node_id":"0.0-5.0-37.0"},{"group":"hexagon_tri","fractal_assignment":["../images/pnk_blu.png","../images/gry_blk.png","../images/org_blu.png","../images/ylw_slt.png","../images/cyn_red.png","../images/blu_wht.png"],"mutagen_generator_assignment":[1,0],"goal":1,"start":2,"action_noise":0.15,"location_history":"[2,1]","action_history":"[0]","mutagen_history":"[1]","location_rts":"[17368]","trial_type":"fractal-mutation","trial_index":92,"time_elapsed":4627197,"internal_node_id":"0.0-5.0-38.0"},{"group":"hexagon_tri","fractal_assignment":["../images/pnk_blu.png","../images/gry_blk.png","../images/org_blu.png","../images/ylw_slt.png","../images/cyn_red.png","../images/blu_wht.png"],"mutagen_generator_assignment":[1,0],"goal":4,"start":1,"action_noise":0.15,"location_history":"[1,3,4]","action_history":"[0,1]","mutagen_history":"[1,0]","location_rts":"[5480,541]","trial_type":"fractal-mutation","trial_index":93,"time_elapsed":4638779,"internal_node_id":"0.0-5.0-39.0"},{"group":"hexagon_tri","fractal_assignment":["../images/pnk_blu.png","../images/gry_blk.png","../images/org_blu.png","../images/ylw_slt.png","../images/cyn_red.png","../images/blu_wht.png"],"mutagen_generator_assignment":[1,0],"goal":3,"start":4,"action_noise":0.15,"location_history":"[4,2,1,5,0,1,3]","action_history":"[1,0,1,1,1,0]","mutagen_history":"[0,1,0,0,0,1]","location_rts":"[3944,4021,459,426,6544,647]","trial_type":"fractal-mutation","trial_index":94,"time_elapsed":4668200,"internal_node_id":"0.0-5.0-40.0"},{"group":"hexagon_tri","fractal_assignment":["../images/pnk_blu.png","../images/gry_blk.png","../images/org_blu.png","../images/ylw_slt.png","../images/cyn_red.png","../images/blu_wht.png"],"mutagen_generator_assignment":[1,0],"goal":5,"start":3,"action_noise":0.15,"location_history":"[3,4,2,3,4,2,1,5]","action_history":"[1,1,1,1,0,0,1]","mutagen_history":"[0,0,0,0,1,1,0]","location_rts":"[4341,472,1833,37422,869,626,453]","trial_type":"fractal-mutation","trial_index":95,"time_elapsed":4727568,"internal_node_id":"0.0-5.0-41.0"},{"group":"hexagon_tri","fractal_assignment":["../images/pnk_blu.png","../images/gry_blk.png","../images/org_blu.png","../images/ylw_slt.png","../images/cyn_red.png","../images/blu_wht.png"],"mutagen_generator_assignment":[1,0],"goal":3,"start":5,"action_noise":0.15,"location_history":"[5,0,5,4,2,1,3]","action_history":"[1,0,1,1,0,1]","mutagen_history":"[0,1,0,0,1,0]","location_rts":"[1144,2549,726,15559,746,427]","trial_type":"fractal-mutation","trial_index":96,"time_elapsed":4761354,"internal_node_id":"0.0-5.0-42.0"},{"group":"hexagon_tri","fractal_assignment":["../images/pnk_blu.png","../images/gry_blk.png","../images/org_blu.png","../images/ylw_slt.png","../images/cyn_red.png","../images/blu_wht.png"],"mutagen_generator_assignment":[1,0],"goal":0,"start":3,"action_noise":0.15,"location_history":"[3,4,0]","action_history":"[1,0]","mutagen_history":"[0,1]","location_rts":"[331,592]","trial_type":"fractal-mutation","trial_index":97,"time_elapsed":4770705,"internal_node_id":"0.0-5.0-43.0"},{"group":"hexagon_tri","fractal_assignment":["../images/pnk_blu.png","../images/gry_blk.png","../images/org_blu.png","../images/ylw_slt.png","../images/cyn_red.png","../images/blu_wht.png"],"mutagen_generator_assignment":[1,0],"goal":2,"start":0,"action_noise":0.15,"location_history":"[0,5,0,5,4,0,5,4,2]","action_history":"[1,1,0,0,1,1,0,1]","mutagen_history":"[0,0,1,1,0,0,1,0]","location_rts":"[987,762,497,415,766,1461,1573,584]","trial_type":"fractal-mutation","trial_index":98,"time_elapsed":4792048,"internal_node_id":"0.0-5.0-44.0"},{"group":"hexagon_tri","fractal_assignment":["../images/pnk_blu.png","../images/gry_blk.png","../images/org_blu.png","../images/ylw_slt.png","../images/cyn_red.png","../images/blu_wht.png"],"mutagen_generator_assignment":[1,0],"goal":4,"start":2,"action_noise":0.15,"location_history":"[2,3,2,3,4]","action_history":"[1,0,1,1]","mutagen_history":"[0,1,0,0]","location_rts":"[2039,532,739,1858]","trial_type":"fractal-mutation","trial_index":99,"time_elapsed":4806453,"internal_node_id":"0.0-5.0-45.0"},{"group":"hexagon_tri","fractal_assignment":["../images/pnk_blu.png","../images/gry_blk.png","../images/org_blu.png","../images/ylw_slt.png","../images/cyn_red.png","../images/blu_wht.png"],"mutagen_generator_assignment":[1,0],"goal":1,"start":4,"action_noise":0.15,"location_history":"[4,0,5,0,1]","action_history":"[0,0,1,1]","mutagen_history":"[1,1,0,0]","location_rts":"[1253,1995,966,1321]","trial_type":"fractal-mutation","trial_index":100,"time_elapsed":4820602,"internal_node_id":"0.0-5.0-46.0"},{"group":"hexagon_tri","fractal_assignment":["../images/pnk_blu.png","../images/gry_blk.png","../images/org_blu.png","../images/ylw_slt.png","../images/cyn_red.png","../images/blu_wht.png"],"mutagen_generator_assignment":[1,0],"goal":4,"start":1,"action_noise":0.15,"location_history":"[1,5,4]","action_history":"[1,0]","mutagen_history":"[0,1]","location_rts":"[1212,585]","trial_type":"fractal-mutation","trial_index":101,"time_elapsed":4830240,"internal_node_id":"0.0-5.0-47.0"},{"group":"hexagon_tri","fractal_assignment":["../images/pnk_blu.png","../images/gry_blk.png","../images/org_blu.png","../images/ylw_slt.png","../images/cyn_red.png","../images/blu_wht.png"],"mutagen_generator_assignment":[1,0],"goal":3,"start":4,"action_noise":0.15,"location_history":"[4,2,1,3]","action_history":"[1,0,0]","mutagen_history":"[0,1,1]","location_rts":"[1857,596,697]","trial_type":"fractal-mutation","trial_index":102,"time_elapsed":4843561,"internal_node_id":"0.0-5.0-48.0"},{"group":"hexagon_tri","fractal_assignment":["../images/pnk_blu.png","../images/gry_blk.png","../images/org_blu.png","../images/ylw_slt.png","../images/cyn_red.png","../images/blu_wht.png"],"mutagen_generator_assignment":[1,0],"goal":5,"start":3,"action_noise":0.15,"location_history":"[3,4,0,1,5]","action_history":"[1,0,0,1]","mutagen_history":"[0,1,1,0]","location_rts":"[1325,1536,1318,1384]","trial_type":"fractal-mutation","trial_index":103,"time_elapsed":4858273,"internal_node_id":"0.0-5.0-49.0"},{"view_history":"[{\"page_index\":0,\"viewing_time\":12321}]","rt":12321,"trial_type":"instructions","trial_index":104,"time_elapsed":4872608,"internal_node_id":"0.0-6.0"},{"rt":33467,"responses":"{\"Q0\":\"This took a lot longer than the 30 minutes you guys said it would. Other than that I enjoyed it.\"}","trial_type":"survey-text","trial_index":105,"time_elapsed":4907082,"internal_node_id":"0.0-7.0"}]