[{"view_history":"[{\"page_index\":0,\"viewing_time\":3313},{\"page_index\":1,\"viewing_time\":11654},{\"page_index\":2,\"viewing_time\":3935},{\"page_index\":3,\"viewing_time\":6516}]","rt":25418,"trial_type":"instructions","trial_index":0,"time_elapsed":25419,"internal_node_id":"0.0-0.0"},{"view_history":"[{\"page_index\":0,\"viewing_time\":2737},{\"page_index\":1,\"viewing_time\":17574}]","rt":20311,"trial_type":"instructions","trial_index":1,"time_elapsed":46733,"internal_node_id":"0.0-1.0"},{"group":"hexagon_tri","room_assignment":["green","purple","yellow","blue","red","grey"],"door_color_assignment":["black","white"],"door_generator_assignment":[1,0],"goal":4,"start":0,"action_noise":0.15,"location_history":"[0,5,0,5,0,1,3,4]","action_history":"[0,1,0,1,0,1,0]","door_history":"[1,0,1,0,1,0,1]","location_rts":"[3073,1844,735,990,860,1020,857]","trial_type":"two-door-navigation","trial_index":2,"time_elapsed":67126,"internal_node_id":"0.0-2.0-0.0"},{"group":"hexagon_tri","room_assignment":["green","purple","yellow","blue","red","grey"],"door_color_assignment":["black","white"],"door_generator_assignment":[1,0],"goal":3,"start":4,"action_noise":0.15,"location_history":"[4,0,5,4,0,5,0,5,0,1,5,0,1,3]","action_history":"[0,1,0,1,0,1,0,1,1,1,1,1,1]","door_history":"[1,0,1,0,1,0,1,0,0,0,0,0,0]","location_rts":"[3941,785,874,605,690,426,642,310,523,470,594,512,558]","trial_type":"two-door-navigation","trial_index":3,"time_elapsed":95460,"internal_node_id":"0.0-2.0-1.0"},{"group":"hexagon_tri","room_assignment":["green","purple","yellow","blue","red","grey"],"door_color_assignment":["black","white"],"door_generator_assignment":[1,0],"goal":5,"start":3,"action_noise":0.15,"location_history":"[3,2,3,4,2,3,4,2,3,4,2,1,3,2,1,3,2,1,3,2,3,2,1,3,4,0,5]","action_history":"[1,1,1,1,1,1,1,1,1,1,1,0,0,0,0,0,0,0,0,1,0,1,0,1,0,0]","door_history":"[0,0,0,0,0,0,0,0,0,0,0,1,1,1,1,1,1,1,1,0,1,0,1,0,1,1]","location_rts":"[2941,411,395,432,388,383,420,391,372,372,331,621,499,384,354,361,305,383,371,303,286,389,262,490,261,334]","trial_type":"two-door-navigation","trial_index":4,"time_elapsed":139338,"internal_node_id":"0.0-2.0-2.0"},{"group":"hexagon_tri","room_assignment":["green","purple","yellow","blue","red","grey"],"door_color_assignment":["black","white"],"door_generator_assignment":[1,0],"goal":2,"start":5,"action_noise":0.15,"location_history":"[5,0,1,5,0,1,5,4,2]","action_history":"[1,1,1,1,1,1,1,1]","door_history":"[0,0,0,0,0,0,0,0]","location_rts":"[1769,683,377,311,349,338,392,458]","trial_type":"two-door-navigation","trial_index":5,"time_elapsed":156070,"internal_node_id":"0.0-2.0-3.0"},{"group":"hexagon_tri","room_assignment":["green","purple","yellow","blue","red","grey"],"door_color_assignment":["black","white"],"door_generator_assignment":[1,0],"goal":1,"start":2,"action_noise":0.15,"location_history":"[2,1]","action_history":"[0]","door_history":"[1]","location_rts":"[3111]","trial_type":"two-door-navigation","trial_index":6,"time_elapsed":163766,"internal_node_id":"0.0-2.0-4.0"},{"group":"hexagon_tri","room_assignment":["green","purple","yellow","blue","red","grey"],"door_color_assignment":["black","white"],"door_generator_assignment":[1,0],"goal":4,"start":1,"action_noise":0.15,"location_history":"[1,5,4]","action_history":"[1,0]","door_history":"[0,1]","location_rts":"[1763,269]","trial_type":"two-door-navigation","trial_index":7,"time_elapsed":171422,"internal_node_id":"0.0-2.0-5.0"},{"group":"hexagon_tri","room_assignment":["green","purple","yellow","blue","red","grey"],"door_color_assignment":["black","white"],"door_generator_assignment":[1,0],"goal":1,"start":4,"action_noise":0.15,"location_history":"[4,2,3,4,0,5,0,1]","action_history":"[1,1,1,0,1,1,1]","door_history":"[0,0,0,1,0,0,0]","location_rts":"[2493,301,474,595,364,471,361]","trial_type":"two-door-navigation","trial_index":8,"time_elapsed":187469,"internal_node_id":"0.0-2.0-6.0"},{"group":"hexagon_tri","room_assignment":["green","purple","yellow","blue","red","grey"],"door_color_assignment":["black","white"],"door_generator_assignment":[1,0],"goal":5,"start":1,"action_noise":0.15,"location_history":"[1,5]","action_history":"[1]","door_history":"[0]","location_rts":"[1800]","trial_type":"two-door-navigation","trial_index":9,"time_elapsed":193848,"internal_node_id":"0.0-2.0-7.0"},{"group":"hexagon_tri","room_assignment":["green","purple","yellow","blue","red","grey"],"door_color_assignment":["black","white"],"door_generator_assignment":[1,0],"goal":0,"start":5,"action_noise":0.15,"location_history":"[5,4,0]","action_history":"[1,0]","door_history":"[0,1]","location_rts":"[1244,309]","trial_type":"two-door-navigation","trial_index":10,"time_elapsed":201044,"internal_node_id":"0.0-2.0-8.0"},{"group":"hexagon_tri","room_assignment":["green","purple","yellow","blue","red","grey"],"door_color_assignment":["black","white"],"door_generator_assignment":[1,0],"goal":2,"start":0,"action_noise":0.15,"location_history":"[0,1,5,0,1,5,0,1,5,0,1,5,0,1,3,2]","action_history":"[1,1,1,1,1,1,1,1,1,1,1,1,1,0,0]","door_history":"[0,0,0,0,0,0,0,0,0,0,0,0,0,1,1]","location_rts":"[1742,365,588,319,1112,462,496,552,396,521,460,498,431,1075,488]","trial_type":"two-door-navigation","trial_index":11,"time_elapsed":230180,"internal_node_id":"0.0-2.0-9.0"},{"group":"hexagon_tri","room_assignment":["green","purple","yellow","blue","red","grey"],"door_color_assignment":["black","white"],"door_generator_assignment":[1,0],"goal":3,"start":2,"action_noise":0.15,"location_history":"[2,3]","action_history":"[1]","door_history":"[0]","location_rts":"[2181]","trial_type":"two-door-navigation","trial_index":12,"time_elapsed":236942,"internal_node_id":"0.0-2.0-10.0"},{"group":"hexagon_tri","room_assignment":["green","purple","yellow","blue","red","grey"],"door_color_assignment":["black","white"],"door_generator_assignment":[1,0],"goal":0,"start":3,"action_noise":0.15,"location_history":"[3,2,3,2,3,2,3,2,3,2,3,2,3,2,3,2,3,4,2,1,5,0]","action_history":"[0,1,0,1,0,1,0,1,0,1,0,1,0,1,0,1,0,1,0,1,0]","door_history":"[1,0,1,0,1,0,1,0,1,0,1,0,1,0,1,0,1,0,1,0,1]","location_rts":"[1606,956,463,2896,564,404,496,483,1004,435,695,483,632,399,1861,364,698,385,721,454,563]","trial_type":"two-door-navigation","trial_index":13,"time_elapsed":279461,"internal_node_id":"0.0-2.0-11.0"},{"group":"hexagon_tri","room_assignment":["green","purple","yellow","blue","red","grey"],"door_color_assignment":["black","white"],"door_generator_assignment":[1,0],"goal":2,"start":0,"action_noise":0.15,"location_history":"[0,5,0,5,0,1,5,4,2]","action_history":"[0,1,0,1,1,1,1,1]","door_history":"[1,0,1,0,0,0,0,0]","location_rts":"[1373,728,1305,1143,508,410,426,439]","trial_type":"two-door-navigation","trial_index":14,"time_elapsed":297885,"internal_node_id":"0.0-2.0-12.0"},{"group":"hexagon_tri","room_assignment":["green","purple","yellow","blue","red","grey"],"door_color_assignment":["black","white"],"door_generator_assignment":[1,0],"goal":5,"start":2,"action_noise":0.15,"location_history":"[2,1,3,2,1,3,2,3,2,1,5]","action_history":"[0,0,0,0,0,0,1,1,1,1]","door_history":"[1,1,1,1,1,1,0,0,0,0]","location_rts":"[1626,506,467,428,423,721,1707,565,433,452]","trial_type":"two-door-navigation","trial_index":15,"time_elapsed":319467,"internal_node_id":"0.0-2.0-13.0"},{"group":"hexagon_tri","room_assignment":["green","purple","yellow","blue","red","grey"],"door_color_assignment":["black","white"],"door_generator_assignment":[1,0],"goal":4,"start":5,"action_noise":0.15,"location_history":"[5,0,1,3,4]","action_history":"[0,1,0,1]","door_history":"[1,0,1,0]","location_rts":"[2751,774,631,501]","trial_type":"two-door-navigation","trial_index":16,"time_elapsed":331934,"internal_node_id":"0.0-2.0-14.0"},{"group":"hexagon_tri","room_assignment":["green","purple","yellow","blue","red","grey"],"door_color_assignment":["black","white"],"door_generator_assignment":[1,0],"goal":3,"start":4,"action_noise":0.15,"location_history":"[4,0,1,3]","action_history":"[0,1,0]","door_history":"[1,0,1]","location_rts":"[2878,450,1088]","trial_type":"two-door-navigation","trial_index":17,"time_elapsed":343054,"internal_node_id":"0.0-2.0-15.0"},{"group":"hexagon_tri","room_assignment":["green","purple","yellow","blue","red","grey"],"door_color_assignment":["black","white"],"door_generator_assignment":[1,0],"goal":1,"start":3,"action_noise":0.15,"location_history":"[3,2,3,2,3,2,3,2,3,2,3,2,3,2,3,4,2,1]","action_history":"[0,1,0,1,0,1,0,1,0,1,0,1,0,1,0,1,0]","door_history":"[1,0,1,0,1,0,1,0,1,0,1,0,1,0,1,0,1]","location_rts":"[1449,398,461,441,492,385,638,239,493,459,515,410,1200,378,554,562,808]","trial_type":"two-door-navigation","trial_index":18,"time_elapsed":374599,"internal_node_id":"0.0-2.0-16.0"},{"group":"hexagon_tri","room_assignment":["green","purple","yellow","blue","red","grey"],"door_color_assignment":["black","white"],"door_generator_assignment":[1,0],"goal":5,"start":1,"action_noise":0.15,"location_history":"[1,3,2,1,5]","action_history":"[0,0,0,1]","door_history":"[1,1,1,0]","location_rts":"[5865,341,376,472]","trial_type":"two-door-navigation","trial_index":19,"time_elapsed":389456,"internal_node_id":"0.0-2.0-17.0"},{"group":"hexagon_tri","room_assignment":["green","purple","yellow","blue","red","grey"],"door_color_assignment":["black","white"],"door_generator_assignment":[1,0],"goal":4,"start":5,"action_noise":0.15,"location_history":"[5,4]","action_history":"[1]","door_history":"[0]","location_rts":"[3124]","trial_type":"two-door-navigation","trial_index":20,"time_elapsed":397158,"internal_node_id":"0.0-2.0-18.0"},{"group":"hexagon_tri","room_assignment":["green","purple","yellow","blue","red","grey"],"door_color_assignment":["black","white"],"door_generator_assignment":[1,0],"goal":0,"start":4,"action_noise":0.15,"location_history":"[4,0]","action_history":"[0]","door_history":"[1]","location_rts":"[2272]","trial_type":"two-door-navigation","trial_index":21,"time_elapsed":404025,"internal_node_id":"0.0-2.0-19.0"},{"group":"hexagon_tri","room_assignment":["green","purple","yellow","blue","red","grey"],"door_color_assignment":["black","white"],"door_generator_assignment":[1,0],"goal":1,"start":0,"action_noise":0.15,"location_history":"[0,5,4,0,5,4,0,5,4,2,1]","action_history":"[0,0,0,0,0,0,0,0,1,1]","door_history":"[1,1,1,1,1,1,1,1,0,0]","location_rts":"[2217,503,404,862,484,421,559,484,857,549]","trial_type":"two-door-navigation","trial_index":22,"time_elapsed":425615,"internal_node_id":"0.0-2.0-20.0"},{"group":"hexagon_tri","room_assignment":["green","purple","yellow","blue","red","grey"],"door_color_assignment":["black","white"],"door_generator_assignment":[1,0],"goal":3,"start":1,"action_noise":0.15,"location_history":"[1,5,0,1,3]","action_history":"[0,1,1,1]","door_history":"[1,0,0,0]","location_rts":"[2588,1077,485,539]","trial_type":"two-door-navigation","trial_index":23,"time_elapsed":438140,"internal_node_id":"0.0-2.0-21.0"},{"group":"hexagon_tri","room_assignment":["green","purple","yellow","blue","red","grey"],"door_color_assignment":["black","white"],"door_generator_assignment":[1,0],"goal":2,"start":3,"action_noise":0.15,"location_history":"[3,2]","action_history":"[0]","door_history":"[1]","location_rts":"[1907]","trial_type":"two-door-navigation","trial_index":24,"time_elapsed":444622,"internal_node_id":"0.0-2.0-22.0"},{"group":"hexagon_tri","room_assignment":["green","purple","yellow","blue","red","grey"],"door_color_assignment":["black","white"],"door_generator_assignment":[1,0],"goal":0,"start":2,"action_noise":0.15,"location_history":"[2,3,4,2,1,3,2,3,2,1,5,4,2,1,5,0]","action_history":"[0,1,0,0,0,0,0,0,0,0,0,1,1,1,1]","door_history":"[1,0,1,1,1,1,1,1,1,1,1,0,0,0,0]","location_rts":"[2563,545,35766,990,370,540,380,480,443,475,452,868,672,502,473]","trial_type":"two-door-navigation","trial_index":25,"time_elapsed":509765,"internal_node_id":"0.0-2.0-23.0"},{"group":"hexagon_tri","room_assignment":["green","purple","yellow","blue","red","grey"],"door_color_assignment":["black","white"],"door_generator_assignment":[1,0],"goal":3,"start":0,"action_noise":0.15,"location_history":"[0,5,0,1,5,0,1,5,0,1,3]","action_history":"[0,1,1,1,1,1,1,1,1,0]","door_history":"[1,0,0,0,0,0,0,0,0,1]","location_rts":"[4939,1206,438,450,441,708,440,521,797,226]","trial_type":"two-door-navigation","trial_index":26,"time_elapsed":534189,"internal_node_id":"0.0-2.0-24.0"},{"group":"hexagon_tri","room_assignment":["green","purple","yellow","blue","red","grey"],"door_color_assignment":["black","white"],"door_generator_assignment":[1,0],"goal":1,"start":3,"action_noise":0.15,"location_history":"[3,4,2,3,4,0,5,0,5,4,0,1]","action_history":"[0,1,0,1,0,0,1,0,0,0,1]","door_history":"[1,0,1,0,1,1,0,1,1,1,0]","location_rts":"[1921,979,476,959,412,539,1041,982,449,430,870]","trial_type":"two-door-navigation","trial_index":27,"time_elapsed":558564,"internal_node_id":"0.0-2.0-25.0"},{"group":"hexagon_tri","room_assignment":["green","purple","yellow","blue","red","grey"],"door_color_assignment":["black","white"],"door_generator_assignment":[1,0],"goal":2,"start":1,"action_noise":0.15,"location_history":"[1,3,4,0,1,3,4,2]","action_history":"[0,1,0,1,1,1,1]","door_history":"[1,0,1,0,0,0,0]","location_rts":"[1905,748,417,423,402,396,436]","trial_type":"two-door-navigation","trial_index":28,"time_elapsed":574293,"internal_node_id":"0.0-2.0-26.0"},{"group":"hexagon_tri","room_assignment":["green","purple","yellow","blue","red","grey"],"door_color_assignment":["black","white"],"door_generator_assignment":[1,0],"goal":5,"start":2,"action_noise":0.15,"location_history":"[2,1,5]","action_history":"[0,1]","door_history":"[1,0]","location_rts":"[1546,729]","trial_type":"two-door-navigation","trial_index":29,"time_elapsed":582210,"internal_node_id":"0.0-2.0-27.0"},{"group":"hexagon_tri","room_assignment":["green","purple","yellow","blue","red","grey"],"door_color_assignment":["black","white"],"door_generator_assignment":[1,0],"goal":4,"start":5,"action_noise":0.15,"location_history":"[5,4]","action_history":"[0]","door_history":"[1]","location_rts":"[1594]","trial_type":"two-door-navigation","trial_index":30,"time_elapsed":588385,"internal_node_id":"0.0-2.0-28.0"},{"group":"hexagon_tri","room_assignment":["green","purple","yellow","blue","red","grey"],"door_color_assignment":["black","white"],"door_generator_assignment":[1,0],"goal":5,"start":4,"action_noise":0.15,"location_history":"[4,2,3,4,0,5]","action_history":"[0,1,1,0,0]","door_history":"[1,0,0,1,1]","location_rts":"[6598,705,476,597,434]","trial_type":"two-door-navigation","trial_index":31,"time_elapsed":606050,"internal_node_id":"0.0-2.0-29.0"},{"group":"hexagon_tri","room_assignment":["green","purple","yellow","blue","red","grey"],"door_color_assignment":["black","white"],"door_generator_assignment":[1,0],"goal":3,"start":5,"action_noise":0.15,"location_history":"[5,0,1,5,4,0,5,4,2,1,3]","action_history":"[1,0,1,0,0,0,0,1,1,1]","door_history":"[0,1,0,1,1,1,1,0,0,0]","location_rts":"[2588,772,784,411,412,572,460,1059,485,476]","trial_type":"two-door-navigation","trial_index":32,"time_elapsed":628333,"internal_node_id":"0.0-2.0-30.0"},{"group":"hexagon_tri","room_assignment":["green","purple","yellow","blue","red","grey"],"door_color_assignment":["black","white"],"door_generator_assignment":[1,0],"goal":0,"start":3,"action_noise":0.15,"location_history":"[3,2,3,2,1,3,2,1,3,2,1,3,4,2,3,4,2,3,4,2,3,4,0]","action_history":"[0,0,0,0,0,0,0,0,0,0,0,1,1,1,1,0,0,1,1,1,1,0]","door_history":"[1,1,1,1,1,1,1,1,1,1,1,0,0,0,0,1,1,0,0,0,0,1]","location_rts":"[1563,1170,512,455,396,638,422,436,533,421,465,738,561,498,478,412,495,944,475,434,424,315]","trial_type":"two-door-navigation","trial_index":33,"time_elapsed":668224,"internal_node_id":"0.0-2.0-31.0"},{"group":"hexagon_tri","room_assignment":["green","purple","yellow","blue","red","grey"],"door_color_assignment":["black","white"],"door_generator_assignment":[1,0],"goal":4,"start":0,"action_noise":0.15,"location_history":"[0,1,3,2,1,5,4]","action_history":"[1,0,1,0,1,0]","door_history":"[0,1,0,1,0,1]","location_rts":"[1234,849,1755,377,628,822]","trial_type":"two-door-navigation","trial_index":34,"time_elapsed":683853,"internal_node_id":"0.0-2.0-32.0"},{"group":"hexagon_tri","room_assignment":["green","purple","yellow","blue","red","grey"],"door_color_assignment":["black","white"],"door_generator_assignment":[1,0],"goal":1,"start":4,"action_noise":0.15,"location_history":"[4,0,1]","action_history":"[0,1]","door_history":"[1,0]","location_rts":"[1150,6750]","trial_type":"two-door-navigation","trial_index":35,"time_elapsed":697382,"internal_node_id":"0.0-2.0-33.0"},{"group":"hexagon_tri","room_assignment":["green","purple","yellow","blue","red","grey"],"door_color_assignment":["black","white"],"door_generator_assignment":[1,0],"goal":2,"start":1,"action_noise":0.15,"location_history":"[1,3,4,0,1,3,4,2]","action_history":"[0,1,0,1,0,1,0]","door_history":"[1,0,1,0,1,0,1]","location_rts":"[1032,314,422,326,341,646,608]","trial_type":"two-door-navigation","trial_index":36,"time_elapsed":712066,"internal_node_id":"0.0-2.0-34.0"},{"group":"hexagon_tri","room_assignment":["green","purple","yellow","blue","red","grey"],"door_color_assignment":["black","white"],"door_generator_assignment":[1,0],"goal":0,"start":2,"action_noise":0.15,"location_history":"[2,1,5,4,2,3,2,3,2,3,2,1,5,4,0]","action_history":"[0,1,0,1,0,0,1,0,1,0,0,1,0,0]","door_history":"[1,0,1,0,1,1,0,1,0,1,1,0,1,1]","location_rts":"[1620,152,511,812,304,457,806,403,295,360,1942,606,458,370]","trial_type":"two-door-navigation","trial_index":37,"time_elapsed":739623,"internal_node_id":"0.0-2.0-35.0"},{"group":"hexagon_tri","room_assignment":["green","purple","yellow","blue","red","grey"],"door_color_assignment":["black","white"],"door_generator_assignment":[1,0],"goal":5,"start":0,"action_noise":0.15,"location_history":"[0,5]","action_history":"[0]","door_history":"[1]","location_rts":"[1594]","trial_type":"two-door-navigation","trial_index":38,"time_elapsed":745799,"internal_node_id":"0.0-2.0-36.0"},{"group":"hexagon_tri","room_assignment":["green","purple","yellow","blue","red","grey"],"door_color_assignment":["black","white"],"door_generator_assignment":[1,0],"goal":2,"start":5,"action_noise":0.15,"location_history":"[5,4,2]","action_history":"[0,1]","door_history":"[1,0]","location_rts":"[1485,570]","trial_type":"two-door-navigation","trial_index":39,"time_elapsed":753488,"internal_node_id":"0.0-2.0-37.0"},{"group":"hexagon_tri","room_assignment":["green","purple","yellow","blue","red","grey"],"door_color_assignment":["black","white"],"door_generator_assignment":[1,0],"goal":1,"start":2,"action_noise":0.15,"location_history":"[2,1]","action_history":"[0]","door_history":"[1]","location_rts":"[1336]","trial_type":"two-door-navigation","trial_index":40,"time_elapsed":759408,"internal_node_id":"0.0-2.0-38.0"},{"group":"hexagon_tri","room_assignment":["green","purple","yellow","blue","red","grey"],"door_color_assignment":["black","white"],"door_generator_assignment":[1,0],"goal":4,"start":1,"action_noise":0.15,"location_history":"[1,3,2,1,5,4]","action_history":"[0,1,0,1,0]","door_history":"[1,0,1,0,1]","location_rts":"[1086,501,401,555,405]","trial_type":"two-door-navigation","trial_index":41,"time_elapsed":771227,"internal_node_id":"0.0-2.0-39.0"},{"group":"hexagon_tri","room_assignment":["green","purple","yellow","blue","red","grey"],"door_color_assignment":["black","white"],"door_generator_assignment":[1,0],"goal":3,"start":4,"action_noise":0.15,"location_history":"[4,0,1,3]","action_history":"[0,1,0]","door_history":"[1,0,1]","location_rts":"[1066,389,315]","trial_type":"two-door-navigation","trial_index":42,"time_elapsed":779710,"internal_node_id":"0.0-2.0-40.0"},{"group":"hexagon_tri","room_assignment":["green","purple","yellow","blue","red","grey"],"door_color_assignment":["black","white"],"door_generator_assignment":[1,0],"goal":5,"start":3,"action_noise":0.15,"location_history":"[3,2,3,4,2,3,4,0,1,5]","action_history":"[0,1,0,1,1,0,0,1,0]","door_history":"[1,0,1,0,0,1,1,0,1]","location_rts":"[55927,257,328,338,1463,722,80955,510,311]","trial_type":"two-door-navigation","trial_index":43,"time_elapsed":933643,"internal_node_id":"0.0-2.0-41.0"},{"group":"hexagon_tri","room_assignment":["green","purple","yellow","blue","red","grey"],"door_color_assignment":["black","white"],"door_generator_assignment":[1,0],"goal":3,"start":5,"action_noise":0.15,"location_history":"[5,4,2,3]","action_history":"[0,1,0]","door_history":"[1,0,1]","location_rts":"[1124,361,308]","trial_type":"two-door-navigation","trial_index":44,"time_elapsed":942150,"internal_node_id":"0.0-2.0-42.0"},{"group":"hexagon_tri","room_assignment":["green","purple","yellow","blue","red","grey"],"door_color_assignment":["black","white"],"door_generator_assignment":[1,0],"goal":0,"start":3,"action_noise":0.15,"location_history":"[3,2,3,2,3,2,3,2,1,3,2,3,2,1,3,2,1,3,4,0]","action_history":"[0,1,0,1,0,1,0,0,0,0,0,0,0,0,0,0,0,0,1]","door_history":"[1,0,1,0,1,0,1,1,1,1,1,1,1,1,1,1,1,1,0]","location_rts":"[925,355,280,472,289,591,429,386,379,441,539,361,367,351,314,328,369,319,254]","trial_type":"two-door-navigation","trial_index":45,"time_elapsed":973794,"internal_node_id":"0.0-2.0-43.0"},{"group":"hexagon_tri","room_assignment":["green","purple","yellow","blue","red","grey"],"door_color_assignment":["black","white"],"door_generator_assignment":[1,0],"goal":2,"start":0,"action_noise":0.15,"location_history":"[0,1,5,4,2]","action_history":"[0,1,0,1]","door_history":"[1,0,1,0]","location_rts":"[2063,290,263,316]","trial_type":"two-door-navigation","trial_index":46,"time_elapsed":984497,"internal_node_id":"0.0-2.0-44.0"},{"group":"hexagon_tri","room_assignment":["green","purple","yellow","blue","red","grey"],"door_color_assignment":["black","white"],"door_generator_assignment":[1,0],"goal":4,"start":2,"action_noise":0.15,"location_history":"[2,1,3,2,3,2,1,3,2,1,5,4]","action_history":"[0,1,0,0,0,0,0,0,0,1,0]","door_history":"[1,0,1,1,1,1,1,1,1,0,1]","location_rts":"[889,329,280,422,369,382,473,1224,357,533,319]","trial_type":"two-door-navigation","trial_index":47,"time_elapsed":1005352,"internal_node_id":"0.0-2.0-45.0"},{"group":"hexagon_tri","room_assignment":["green","purple","yellow","blue","red","grey"],"door_color_assignment":["black","white"],"door_generator_assignment":[1,0],"goal":1,"start":4,"action_noise":0.15,"location_history":"[4,2,3,2,3,2,3,2,3,2,3,2,3,4,2,1]","action_history":"[0,1,0,1,0,1,0,1,0,1,0,1,0,1,0]","door_history":"[1,0,1,0,1,0,1,0,1,0,1,0,1,0,1]","location_rts":"[899,331,370,821,278,408,54,272,393,454,385,275,311,278,213]","trial_type":"two-door-navigation","trial_index":48,"time_elapsed":1030660,"internal_node_id":"0.0-2.0-46.0"},{"group":"hexagon_tri","room_assignment":["green","purple","yellow","blue","red","grey"],"door_color_assignment":["black","white"],"door_generator_assignment":[1,0],"goal":4,"start":1,"action_noise":0.15,"location_history":"[1,3,2,1,3,2,3,2,1,3,4]","action_history":"[0,0,0,0,0,0,0,0,0,0]","door_history":"[1,1,1,1,1,1,1,1,1,1]","location_rts":"[1326,326,354,455,363,406,362,354,391,319]","trial_type":"two-door-navigation","trial_index":49,"time_elapsed":1049561,"internal_node_id":"0.0-2.0-47.0"},{"group":"hexagon_tri","room_assignment":["green","purple","yellow","blue","red","grey"],"door_color_assignment":["black","white"],"door_generator_assignment":[1,0],"goal":3,"start":4,"action_noise":0.15,"location_history":"[4,2,1,5,4,2,1,5,4,0,1,3]","action_history":"[1,0,1,0,1,0,1,0,1,1,1]","door_history":"[0,1,0,1,0,1,0,1,0,0,0]","location_rts":"[1335,363,409,411,799,340,305,269,309,285,349]","trial_type":"two-door-navigation","trial_index":50,"time_elapsed":1070037,"internal_node_id":"0.0-2.0-48.0"},{"group":"hexagon_tri","room_assignment":["green","purple","yellow","blue","red","grey"],"door_color_assignment":["black","white"],"door_generator_assignment":[1,0],"goal":5,"start":3,"action_noise":0.15,"location_history":"[3,2,1,5]","action_history":"[1,0,1]","door_history":"[0,1,0]","location_rts":"[3623,510,606]","trial_type":"two-door-navigation","trial_index":51,"time_elapsed":1081495,"internal_node_id":"0.0-2.0-49.0"},{"view_history":"[{\"page_index\":0,\"viewing_time\":2892}]","rt":2892,"trial_type":"instructions","trial_index":52,"time_elapsed":1085391,"internal_node_id":"0.0-3.0"},{"view_history":"[{\"page_index\":0,\"viewing_time\":3095},{\"page_index\":1,\"viewing_time\":16040}]","rt":19135,"trial_type":"instructions","trial_index":53,"time_elapsed":1105528,"internal_node_id":"0.0-4.0"},{"group":"hexagon_tri","fractal_assignment":["../images/pnk_blu.png","../images/cyn_red.png","../images/blu_wht.png","../images/ylw_slt.png","../images/org_blu.png","../images/gry_blk.png"],"mutagen_generator_assignment":[0,1],"goal":4,"start":0,"action_noise":0.15,"location_history":"[0,5,0,5,0,1,3,2,3,4]","action_history":"[0,1,0,1,1,0,1,1,1]","mutagen_history":"[0,1,0,1,1,0,1,1,1]","location_rts":"[9515,3118,1149,628,340,1624,1019,1416,1209]","trial_type":"fractal-mutation","trial_index":54,"time_elapsed":1138775,"internal_node_id":"0.0-5.0-0.0"},{"group":"hexagon_tri","fractal_assignment":["../images/pnk_blu.png","../images/cyn_red.png","../images/blu_wht.png","../images/ylw_slt.png","../images/org_blu.png","../images/gry_blk.png"],"mutagen_generator_assignment":[0,1],"goal":3,"start":4,"action_noise":0.15,"location_history":"[4,2,1,3]","action_history":"[0,0,0]","mutagen_history":"[0,0,0]","location_rts":"[1883,542,374]","trial_type":"fractal-mutation","trial_index":55,"time_elapsed":1148330,"internal_node_id":"0.0-5.0-1.0"},{"group":"hexagon_tri","fractal_assignment":["../images/pnk_blu.png","../images/cyn_red.png","../images/blu_wht.png","../images/ylw_slt.png","../images/org_blu.png","../images/gry_blk.png"],"mutagen_generator_assignment":[0,1],"goal":5,"start":3,"action_noise":0.15,"location_history":"[3,4,0,1,5]","action_history":"[0,0,1,1]","mutagen_history":"[0,0,1,1]","location_rts":"[2313,40,513,349]","trial_type":"fractal-mutation","trial_index":56,"time_elapsed":1159369,"internal_node_id":"0.0-5.0-2.0"},{"group":"hexagon_tri","fractal_assignment":["../images/pnk_blu.png","../images/cyn_red.png","../images/blu_wht.png","../images/ylw_slt.png","../images/org_blu.png","../images/gry_blk.png"],"mutagen_generator_assignment":[0,1],"goal":2,"start":5,"action_noise":0.15,"location_history":"[5,0,1,3,4,2]","action_history":"[1,1,1,1,1]","mutagen_history":"[1,1,1,1,1]","location_rts":"[2059,509,388,568,366]","trial_type":"fractal-mutation","trial_index":57,"time_elapsed":1172194,"internal_node_id":"0.0-5.0-3.0"},{"group":"hexagon_tri","fractal_assignment":["../images/pnk_blu.png","../images/cyn_red.png","../images/blu_wht.png","../images/ylw_slt.png","../images/org_blu.png","../images/gry_blk.png"],"mutagen_generator_assignment":[0,1],"goal":1,"start":2,"action_noise":0.15,"location_history":"[2,1]","action_history":"[0]","mutagen_history":"[0]","location_rts":"[1110]","trial_type":"fractal-mutation","trial_index":58,"time_elapsed":1177895,"internal_node_id":"0.0-5.0-4.0"},{"group":"hexagon_tri","fractal_assignment":["../images/pnk_blu.png","../images/cyn_red.png","../images/blu_wht.png","../images/ylw_slt.png","../images/org_blu.png","../images/gry_blk.png"],"mutagen_generator_assignment":[0,1],"goal":4,"start":1,"action_noise":0.15,"location_history":"[1,5,0,5,0,5,4]","action_history":"[0,0,0,0,0,0]","mutagen_history":"[0,0,0,0,0,0]","location_rts":"[2476,296,313,324,24,394]","trial_type":"fractal-mutation","trial_index":59,"time_elapsed":1191715,"internal_node_id":"0.0-5.0-5.0"},{"group":"hexagon_tri","fractal_assignment":["../images/pnk_blu.png","../images/cyn_red.png","../images/blu_wht.png","../images/ylw_slt.png","../images/org_blu.png","../images/gry_blk.png"],"mutagen_generator_assignment":[0,1],"goal":1,"start":4,"action_noise":0.15,"location_history":"[4,0,5,4,0,5,4,0,5,4,2,1]","action_history":"[0,0,0,0,0,0,0,0,0,1,0]","mutagen_history":"[0,0,0,0,0,0,0,0,0,1,0]","location_rts":"[1378,359,362,614,381,366,495,438,411,439,339]","trial_type":"fractal-mutation","trial_index":60,"time_elapsed":1212657,"internal_node_id":"0.0-5.0-6.0"},{"group":"hexagon_tri","fractal_assignment":["../images/pnk_blu.png","../images/cyn_red.png","../images/blu_wht.png","../images/ylw_slt.png","../images/org_blu.png","../images/gry_blk.png"],"mutagen_generator_assignment":[0,1],"goal":5,"start":1,"action_noise":0.15,"location_history":"[1,3,2,1,5]","action_history":"[0,0,0,1]","mutagen_history":"[0,0,0,1]","location_rts":"[1523,298,352,363]","trial_type":"fractal-mutation","trial_index":61,"time_elapsed":1223034,"internal_node_id":"0.0-5.0-7.0"},{"group":"hexagon_tri","fractal_assignment":["../images/pnk_blu.png","../images/cyn_red.png","../images/blu_wht.png","../images/ylw_slt.png","../images/org_blu.png","../images/gry_blk.png"],"mutagen_generator_assignment":[0,1],"goal":0,"start":5,"action_noise":0.15,"location_history":"[5,4,0]","action_history":"[0,0]","mutagen_history":"[0,0]","location_rts":"[2202,355]","trial_type":"fractal-mutation","trial_index":62,"time_elapsed":1231276,"internal_node_id":"0.0-5.0-8.0"},{"group":"hexagon_tri","fractal_assignment":["../images/pnk_blu.png","../images/cyn_red.png","../images/blu_wht.png","../images/ylw_slt.png","../images/org_blu.png","../images/gry_blk.png"],"mutagen_generator_assignment":[0,1],"goal":2,"start":0,"action_noise":0.15,"location_history":"[0,1,5,0,1,5,0,5,4,2]","action_history":"[1,1,1,1,1,1,1,1,1]","mutagen_history":"[1,1,1,1,1,1,1,1,1]","location_rts":"[1133,346,361,318,315,398,328,427,367]","trial_type":"fractal-mutation","trial_index":63,"time_elapsed":1248496,"internal_node_id":"0.0-5.0-9.0"},{"group":"hexagon_tri","fractal_assignment":["../images/pnk_blu.png","../images/cyn_red.png","../images/blu_wht.png","../images/ylw_slt.png","../images/org_blu.png","../images/gry_blk.png"],"mutagen_generator_assignment":[0,1],"goal":3,"start":2,"action_noise":0.15,"location_history":"[2,1,3]","action_history":"[0,0]","mutagen_history":"[0,0]","location_rts":"[1138,307]","trial_type":"fractal-mutation","trial_index":64,"time_elapsed":1255606,"internal_node_id":"0.0-5.0-10.0"},{"group":"hexagon_tri","fractal_assignment":["../images/pnk_blu.png","../images/cyn_red.png","../images/blu_wht.png","../images/ylw_slt.png","../images/org_blu.png","../images/gry_blk.png"],"mutagen_generator_assignment":[0,1],"goal":0,"start":3,"action_noise":0.15,"location_history":"[3,2,1,3,2,1,3,2,1,3,2,1,3,4,2,3,4,2,3,4,2,1,5,4,2,1,3,4,2,3,4,2,1,5,0]","action_history":"[0,0,0,0,0,0,0,0,0,0,0,0,0,1,1,1,1,1,1,1,0,1,0,1,0,1,1,1,1,1,1,0,1,1]","mutagen_history":"[0,0,0,0,0,0,0,0,0,0,0,0,0,1,1,1,1,1,1,1,0,1,0,1,0,1,1,1,1,1,1,0,1,1]","location_rts":"[1258,420,340,335,388,593,499,563,581,373,443,516,615,159,509,411,466,646,325,369,412,372,331,331,699,1065,391,360,543,332,342,364,526,344]","trial_type":"fractal-mutation","trial_index":65,"time_elapsed":1312045,"internal_node_id":"0.0-5.0-11.0"},{"group":"hexagon_tri","fractal_assignment":["../images/pnk_blu.png","../images/cyn_red.png","../images/blu_wht.png","../images/ylw_slt.png","../images/org_blu.png","../images/gry_blk.png"],"mutagen_generator_assignment":[0,1],"goal":2,"start":0,"action_noise":0.15,"location_history":"[0,1,5,0,1,3,4,2]","action_history":"[1,1,1,1,1,1,1]","mutagen_history":"[1,1,1,1,1,1,1]","location_rts":"[5521,408,334,331,349,357,301]","trial_type":"fractal-mutation","trial_index":66,"time_elapsed":1330729,"internal_node_id":"0.0-5.0-12.0"},{"group":"hexagon_tri","fractal_assignment":["../images/pnk_blu.png","../images/cyn_red.png","../images/blu_wht.png","../images/ylw_slt.png","../images/org_blu.png","../images/gry_blk.png"],"mutagen_generator_assignment":[0,1],"goal":5,"start":2,"action_noise":0.15,"location_history":"[2,1,3,2,3,2,1,3,2,1,3,2,1,3,2,1,5]","action_history":"[0,0,0,0,0,0,0,0,0,0,0,0,0,0,0,1]","mutagen_history":"[0,0,0,0,0,0,0,0,0,0,0,0,0,0,0,1]","location_rts":"[1164,274,326,334,311,482,400,380,502,431,384,463,367,574,516,305]","trial_type":"fractal-mutation","trial_index":67,"time_elapsed":1358693,"internal_node_id":"0.0-5.0-13.0"},{"group":"hexagon_tri","fractal_assignment":["../images/pnk_blu.png","../images/cyn_red.png","../images/blu_wht.png","../images/ylw_slt.png","../images/org_blu.png","../images/gry_blk.png"],"mutagen_generator_assignment":[0,1],"goal":4,"start":5,"action_noise":0.15,"location_history":"[5,0,5,0,1,3,2,1,3,4]","action_history":"[0,0,0,0,0,0,1,0,0]","mutagen_history":"[0,0,0,0,0,0,1,0,0]","location_rts":"[1635,314,772,339,365,327,504,280,852]","trial_type":"fractal-mutation","trial_index":68,"time_elapsed":1377307,"internal_node_id":"0.0-5.0-14.0"},{"group":"hexagon_tri","fractal_assignment":["../images/pnk_blu.png","../images/cyn_red.png","../images/blu_wht.png","../images/ylw_slt.png","../images/org_blu.png","../images/gry_blk.png"],"mutagen_generator_assignment":[0,1],"goal":3,"start":4,"action_noise":0.15,"location_history":"[4,2,1,3]","action_history":"[1,1,0]","mutagen_history":"[1,1,0]","location_rts":"[1622,381,337]","trial_type":"fractal-mutation","trial_index":69,"time_elapsed":1386402,"internal_node_id":"0.0-5.0-15.0"},{"group":"hexagon_tri","fractal_assignment":["../images/pnk_blu.png","../images/cyn_red.png","../images/blu_wht.png","../images/ylw_slt.png","../images/org_blu.png","../images/gry_blk.png"],"mutagen_generator_assignment":[0,1],"goal":1,"start":3,"action_noise":0.15,"location_history":"[3,2,1]","action_history":"[0,0]","mutagen_history":"[0,0]","location_rts":"[2573,569]","trial_type":"fractal-mutation","trial_index":70,"time_elapsed":1395206,"internal_node_id":"0.0-5.0-16.0"},{"group":"hexagon_tri","fractal_assignment":["../images/pnk_blu.png","../images/cyn_red.png","../images/blu_wht.png","../images/ylw_slt.png","../images/org_blu.png","../images/gry_blk.png"],"mutagen_generator_assignment":[0,1],"goal":5,"start":1,"action_noise":0.15,"location_history":"[1,5]","action_history":"[1]","mutagen_history":"[1]","location_rts":"[1449]","trial_type":"fractal-mutation","trial_index":71,"time_elapsed":1401248,"internal_node_id":"0.0-5.0-17.0"},{"group":"hexagon_tri","fractal_assignment":["../images/pnk_blu.png","../images/cyn_red.png","../images/blu_wht.png","../images/ylw_slt.png","../images/org_blu.png","../images/gry_blk.png"],"mutagen_generator_assignment":[0,1],"goal":4,"start":5,"action_noise":0.15,"location_history":"[5,4]","action_history":"[0]","mutagen_history":"[0]","location_rts":"[1326]","trial_type":"fractal-mutation","trial_index":72,"time_elapsed":1407168,"internal_node_id":"0.0-5.0-18.0"},{"group":"hexagon_tri","fractal_assignment":["../images/pnk_blu.png","../images/cyn_red.png","../images/blu_wht.png","../images/ylw_slt.png","../images/org_blu.png","../images/gry_blk.png"],"mutagen_generator_assignment":[0,1],"goal":0,"start":4,"action_noise":0.15,"location_history":"[4,2,3,4,2,3,2,3,4,2,3,2,1,5,0]","action_history":"[1,1,1,1,1,1,1,1,1,1,0,1,1,1]","mutagen_history":"[1,1,1,1,1,1,1,1,1,1,0,1,1,1]","location_rts":"[1147,401,314,354,362,339,500,355,344,299,487,413,362,394]","trial_type":"fractal-mutation","trial_index":73,"time_elapsed":1431885,"internal_node_id":"0.0-5.0-19.0"},{"group":"hexagon_tri","fractal_assignment":["../images/pnk_blu.png","../images/cyn_red.png","../images/blu_wht.png","../images/ylw_slt.png","../images/org_blu.png","../images/gry_blk.png"],"mutagen_generator_assignment":[0,1],"goal":1,"start":0,"action_noise":0.15,"location_history":"[0,5,4,0,1]","action_history":"[0,0,0,0]","mutagen_history":"[0,0,0,0]","location_rts":"[1144,381,337,403]","trial_type":"fractal-mutation","trial_index":74,"time_elapsed":1441976,"internal_node_id":"0.0-5.0-20.0"},{"group":"hexagon_tri","fractal_assignment":["../images/pnk_blu.png","../images/cyn_red.png","../images/blu_wht.png","../images/ylw_slt.png","../images/org_blu.png","../images/gry_blk.png"],"mutagen_generator_assignment":[0,1],"goal":3,"start":1,"action_noise":0.15,"location_history":"[1,5,0,1,5,4,2,3]","action_history":"[1,1,1,1,1,1,1]","mutagen_history":"[1,1,1,1,1,1,1]","location_rts":"[1486,435,418,344,536,404,433]","trial_type":"fractal-mutation","trial_index":75,"time_elapsed":1457136,"internal_node_id":"0.0-5.0-21.0"},{"group":"hexagon_tri","fractal_assignment":["../images/pnk_blu.png","../images/cyn_red.png","../images/blu_wht.png","../images/ylw_slt.png","../images/org_blu.png","../images/gry_blk.png"],"mutagen_generator_assignment":[0,1],"goal":2,"start":3,"action_noise":0.15,"location_history":"[3,2]","action_history":"[0]","mutagen_history":"[0]","location_rts":"[1358]","trial_type":"fractal-mutation","trial_index":76,"time_elapsed":1463086,"internal_node_id":"0.0-5.0-22.0"},{"group":"hexagon_tri","fractal_assignment":["../images/pnk_blu.png","../images/cyn_red.png","../images/blu_wht.png","../images/ylw_slt.png","../images/org_blu.png","../images/gry_blk.png"],"mutagen_generator_assignment":[0,1],"goal":0,"start":2,"action_noise":0.15,"location_history":"[2,3,2,3,4,2,1,3,2,1,3,2,3,2,1,3,4,0]","action_history":"[1,0,1,0,1,0,1,1,0,0,0,0,0,0,0,0,0]","mutagen_history":"[1,0,1,0,1,0,1,1,0,0,0,0,0,0,0,0,0]","location_rts":"[1281,982,321,582,384,467,302,693,482,361,372,430,450,367,539,384,381]","trial_type":"fractal-mutation","trial_index":77,"time_elapsed":1493685,"internal_node_id":"0.0-5.0-23.0"},{"group":"hexagon_tri","fractal_assignment":["../images/pnk_blu.png","../images/cyn_red.png","../images/blu_wht.png","../images/ylw_slt.png","../images/org_blu.png","../images/gry_blk.png"],"mutagen_generator_assignment":[0,1],"goal":3,"start":0,"action_noise":0.15,"location_history":"[0,1,5,4,2,3]","action_history":"[1,1,1,1,1]","mutagen_history":"[1,1,1,1,1]","location_rts":"[1155,458,358,395,522]","trial_type":"fractal-mutation","trial_index":78,"time_elapsed":1505490,"internal_node_id":"0.0-5.0-24.0"},{"group":"hexagon_tri","fractal_assignment":["../images/pnk_blu.png","../images/cyn_red.png","../images/blu_wht.png","../images/ylw_slt.png","../images/org_blu.png","../images/gry_blk.png"],"mutagen_generator_assignment":[0,1],"goal":1,"start":3,"action_noise":0.15,"location_history":"[3,2,1]","action_history":"[0,0]","mutagen_history":"[0,0]","location_rts":"[4889,335]","trial_type":"fractal-mutation","trial_index":79,"time_elapsed":1516399,"internal_node_id":"0.0-5.0-25.0"},{"group":"hexagon_tri","fractal_assignment":["../images/pnk_blu.png","../images/cyn_red.png","../images/blu_wht.png","../images/ylw_slt.png","../images/org_blu.png","../images/gry_blk.png"],"mutagen_generator_assignment":[0,1],"goal":2,"start":1,"action_noise":0.15,"location_history":"[1,5,0,1,5,0,1,5,0,1,5,4,0,5,4,0,1,3,2]","action_history":"[1,1,1,1,1,1,1,1,1,1,0,0,0,0,0,0,0,1]","mutagen_history":"[1,1,1,1,1,1,1,1,1,1,0,0,0,0,0,0,0,1]","location_rts":"[1285,379,361,343,369,552,443,874,477,355,360,409,728,404,371,480,511,397]","trial_type":"fractal-mutation","trial_index":80,"time_elapsed":1548452,"internal_node_id":"0.0-5.0-26.0"},{"group":"hexagon_tri","fractal_assignment":["../images/pnk_blu.png","../images/cyn_red.png","../images/blu_wht.png","../images/ylw_slt.png","../images/org_blu.png","../images/gry_blk.png"],"mutagen_generator_assignment":[0,1],"goal":5,"start":2,"action_noise":0.15,"location_history":"[2,3,4,2,3,4,2,1,5]","action_history":"[1,1,1,1,1,1,1,1]","mutagen_history":"[1,1,1,1,1,1,1,1]","location_rts":"[1124,353,314,389,392,341,487,332]","trial_type":"fractal-mutation","trial_index":81,"time_elapsed":1564350,"internal_node_id":"0.0-5.0-27.0"},{"group":"hexagon_tri","fractal_assignment":["../images/pnk_blu.png","../images/cyn_red.png","../images/blu_wht.png","../images/ylw_slt.png","../images/org_blu.png","../images/gry_blk.png"],"mutagen_generator_assignment":[0,1],"goal":4,"start":5,"action_noise":0.15,"location_history":"[5,4]","action_history":"[0]","mutagen_history":"[0]","location_rts":"[1987]","trial_type":"fractal-mutation","trial_index":82,"time_elapsed":1570937,"internal_node_id":"0.0-5.0-28.0"},{"group":"hexagon_tri","fractal_assignment":["../images/pnk_blu.png","../images/cyn_red.png","../images/blu_wht.png","../images/ylw_slt.png","../images/org_blu.png","../images/gry_blk.png"],"mutagen_generator_assignment":[0,1],"goal":5,"start":4,"action_noise":0.15,"location_history":"[4,0,1,5]","action_history":"[1,1,1]","mutagen_history":"[1,1,1]","location_rts":"[909,401,324]","trial_type":"fractal-mutation","trial_index":83,"time_elapsed":1579330,"internal_node_id":"0.0-5.0-29.0"},{"group":"hexagon_tri","fractal_assignment":["../images/pnk_blu.png","../images/cyn_red.png","../images/blu_wht.png","../images/ylw_slt.png","../images/org_blu.png","../images/gry_blk.png"],"mutagen_generator_assignment":[0,1],"goal":3,"start":5,"action_noise":0.15,"location_history":"[5,4,0,5,4,0,5,4,0,5,4,0,5,0,5,0,1,5,0,1,5,0,1,5,0,1,3]","action_history":"[0,0,0,0,0,0,0,0,0,0,0,0,0,0,1,1,1,1,1,1,1,1,1,1,1,0]","mutagen_history":"[0,0,0,0,0,0,0,0,0,0,0,0,0,0,1,1,1,1,1,1,1,1,1,1,1,0]","location_rts":"[2089,380,395,472,381,391,377,397,433,423,473,173,556,603,350,420,336,751,548,461,588,382,390,516,477,316]","trial_type":"fractal-mutation","trial_index":84,"time_elapsed":1623999,"internal_node_id":"0.0-5.0-30.0"},{"group":"hexagon_tri","fractal_assignment":["../images/pnk_blu.png","../images/cyn_red.png","../images/blu_wht.png","../images/ylw_slt.png","../images/org_blu.png","../images/gry_blk.png"],"mutagen_generator_assignment":[0,1],"goal":0,"start":3,"action_noise":0.15,"location_history":"[3,4,2,3,2,1,3,2,1,3,2,1,5,4,0]","action_history":"[1,0,0,0,0,0,0,0,0,0,0,1,0,0]","mutagen_history":"[1,0,0,0,0,0,0,0,0,0,0,1,0,0]","location_rts":"[1310,352,911,360,363,430,356,380,372,589,400,659,433,424]","trial_type":"fractal-mutation","trial_index":85,"time_elapsed":1649943,"internal_node_id":"0.0-5.0-31.0"},{"group":"hexagon_tri","fractal_assignment":["../images/pnk_blu.png","../images/cyn_red.png","../images/blu_wht.png","../images/ylw_slt.png","../images/org_blu.png","../images/gry_blk.png"],"mutagen_generator_assignment":[0,1],"goal":4,"start":0,"action_noise":0.15,"location_history":"[0,5,4]","action_history":"[1,0]","mutagen_history":"[1,0]","location_rts":"[744,348]","trial_type":"fractal-mutation","trial_index":86,"time_elapsed":1656704,"internal_node_id":"0.0-5.0-32.0"},{"group":"hexagon_tri","fractal_assignment":["../images/pnk_blu.png","../images/cyn_red.png","../images/blu_wht.png","../images/ylw_slt.png","../images/org_blu.png","../images/gry_blk.png"],"mutagen_generator_assignment":[0,1],"goal":1,"start":4,"action_noise":0.15,"location_history":"[4,0,5,4,0,5,4,0,1]","action_history":"[0,0,0,0,0,0,0,1]","mutagen_history":"[0,0,0,0,0,0,0,1]","location_rts":"[1024,373,363,322,449,64,653,382]","trial_type":"fractal-mutation","trial_index":87,"time_elapsed":1672479,"internal_node_id":"0.0-5.0-33.0"},{"group":"hexagon_tri","fractal_assignment":["../images/pnk_blu.png","../images/cyn_red.png","../images/blu_wht.png","../images/ylw_slt.png","../images/org_blu.png","../images/gry_blk.png"],"mutagen_generator_assignment":[0,1],"goal":2,"start":1,"action_noise":0.15,"location_history":"[1,3,4,0,1,3,2]","action_history":"[0,1,0,1,0,0]","mutagen_history":"[0,1,0,1,0,0]","location_rts":"[991,486,538,377,416,727]","trial_type":"fractal-mutation","trial_index":88,"time_elapsed":1685997,"internal_node_id":"0.0-5.0-34.0"},{"group":"hexagon_tri","fractal_assignment":["../images/pnk_blu.png","../images/cyn_red.png","../images/blu_wht.png","../images/ylw_slt.png","../images/org_blu.png","../images/gry_blk.png"],"mutagen_generator_assignment":[0,1],"goal":0,"start":2,"action_noise":0.15,"location_history":"[2,3,4,2,3,4,2,1,5,0]","action_history":"[1,1,1,1,1,1,1,1,1]","mutagen_history":"[1,1,1,1,1,1,1,1,1]","location_rts":"[1265,657,352,522,337,317,338,314,328]","trial_type":"fractal-mutation","trial_index":89,"time_elapsed":1703671,"internal_node_id":"0.0-5.0-35.0"},{"group":"hexagon_tri","fractal_assignment":["../images/pnk_blu.png","../images/cyn_red.png","../images/blu_wht.png","../images/ylw_slt.png","../images/org_blu.png","../images/gry_blk.png"],"mutagen_generator_assignment":[0,1],"goal":5,"start":0,"action_noise":0.15,"location_history":"[0,1,5]","action_history":"[1,1]","mutagen_history":"[1,1]","location_rts":"[1302,413]","trial_type":"fractal-mutation","trial_index":90,"time_elapsed":1711061,"internal_node_id":"0.0-5.0-36.0"},{"group":"hexagon_tri","fractal_assignment":["../images/pnk_blu.png","../images/cyn_red.png","../images/blu_wht.png","../images/ylw_slt.png","../images/org_blu.png","../images/gry_blk.png"],"mutagen_generator_assignment":[0,1],"goal":2,"start":5,"action_noise":0.15,"location_history":"[5,4,0,1,5,0,1,5,0,1,5,0,1,5,4,2]","action_history":"[1,1,1,1,1,1,1,1,1,0,0,0,0,1,1]","mutagen_history":"[1,1,1,1,1,1,1,1,1,0,0,0,0,1,1]","location_rts":"[1384,335,335,325,477,423,508,373,337,316,460,405,469,270,353]","trial_type":"fractal-mutation","trial_index":91,"time_elapsed":1737544,"internal_node_id":"0.0-5.0-37.0"},{"group":"hexagon_tri","fractal_assignment":["../images/pnk_blu.png","../images/cyn_red.png","../images/blu_wht.png","../images/ylw_slt.png","../images/org_blu.png","../images/gry_blk.png"],"mutagen_generator_assignment":[0,1],"goal":1,"start":2,"action_noise":0.15,"location_history":"[2,1]","action_history":"[0]","mutagen_history":"[0]","location_rts":"[6019]","trial_type":"fractal-mutation","trial_index":92,"time_elapsed":1748154,"internal_node_id":"0.0-5.0-38.0"},{"group":"hexagon_tri","fractal_assignment":["../images/pnk_blu.png","../images/cyn_red.png","../images/blu_wht.png","../images/ylw_slt.png","../images/org_blu.png","../images/gry_blk.png"],"mutagen_generator_assignment":[0,1],"goal":4,"start":1,"action_noise":0.15,"location_history":"[1,3,2,1,3,2,1,5,4]","action_history":"[0,0,0,0,0,0,1,0]","mutagen_history":"[0,0,0,0,0,0,1,0]","location_rts":"[1564,372,342,337,690,316,595,463]","trial_type":"fractal-mutation","trial_index":93,"time_elapsed":1764962,"internal_node_id":"0.0-5.0-39.0"},{"group":"hexagon_tri","fractal_assignment":["../images/pnk_blu.png","../images/cyn_red.png","../images/blu_wht.png","../images/ylw_slt.png","../images/org_blu.png","../images/gry_blk.png"],"mutagen_generator_assignment":[0,1],"goal":3,"start":4,"action_noise":0.15,"location_history":"[4,2,3]","action_history":"[1,1]","mutagen_history":"[1,1]","location_rts":"[1210,394]","trial_type":"fractal-mutation","trial_index":94,"time_elapsed":1772242,"internal_node_id":"0.0-5.0-40.0"},{"group":"hexagon_tri","fractal_assignment":["../images/pnk_blu.png","../images/cyn_red.png","../images/blu_wht.png","../images/ylw_slt.png","../images/org_blu.png","../images/gry_blk.png"],"mutagen_generator_assignment":[0,1],"goal":5,"start":3,"action_noise":0.15,"location_history":"[3,4,2,3,4,2,3,4,2,1,5]","action_history":"[1,1,1,1,1,1,1,1,0,1]","mutagen_history":"[1,1,1,1,1,1,1,1,0,1]","location_rts":"[1081,343,405,305,323,271,326,311,359,282]","trial_type":"fractal-mutation","trial_index":95,"time_elapsed":1790558,"internal_node_id":"0.0-5.0-41.0"},{"group":"hexagon_tri","fractal_assignment":["../images/pnk_blu.png","../images/cyn_red.png","../images/blu_wht.png","../images/ylw_slt.png","../images/org_blu.png","../images/gry_blk.png"],"mutagen_generator_assignment":[0,1],"goal":3,"start":5,"action_noise":0.15,"location_history":"[5,0,1,5,0,1,5,0,1,5,0,5,4,2,1,5,0,1,5,4,2,1,5,0,1,5,0,5,0,5,4,0,1,5,0,1,5,4,0,1,5,0,1,5,4,0,5,4,0,5,0,1,3]","action_history":"[1,1,1,1,1,1,1,1,1,1,0,0,0,0,1,1,1,1,1,1,1,1,0,1,1,1,1,1,0,0,1,1,1,1,1,1,1,1,1,1,1,1,1,1,0,0,0,0,0,0,1,0]","mutagen_history":"[1,1,1,1,1,1,1,1,1,1,0,0,0,0,1,1,1,1,1,1,1,1,0,1,1,1,1,1,0,0,1,1,1,1,1,1,1,1,1,1,1,1,1,1,0,0,0,0,0,0,1,0]","location_rts":"[1081,467,400,361,342,332,535,510,458,526,859,612,334,370,431,366,358,357,447,382,335,344,425,376,432,504,564,301,336,572,326,303,328,312,323,162,63,409,294,285,296,300,297,164,719,317,307,167,116,110,779,335]","trial_type":"fractal-mutation","trial_index":96,"time_elapsed":1870660,"internal_node_id":"0.0-5.0-42.0"},{"group":"hexagon_tri","fractal_assignment":["../images/pnk_blu.png","../images/cyn_red.png","../images/blu_wht.png","../images/ylw_slt.png","../images/org_blu.png","../images/gry_blk.png"],"mutagen_generator_assignment":[0,1],"goal":0,"start":3,"action_noise":0.15,"location_history":"[3,2,1,3,2,1,3,2,1,3,2,1,3,2,3,4,2,3,4,2,1,3,4,0]","action_history":"[0,0,0,0,0,0,0,0,0,0,0,0,0,1,1,1,0,1,1,0,1,0,0]","mutagen_history":"[0,0,0,0,0,0,0,0,0,0,0,0,0,1,1,1,0,1,1,0,1,0,0]","location_rts":"[2801,710,38,259,273,311,298,298,310,370,580,278,305,2890,360,309,321,635,462,691,830,629,667]","trial_type":"fractal-mutation","trial_index":97,"time_elapsed":1913628,"internal_node_id":"0.0-5.0-43.0"},{"group":"hexagon_tri","fractal_assignment":["../images/pnk_blu.png","../images/cyn_red.png","../images/blu_wht.png","../images/ylw_slt.png","../images/org_blu.png","../images/gry_blk.png"],"mutagen_generator_assignment":[0,1],"goal":2,"start":0,"action_noise":0.15,"location_history":"[0,1,5,0,1,3,4,2]","action_history":"[1,1,1,1,1,1,1]","mutagen_history":"[1,1,1,1,1,1,1]","location_rts":"[2363,335,363,183,333,399,289]","trial_type":"fractal-mutation","trial_index":98,"time_elapsed":1928968,"internal_node_id":"0.0-5.0-44.0"},{"group":"hexagon_tri","fractal_assignment":["../images/pnk_blu.png","../images/cyn_red.png","../images/blu_wht.png","../images/ylw_slt.png","../images/org_blu.png","../images/gry_blk.png"],"mutagen_generator_assignment":[0,1],"goal":4,"start":2,"action_noise":0.15,"location_history":"[2,1,3,2,3,2,1,5,4]","action_history":"[0,0,0,1,0,0,1,0]","mutagen_history":"[0,0,0,1,0,0,1,0]","location_rts":"[1548,1728,740,349,323,348,322,491]","trial_type":"fractal-mutation","trial_index":99,"time_elapsed":1946960,"internal_node_id":"0.0-5.0-45.0"},{"group":"hexagon_tri","fractal_assignment":["../images/pnk_blu.png","../images/cyn_red.png","../images/blu_wht.png","../images/ylw_slt.png","../images/org_blu.png","../images/gry_blk.png"],"mutagen_generator_assignment":[0,1],"goal":1,"start":4,"action_noise":0.15,"location_history":"[4,0,1]","action_history":"[0,1]","mutagen_history":"[0,1]","location_rts":"[1370,481]","trial_type":"fractal-mutation","trial_index":100,"time_elapsed":1954492,"internal_node_id":"0.0-5.0-46.0"},{"group":"hexagon_tri","fractal_assignment":["../images/pnk_blu.png","../images/cyn_red.png","../images/blu_wht.png","../images/ylw_slt.png","../images/org_blu.png","../images/gry_blk.png"],"mutagen_generator_assignment":[0,1],"goal":4,"start":1,"action_noise":0.15,"location_history":"[1,5,4]","action_history":"[0,0]","mutagen_history":"[0,0]","location_rts":"[1142,510]","trial_type":"fractal-mutation","trial_index":101,"time_elapsed":1961813,"internal_node_id":"0.0-5.0-47.0"},{"group":"hexagon_tri","fractal_assignment":["../images/pnk_blu.png","../images/cyn_red.png","../images/blu_wht.png","../images/ylw_slt.png","../images/org_blu.png","../images/gry_blk.png"],"mutagen_generator_assignment":[0,1],"goal":3,"start":4,"action_noise":0.15,"location_history":"[4,2,3]","action_history":"[1,1]","mutagen_history":"[1,1]","location_rts":"[78963,385]","trial_type":"fractal-mutation","trial_index":102,"time_elapsed":2046851,"internal_node_id":"0.0-5.0-48.0"},{"group":"hexagon_tri","fractal_assignment":["../images/pnk_blu.png","../images/cyn_red.png","../images/blu_wht.png","../images/ylw_slt.png","../images/org_blu.png","../images/gry_blk.png"],"mutagen_generator_assignment":[0,1],"goal":5,"start":3,"action_noise":0.15,"location_history":"[3,2,1,3,2,1,5]","action_history":"[0,0,0,0,0,1]","mutagen_history":"[0,0,0,0,0,1]","location_rts":"[1069,343,360,761,363,375]","trial_type":"fractal-mutation","trial_index":103,"time_elapsed":2060112,"internal_node_id":"0.0-5.0-49.0"},{"view_history":"[{\"page_index\":0,\"viewing_time\":26546}]","rt":26547,"trial_type":"instructions","trial_index":104,"time_elapsed":2087662,"internal_node_id":"0.0-6.0"},{"rt":1769,"responses":"{\"Q0\":\"\"}","trial_type":"survey-text","trial_index":105,"time_elapsed":2090442,"internal_node_id":"0.0-7.0"}]