[{"view_history":"[{\"page_index\":0,\"viewing_time\":5274},{\"page_index\":1,\"viewing_time\":33885},{\"page_index\":2,\"viewing_time\":43448},{\"page_index\":3,\"viewing_time\":8204}]","rt":90812,"trial_type":"instructions","trial_index":0,"time_elapsed":90813,"internal_node_id":"0.0-0.0"},{"view_history":"[{\"page_index\":0,\"viewing_time\":2555},{\"page_index\":1,\"viewing_time\":32935}]","rt":35490,"trial_type":"instructions","trial_index":1,"time_elapsed":127305,"internal_node_id":"0.0-1.0"},{"group":"hexagon_bi","room_assignment":["red","blue","green","purple","grey","yellow"],"door_color_assignment":["white","black"],"door_generator_assignment":[1,0],"goal":4,"start":0,"action_noise":0.15,"location_history":"[0,5,4]","action_history":"[0,1]","door_history":"[1,0]","location_rts":"[5412,3289]","trial_type":"two-door-navigation","trial_index":2,"time_elapsed":141574,"internal_node_id":"0.0-2.0-0.0"},{"group":"hexagon_bi","room_assignment":["red","blue","green","purple","grey","yellow"],"door_color_assignment":["white","black"],"door_generator_assignment":[1,0],"goal":3,"start":4,"action_noise":0.15,"location_history":"[4,3]","action_history":"[1]","door_history":"[0]","location_rts":"[2996]","trial_type":"two-door-navigation","trial_index":3,"time_elapsed":149100,"internal_node_id":"0.0-2.0-1.0"},{"group":"hexagon_bi","room_assignment":["red","blue","green","purple","grey","yellow"],"door_color_assignment":["white","black"],"door_generator_assignment":[1,0],"goal":5,"start":3,"action_noise":0.15,"location_history":"[3,4,5]","action_history":"[0,1]","door_history":"[1,0]","location_rts":"[3802,731]","trial_type":"two-door-navigation","trial_index":4,"time_elapsed":159188,"internal_node_id":"0.0-2.0-2.0"},{"group":"hexagon_bi","room_assignment":["red","blue","green","purple","grey","yellow"],"door_color_assignment":["white","black"],"door_generator_assignment":[1,0],"goal":2,"start":5,"action_noise":0.15,"location_history":"[5,0,1,2]","action_history":"[0,1,1]","door_history":"[1,0,0]","location_rts":"[2684,1657,1084]","trial_type":"two-door-navigation","trial_index":5,"time_elapsed":171198,"internal_node_id":"0.0-2.0-3.0"},{"group":"hexagon_bi","room_assignment":["red","blue","green","purple","grey","yellow"],"door_color_assignment":["white","black"],"door_generator_assignment":[1,0],"goal":1,"start":2,"action_noise":0.15,"location_history":"[2,3,4,5,4,5,4,3,2,3,2,1]","action_history":"[1,0,0,1,1,1,0,1,0,1,0]","door_history":"[0,1,1,0,0,0,1,0,1,0,1]","location_rts":"[4237,708,664,807,514,924,760,1468,1294,1075,1155]","trial_type":"two-door-navigation","trial_index":6,"time_elapsed":199598,"internal_node_id":"0.0-2.0-4.0"},{"group":"hexagon_bi","room_assignment":["red","blue","green","purple","grey","yellow"],"door_color_assignment":["white","black"],"door_generator_assignment":[1,0],"goal":4,"start":1,"action_noise":0.15,"location_history":"[1,2,3,2,3,4]","action_history":"[0,1,1,1,0]","door_history":"[1,0,0,0,1]","location_rts":"[1635,457,383,586,739]","trial_type":"two-door-navigation","trial_index":7,"time_elapsed":212035,"internal_node_id":"0.0-2.0-5.0"},{"group":"hexagon_bi","room_assignment":["red","blue","green","purple","grey","yellow"],"door_color_assignment":["white","black"],"door_generator_assignment":[1,0],"goal":1,"start":4,"action_noise":0.15,"location_history":"[4,3,4,5,0,5,4,5,0,1]","action_history":"[0,1,1,0,0,1,1,0,1]","door_history":"[1,0,0,1,1,0,0,1,0]","location_rts":"[1266,393,379,724,666,447,485,471,1401]","trial_type":"two-door-navigation","trial_index":8,"time_elapsed":231000,"internal_node_id":"0.0-2.0-6.0"},{"group":"hexagon_bi","room_assignment":["red","blue","green","purple","grey","yellow"],"door_color_assignment":["white","black"],"door_generator_assignment":[1,0],"goal":5,"start":1,"action_noise":0.15,"location_history":"[1,0,5]","action_history":"[1,0]","door_history":"[0,1]","location_rts":"[1293,311]","trial_type":"two-door-navigation","trial_index":9,"time_elapsed":238154,"internal_node_id":"0.0-2.0-7.0"},{"group":"hexagon_bi","room_assignment":["red","blue","green","purple","grey","yellow"],"door_color_assignment":["white","black"],"door_generator_assignment":[1,0],"goal":0,"start":5,"action_noise":0.15,"location_history":"[5,4,5,0]","action_history":"[1,1,1]","door_history":"[0,0,0]","location_rts":"[2202,1420,1369]","trial_type":"two-door-navigation","trial_index":10,"time_elapsed":249722,"internal_node_id":"0.0-2.0-8.0"},{"group":"hexagon_bi","room_assignment":["red","blue","green","purple","grey","yellow"],"door_color_assignment":["white","black"],"door_generator_assignment":[1,0],"goal":2,"start":0,"action_noise":0.15,"location_history":"[0,5,0,1,2]","action_history":"[0,1,1,1]","door_history":"[1,0,0,0]","location_rts":"[2052,1188,962,878]","trial_type":"two-door-navigation","trial_index":11,"time_elapsed":262397,"internal_node_id":"0.0-2.0-9.0"},{"group":"hexagon_bi","room_assignment":["red","blue","green","purple","grey","yellow"],"door_color_assignment":["white","black"],"door_generator_assignment":[1,0],"goal":3,"start":2,"action_noise":0.15,"location_history":"[2,3]","action_history":"[1]","door_history":"[0]","location_rts":"[2121]","trial_type":"two-door-navigation","trial_index":12,"time_elapsed":269050,"internal_node_id":"0.0-2.0-10.0"},{"group":"hexagon_bi","room_assignment":["red","blue","green","purple","grey","yellow"],"door_color_assignment":["white","black"],"door_generator_assignment":[1,0],"goal":0,"start":3,"action_noise":0.15,"location_history":"[3,4,3,2,3,4,5,0]","action_history":"[0,0,1,1,0,1,0]","door_history":"[1,1,0,0,1,0,1]","location_rts":"[2003,1227,1420,792,1547,1136,1153]","trial_type":"two-door-navigation","trial_index":13,"time_elapsed":288995,"internal_node_id":"0.0-2.0-11.0"},{"group":"hexagon_bi","room_assignment":["red","blue","green","purple","grey","yellow"],"door_color_assignment":["white","black"],"door_generator_assignment":[1,0],"goal":2,"start":0,"action_noise":0.15,"location_history":"[0,1,0,1,0,1,0,1,0,5,4,5,0,1,2]","action_history":"[1,0,0,1,1,1,1,1,0,0,1,0,0,0]","door_history":"[0,1,1,0,0,0,0,0,1,1,0,1,1,1]","location_rts":"[1273,631,660,508,671,491,519,460,901,1091,1549,597,514,539]","trial_type":"two-door-navigation","trial_index":14,"time_elapsed":317261,"internal_node_id":"0.0-2.0-12.0"},{"group":"hexagon_bi","room_assignment":["red","blue","green","purple","grey","yellow"],"door_color_assignment":["white","black"],"door_generator_assignment":[1,0],"goal":5,"start":2,"action_noise":0.15,"location_history":"[2,3,2,1,0,1,2,1,0,5]","action_history":"[1,1,0,1,1,0,0,1,1]","door_history":"[0,0,1,0,0,1,1,0,0]","location_rts":"[1629,942,968,1199,619,1161,826,706,491]","trial_type":"two-door-navigation","trial_index":15,"time_elapsed":338549,"internal_node_id":"0.0-2.0-13.0"},{"group":"hexagon_bi","room_assignment":["red","blue","green","purple","grey","yellow"],"door_color_assignment":["white","black"],"door_generator_assignment":[1,0],"goal":4,"start":5,"action_noise":0.15,"location_history":"[5,4]","action_history":"[1]","door_history":"[0]","location_rts":"[1192]","trial_type":"two-door-navigation","trial_index":16,"time_elapsed":344269,"internal_node_id":"0.0-2.0-14.0"},{"group":"hexagon_bi","room_assignment":["red","blue","green","purple","grey","yellow"],"door_color_assignment":["white","black"],"door_generator_assignment":[1,0],"goal":3,"start":4,"action_noise":0.15,"location_history":"[4,3]","action_history":"[0]","door_history":"[1]","location_rts":"[1317]","trial_type":"two-door-navigation","trial_index":17,"time_elapsed":350118,"internal_node_id":"0.0-2.0-15.0"},{"group":"hexagon_bi","room_assignment":["red","blue","green","purple","grey","yellow"],"door_color_assignment":["white","black"],"door_generator_assignment":[1,0],"goal":1,"start":3,"action_noise":0.15,"location_history":"[3,2,1]","action_history":"[1,0]","door_history":"[0,1]","location_rts":"[1915,1343]","trial_type":"two-door-navigation","trial_index":18,"time_elapsed":358930,"internal_node_id":"0.0-2.0-16.0"},{"group":"hexagon_bi","room_assignment":["red","blue","green","purple","grey","yellow"],"door_color_assignment":["white","black"],"door_generator_assignment":[1,0],"goal":5,"start":1,"action_noise":0.15,"location_history":"[1,2,3,2,1,2,1,0,1,2,3,4,5]","action_history":"[0,1,1,0,0,0,1,1,0,1,0,1]","door_history":"[1,0,0,1,1,1,0,0,1,0,1,0]","location_rts":"[2101,989,604,1327,750,610,1048,471,1561,570,1181,1554]","trial_type":"two-door-navigation","trial_index":19,"time_elapsed":387521,"internal_node_id":"0.0-2.0-17.0"},{"group":"hexagon_bi","room_assignment":["red","blue","green","purple","grey","yellow"],"door_color_assignment":["white","black"],"door_generator_assignment":[1,0],"goal":4,"start":5,"action_noise":0.15,"location_history":"[5,4]","action_history":"[1]","door_history":"[0]","location_rts":"[1723]","trial_type":"two-door-navigation","trial_index":20,"time_elapsed":393778,"internal_node_id":"0.0-2.0-18.0"},{"group":"hexagon_bi","room_assignment":["red","blue","green","purple","grey","yellow"],"door_color_assignment":["white","black"],"door_generator_assignment":[1,0],"goal":0,"start":4,"action_noise":0.15,"location_history":"[4,3,2,1,0]","action_history":"[0,1,0,1]","door_history":"[1,0,1,0]","location_rts":"[1724,1542,1035,964]","trial_type":"two-door-navigation","trial_index":21,"time_elapsed":406648,"internal_node_id":"0.0-2.0-19.0"},{"group":"hexagon_bi","room_assignment":["red","blue","green","purple","grey","yellow"],"door_color_assignment":["white","black"],"door_generator_assignment":[1,0],"goal":1,"start":0,"action_noise":0.15,"location_history":"[0,5,4,5,0,5,4,3,2,1]","action_history":"[0,1,1,0,0,1,0,1,0]","door_history":"[1,0,0,1,1,0,1,0,1]","location_rts":"[2937,828,796,943,1650,661,644,449,916]","trial_type":"two-door-navigation","trial_index":22,"time_elapsed":429187,"internal_node_id":"0.0-2.0-20.0"},{"group":"hexagon_bi","room_assignment":["red","blue","green","purple","grey","yellow"],"door_color_assignment":["white","black"],"door_generator_assignment":[1,0],"goal":3,"start":1,"action_noise":0.15,"location_history":"[1,0,5,0,5,4,3]","action_history":"[1,0,0,0,1,0]","door_history":"[0,1,1,1,0,1]","location_rts":"[1853,1227,750,616,1061,1192]","trial_type":"two-door-navigation","trial_index":23,"time_elapsed":445539,"internal_node_id":"0.0-2.0-21.0"},{"group":"hexagon_bi","room_assignment":["red","blue","green","purple","grey","yellow"],"door_color_assignment":["white","black"],"door_generator_assignment":[1,0],"goal":2,"start":3,"action_noise":0.15,"location_history":"[3,2]","action_history":"[1]","door_history":"[0]","location_rts":"[4653]","trial_type":"two-door-navigation","trial_index":24,"time_elapsed":454721,"internal_node_id":"0.0-2.0-22.0"},{"group":"hexagon_bi","room_assignment":["red","blue","green","purple","grey","yellow"],"door_color_assignment":["white","black"],"door_generator_assignment":[1,0],"goal":0,"start":2,"action_noise":0.15,"location_history":"[2,1,0]","action_history":"[0,1]","door_history":"[1,0]","location_rts":"[3621,1026]","trial_type":"two-door-navigation","trial_index":25,"time_elapsed":464919,"internal_node_id":"0.0-2.0-23.0"},{"group":"hexagon_bi","room_assignment":["red","blue","green","purple","grey","yellow"],"door_color_assignment":["white","black"],"door_generator_assignment":[1,0],"goal":3,"start":0,"action_noise":0.15,"location_history":"[0,5,4,3]","action_history":"[0,1,0]","door_history":"[1,0,1]","location_rts":"[1991,698,1197]","trial_type":"two-door-navigation","trial_index":26,"time_elapsed":475387,"internal_node_id":"0.0-2.0-24.0"},{"group":"hexagon_bi","room_assignment":["red","blue","green","purple","grey","yellow"],"door_color_assignment":["white","black"],"door_generator_assignment":[1,0],"goal":1,"start":3,"action_noise":0.15,"location_history":"[3,2,3,4,3,2,1]","action_history":"[1,1,0,0,1,0]","door_history":"[0,0,1,1,0,1]","location_rts":"[2980,1442,826,947,913,1319]","trial_type":"two-door-navigation","trial_index":27,"time_elapsed":493470,"internal_node_id":"0.0-2.0-25.0"},{"group":"hexagon_bi","room_assignment":["red","blue","green","purple","grey","yellow"],"door_color_assignment":["white","black"],"door_generator_assignment":[1,0],"goal":2,"start":1,"action_noise":0.15,"location_history":"[1,2]","action_history":"[0]","door_history":"[1]","location_rts":"[1999]","trial_type":"two-door-navigation","trial_index":28,"time_elapsed":499996,"internal_node_id":"0.0-2.0-26.0"},{"group":"hexagon_bi","room_assignment":["red","blue","green","purple","grey","yellow"],"door_color_assignment":["white","black"],"door_generator_assignment":[1,0],"goal":5,"start":2,"action_noise":0.15,"location_history":"[2,1,0,1,0,5]","action_history":"[0,1,1,0,0]","door_history":"[1,0,0,1,1]","location_rts":"[1851,563,926,1134,980]","trial_type":"two-door-navigation","trial_index":29,"time_elapsed":514077,"internal_node_id":"0.0-2.0-27.0"},{"group":"hexagon_bi","room_assignment":["red","blue","green","purple","grey","yellow"],"door_color_assignment":["white","black"],"door_generator_assignment":[1,0],"goal":4,"start":5,"action_noise":0.15,"location_history":"[5,4]","action_history":"[1]","door_history":"[0]","location_rts":"[2390]","trial_type":"two-door-navigation","trial_index":30,"time_elapsed":520995,"internal_node_id":"0.0-2.0-28.0"},{"group":"hexagon_bi","room_assignment":["red","blue","green","purple","grey","yellow"],"door_color_assignment":["white","black"],"door_generator_assignment":[1,0],"goal":5,"start":4,"action_noise":0.15,"location_history":"[4,3,2,3,2,3,2,3,4,3,2,3,2,1,0,1,2,1,2,1,0,5]","action_history":"[0,1,1,1,1,1,1,0,0,1,1,1,0,1,1,0,1,0,1,1,0]","door_history":"[1,0,0,0,0,0,0,1,1,0,0,0,1,0,0,1,0,1,0,0,1]","location_rts":"[4548,1001,790,654,557,662,500,401,753,2567,538,617,484,709,1047,1381,802,1415,491,1298,704]","trial_type":"two-door-navigation","trial_index":31,"time_elapsed":567949,"internal_node_id":"0.0-2.0-29.0"},{"group":"hexagon_bi","room_assignment":["red","blue","green","purple","grey","yellow"],"door_color_assignment":["white","black"],"door_generator_assignment":[1,0],"goal":3,"start":5,"action_noise":0.15,"location_history":"[5,0,5,4,3]","action_history":"[0,1,1,0]","door_history":"[1,0,0,1]","location_rts":"[2120,937,554,319]","trial_type":"two-door-navigation","trial_index":32,"time_elapsed":579481,"internal_node_id":"0.0-2.0-30.0"},{"group":"hexagon_bi","room_assignment":["red","blue","green","purple","grey","yellow"],"door_color_assignment":["white","black"],"door_generator_assignment":[1,0],"goal":0,"start":3,"action_noise":0.15,"location_history":"[3,2,1,0]","action_history":"[1,0,1]","door_history":"[0,1,0]","location_rts":"[2410,1625,810]","trial_type":"two-door-navigation","trial_index":33,"time_elapsed":590904,"internal_node_id":"0.0-2.0-31.0"},{"group":"hexagon_bi","room_assignment":["red","blue","green","purple","grey","yellow"],"door_color_assignment":["white","black"],"door_generator_assignment":[1,0],"goal":4,"start":0,"action_noise":0.15,"location_history":"[0,1,0,1,2,3,4]","action_history":"[1,1,1,0,1,0]","door_history":"[0,0,0,1,0,1]","location_rts":"[2912,1867,1130,824,1233,1143]","trial_type":"two-door-navigation","trial_index":34,"time_elapsed":609659,"internal_node_id":"0.0-2.0-32.0"},{"group":"hexagon_bi","room_assignment":["red","blue","green","purple","grey","yellow"],"door_color_assignment":["white","black"],"door_generator_assignment":[1,0],"goal":1,"start":4,"action_noise":0.15,"location_history":"[4,3,2,3,2,1]","action_history":"[0,1,0,1,0]","door_history":"[1,0,1,0,1]","location_rts":"[2741,1368,871,2223,727]","trial_type":"two-door-navigation","trial_index":35,"time_elapsed":626225,"internal_node_id":"0.0-2.0-33.0"},{"group":"hexagon_bi","room_assignment":["red","blue","green","purple","grey","yellow"],"door_color_assignment":["white","black"],"door_generator_assignment":[1,0],"goal":2,"start":1,"action_noise":0.15,"location_history":"[1,0,1,0,5,4,3,2]","action_history":"[0,1,1,0,1,0,1]","door_history":"[1,0,0,1,0,1,0]","location_rts":"[2033,626,1365,629,883,954,908]","trial_type":"two-door-navigation","trial_index":36,"time_elapsed":644305,"internal_node_id":"0.0-2.0-34.0"},{"group":"hexagon_bi","room_assignment":["red","blue","green","purple","grey","yellow"],"door_color_assignment":["white","black"],"door_generator_assignment":[1,0],"goal":0,"start":2,"action_noise":0.15,"location_history":"[2,1,0]","action_history":"[0,1]","door_history":"[1,0]","location_rts":"[3388,614]","trial_type":"two-door-navigation","trial_index":37,"time_elapsed":653859,"internal_node_id":"0.0-2.0-35.0"},{"group":"hexagon_bi","room_assignment":["red","blue","green","purple","grey","yellow"],"door_color_assignment":["white","black"],"door_generator_assignment":[1,0],"goal":5,"start":0,"action_noise":0.15,"location_history":"[0,1,2,3,4,5]","action_history":"[1,0,1,0,0]","door_history":"[0,1,0,1,1]","location_rts":"[1430,1319,2859,694,816]","trial_type":"two-door-navigation","trial_index":38,"time_elapsed":669599,"internal_node_id":"0.0-2.0-36.0"},{"group":"hexagon_bi","room_assignment":["red","blue","green","purple","grey","yellow"],"door_color_assignment":["white","black"],"door_generator_assignment":[1,0],"goal":2,"start":5,"action_noise":0.15,"location_history":"[5,0,1,0,5,0,1,0,1,0,1,0,5,0,1,2]","action_history":"[0,1,1,0,0,1,1,0,1,1,0,0,0,1,0]","door_history":"[1,0,0,1,1,0,0,1,0,0,1,1,1,0,1]","location_rts":"[2021,504,628,865,2044,523,545,1423,2023,838,867,412,1166,1499,967]","trial_type":"two-door-navigation","trial_index":39,"time_elapsed":704827,"internal_node_id":"0.0-2.0-37.0"},{"group":"hexagon_bi","room_assignment":["red","blue","green","purple","grey","yellow"],"door_color_assignment":["white","black"],"door_generator_assignment":[1,0],"goal":1,"start":2,"action_noise":0.15,"location_history":"[2,3,4,5,4,3,4,5,4,5,4,3,2,3,4,5,0,1]","action_history":"[1,0,1,1,0,0,1,1,1,1,0,1,1,0,1,0,1]","door_history":"[0,1,0,0,1,1,0,0,0,0,1,0,0,1,0,1,0]","location_rts":"[3393,1223,1006,1092,956,974,871,557,577,630,956,836,2507,1194,1737,512,1967]","trial_type":"two-door-navigation","trial_index":40,"time_elapsed":746729,"internal_node_id":"0.0-2.0-38.0"},{"group":"hexagon_bi","room_assignment":["red","blue","green","purple","grey","yellow"],"door_color_assignment":["white","black"],"door_generator_assignment":[1,0],"goal":4,"start":1,"action_noise":0.15,"location_history":"[1,2,3,2,1,2,1,0,1,2,1,2,1,0,5,4]","action_history":"[0,1,1,0,0,1,1,1,0,1,0,0,0,0,1]","door_history":"[1,0,0,1,1,0,0,0,1,0,1,1,1,1,0]","location_rts":"[3837,635,844,640,985,557,537,832,1134,1189,867,545,1309,1236,951]","trial_type":"two-door-navigation","trial_index":41,"time_elapsed":781698,"internal_node_id":"0.0-2.0-39.0"},{"group":"hexagon_bi","room_assignment":["red","blue","green","purple","grey","yellow"],"door_color_assignment":["white","black"],"door_generator_assignment":[1,0],"goal":3,"start":4,"action_noise":0.15,"location_history":"[4,3]","action_history":"[0]","door_history":"[1]","location_rts":"[3029]","trial_type":"two-door-navigation","trial_index":42,"time_elapsed":789256,"internal_node_id":"0.0-2.0-40.0"},{"group":"hexagon_bi","room_assignment":["red","blue","green","purple","grey","yellow"],"door_color_assignment":["white","black"],"door_generator_assignment":[1,0],"goal":5,"start":3,"action_noise":0.15,"location_history":"[3,2,3,2,3,2,1,2,3,2,1,0,1,2,3,2,1,0,1,2,1,0,5]","action_history":"[1,1,1,0,1,0,0,1,0,0,1,1,0,1,1,0,1,1,0,0,1,0]","door_history":"[0,0,0,1,0,1,1,0,1,1,0,0,1,0,0,1,0,0,1,1,0,1]","location_rts":"[2822,1634,2338,396,2090,1180,1386,926,952,740,660,452,925,671,1077,417,362,496,646,493,598,282]","trial_type":"two-door-navigation","trial_index":43,"time_elapsed":836843,"internal_node_id":"0.0-2.0-41.0"},{"group":"hexagon_bi","room_assignment":["red","blue","green","purple","grey","yellow"],"door_color_assignment":["white","black"],"door_generator_assignment":[1,0],"goal":3,"start":5,"action_noise":0.15,"location_history":"[5,0,5,4,3]","action_history":"[0,0,1,0]","door_history":"[1,1,0,1]","location_rts":"[4555,1303,1756,1383]","trial_type":"two-door-navigation","trial_index":44,"time_elapsed":853441,"internal_node_id":"0.0-2.0-42.0"},{"group":"hexagon_bi","room_assignment":["red","blue","green","purple","grey","yellow"],"door_color_assignment":["white","black"],"door_generator_assignment":[1,0],"goal":0,"start":3,"action_noise":0.15,"location_history":"[3,2,3,4,3,2,3,2,1,0]","action_history":"[1,1,0,0,1,1,1,0,1]","door_history":"[0,0,1,1,0,0,0,1,0]","location_rts":"[3814,2088,1124,1343,1193,663,644,2519,1352]","trial_type":"two-door-navigation","trial_index":45,"time_elapsed":880908,"internal_node_id":"0.0-2.0-43.0"},{"group":"hexagon_bi","room_assignment":["red","blue","green","purple","grey","yellow"],"door_color_assignment":["white","black"],"door_generator_assignment":[1,0],"goal":2,"start":0,"action_noise":0.15,"location_history":"[0,5,4,3,2]","action_history":"[0,1,0,1]","door_history":"[1,0,1,0]","location_rts":"[4277,1766,2012,1740]","trial_type":"two-door-navigation","trial_index":46,"time_elapsed":898308,"internal_node_id":"0.0-2.0-44.0"},{"group":"hexagon_bi","room_assignment":["red","blue","green","purple","grey","yellow"],"door_color_assignment":["white","black"],"door_generator_assignment":[1,0],"goal":4,"start":2,"action_noise":0.15,"location_history":"[2,1,0,1,2,1,0,5,4]","action_history":"[0,1,1,0,1,0,0,1]","door_history":"[1,0,0,1,0,1,1,0]","location_rts":"[6075,464,588,1094,2848,1012,870,1007]","trial_type":"two-door-navigation","trial_index":47,"time_elapsed":923978,"internal_node_id":"0.0-2.0-45.0"},{"group":"hexagon_bi","room_assignment":["red","blue","green","purple","grey","yellow"],"door_color_assignment":["white","black"],"door_generator_assignment":[1,0],"goal":1,"start":4,"action_noise":0.15,"location_history":"[4,5,0,1]","action_history":"[1,0,1]","door_history":"[0,1,0]","location_rts":"[3380,363,1198]","trial_type":"two-door-navigation","trial_index":48,"time_elapsed":935496,"internal_node_id":"0.0-2.0-46.0"},{"group":"hexagon_bi","room_assignment":["red","blue","green","purple","grey","yellow"],"door_color_assignment":["white","black"],"door_generator_assignment":[1,0],"goal":4,"start":1,"action_noise":0.15,"location_history":"[1,2,3,4]","action_history":"[0,1,0]","door_history":"[1,0,1]","location_rts":"[3445,378,754]","trial_type":"two-door-navigation","trial_index":49,"time_elapsed":946652,"internal_node_id":"0.0-2.0-47.0"},{"group":"hexagon_bi","room_assignment":["red","blue","green","purple","grey","yellow"],"door_color_assignment":["white","black"],"door_generator_assignment":[1,0],"goal":3,"start":4,"action_noise":0.15,"location_history":"[4,3]","action_history":"[0]","door_history":"[1]","location_rts":"[4007]","trial_type":"two-door-navigation","trial_index":50,"time_elapsed":955185,"internal_node_id":"0.0-2.0-48.0"},{"group":"hexagon_bi","room_assignment":["red","blue","green","purple","grey","yellow"],"door_color_assignment":["white","black"],"door_generator_assignment":[1,0],"goal":5,"start":3,"action_noise":0.15,"location_history":"[3,4,3,2,1,2,1,0,1,0,5]","action_history":"[1,0,1,1,0,0,1,1,0,1]","door_history":"[0,1,0,0,1,1,0,0,1,0]","location_rts":"[2505,487,779,859,870,820,500,746,1019,965]","trial_type":"two-door-navigation","trial_index":51,"time_elapsed":978490,"internal_node_id":"0.0-2.0-49.0"},{"view_history":"[{\"page_index\":0,\"viewing_time\":4221}]","rt":4221,"trial_type":"instructions","trial_index":52,"time_elapsed":983712,"internal_node_id":"0.0-3.0"},{"view_history":"[{\"page_index\":0,\"viewing_time\":19397},{\"page_index\":1,\"viewing_time\":39932},{\"page_index\":0,\"viewing_time\":6823},{\"page_index\":1,\"viewing_time\":16055}]","rt":82207,"trial_type":"instructions","trial_index":53,"time_elapsed":1066920,"internal_node_id":"0.0-4.0"},{"group":"hexagon_tri","fractal_assignment":["../images/cyn_red.png","../images/org_blu.png","../images/ylw_slt.png","../images/pnk_blu.png","../images/gry_blk.png","../images/blu_wht.png"],"mutagen_generator_assignment":[0,1],"goal":4,"start":0,"action_noise":0.15,"location_history":"[0,5,0,1,3,2,1,5,4]","action_history":"[0,1,1,1,0,0,1,0]","mutagen_history":"[0,1,1,1,0,0,1,0]","location_rts":"[8062,1767,1400,3962,1828,1512,5212,1259]","trial_type":"fractal-mutation","trial_index":54,"time_elapsed":1103813,"internal_node_id":"0.0-5.0-0.0"},{"group":"hexagon_tri","fractal_assignment":["../images/cyn_red.png","../images/org_blu.png","../images/ylw_slt.png","../images/pnk_blu.png","../images/gry_blk.png","../images/blu_wht.png"],"mutagen_generator_assignment":[0,1],"goal":3,"start":4,"action_noise":0.15,"location_history":"[4,2,3]","action_history":"[1,1]","mutagen_history":"[1,1]","location_rts":"[3309,2746]","trial_type":"fractal-mutation","trial_index":55,"time_elapsed":1115474,"internal_node_id":"0.0-5.0-1.0"},{"group":"hexagon_tri","fractal_assignment":["../images/cyn_red.png","../images/org_blu.png","../images/ylw_slt.png","../images/pnk_blu.png","../images/gry_blk.png","../images/blu_wht.png"],"mutagen_generator_assignment":[0,1],"goal":5,"start":3,"action_noise":0.15,"location_history":"[3,2,1,5]","action_history":"[0,0,1]","mutagen_history":"[0,0,1]","location_rts":"[2026,2403,902]","trial_type":"fractal-mutation","trial_index":56,"time_elapsed":1127458,"internal_node_id":"0.0-5.0-2.0"},{"group":"hexagon_tri","fractal_assignment":["../images/cyn_red.png","../images/org_blu.png","../images/ylw_slt.png","../images/pnk_blu.png","../images/gry_blk.png","../images/blu_wht.png"],"mutagen_generator_assignment":[0,1],"goal":2,"start":5,"action_noise":0.15,"location_history":"[5,4,2]","action_history":"[0,1]","mutagen_history":"[0,1]","location_rts":"[2998,816]","trial_type":"fractal-mutation","trial_index":57,"time_elapsed":1136872,"internal_node_id":"0.0-5.0-3.0"},{"group":"hexagon_tri","fractal_assignment":["../images/cyn_red.png","../images/org_blu.png","../images/ylw_slt.png","../images/pnk_blu.png","../images/gry_blk.png","../images/blu_wht.png"],"mutagen_generator_assignment":[0,1],"goal":1,"start":2,"action_noise":0.15,"location_history":"[2,3,2,3,4,0,5,0,5,4,2,1]","action_history":"[1,0,1,1,0,1,1,0,0,1,0]","mutagen_history":"[1,0,1,1,0,1,1,0,0,1,0]","location_rts":"[1725,1308,1432,1242,1041,1122,1008,942,908,1102,982]","trial_type":"fractal-mutation","trial_index":58,"time_elapsed":1164651,"internal_node_id":"0.0-5.0-4.0"},{"group":"hexagon_tri","fractal_assignment":["../images/cyn_red.png","../images/org_blu.png","../images/ylw_slt.png","../images/pnk_blu.png","../images/gry_blk.png","../images/blu_wht.png"],"mutagen_generator_assignment":[0,1],"goal":4,"start":1,"action_noise":0.15,"location_history":"[1,3,4]","action_history":"[0,1]","mutagen_history":"[0,1]","location_rts":"[2161,786]","trial_type":"fractal-mutation","trial_index":59,"time_elapsed":1173178,"internal_node_id":"0.0-5.0-5.0"},{"group":"hexagon_tri","fractal_assignment":["../images/cyn_red.png","../images/org_blu.png","../images/ylw_slt.png","../images/pnk_blu.png","../images/gry_blk.png","../images/blu_wht.png"],"mutagen_generator_assignment":[0,1],"goal":1,"start":4,"action_noise":0.15,"location_history":"[4,2,1]","action_history":"[1,0]","mutagen_history":"[1,0]","location_rts":"[3155,844]","trial_type":"fractal-mutation","trial_index":60,"time_elapsed":1182747,"internal_node_id":"0.0-5.0-6.0"},{"group":"hexagon_tri","fractal_assignment":["../images/cyn_red.png","../images/org_blu.png","../images/ylw_slt.png","../images/pnk_blu.png","../images/gry_blk.png","../images/blu_wht.png"],"mutagen_generator_assignment":[0,1],"goal":5,"start":1,"action_noise":0.15,"location_history":"[1,3,4,0,5]","action_history":"[0,1,0,0]","mutagen_history":"[0,1,0,0]","location_rts":"[2049,1175,1007,887]","trial_type":"fractal-mutation","trial_index":61,"time_elapsed":1195523,"internal_node_id":"0.0-5.0-7.0"},{"group":"hexagon_tri","fractal_assignment":["../images/cyn_red.png","../images/org_blu.png","../images/ylw_slt.png","../images/pnk_blu.png","../images/gry_blk.png","../images/blu_wht.png"],"mutagen_generator_assignment":[0,1],"goal":0,"start":5,"action_noise":0.15,"location_history":"[5,0]","action_history":"[0]","mutagen_history":"[0]","location_rts":"[4524]","trial_type":"fractal-mutation","trial_index":62,"time_elapsed":1204582,"internal_node_id":"0.0-5.0-8.0"},{"group":"hexagon_tri","fractal_assignment":["../images/cyn_red.png","../images/org_blu.png","../images/ylw_slt.png","../images/pnk_blu.png","../images/gry_blk.png","../images/blu_wht.png"],"mutagen_generator_assignment":[0,1],"goal":2,"start":0,"action_noise":0.15,"location_history":"[0,1,3,2]","action_history":"[1,0,0]","mutagen_history":"[1,0,0]","location_rts":"[1428,1305,1022]","trial_type":"fractal-mutation","trial_index":63,"time_elapsed":1214960,"internal_node_id":"0.0-5.0-9.0"},{"group":"hexagon_tri","fractal_assignment":["../images/cyn_red.png","../images/org_blu.png","../images/ylw_slt.png","../images/pnk_blu.png","../images/gry_blk.png","../images/blu_wht.png"],"mutagen_generator_assignment":[0,1],"goal":3,"start":2,"action_noise":0.15,"location_history":"[2,1,5,0,1,3]","action_history":"[1,1,0,1,0]","mutagen_history":"[1,1,0,1,0]","location_rts":"[2434,1736,911,1214,1044]","trial_type":"fractal-mutation","trial_index":64,"time_elapsed":1230991,"internal_node_id":"0.0-5.0-10.0"},{"group":"hexagon_tri","fractal_assignment":["../images/cyn_red.png","../images/org_blu.png","../images/ylw_slt.png","../images/pnk_blu.png","../images/gry_blk.png","../images/blu_wht.png"],"mutagen_generator_assignment":[0,1],"goal":0,"start":3,"action_noise":0.15,"location_history":"[3,4,2,3,2,3,2,3,4,0]","action_history":"[0,1,1,0,1,0,1,1,0]","mutagen_history":"[0,1,1,0,1,0,1,1,0]","location_rts":"[4279,556,1025,816,1121,1202,603,395,631]","trial_type":"fractal-mutation","trial_index":65,"time_elapsed":1254467,"internal_node_id":"0.0-5.0-11.0"},{"group":"hexagon_tri","fractal_assignment":["../images/cyn_red.png","../images/org_blu.png","../images/ylw_slt.png","../images/pnk_blu.png","../images/gry_blk.png","../images/blu_wht.png"],"mutagen_generator_assignment":[0,1],"goal":2,"start":0,"action_noise":0.15,"location_history":"[0,1,3,2]","action_history":"[1,0,0]","mutagen_history":"[1,0,0]","location_rts":"[2206,911,819]","trial_type":"fractal-mutation","trial_index":66,"time_elapsed":1265021,"internal_node_id":"0.0-5.0-12.0"},{"group":"hexagon_tri","fractal_assignment":["../images/cyn_red.png","../images/org_blu.png","../images/ylw_slt.png","../images/pnk_blu.png","../images/gry_blk.png","../images/blu_wht.png"],"mutagen_generator_assignment":[0,1],"goal":5,"start":2,"action_noise":0.15,"location_history":"[2,3,4,2,3,2,1,5]","action_history":"[1,0,1,1,0,0,1]","mutagen_history":"[1,0,1,1,0,0,1]","location_rts":"[2788,1108,532,2319,936,1052,665]","trial_type":"fractal-mutation","trial_index":67,"time_elapsed":1285234,"internal_node_id":"0.0-5.0-13.0"},{"group":"hexagon_tri","fractal_assignment":["../images/cyn_red.png","../images/org_blu.png","../images/ylw_slt.png","../images/pnk_blu.png","../images/gry_blk.png","../images/blu_wht.png"],"mutagen_generator_assignment":[0,1],"goal":4,"start":5,"action_noise":0.15,"location_history":"[5,0,5,0,1,5,4]","action_history":"[1,0,0,1,1,0]","mutagen_history":"[1,0,0,1,1,0]","location_rts":"[2603,426,537,471,457,494]","trial_type":"fractal-mutation","trial_index":68,"time_elapsed":1299969,"internal_node_id":"0.0-5.0-14.0"},{"group":"hexagon_tri","fractal_assignment":["../images/cyn_red.png","../images/org_blu.png","../images/ylw_slt.png","../images/pnk_blu.png","../images/gry_blk.png","../images/blu_wht.png"],"mutagen_generator_assignment":[0,1],"goal":3,"start":4,"action_noise":0.15,"location_history":"[4,2,1,3]","action_history":"[1,0,0]","mutagen_history":"[1,0,0]","location_rts":"[1200,422,451]","trial_type":"fractal-mutation","trial_index":69,"time_elapsed":1308670,"internal_node_id":"0.0-5.0-15.0"},{"group":"hexagon_tri","fractal_assignment":["../images/cyn_red.png","../images/org_blu.png","../images/ylw_slt.png","../images/pnk_blu.png","../images/gry_blk.png","../images/blu_wht.png"],"mutagen_generator_assignment":[0,1],"goal":1,"start":3,"action_noise":0.15,"location_history":"[3,2,1]","action_history":"[0,1]","mutagen_history":"[0,1]","location_rts":"[1086,411]","trial_type":"fractal-mutation","trial_index":70,"time_elapsed":1315755,"internal_node_id":"0.0-5.0-16.0"},{"group":"hexagon_tri","fractal_assignment":["../images/cyn_red.png","../images/org_blu.png","../images/ylw_slt.png","../images/pnk_blu.png","../images/gry_blk.png","../images/blu_wht.png"],"mutagen_generator_assignment":[0,1],"goal":5,"start":1,"action_noise":0.15,"location_history":"[1,3,4,0,5]","action_history":"[0,1,0,1]","mutagen_history":"[0,1,0,1]","location_rts":"[1649,772,1177,543]","trial_type":"fractal-mutation","trial_index":71,"time_elapsed":1327569,"internal_node_id":"0.0-5.0-17.0"},{"group":"hexagon_tri","fractal_assignment":["../images/cyn_red.png","../images/org_blu.png","../images/ylw_slt.png","../images/pnk_blu.png","../images/gry_blk.png","../images/blu_wht.png"],"mutagen_generator_assignment":[0,1],"goal":4,"start":5,"action_noise":0.15,"location_history":"[5,4]","action_history":"[0]","mutagen_history":"[0]","location_rts":"[3738]","trial_type":"fractal-mutation","trial_index":72,"time_elapsed":1335859,"internal_node_id":"0.0-5.0-18.0"},{"group":"hexagon_tri","fractal_assignment":["../images/cyn_red.png","../images/org_blu.png","../images/ylw_slt.png","../images/pnk_blu.png","../images/gry_blk.png","../images/blu_wht.png"],"mutagen_generator_assignment":[0,1],"goal":0,"start":4,"action_noise":0.15,"location_history":"[4,2,1,5,4,0]","action_history":"[1,0,1,0,0]","mutagen_history":"[1,0,1,0,0]","location_rts":"[2803,840,775,457,566]","trial_type":"fractal-mutation","trial_index":73,"time_elapsed":1349995,"internal_node_id":"0.0-5.0-19.0"},{"group":"hexagon_tri","fractal_assignment":["../images/cyn_red.png","../images/org_blu.png","../images/ylw_slt.png","../images/pnk_blu.png","../images/gry_blk.png","../images/blu_wht.png"],"mutagen_generator_assignment":[0,1],"goal":1,"start":0,"action_noise":0.15,"location_history":"[0,5,4,0,1]","action_history":"[1,0,0,1]","mutagen_history":"[1,0,0,1]","location_rts":"[1476,649,722,1181]","trial_type":"fractal-mutation","trial_index":74,"time_elapsed":1361682,"internal_node_id":"0.0-5.0-20.0"},{"group":"hexagon_tri","fractal_assignment":["../images/cyn_red.png","../images/org_blu.png","../images/ylw_slt.png","../images/pnk_blu.png","../images/gry_blk.png","../images/blu_wht.png"],"mutagen_generator_assignment":[0,1],"goal":3,"start":1,"action_noise":0.15,"location_history":"[1,3]","action_history":"[0]","mutagen_history":"[0]","location_rts":"[5670]","trial_type":"fractal-mutation","trial_index":75,"time_elapsed":1371900,"internal_node_id":"0.0-5.0-21.0"},{"group":"hexagon_tri","fractal_assignment":["../images/cyn_red.png","../images/org_blu.png","../images/ylw_slt.png","../images/pnk_blu.png","../images/gry_blk.png","../images/blu_wht.png"],"mutagen_generator_assignment":[0,1],"goal":2,"start":3,"action_noise":0.15,"location_history":"[3,2]","action_history":"[1]","mutagen_history":"[1]","location_rts":"[1937]","trial_type":"fractal-mutation","trial_index":76,"time_elapsed":1378400,"internal_node_id":"0.0-5.0-22.0"},{"group":"hexagon_tri","fractal_assignment":["../images/cyn_red.png","../images/org_blu.png","../images/ylw_slt.png","../images/pnk_blu.png","../images/gry_blk.png","../images/blu_wht.png"],"mutagen_generator_assignment":[0,1],"goal":0,"start":2,"action_noise":0.15,"location_history":"[2,1,3,4,0]","action_history":"[0,0,1,0]","mutagen_history":"[0,0,1,0]","location_rts":"[3958,1162,523,490]","trial_type":"fractal-mutation","trial_index":77,"time_elapsed":1392195,"internal_node_id":"0.0-5.0-23.0"},{"group":"hexagon_tri","fractal_assignment":["../images/cyn_red.png","../images/org_blu.png","../images/ylw_slt.png","../images/pnk_blu.png","../images/gry_blk.png","../images/blu_wht.png"],"mutagen_generator_assignment":[0,1],"goal":3,"start":0,"action_noise":0.15,"location_history":"[0,1,3]","action_history":"[1,0]","mutagen_history":"[1,0]","location_rts":"[2306,955]","trial_type":"fractal-mutation","trial_index":78,"time_elapsed":1401045,"internal_node_id":"0.0-5.0-24.0"},{"group":"hexagon_tri","fractal_assignment":["../images/cyn_red.png","../images/org_blu.png","../images/ylw_slt.png","../images/pnk_blu.png","../images/gry_blk.png","../images/blu_wht.png"],"mutagen_generator_assignment":[0,1],"goal":1,"start":3,"action_noise":0.15,"location_history":"[3,2,3,4,0,5,4,0,5,4,2,1]","action_history":"[0,1,1,0,0,1,0,0,1,1,0]","mutagen_history":"[0,1,1,0,0,1,0,0,1,1,0]","location_rts":"[1691,568,557,371,1156,759,475,1094,440,595,794]","trial_type":"fractal-mutation","trial_index":79,"time_elapsed":1424462,"internal_node_id":"0.0-5.0-25.0"},{"group":"hexagon_tri","fractal_assignment":["../images/cyn_red.png","../images/org_blu.png","../images/ylw_slt.png","../images/pnk_blu.png","../images/gry_blk.png","../images/blu_wht.png"],"mutagen_generator_assignment":[0,1],"goal":2,"start":1,"action_noise":0.15,"location_history":"[1,5,4,0,5,4,0,1,3,4,0,1,3,4,0,1,5,0,5,0,5,0,5,4,2]","action_history":"[1,0,0,1,0,0,1,1,0,1,0,1,1,0,0,1,1,0,1,0,1,0,0,1]","mutagen_history":"[1,0,0,1,0,0,1,1,0,1,0,1,1,0,0,1,1,0,1,0,1,0,0,1]","location_rts":"[2276,981,556,593,827,630,636,892,766,1029,711,648,561,725,958,539,441,1630,497,761,791,385,1451,621]","trial_type":"fractal-mutation","trial_index":80,"time_elapsed":1472831,"internal_node_id":"0.0-5.0-26.0"},{"group":"hexagon_tri","fractal_assignment":["../images/cyn_red.png","../images/org_blu.png","../images/ylw_slt.png","../images/pnk_blu.png","../images/gry_blk.png","../images/blu_wht.png"],"mutagen_generator_assignment":[0,1],"goal":5,"start":2,"action_noise":0.15,"location_history":"[2,1,3,2,1,3,4,0,1,3,2,1,3,2,3,2,1,5]","action_history":"[1,0,1,0,0,1,0,1,0,0,1,0,1,1,0,0,1]","mutagen_history":"[1,0,1,0,0,1,0,1,0,0,1,0,1,1,0,0,1]","location_rts":"[2181,353,1041,488,725,519,526,669,483,1213,434,1343,523,446,100,1015,398]","trial_type":"fractal-mutation","trial_index":81,"time_elapsed":1506463,"internal_node_id":"0.0-5.0-27.0"},{"group":"hexagon_tri","fractal_assignment":["../images/cyn_red.png","../images/org_blu.png","../images/ylw_slt.png","../images/pnk_blu.png","../images/gry_blk.png","../images/blu_wht.png"],"mutagen_generator_assignment":[0,1],"goal":4,"start":5,"action_noise":0.15,"location_history":"[5,0,5,4]","action_history":"[1,0,0]","mutagen_history":"[1,0,0]","location_rts":"[2886,632,431]","trial_type":"fractal-mutation","trial_index":82,"time_elapsed":1517029,"internal_node_id":"0.0-5.0-28.0"},{"group":"hexagon_tri","fractal_assignment":["../images/cyn_red.png","../images/org_blu.png","../images/ylw_slt.png","../images/pnk_blu.png","../images/gry_blk.png","../images/blu_wht.png"],"mutagen_generator_assignment":[0,1],"goal":5,"start":4,"action_noise":0.15,"location_history":"[4,0,5]","action_history":"[1,0]","mutagen_history":"[1,0]","location_rts":"[1401,494]","trial_type":"fractal-mutation","trial_index":83,"time_elapsed":1524514,"internal_node_id":"0.0-5.0-29.0"},{"group":"hexagon_tri","fractal_assignment":["../images/cyn_red.png","../images/org_blu.png","../images/ylw_slt.png","../images/pnk_blu.png","../images/gry_blk.png","../images/blu_wht.png"],"mutagen_generator_assignment":[0,1],"goal":3,"start":5,"action_noise":0.15,"location_history":"[5,4,0,1,3]","action_history":"[0,1,1,0]","mutagen_history":"[0,1,1,0]","location_rts":"[3022,552,1597,509]","trial_type":"fractal-mutation","trial_index":84,"time_elapsed":1537861,"internal_node_id":"0.0-5.0-30.0"},{"group":"hexagon_tri","fractal_assignment":["../images/cyn_red.png","../images/org_blu.png","../images/ylw_slt.png","../images/pnk_blu.png","../images/gry_blk.png","../images/blu_wht.png"],"mutagen_generator_assignment":[0,1],"goal":0,"start":3,"action_noise":0.15,"location_history":"[3,2,1,5,4,0]","action_history":"[0,1,1,0,0]","mutagen_history":"[0,1,1,0,0]","location_rts":"[2245,880,926,438,824]","trial_type":"fractal-mutation","trial_index":85,"time_elapsed":1551865,"internal_node_id":"0.0-5.0-31.0"},{"group":"hexagon_tri","fractal_assignment":["../images/cyn_red.png","../images/org_blu.png","../images/ylw_slt.png","../images/pnk_blu.png","../images/gry_blk.png","../images/blu_wht.png"],"mutagen_generator_assignment":[0,1],"goal":4,"start":0,"action_noise":0.15,"location_history":"[0,5,0,5,4]","action_history":"[0,1,0,0]","mutagen_history":"[0,1,0,0]","location_rts":"[2253,530,729,942]","trial_type":"fractal-mutation","trial_index":86,"time_elapsed":1563975,"internal_node_id":"0.0-5.0-32.0"},{"group":"hexagon_tri","fractal_assignment":["../images/cyn_red.png","../images/org_blu.png","../images/ylw_slt.png","../images/pnk_blu.png","../images/gry_blk.png","../images/blu_wht.png"],"mutagen_generator_assignment":[0,1],"goal":1,"start":4,"action_noise":0.15,"location_history":"[4,2,1]","action_history":"[1,0]","mutagen_history":"[1,0]","location_rts":"[2517,676]","trial_type":"fractal-mutation","trial_index":87,"time_elapsed":1572754,"internal_node_id":"0.0-5.0-33.0"},{"group":"hexagon_tri","fractal_assignment":["../images/cyn_red.png","../images/org_blu.png","../images/ylw_slt.png","../images/pnk_blu.png","../images/gry_blk.png","../images/blu_wht.png"],"mutagen_generator_assignment":[0,1],"goal":2,"start":1,"action_noise":0.15,"location_history":"[1,5,4,0,1,5,0,5,0,1,3,2]","action_history":"[1,0,0,0,1,1,0,0,1,0,0]","mutagen_history":"[1,0,0,0,1,1,0,0,1,0,0]","location_rts":"[1896,799,752,963,912,733,438,635,955,540,2580]","trial_type":"fractal-mutation","trial_index":88,"time_elapsed":1598866,"internal_node_id":"0.0-5.0-34.0"},{"group":"hexagon_tri","fractal_assignment":["../images/cyn_red.png","../images/org_blu.png","../images/ylw_slt.png","../images/pnk_blu.png","../images/gry_blk.png","../images/blu_wht.png"],"mutagen_generator_assignment":[0,1],"goal":0,"start":2,"action_noise":0.15,"location_history":"[2,1,5,0]","action_history":"[1,0,1]","mutagen_history":"[1,0,1]","location_rts":"[2868,1258,779]","trial_type":"fractal-mutation","trial_index":89,"time_elapsed":1610424,"internal_node_id":"0.0-5.0-35.0"},{"group":"hexagon_tri","fractal_assignment":["../images/cyn_red.png","../images/org_blu.png","../images/ylw_slt.png","../images/pnk_blu.png","../images/gry_blk.png","../images/blu_wht.png"],"mutagen_generator_assignment":[0,1],"goal":5,"start":0,"action_noise":0.15,"location_history":"[0,5]","action_history":"[0]","mutagen_history":"[0]","location_rts":"[1551]","trial_type":"fractal-mutation","trial_index":90,"time_elapsed":1616514,"internal_node_id":"0.0-5.0-36.0"},{"group":"hexagon_tri","fractal_assignment":["../images/cyn_red.png","../images/org_blu.png","../images/ylw_slt.png","../images/pnk_blu.png","../images/gry_blk.png","../images/blu_wht.png"],"mutagen_generator_assignment":[0,1],"goal":2,"start":5,"action_noise":0.15,"location_history":"[5,0,5,0,1,5,4,2]","action_history":"[1,0,1,1,0,0,1]","mutagen_history":"[1,0,1,1,0,0,1]","location_rts":"[1749,2793,437,922,450,698,716]","trial_type":"fractal-mutation","trial_index":91,"time_elapsed":1635087,"internal_node_id":"0.0-5.0-37.0"},{"group":"hexagon_tri","fractal_assignment":["../images/cyn_red.png","../images/org_blu.png","../images/ylw_slt.png","../images/pnk_blu.png","../images/gry_blk.png","../images/blu_wht.png"],"mutagen_generator_assignment":[0,1],"goal":1,"start":2,"action_noise":0.15,"location_history":"[2,1]","action_history":"[0]","mutagen_history":"[0]","location_rts":"[1736]","trial_type":"fractal-mutation","trial_index":92,"time_elapsed":1641367,"internal_node_id":"0.0-5.0-38.0"},{"group":"hexagon_tri","fractal_assignment":["../images/cyn_red.png","../images/org_blu.png","../images/ylw_slt.png","../images/pnk_blu.png","../images/gry_blk.png","../images/blu_wht.png"],"mutagen_generator_assignment":[0,1],"goal":4,"start":1,"action_noise":0.15,"location_history":"[1,5,0,5,4]","action_history":"[1,1,0,0]","mutagen_history":"[1,1,0,0]","location_rts":"[3545,1404,413,1015]","trial_type":"fractal-mutation","trial_index":93,"time_elapsed":1655419,"internal_node_id":"0.0-5.0-39.0"},{"group":"hexagon_tri","fractal_assignment":["../images/cyn_red.png","../images/org_blu.png","../images/ylw_slt.png","../images/pnk_blu.png","../images/gry_blk.png","../images/blu_wht.png"],"mutagen_generator_assignment":[0,1],"goal":3,"start":4,"action_noise":0.15,"location_history":"[4,2,1,3]","action_history":"[1,0,0]","mutagen_history":"[1,0,0]","location_rts":"[1264,716,1445]","trial_type":"fractal-mutation","trial_index":94,"time_elapsed":1665458,"internal_node_id":"0.0-5.0-40.0"},{"group":"hexagon_tri","fractal_assignment":["../images/cyn_red.png","../images/org_blu.png","../images/ylw_slt.png","../images/pnk_blu.png","../images/gry_blk.png","../images/blu_wht.png"],"mutagen_generator_assignment":[0,1],"goal":5,"start":3,"action_noise":0.15,"location_history":"[3,2,3,2,3,2,1,5]","action_history":"[0,1,0,1,0,0,1]","mutagen_history":"[0,1,0,1,0,0,1]","location_rts":"[2171,670,804,1978,1162,704,656]","trial_type":"fractal-mutation","trial_index":95,"time_elapsed":1684381,"internal_node_id":"0.0-5.0-41.0"},{"group":"hexagon_tri","fractal_assignment":["../images/cyn_red.png","../images/org_blu.png","../images/ylw_slt.png","../images/pnk_blu.png","../images/gry_blk.png","../images/blu_wht.png"],"mutagen_generator_assignment":[0,1],"goal":3,"start":5,"action_noise":0.15,"location_history":"[5,4,0,1,3]","action_history":"[0,1,1,0]","mutagen_history":"[0,1,1,0]","location_rts":"[2126,705,1249,450]","trial_type":"fractal-mutation","trial_index":96,"time_elapsed":1696543,"internal_node_id":"0.0-5.0-42.0"},{"group":"hexagon_tri","fractal_assignment":["../images/cyn_red.png","../images/org_blu.png","../images/ylw_slt.png","../images/pnk_blu.png","../images/gry_blk.png","../images/blu_wht.png"],"mutagen_generator_assignment":[0,1],"goal":0,"start":3,"action_noise":0.15,"location_history":"[3,2,3,4,0]","action_history":"[0,1,1,0]","mutagen_history":"[0,1,1,0]","location_rts":"[5393,650,762,425]","trial_type":"fractal-mutation","trial_index":97,"time_elapsed":1711439,"internal_node_id":"0.0-5.0-43.0"},{"group":"hexagon_tri","fractal_assignment":["../images/cyn_red.png","../images/org_blu.png","../images/ylw_slt.png","../images/pnk_blu.png","../images/gry_blk.png","../images/blu_wht.png"],"mutagen_generator_assignment":[0,1],"goal":2,"start":0,"action_noise":0.15,"location_history":"[0,1,3,2]","action_history":"[1,0,0]","mutagen_history":"[1,0,0]","location_rts":"[3053,1515,487]","trial_type":"fractal-mutation","trial_index":98,"time_elapsed":1723110,"internal_node_id":"0.0-5.0-44.0"},{"group":"hexagon_tri","fractal_assignment":["../images/cyn_red.png","../images/org_blu.png","../images/ylw_slt.png","../images/pnk_blu.png","../images/gry_blk.png","../images/blu_wht.png"],"mutagen_generator_assignment":[0,1],"goal":4,"start":2,"action_noise":0.15,"location_history":"[2,1,3,4]","action_history":"[0,1,1]","mutagen_history":"[0,1,1]","location_rts":"[1795,747,783]","trial_type":"fractal-mutation","trial_index":99,"time_elapsed":1733061,"internal_node_id":"0.0-5.0-45.0"},{"group":"hexagon_tri","fractal_assignment":["../images/cyn_red.png","../images/org_blu.png","../images/ylw_slt.png","../images/pnk_blu.png","../images/gry_blk.png","../images/blu_wht.png"],"mutagen_generator_assignment":[0,1],"goal":1,"start":4,"action_noise":0.15,"location_history":"[4,0,5,4,2,3,4,2,1]","action_history":"[0,1,0,0,1,1,0,0]","mutagen_history":"[0,1,0,0,1,1,0,0]","location_rts":"[1694,666,730,892,430,640,546,597]","trial_type":"fractal-mutation","trial_index":100,"time_elapsed":1751078,"internal_node_id":"0.0-5.0-46.0"},{"group":"hexagon_tri","fractal_assignment":["../images/cyn_red.png","../images/org_blu.png","../images/ylw_slt.png","../images/pnk_blu.png","../images/gry_blk.png","../images/blu_wht.png"],"mutagen_generator_assignment":[0,1],"goal":4,"start":1,"action_noise":0.15,"location_history":"[1,5,4]","action_history":"[1,0]","mutagen_history":"[1,0]","location_rts":"[2574,605]","trial_type":"fractal-mutation","trial_index":101,"time_elapsed":1759852,"internal_node_id":"0.0-5.0-47.0"},{"group":"hexagon_tri","fractal_assignment":["../images/cyn_red.png","../images/org_blu.png","../images/ylw_slt.png","../images/pnk_blu.png","../images/gry_blk.png","../images/blu_wht.png"],"mutagen_generator_assignment":[0,1],"goal":3,"start":4,"action_noise":0.15,"location_history":"[4,2,1,5,4,2,3]","action_history":"[0,0,1,0,1,1]","mutagen_history":"[0,0,1,0,1,1]","location_rts":"[1654,1698,718,1144,1107,960]","trial_type":"fractal-mutation","trial_index":102,"time_elapsed":1776878,"internal_node_id":"0.0-5.0-48.0"},{"group":"hexagon_tri","fractal_assignment":["../images/cyn_red.png","../images/org_blu.png","../images/ylw_slt.png","../images/pnk_blu.png","../images/gry_blk.png","../images/blu_wht.png"],"mutagen_generator_assignment":[0,1],"goal":5,"start":3,"action_noise":0.15,"location_history":"[3,4,0,5]","action_history":"[1,0,0]","mutagen_history":"[1,0,0]","location_rts":"[2998,410,570]","trial_type":"fractal-mutation","trial_index":103,"time_elapsed":1787488,"internal_node_id":"0.0-5.0-49.0"},{"view_history":"[{\"page_index\":0,\"viewing_time\":18105}]","rt":18106,"trial_type":"instructions","trial_index":104,"time_elapsed":1806596,"internal_node_id":"0.0-6.0"},{"rt":69922,"responses":"{\"Q0\":\"I always enjoy these types of experiments, thanks! Also, I found the second one a little more intuitive than the first.\"}","trial_type":"survey-text","trial_index":105,"time_elapsed":1877523,"internal_node_id":"0.0-7.0"}]