[{"view_history":"[{\"page_index\":0,\"viewing_time\":11467},{\"page_index\":1,\"viewing_time\":19362},{\"page_index\":2,\"viewing_time\":899666},{\"page_index\":3,\"viewing_time\":3689}]","rt":934184,"trial_type":"instructions","trial_index":0,"time_elapsed":934185,"internal_node_id":"0.0-0.0"},{"view_history":"[{\"page_index\":0,\"viewing_time\":1833},{\"page_index\":1,\"viewing_time\":14908}]","rt":16741,"trial_type":"instructions","trial_index":1,"time_elapsed":951928,"internal_node_id":"0.0-1.0"},{"group":"hexagon_bi","room_assignment":["red","grey","yellow","green","blue","purple"],"door_color_assignment":["black","white"],"door_generator_assignment":[0,1],"goal":4,"start":0,"action_noise":0.15,"location_history":"[0,5,0,5,4]","action_history":"[0,0,0,0]","door_history":"[0,0,0,0]","location_rts":"[1861,1061,430,552]","trial_type":"two-door-navigation","trial_index":2,"time_elapsed":963411,"internal_node_id":"0.0-2.0-0.0"},{"group":"hexagon_bi","room_assignment":["red","grey","yellow","green","blue","purple"],"door_color_assignment":["black","white"],"door_generator_assignment":[0,1],"goal":3,"start":4,"action_noise":0.15,"location_history":"[4,5,0,1,0,5,0,5,0,5,4,5,0,5,0,1,0,1,0,1,0,5,0,5,0,1,0,5,0,1,0,5,4,5,4,3]","action_history":"[1,1,1,1,1,0,0,0,0,1,1,1,0,0,1,1,1,1,1,1,0,0,0,0,0,1,0,0,1,1,0,1,1,1,0]","door_history":"[1,1,1,1,1,0,0,0,0,1,1,1,0,0,1,1,1,1,1,1,0,0,0,0,0,1,0,0,1,1,0,1,1,1,0]","location_rts":"[568,395,967,1023,381,2837,397,511,429,721,481,452,481,359,284,297,453,1075,1786,239,272,5,409,612,281,194,423,357,463,399,449,337,120,379,501]","trial_type":"two-door-navigation","trial_index":3,"time_elapsed":1021795,"internal_node_id":"0.0-2.0-1.0"},{"group":"hexagon_bi","room_assignment":["red","grey","yellow","green","blue","purple"],"door_color_assignment":["black","white"],"door_generator_assignment":[0,1],"goal":5,"start":3,"action_noise":0.15,"location_history":"[3,4,5]","action_history":"[0,1]","door_history":"[0,1]","location_rts":"[632,654]","trial_type":"two-door-navigation","trial_index":4,"time_elapsed":1028616,"internal_node_id":"0.0-2.0-2.0"},{"group":"hexagon_bi","room_assignment":["red","grey","yellow","green","blue","purple"],"door_color_assignment":["black","white"],"door_generator_assignment":[0,1],"goal":2,"start":5,"action_noise":0.15,"location_history":"[5,0,5,4,3,4,3,2]","action_history":"[0,0,1,1,1,0,1]","door_history":"[0,0,1,1,1,0,1]","location_rts":"[11729,252,3,311,302,171,358]","trial_type":"two-door-navigation","trial_index":5,"time_elapsed":1052353,"internal_node_id":"0.0-2.0-3.0"},{"group":"hexagon_bi","room_assignment":["red","grey","yellow","green","blue","purple"],"door_color_assignment":["black","white"],"door_generator_assignment":[0,1],"goal":1,"start":2,"action_noise":0.15,"location_history":"[2,3,2,1]","action_history":"[1,1,0]","door_history":"[1,1,0]","location_rts":"[798,202,127]","trial_type":"two-door-navigation","trial_index":6,"time_elapsed":1060031,"internal_node_id":"0.0-2.0-4.0"},{"group":"hexagon_bi","room_assignment":["red","grey","yellow","green","blue","purple"],"door_color_assignment":["black","white"],"door_generator_assignment":[0,1],"goal":4,"start":1,"action_noise":0.15,"location_history":"[1,2,3,2,3,4]","action_history":"[0,1,1,1,1]","door_history":"[0,1,1,1,1]","location_rts":"[279,277,131,158,2504]","trial_type":"two-door-navigation","trial_index":7,"time_elapsed":1071959,"internal_node_id":"0.0-2.0-5.0"},{"group":"hexagon_bi","room_assignment":["red","grey","yellow","green","blue","purple"],"door_color_assignment":["black","white"],"door_generator_assignment":[0,1],"goal":1,"start":4,"action_noise":0.15,"location_history":"[4,3,2,3,4,3,4,3,2,3,4,5,0,5,4,5,4,3,2,3,2,1]","action_history":"[0,1,1,1,0,0,0,0,0,0,0,1,1,1,1,1,0,1,1,1,0]","door_history":"[0,1,1,1,0,0,0,0,0,0,0,1,1,1,1,1,0,1,1,1,0]","location_rts":"[367,128,115,223,66,105,101,568,782,339,313,219,64,130,223,112,136,70,61,47,427]","trial_type":"two-door-navigation","trial_index":8,"time_elapsed":1101380,"internal_node_id":"0.0-2.0-6.0"},{"group":"hexagon_bi","room_assignment":["red","grey","yellow","green","blue","purple"],"door_color_assignment":["black","white"],"door_generator_assignment":[0,1],"goal":5,"start":1,"action_noise":0.15,"location_history":"[1,2,1,2,3,4,3,2,3,4,3,4,5]","action_history":"[0,1,1,0,0,0,1,1,1,0,0,0]","door_history":"[0,1,1,0,0,0,1,1,1,0,0,0]","location_rts":"[265,350,26,137,127,111,56,89,91,350,359,242]","trial_type":"two-door-navigation","trial_index":9,"time_elapsed":1119276,"internal_node_id":"0.0-2.0-7.0"},{"group":"hexagon_bi","room_assignment":["red","grey","yellow","green","blue","purple"],"door_color_assignment":["black","white"],"door_generator_assignment":[0,1],"goal":0,"start":5,"action_noise":0.15,"location_history":"[5,0]","action_history":"[0]","door_history":"[0]","location_rts":"[753]","trial_type":"two-door-navigation","trial_index":10,"time_elapsed":1124551,"internal_node_id":"0.0-2.0-8.0"},{"group":"hexagon_bi","room_assignment":["red","grey","yellow","green","blue","purple"],"door_color_assignment":["black","white"],"door_generator_assignment":[0,1],"goal":2,"start":0,"action_noise":0.15,"location_history":"[0,1,0,1,0,5,4,5,0,5,0,5,4,5,4,5,4,3,2]","action_history":"[0,1,1,1,0,0,0,0,0,0,1,1,1,1,1,1,0,1]","door_history":"[0,1,1,1,0,0,0,0,0,0,1,1,1,1,1,1,0,1]","location_rts":"[455,254,85,58,48,97,23,8,498,61,130,20,112,46,1,355,387,312]","trial_type":"two-door-navigation","trial_index":11,"time_elapsed":1149288,"internal_node_id":"0.0-2.0-9.0"},{"group":"hexagon_bi","room_assignment":["red","grey","yellow","green","blue","purple"],"door_color_assignment":["black","white"],"door_generator_assignment":[0,1],"goal":3,"start":2,"action_noise":0.15,"location_history":"[2,1,0,1,0,5,0,5,4,5,0,1,0,5,4,3]","action_history":"[0,1,1,1,0,0,0,1,1,1,1,0,0,1,0]","door_history":"[0,1,1,1,0,0,0,1,1,1,1,0,0,1,0]","location_rts":"[476,421,83,15,211,33,192,184,162,309,284,216,82,116,419]","trial_type":"two-door-navigation","trial_index":12,"time_elapsed":1171231,"internal_node_id":"0.0-2.0-10.0"},{"group":"hexagon_bi","room_assignment":["red","grey","yellow","green","blue","purple"],"door_color_assignment":["black","white"],"door_generator_assignment":[0,1],"goal":0,"start":3,"action_noise":0.15,"location_history":"[3,4,3,2,3,4,3,4,5,4,5,4,3,4,5,0]","action_history":"[0,1,1,1,0,0,0,1,1,1,1,0,0,1,0]","door_history":"[0,1,1,1,0,0,0,1,1,1,1,0,0,1,0]","location_rts":"[290,443,117,188,332,115,93,162,220,1149,255,133,173,178,370]","trial_type":"two-door-navigation","trial_index":13,"time_elapsed":1194175,"internal_node_id":"0.0-2.0-11.0"},{"group":"hexagon_bi","room_assignment":["red","grey","yellow","green","blue","purple"],"door_color_assignment":["black","white"],"door_generator_assignment":[0,1],"goal":2,"start":0,"action_noise":0.15,"location_history":"[0,5,4,5,4,3,4,3,2]","action_history":"[0,1,1,1,0,0,0,1]","door_history":"[0,1,1,1,0,0,0,1]","location_rts":"[549,291,396,197,265,220,237,324]","trial_type":"two-door-navigation","trial_index":14,"time_elapsed":1208278,"internal_node_id":"0.0-2.0-12.0"},{"group":"hexagon_bi","room_assignment":["red","grey","yellow","green","blue","purple"],"door_color_assignment":["black","white"],"door_generator_assignment":[0,1],"goal":5,"start":2,"action_noise":0.15,"location_history":"[2,1,2,3,2,3,4,3,2,3,2,3,4,3,4,3,2,3,4,3,4,3,4,5]","action_history":"[0,0,1,1,1,0,0,1,1,1,1,0,0,0,1,1,1,0,0,1,1,1,1]","door_history":"[0,0,1,1,1,0,0,1,1,1,1,0,0,0,1,1,1,0,0,1,1,1,1]","location_rts":"[2633,256,288,211,216,214,235,251,1088,192,195,271,236,276,219,2255,254,115,253,313,388,227,229]","trial_type":"two-door-navigation","trial_index":15,"time_elapsed":1245963,"internal_node_id":"0.0-2.0-13.0"},{"group":"hexagon_bi","room_assignment":["red","grey","yellow","green","blue","purple"],"door_color_assignment":["black","white"],"door_generator_assignment":[0,1],"goal":4,"start":5,"action_noise":0.15,"location_history":"[5,0,1,0,1,0,5,0,5,0,1,2,1,0,1,2,1,0,1,2,1,0,1,0,1,0,1,2,3,2,1,2,1,2,3,2,1,0,1,0,1,2,3,4]","action_history":"[0,1,1,1,1,0,0,1,0,0,0,1,1,1,0,0,1,0,0,0,1,1,1,1,1,1,0,1,1,0,0,0,0,1,1,0,1,1,1,1,0,1,1]","door_history":"[0,1,1,1,1,0,0,1,0,0,0,1,1,1,0,0,1,0,0,0,1,1,1,1,1,1,0,1,1,0,0,0,0,1,1,0,1,1,1,1,0,1,1]","location_rts":"[265,230,218,1793,162,250,205,320,236,1628,264,297,228,286,34,137,112,102,162,146,189,211,225,178,176,225,335,368,358,236,270,427,377,346,480,353,270,271,728,348,177,167,229]","trial_type":"two-door-navigation","trial_index":16,"time_elapsed":1307150,"internal_node_id":"0.0-2.0-14.0"},{"group":"hexagon_bi","room_assignment":["red","grey","yellow","green","blue","purple"],"door_color_assignment":["black","white"],"door_generator_assignment":[0,1],"goal":3,"start":4,"action_noise":0.15,"location_history":"[4,5,0,5,0,1,0,5,4,5,4,5,0,1,0,1,0,5,0,1,2,3]","action_history":"[1,0,0,0,1,1,0,1,1,1,0,0,1,1,1,0,0,1,1,0,1]","door_history":"[1,0,0,0,1,1,0,1,1,1,0,0,1,1,1,0,0,1,1,0,1]","location_rts":"[684,168,124,62,261,269,13,224,227,15816,209,33,181,246,228,265,267,129,311,188,188]","trial_type":"two-door-navigation","trial_index":17,"time_elapsed":1352065,"internal_node_id":"0.0-2.0-15.0"},{"group":"hexagon_bi","room_assignment":["red","grey","yellow","green","blue","purple"],"door_color_assignment":["black","white"],"door_generator_assignment":[0,1],"goal":1,"start":3,"action_noise":0.15,"location_history":"[3,4,5,4,5,0,5,4,3,4,5,4,5,4,5,4,3,4,5,0,5,4,3,4,3,4,5,0,5,4,5,4,5,0,1]","action_history":"[0,1,1,1,0,0,1,0,0,1,1,1,1,1,1,0,0,1,0,0,1,0,0,0,0,1,1,0,1,1,1,0,0,1]","door_history":"[0,1,1,1,0,0,1,0,0,1,1,1,1,1,1,0,0,1,0,0,1,0,0,0,0,1,1,0,1,1,1,0,0,1]","location_rts":"[332,110,134,189,127,77,76,1381,220,156,177,379,5811,226,81,732,1234,405,271,288,658,645,593,836,425,486,432,1160,633,390,437,337,256,451]","trial_type":"two-door-navigation","trial_index":18,"time_elapsed":1410232,"internal_node_id":"0.0-2.0-16.0"},{"group":"hexagon_bi","room_assignment":["red","grey","yellow","green","blue","purple"],"door_color_assignment":["black","white"],"door_generator_assignment":[0,1],"goal":5,"start":1,"action_noise":0.15,"location_history":"[1,0,5]","action_history":"[0,0]","door_history":"[0,0]","location_rts":"[1182,346]","trial_type":"two-door-navigation","trial_index":19,"time_elapsed":1417294,"internal_node_id":"0.0-2.0-17.0"},{"group":"hexagon_bi","room_assignment":["red","grey","yellow","green","blue","purple"],"door_color_assignment":["black","white"],"door_generator_assignment":[0,1],"goal":4,"start":5,"action_noise":0.15,"location_history":"[5,0,5,4]","action_history":"[0,1,1]","door_history":"[0,1,1]","location_rts":"[1761,528,500]","trial_type":"two-door-navigation","trial_index":20,"time_elapsed":1426632,"internal_node_id":"0.0-2.0-18.0"},{"group":"hexagon_bi","room_assignment":["red","grey","yellow","green","blue","purple"],"door_color_assignment":["black","white"],"door_generator_assignment":[0,1],"goal":0,"start":4,"action_noise":0.15,"location_history":"[4,5,4,5,0]","action_history":"[1,1,0,0]","door_history":"[1,1,0,0]","location_rts":"[2587,345,590,683]","trial_type":"two-door-navigation","trial_index":21,"time_elapsed":1438400,"internal_node_id":"0.0-2.0-19.0"},{"group":"hexagon_bi","room_assignment":["red","grey","yellow","green","blue","purple"],"door_color_assignment":["black","white"],"door_generator_assignment":[0,1],"goal":1,"start":0,"action_noise":0.15,"location_history":"[0,5,4,5,0,5,4,5,4,3,2,3,2,3,2,3,2,1]","action_history":"[0,1,1,0,0,0,1,1,0,1,1,1,1,0,1,1,0]","door_history":"[0,1,1,0,0,0,1,1,0,1,1,1,1,0,1,1,0]","location_rts":"[1099,559,353,416,356,773,890,580,367,248,561,2292,695,507,806,583,324]","trial_type":"two-door-navigation","trial_index":22,"time_elapsed":1470582,"internal_node_id":"0.0-2.0-20.0"},{"group":"hexagon_bi","room_assignment":["red","grey","yellow","green","blue","purple"],"door_color_assignment":["black","white"],"door_generator_assignment":[0,1],"goal":3,"start":1,"action_noise":0.15,"location_history":"[1,0,5,0,5,0,1,2,1,0,1,0,5,0,5,0,5,0,1,2,3]","action_history":"[1,0,0,0,0,1,0,0,0,1,1,0,0,1,1,0,0,1,0,1]","door_history":"[1,0,0,0,0,1,0,0,0,1,1,0,0,1,1,0,0,1,0,1]","location_rts":"[684,349,457,443,789,293,1287,1958,922,445,663,658,1937,825,505,283,362,504,2615,565]","trial_type":"two-door-navigation","trial_index":23,"time_elapsed":1510958,"internal_node_id":"0.0-2.0-21.0"},{"group":"hexagon_bi","room_assignment":["red","grey","yellow","green","blue","purple"],"door_color_assignment":["black","white"],"door_generator_assignment":[0,1],"goal":2,"start":3,"action_noise":0.15,"location_history":"[3,4,3,2]","action_history":"[0,0,1]","door_history":"[0,0,1]","location_rts":"[366,1494,359]","trial_type":"two-door-navigation","trial_index":24,"time_elapsed":1519727,"internal_node_id":"0.0-2.0-22.0"},{"group":"hexagon_bi","room_assignment":["red","grey","yellow","green","blue","purple"],"door_color_assignment":["black","white"],"door_generator_assignment":[0,1],"goal":0,"start":2,"action_noise":0.15,"location_history":"[2,1,2,3,2,3,4,3,2,1,2,3,2,1,0]","action_history":"[0,0,1,1,1,0,1,1,0,0,1,1,0,0]","door_history":"[0,0,1,1,1,0,1,1,0,0,1,1,0,0]","location_rts":"[3581,509,448,726,633,761,1399,1098,924,612,590,669,512,821]","trial_type":"two-door-navigation","trial_index":25,"time_elapsed":1550717,"internal_node_id":"0.0-2.0-23.0"},{"group":"hexagon_bi","room_assignment":["red","grey","yellow","green","blue","purple"],"door_color_assignment":["black","white"],"door_generator_assignment":[0,1],"goal":3,"start":0,"action_noise":0.15,"location_history":"[0,5,4,5,0,5,4,5,0,1,2,1,2,3]","action_history":"[0,1,1,0,0,1,1,0,1,0,0,1,1]","door_history":"[0,1,1,0,0,1,1,0,1,0,0,1,1]","location_rts":"[662,2939,527,257,519,488,656,618,773,750,581,1920,1824]","trial_type":"two-door-navigation","trial_index":26,"time_elapsed":1579936,"internal_node_id":"0.0-2.0-24.0"},{"group":"hexagon_bi","room_assignment":["red","grey","yellow","green","blue","purple"],"door_color_assignment":["black","white"],"door_generator_assignment":[0,1],"goal":1,"start":3,"action_noise":0.15,"location_history":"[3,4,5,4,3,4,3,2,1]","action_history":"[0,1,1,0,0,0,1,0]","door_history":"[0,1,1,0,0,0,1,0]","location_rts":"[884,1115,511,225,446,2629,2623,655]","trial_type":"two-door-navigation","trial_index":27,"time_elapsed":1600652,"internal_node_id":"0.0-2.0-25.0"},{"group":"hexagon_bi","room_assignment":["red","grey","yellow","green","blue","purple"],"door_color_assignment":["black","white"],"door_generator_assignment":[0,1],"goal":2,"start":1,"action_noise":0.15,"location_history":"[1,0,1,2]","action_history":"[1,1,0]","door_history":"[1,1,0]","location_rts":"[1685,1070,386]","trial_type":"two-door-navigation","trial_index":28,"time_elapsed":1610336,"internal_node_id":"0.0-2.0-26.0"},{"group":"hexagon_bi","room_assignment":["red","grey","yellow","green","blue","purple"],"door_color_assignment":["black","white"],"door_generator_assignment":[0,1],"goal":5,"start":2,"action_noise":0.15,"location_history":"[2,1,0,1,2,3,2,1,2,1,2,1,2,3,2,1,0,5]","action_history":"[0,1,1,0,0,1,1,0,0,0,1,0,0,1,0,1,0]","door_history":"[0,1,1,0,0,1,1,0,0,0,1,0,0,1,0,1,0]","location_rts":"[1268,866,340,1551,488,591,554,684,625,955,384,1267,523,679,637,2380,634]","trial_type":"two-door-navigation","trial_index":29,"time_elapsed":1645516,"internal_node_id":"0.0-2.0-27.0"},{"group":"hexagon_bi","room_assignment":["red","grey","yellow","green","blue","purple"],"door_color_assignment":["black","white"],"door_generator_assignment":[0,1],"goal":4,"start":5,"action_noise":0.15,"location_history":"[5,0,5,0,1,0,5,0,5,4]","action_history":"[1,0,0,1,1,1,0,0,1]","door_history":"[1,0,0,1,1,1,0,0,1]","location_rts":"[1323,752,426,356,551,750,270,588,229]","trial_type":"two-door-navigation","trial_index":30,"time_elapsed":1663399,"internal_node_id":"0.0-2.0-28.0"},{"group":"hexagon_bi","room_assignment":["red","grey","yellow","green","blue","purple"],"door_color_assignment":["black","white"],"door_generator_assignment":[0,1],"goal":5,"start":4,"action_noise":0.15,"location_history":"[4,3,4,3,4,5]","action_history":"[0,0,1,1,1]","door_history":"[0,0,1,1,1]","location_rts":"[815,782,313,972,624]","trial_type":"two-door-navigation","trial_index":31,"time_elapsed":1675487,"internal_node_id":"0.0-2.0-29.0"},{"group":"hexagon_bi","room_assignment":["red","grey","yellow","green","blue","purple"],"door_color_assignment":["black","white"],"door_generator_assignment":[0,1],"goal":3,"start":5,"action_noise":0.15,"location_history":"[5,0,5,4,3]","action_history":"[0,0,1,0]","door_history":"[0,0,1,0]","location_rts":"[651,567,307,805]","trial_type":"two-door-navigation","trial_index":32,"time_elapsed":1685382,"internal_node_id":"0.0-2.0-30.0"},{"group":"hexagon_bi","room_assignment":["red","grey","yellow","green","blue","purple"],"door_color_assignment":["black","white"],"door_generator_assignment":[0,1],"goal":0,"start":3,"action_noise":0.15,"location_history":"[3,2,1,0]","action_history":"[1,0,1]","door_history":"[1,0,1]","location_rts":"[1805,853,2380]","trial_type":"two-door-navigation","trial_index":33,"time_elapsed":1696968,"internal_node_id":"0.0-2.0-31.0"},{"group":"hexagon_bi","room_assignment":["red","grey","yellow","green","blue","purple"],"door_color_assignment":["black","white"],"door_generator_assignment":[0,1],"goal":4,"start":0,"action_noise":0.15,"location_history":"[0,1,0,5,4]","action_history":"[0,1,0,0]","door_history":"[0,1,0,0]","location_rts":"[925,922,652,492]","trial_type":"two-door-navigation","trial_index":34,"time_elapsed":1707527,"internal_node_id":"0.0-2.0-32.0"},{"group":"hexagon_bi","room_assignment":["red","grey","yellow","green","blue","purple"],"door_color_assignment":["black","white"],"door_generator_assignment":[0,1],"goal":1,"start":4,"action_noise":0.15,"location_history":"[4,5,0,5,4,3,4,3,2,1]","action_history":"[0,0,1,1,0,0,1,0,0]","door_history":"[0,0,1,1,0,0,1,0,0]","location_rts":"[298,581,224,596,487,892,458,591,358]","trial_type":"two-door-navigation","trial_index":35,"time_elapsed":1724658,"internal_node_id":"0.0-2.0-33.0"},{"group":"hexagon_bi","room_assignment":["red","grey","yellow","green","blue","purple"],"door_color_assignment":["black","white"],"door_generator_assignment":[0,1],"goal":2,"start":1,"action_noise":0.15,"location_history":"[1,2]","action_history":"[1]","door_history":"[1]","location_rts":"[233]","trial_type":"two-door-navigation","trial_index":36,"time_elapsed":1729411,"internal_node_id":"0.0-2.0-34.0"},{"group":"hexagon_bi","room_assignment":["red","grey","yellow","green","blue","purple"],"door_color_assignment":["black","white"],"door_generator_assignment":[0,1],"goal":0,"start":2,"action_noise":0.15,"location_history":"[2,3,4,3,2,1,2,3,2,1,0]","action_history":"[1,0,0,1,1,0,1,1,0,1]","door_history":"[1,0,0,1,1,0,1,1,0,1]","location_rts":"[1448,548,385,415,541,338,455,458,312,495]","trial_type":"two-door-navigation","trial_index":37,"time_elapsed":1748471,"internal_node_id":"0.0-2.0-35.0"},{"group":"hexagon_bi","room_assignment":["red","grey","yellow","green","blue","purple"],"door_color_assignment":["black","white"],"door_generator_assignment":[0,1],"goal":5,"start":0,"action_noise":0.15,"location_history":"[0,1,2,1,0,1,0,5]","action_history":"[1,0,0,1,1,1,0]","door_history":"[1,0,0,1,1,1,0]","location_rts":"[895,725,349,182,451,980,318]","trial_type":"two-door-navigation","trial_index":38,"time_elapsed":1762985,"internal_node_id":"0.0-2.0-36.0"},{"group":"hexagon_bi","room_assignment":["red","grey","yellow","green","blue","purple"],"door_color_assignment":["black","white"],"door_generator_assignment":[0,1],"goal":2,"start":5,"action_noise":0.15,"location_history":"[5,0,1,0,1,2]","action_history":"[0,1,1,0,0]","door_history":"[0,1,1,0,0]","location_rts":"[418,1295,412,319,437]","trial_type":"two-door-navigation","trial_index":39,"time_elapsed":1774448,"internal_node_id":"0.0-2.0-37.0"},{"group":"hexagon_bi","room_assignment":["red","grey","yellow","green","blue","purple"],"door_color_assignment":["black","white"],"door_generator_assignment":[0,1],"goal":1,"start":2,"action_noise":0.15,"location_history":"[2,3,4,3,2,3,4,3,2,3,2,1]","action_history":"[1,0,0,1,1,0,0,1,0,1,1]","door_history":"[1,0,0,1,1,0,0,1,0,1,1]","location_rts":"[5012,651,1464,545,363,376,381,427,591,424,339]","trial_type":"two-door-navigation","trial_index":40,"time_elapsed":1799689,"internal_node_id":"0.0-2.0-38.0"},{"group":"hexagon_bi","room_assignment":["red","grey","yellow","green","blue","purple"],"door_color_assignment":["black","white"],"door_generator_assignment":[0,1],"goal":4,"start":1,"action_noise":0.15,"location_history":"[1,2,1,0,5,4]","action_history":"[0,0,1,0,0]","door_history":"[0,0,1,0,0]","location_rts":"[2392,369,139,329,568]","trial_type":"two-door-navigation","trial_index":41,"time_elapsed":1812067,"internal_node_id":"0.0-2.0-39.0"},{"group":"hexagon_bi","room_assignment":["red","grey","yellow","green","blue","purple"],"door_color_assignment":["black","white"],"door_generator_assignment":[0,1],"goal":3,"start":4,"action_noise":0.15,"location_history":"[4,5,0,5,0,5,4,5,0,5,4,3]","action_history":"[1,0,0,0,0,1,1,0,0,1,0]","door_history":"[1,0,0,0,0,1,1,0,0,1,0]","location_rts":"[1201,475,32408,544,621,529,511,109,675,391,518]","trial_type":"two-door-navigation","trial_index":42,"time_elapsed":1864726,"internal_node_id":"0.0-2.0-40.0"},{"group":"hexagon_bi","room_assignment":["red","grey","yellow","green","blue","purple"],"door_color_assignment":["black","white"],"door_generator_assignment":[0,1],"goal":5,"start":3,"action_noise":0.15,"location_history":"[3,2,3,4,5]","action_history":"[1,0,0,1]","door_history":"[1,0,0,1]","location_rts":"[3712,543,388,538]","trial_type":"two-door-navigation","trial_index":43,"time_elapsed":1877470,"internal_node_id":"0.0-2.0-41.0"},{"group":"hexagon_bi","room_assignment":["red","grey","yellow","green","blue","purple"],"door_color_assignment":["black","white"],"door_generator_assignment":[0,1],"goal":3,"start":5,"action_noise":0.15,"location_history":"[5,0,5,4,5,0,5,4,3]","action_history":"[0,0,1,1,0,0,1,1]","door_history":"[0,0,1,1,0,0,1,1]","location_rts":"[1038,433,167,385,590,409,409,522]","trial_type":"two-door-navigation","trial_index":44,"time_elapsed":1893056,"internal_node_id":"0.0-2.0-42.0"},{"group":"hexagon_bi","room_assignment":["red","grey","yellow","green","blue","purple"],"door_color_assignment":["black","white"],"door_generator_assignment":[0,1],"goal":0,"start":3,"action_noise":0.15,"location_history":"[3,4,5,4,3,4,5,4,3,2,1,2,1,0]","action_history":"[0,0,1,0,0,1,1,0,1,1,0,0,1]","door_history":"[0,0,1,0,0,1,1,0,1,1,0,0,1]","location_rts":"[802,367,446,600,559,359,419,843,702,466,788,599,1033]","trial_type":"two-door-navigation","trial_index":45,"time_elapsed":1917749,"internal_node_id":"0.0-2.0-43.0"},{"group":"hexagon_bi","room_assignment":["red","grey","yellow","green","blue","purple"],"door_color_assignment":["black","white"],"door_generator_assignment":[0,1],"goal":2,"start":0,"action_noise":0.15,"location_history":"[0,5,0,5,4,3,2]","action_history":"[0,0,1,1,0,1]","door_history":"[0,0,1,1,0,1]","location_rts":"[1345,1749,516,418,384,737]","trial_type":"two-door-navigation","trial_index":46,"time_elapsed":1932493,"internal_node_id":"0.0-2.0-44.0"},{"group":"hexagon_bi","room_assignment":["red","grey","yellow","green","blue","purple"],"door_color_assignment":["black","white"],"door_generator_assignment":[0,1],"goal":4,"start":2,"action_noise":0.15,"location_history":"[2,3,4]","action_history":"[1,0]","door_history":"[1,0]","location_rts":"[1008,459]","trial_type":"two-door-navigation","trial_index":47,"time_elapsed":1939497,"internal_node_id":"0.0-2.0-45.0"},{"group":"hexagon_bi","room_assignment":["red","grey","yellow","green","blue","purple"],"door_color_assignment":["black","white"],"door_generator_assignment":[0,1],"goal":1,"start":4,"action_noise":0.15,"location_history":"[4,3,2,3,4,5,4,3,4,5,4,5,0,5,4,5,0,5,0,5,4,3,2,3,2,1]","action_history":"[0,1,1,0,1,1,0,0,1,1,1,0,0,1,1,0,0,0,1,1,0,0,1,1,0]","door_history":"[0,1,1,0,1,1,0,0,1,1,1,0,0,1,1,0,0,0,1,1,0,0,1,1,0]","location_rts":"[1321,788,428,403,506,605,787,629,764,546,453,462,562,998,1490,244,2085,888,332,1280,237,489,1197,1096,252]","trial_type":"two-door-navigation","trial_index":48,"time_elapsed":1987250,"internal_node_id":"0.0-2.0-46.0"},{"group":"hexagon_bi","room_assignment":["red","grey","yellow","green","blue","purple"],"door_color_assignment":["black","white"],"door_generator_assignment":[0,1],"goal":4,"start":1,"action_noise":0.15,"location_history":"[1,2,3,4]","action_history":"[1,1,0]","door_history":"[1,1,0]","location_rts":"[6710,768,2792]","trial_type":"two-door-navigation","trial_index":49,"time_elapsed":2004067,"internal_node_id":"0.0-2.0-47.0"},{"group":"hexagon_bi","room_assignment":["red","grey","yellow","green","blue","purple"],"door_color_assignment":["black","white"],"door_generator_assignment":[0,1],"goal":3,"start":4,"action_noise":0.15,"location_history":"[4,5,0,1,2,1,0,5,0,1,2,1,0,1,0,5,0,1,0,5,0,1,2,1,0,1,2,1,0,1,2,3]","action_history":"[1,0,1,1,0,1,0,0,1,0,0,1,1,1,0,0,1,0,0,1,1,0,0,1,1,0,0,0,1,0,1]","door_history":"[1,0,1,1,0,1,0,0,1,0,0,1,1,1,0,0,1,0,0,1,1,0,0,1,1,0,0,0,1,0,1]","location_rts":"[841,1395,655,358,344,564,328,199,406,418,377,195,322,496,267,675,391,281,335,435,602,603,739,901,527,418,203,418,97,935,295]","trial_type":"two-door-navigation","trial_index":50,"time_elapsed":2054055,"internal_node_id":"0.0-2.0-48.0"},{"group":"hexagon_bi","room_assignment":["red","grey","yellow","green","blue","purple"],"door_color_assignment":["black","white"],"door_generator_assignment":[0,1],"goal":5,"start":3,"action_noise":0.15,"location_history":"[3,2,3,4,5]","action_history":"[1,0,0,1]","door_history":"[1,0,0,1]","location_rts":"[1711,497,363,481]","trial_type":"two-door-navigation","trial_index":51,"time_elapsed":2064672,"internal_node_id":"0.0-2.0-49.0"},{"view_history":"[{\"page_index\":0,\"viewing_time\":3184}]","rt":3184,"trial_type":"instructions","trial_index":52,"time_elapsed":2068857,"internal_node_id":"0.0-3.0"},{"view_history":"[{\"page_index\":0,\"viewing_time\":1859},{\"page_index\":1,\"viewing_time\":18942}]","rt":20801,"trial_type":"instructions","trial_index":53,"time_elapsed":2090659,"internal_node_id":"0.0-4.0"},{"group":"hexagon_tri","fractal_assignment":["../images/blu_wht.png","../images/ylw_slt.png","../images/pnk_blu.png","../images/cyn_red.png","../images/org_blu.png","../images/gry_blk.png"],"mutagen_generator_assignment":[0,1],"goal":4,"start":0,"action_noise":0.15,"location_history":"[0,5,0,1,5,0,1,3,2,1,5,4]","action_history":"[0,1,1,1,1,1,0,0,1,1,0]","mutagen_history":"[0,1,1,1,1,1,0,0,1,1,0]","location_rts":"[3525,723,393,1162,562,3680,917,587,1209,1334,558]","trial_type":"fractal-mutation","trial_index":54,"time_elapsed":2120320,"internal_node_id":"0.0-5.0-0.0"},{"group":"hexagon_tri","fractal_assignment":["../images/blu_wht.png","../images/ylw_slt.png","../images/pnk_blu.png","../images/cyn_red.png","../images/org_blu.png","../images/gry_blk.png"],"mutagen_generator_assignment":[0,1],"goal":3,"start":4,"action_noise":0.15,"location_history":"[4,2,1,3]","action_history":"[1,0,0]","mutagen_history":"[1,0,0]","location_rts":"[633,381,972]","trial_type":"fractal-mutation","trial_index":55,"time_elapsed":2128955,"internal_node_id":"0.0-5.0-1.0"},{"group":"hexagon_tri","fractal_assignment":["../images/blu_wht.png","../images/ylw_slt.png","../images/pnk_blu.png","../images/cyn_red.png","../images/org_blu.png","../images/gry_blk.png"],"mutagen_generator_assignment":[0,1],"goal":5,"start":3,"action_noise":0.15,"location_history":"[3,2,3,2,3,4,2,3,4,0,1,5]","action_history":"[1,1,0,0,1,1,1,1,0,1,1]","mutagen_history":"[1,1,0,0,1,1,1,1,0,1,1]","location_rts":"[1754,646,864,3495,287,118,510,728,516,2595,648]","trial_type":"fractal-mutation","trial_index":56,"time_elapsed":2156061,"internal_node_id":"0.0-5.0-2.0"},{"group":"hexagon_tri","fractal_assignment":["../images/blu_wht.png","../images/ylw_slt.png","../images/pnk_blu.png","../images/cyn_red.png","../images/org_blu.png","../images/gry_blk.png"],"mutagen_generator_assignment":[0,1],"goal":2,"start":5,"action_noise":0.15,"location_history":"[5,0,5,4,2]","action_history":"[1,1,0,1]","mutagen_history":"[1,1,0,1]","location_rts":"[947,1212,883,782]","trial_type":"fractal-mutation","trial_index":57,"time_elapsed":2167547,"internal_node_id":"0.0-5.0-3.0"},{"group":"hexagon_tri","fractal_assignment":["../images/blu_wht.png","../images/ylw_slt.png","../images/pnk_blu.png","../images/cyn_red.png","../images/org_blu.png","../images/gry_blk.png"],"mutagen_generator_assignment":[0,1],"goal":1,"start":2,"action_noise":0.15,"location_history":"[2,3,4,0,1]","action_history":"[1,1,0,1]","mutagen_history":"[1,1,0,1]","location_rts":"[1289,534,939,604]","trial_type":"fractal-mutation","trial_index":58,"time_elapsed":2178570,"internal_node_id":"0.0-5.0-4.0"},{"group":"hexagon_tri","fractal_assignment":["../images/blu_wht.png","../images/ylw_slt.png","../images/pnk_blu.png","../images/cyn_red.png","../images/org_blu.png","../images/gry_blk.png"],"mutagen_generator_assignment":[0,1],"goal":4,"start":1,"action_noise":0.15,"location_history":"[1,5,0,1,5,0,5,0,5,0,5,4]","action_history":"[1,1,0,1,1,1,0,0,1,1,0]","mutagen_history":"[1,1,0,1,1,1,0,0,1,1,0]","location_rts":"[2009,378,664,572,2882,419,576,926,432,2936,621]","trial_type":"fractal-mutation","trial_index":59,"time_elapsed":2205903,"internal_node_id":"0.0-5.0-5.0"},{"group":"hexagon_tri","fractal_assignment":["../images/blu_wht.png","../images/ylw_slt.png","../images/pnk_blu.png","../images/cyn_red.png","../images/org_blu.png","../images/gry_blk.png"],"mutagen_generator_assignment":[0,1],"goal":1,"start":4,"action_noise":0.15,"location_history":"[4,2,3,2,3,4,0,5,0,1]","action_history":"[1,1,0,1,1,0,1,1,0]","mutagen_history":"[1,1,0,1,1,0,1,1,0]","location_rts":"[941,482,755,351,385,927,1986,520,493]","trial_type":"fractal-mutation","trial_index":60,"time_elapsed":2225562,"internal_node_id":"0.0-5.0-6.0"},{"group":"hexagon_tri","fractal_assignment":["../images/blu_wht.png","../images/ylw_slt.png","../images/pnk_blu.png","../images/cyn_red.png","../images/org_blu.png","../images/gry_blk.png"],"mutagen_generator_assignment":[0,1],"goal":5,"start":1,"action_noise":0.15,"location_history":"[1,5]","action_history":"[1]","mutagen_history":"[1]","location_rts":"[3240]","trial_type":"fractal-mutation","trial_index":61,"time_elapsed":2233353,"internal_node_id":"0.0-5.0-7.0"},{"group":"hexagon_tri","fractal_assignment":["../images/blu_wht.png","../images/ylw_slt.png","../images/pnk_blu.png","../images/cyn_red.png","../images/org_blu.png","../images/gry_blk.png"],"mutagen_generator_assignment":[0,1],"goal":0,"start":5,"action_noise":0.15,"location_history":"[5,4,0]","action_history":"[0,0]","mutagen_history":"[0,0]","location_rts":"[938,1561]","trial_type":"fractal-mutation","trial_index":62,"time_elapsed":2241413,"internal_node_id":"0.0-5.0-8.0"},{"group":"hexagon_tri","fractal_assignment":["../images/blu_wht.png","../images/ylw_slt.png","../images/pnk_blu.png","../images/cyn_red.png","../images/org_blu.png","../images/gry_blk.png"],"mutagen_generator_assignment":[0,1],"goal":2,"start":0,"action_noise":0.15,"location_history":"[0,1,5,4,2]","action_history":"[1,1,0,1]","mutagen_history":"[1,1,0,1]","location_rts":"[1269,547,484,311]","trial_type":"fractal-mutation","trial_index":63,"time_elapsed":2251679,"internal_node_id":"0.0-5.0-9.0"},{"group":"hexagon_tri","fractal_assignment":["../images/blu_wht.png","../images/ylw_slt.png","../images/pnk_blu.png","../images/cyn_red.png","../images/org_blu.png","../images/gry_blk.png"],"mutagen_generator_assignment":[0,1],"goal":3,"start":2,"action_noise":0.15,"location_history":"[2,3]","action_history":"[1]","mutagen_history":"[1]","location_rts":"[1032]","trial_type":"fractal-mutation","trial_index":64,"time_elapsed":2257258,"internal_node_id":"0.0-5.0-10.0"},{"group":"hexagon_tri","fractal_assignment":["../images/blu_wht.png","../images/ylw_slt.png","../images/pnk_blu.png","../images/cyn_red.png","../images/org_blu.png","../images/gry_blk.png"],"mutagen_generator_assignment":[0,1],"goal":0,"start":3,"action_noise":0.15,"location_history":"[3,2,1,5,4,0]","action_history":"[1,1,1,0,0]","mutagen_history":"[1,1,1,0,0]","location_rts":"[4574,1010,1067,705,581]","trial_type":"fractal-mutation","trial_index":65,"time_elapsed":2273886,"internal_node_id":"0.0-5.0-11.0"},{"group":"hexagon_tri","fractal_assignment":["../images/blu_wht.png","../images/ylw_slt.png","../images/pnk_blu.png","../images/cyn_red.png","../images/org_blu.png","../images/gry_blk.png"],"mutagen_generator_assignment":[0,1],"goal":2,"start":0,"action_noise":0.15,"location_history":"[0,1,5,4,0,5,0,5,4,2]","action_history":"[1,1,0,0,0,1,0,0,1]","mutagen_history":"[1,1,0,0,0,1,0,0,1]","location_rts":"[773,265,262,528,1150,619,671,524,887]","trial_type":"fractal-mutation","trial_index":66,"time_elapsed":2292391,"internal_node_id":"0.0-5.0-12.0"},{"group":"hexagon_tri","fractal_assignment":["../images/blu_wht.png","../images/ylw_slt.png","../images/pnk_blu.png","../images/cyn_red.png","../images/org_blu.png","../images/gry_blk.png"],"mutagen_generator_assignment":[0,1],"goal":5,"start":2,"action_noise":0.15,"location_history":"[2,3,4,0,1,5]","action_history":"[1,0,0,1,1]","mutagen_history":"[1,0,0,1,1]","location_rts":"[1226,891,498,604,445]","trial_type":"fractal-mutation","trial_index":67,"time_elapsed":2304736,"internal_node_id":"0.0-5.0-13.0"},{"group":"hexagon_tri","fractal_assignment":["../images/blu_wht.png","../images/ylw_slt.png","../images/pnk_blu.png","../images/cyn_red.png","../images/org_blu.png","../images/gry_blk.png"],"mutagen_generator_assignment":[0,1],"goal":4,"start":5,"action_noise":0.15,"location_history":"[5,0,1,3,2,3,2,1,3,4]","action_history":"[1,0,0,0,1,0,0,0,1]","mutagen_history":"[1,0,0,0,1,0,0,0,1]","location_rts":"[1505,607,236,360,584,433,497,676,775]","trial_type":"fractal-mutation","trial_index":68,"time_elapsed":2323204,"internal_node_id":"0.0-5.0-14.0"},{"group":"hexagon_tri","fractal_assignment":["../images/blu_wht.png","../images/ylw_slt.png","../images/pnk_blu.png","../images/cyn_red.png","../images/org_blu.png","../images/gry_blk.png"],"mutagen_generator_assignment":[0,1],"goal":3,"start":4,"action_noise":0.15,"location_history":"[4,2,3]","action_history":"[1,1]","mutagen_history":"[1,1]","location_rts":"[1511,489]","trial_type":"fractal-mutation","trial_index":69,"time_elapsed":2330789,"internal_node_id":"0.0-5.0-15.0"},{"group":"hexagon_tri","fractal_assignment":["../images/blu_wht.png","../images/ylw_slt.png","../images/pnk_blu.png","../images/cyn_red.png","../images/org_blu.png","../images/gry_blk.png"],"mutagen_generator_assignment":[0,1],"goal":1,"start":3,"action_noise":0.15,"location_history":"[3,4,2,1]","action_history":"[1,1,0]","mutagen_history":"[1,1,0]","location_rts":"[1369,311,591]","trial_type":"fractal-mutation","trial_index":70,"time_elapsed":2339674,"internal_node_id":"0.0-5.0-16.0"},{"group":"hexagon_tri","fractal_assignment":["../images/blu_wht.png","../images/ylw_slt.png","../images/pnk_blu.png","../images/cyn_red.png","../images/org_blu.png","../images/gry_blk.png"],"mutagen_generator_assignment":[0,1],"goal":5,"start":1,"action_noise":0.15,"location_history":"[1,3,2,3,4,2,3,2,1,5]","action_history":"[1,0,1,1,1,1,1,0,0]","mutagen_history":"[1,0,1,1,1,1,1,0,0]","location_rts":"[963,580,929,405,531,736,963,260,413]","trial_type":"fractal-mutation","trial_index":71,"time_elapsed":2358300,"internal_node_id":"0.0-5.0-17.0"},{"group":"hexagon_tri","fractal_assignment":["../images/blu_wht.png","../images/ylw_slt.png","../images/pnk_blu.png","../images/cyn_red.png","../images/org_blu.png","../images/gry_blk.png"],"mutagen_generator_assignment":[0,1],"goal":4,"start":5,"action_noise":0.15,"location_history":"[5,0,5,0,5,4]","action_history":"[1,0,1,1,0]","mutagen_history":"[1,0,1,1,0]","location_rts":"[1165,521,607,425,558]","trial_type":"fractal-mutation","trial_index":72,"time_elapsed":2370259,"internal_node_id":"0.0-5.0-18.0"},{"group":"hexagon_tri","fractal_assignment":["../images/blu_wht.png","../images/ylw_slt.png","../images/pnk_blu.png","../images/cyn_red.png","../images/org_blu.png","../images/gry_blk.png"],"mutagen_generator_assignment":[0,1],"goal":0,"start":4,"action_noise":0.15,"location_history":"[4,0]","action_history":"[0]","mutagen_history":"[0]","location_rts":"[1548]","trial_type":"fractal-mutation","trial_index":73,"time_elapsed":2376324,"internal_node_id":"0.0-5.0-19.0"},{"group":"hexagon_tri","fractal_assignment":["../images/blu_wht.png","../images/ylw_slt.png","../images/pnk_blu.png","../images/cyn_red.png","../images/org_blu.png","../images/gry_blk.png"],"mutagen_generator_assignment":[0,1],"goal":1,"start":0,"action_noise":0.15,"location_history":"[0,1]","action_history":"[1]","mutagen_history":"[1]","location_rts":"[1137]","trial_type":"fractal-mutation","trial_index":74,"time_elapsed":2382016,"internal_node_id":"0.0-5.0-20.0"},{"group":"hexagon_tri","fractal_assignment":["../images/blu_wht.png","../images/ylw_slt.png","../images/pnk_blu.png","../images/cyn_red.png","../images/org_blu.png","../images/gry_blk.png"],"mutagen_generator_assignment":[0,1],"goal":3,"start":1,"action_noise":0.15,"location_history":"[1,3]","action_history":"[0]","mutagen_history":"[0]","location_rts":"[1165]","trial_type":"fractal-mutation","trial_index":75,"time_elapsed":2387716,"internal_node_id":"0.0-5.0-21.0"},{"group":"hexagon_tri","fractal_assignment":["../images/blu_wht.png","../images/ylw_slt.png","../images/pnk_blu.png","../images/cyn_red.png","../images/org_blu.png","../images/gry_blk.png"],"mutagen_generator_assignment":[0,1],"goal":2,"start":3,"action_noise":0.15,"location_history":"[3,4,2]","action_history":"[1,1]","mutagen_history":"[1,1]","location_rts":"[1150,447658]","trial_type":"fractal-mutation","trial_index":76,"time_elapsed":2842120,"internal_node_id":"0.0-5.0-22.0"},{"group":"hexagon_tri","fractal_assignment":["../images/blu_wht.png","../images/ylw_slt.png","../images/pnk_blu.png","../images/cyn_red.png","../images/org_blu.png","../images/gry_blk.png"],"mutagen_generator_assignment":[0,1],"goal":0,"start":2,"action_noise":0.15,"location_history":"[2,1,3,4,2,1,3,2,1,5,0]","action_history":"[0,0,1,1,0,0,0,0,1,1]","mutagen_history":"[0,0,1,1,0,0,0,0,1,1]","location_rts":"[3381,426,430,392,625,369,520,807,257,412]","trial_type":"fractal-mutation","trial_index":77,"time_elapsed":2863591,"internal_node_id":"0.0-5.0-23.0"},{"group":"hexagon_tri","fractal_assignment":["../images/blu_wht.png","../images/ylw_slt.png","../images/pnk_blu.png","../images/cyn_red.png","../images/org_blu.png","../images/gry_blk.png"],"mutagen_generator_assignment":[0,1],"goal":3,"start":0,"action_noise":0.15,"location_history":"[0,1,5,0,5,4,2,1,5,4,2,3]","action_history":"[1,1,1,0,0,1,1,1,0,1,1]","mutagen_history":"[1,1,1,0,0,1,1,1,0,1,1]","location_rts":"[299,782,499,400,426,1233,392,499,436,580,376]","trial_type":"fractal-mutation","trial_index":78,"time_elapsed":2884432,"internal_node_id":"0.0-5.0-24.0"},{"group":"hexagon_tri","fractal_assignment":["../images/blu_wht.png","../images/ylw_slt.png","../images/pnk_blu.png","../images/cyn_red.png","../images/org_blu.png","../images/gry_blk.png"],"mutagen_generator_assignment":[0,1],"goal":1,"start":3,"action_noise":0.15,"location_history":"[3,4,0,5,4,2,3,4,0,5,0,5,4,2,1]","action_history":"[1,0,0,0,1,1,1,0,0,1,1,0,1,1]","mutagen_history":"[1,0,0,0,1,1,1,0,0,1,1,0,1,1]","location_rts":"[1696,665,416,682,156,613,454,594,445,573,461,879,719,576]","trial_type":"fractal-mutation","trial_index":79,"time_elapsed":2911377,"internal_node_id":"0.0-5.0-25.0"},{"group":"hexagon_tri","fractal_assignment":["../images/blu_wht.png","../images/ylw_slt.png","../images/pnk_blu.png","../images/cyn_red.png","../images/org_blu.png","../images/gry_blk.png"],"mutagen_generator_assignment":[0,1],"goal":2,"start":1,"action_noise":0.15,"location_history":"[1,3,4,2]","action_history":"[0,1,1]","mutagen_history":"[0,1,1]","location_rts":"[766,914,445]","trial_type":"fractal-mutation","trial_index":80,"time_elapsed":2920119,"internal_node_id":"0.0-5.0-26.0"},{"group":"hexagon_tri","fractal_assignment":["../images/blu_wht.png","../images/ylw_slt.png","../images/pnk_blu.png","../images/cyn_red.png","../images/org_blu.png","../images/gry_blk.png"],"mutagen_generator_assignment":[0,1],"goal":5,"start":2,"action_noise":0.15,"location_history":"[2,1,3,4,2,3,4,2,3,4,0,1,5]","action_history":"[0,0,1,1,0,0,1,1,1,0,1,1]","mutagen_history":"[0,0,1,1,0,0,1,1,1,0,1,1]","location_rts":"[1446,618,385,485,439,462,510,404,387,321,677,421]","trial_type":"fractal-mutation","trial_index":81,"time_elapsed":2942600,"internal_node_id":"0.0-5.0-27.0"},{"group":"hexagon_tri","fractal_assignment":["../images/blu_wht.png","../images/ylw_slt.png","../images/pnk_blu.png","../images/cyn_red.png","../images/org_blu.png","../images/gry_blk.png"],"mutagen_generator_assignment":[0,1],"goal":4,"start":5,"action_noise":0.15,"location_history":"[5,0,1,5,4]","action_history":"[1,1,1,1]","mutagen_history":"[1,1,1,1]","location_rts":"[1146,373,520,1509]","trial_type":"fractal-mutation","trial_index":82,"time_elapsed":2953820,"internal_node_id":"0.0-5.0-28.0"},{"group":"hexagon_tri","fractal_assignment":["../images/blu_wht.png","../images/ylw_slt.png","../images/pnk_blu.png","../images/cyn_red.png","../images/org_blu.png","../images/gry_blk.png"],"mutagen_generator_assignment":[0,1],"goal":5,"start":4,"action_noise":0.15,"location_history":"[4,2,3,2,1,5]","action_history":"[1,0,0,0,1]","mutagen_history":"[1,0,0,0,1]","location_rts":"[240,368,382,687,453]","trial_type":"fractal-mutation","trial_index":83,"time_elapsed":2964625,"internal_node_id":"0.0-5.0-29.0"},{"group":"hexagon_tri","fractal_assignment":["../images/blu_wht.png","../images/ylw_slt.png","../images/pnk_blu.png","../images/cyn_red.png","../images/org_blu.png","../images/gry_blk.png"],"mutagen_generator_assignment":[0,1],"goal":3,"start":5,"action_noise":0.15,"location_history":"[5,0,5,0,5,4,0,1,5,4,0,5,0,5,4,0,1,5,0,1,3]","action_history":"[1,1,1,0,0,0,1,1,1,0,0,1,1,1,0,0,1,1,1,0]","mutagen_history":"[1,1,1,0,0,0,1,1,1,0,0,1,1,1,0,0,1,1,1,0]","location_rts":"[266,490,635,585,408,482,527,314,426,529,369,430,401,480,416,389,935,435,371,405]","trial_type":"fractal-mutation","trial_index":84,"time_elapsed":2998232,"internal_node_id":"0.0-5.0-30.0"},{"group":"hexagon_tri","fractal_assignment":["../images/blu_wht.png","../images/ylw_slt.png","../images/pnk_blu.png","../images/cyn_red.png","../images/org_blu.png","../images/gry_blk.png"],"mutagen_generator_assignment":[0,1],"goal":0,"start":3,"action_noise":0.15,"location_history":"[3,2,3,2,1,3,4,0]","action_history":"[1,1,0,0,0,0,1]","mutagen_history":"[1,1,0,0,0,0,1]","location_rts":"[1496,651,517,533,518,716,467]","trial_type":"fractal-mutation","trial_index":85,"time_elapsed":3013881,"internal_node_id":"0.0-5.0-31.0"},{"group":"hexagon_tri","fractal_assignment":["../images/blu_wht.png","../images/ylw_slt.png","../images/pnk_blu.png","../images/cyn_red.png","../images/org_blu.png","../images/gry_blk.png"],"mutagen_generator_assignment":[0,1],"goal":4,"start":0,"action_noise":0.15,"location_history":"[0,1,5,4]","action_history":"[1,1,0]","mutagen_history":"[1,1,0]","location_rts":"[498,488,645]","trial_type":"fractal-mutation","trial_index":86,"time_elapsed":3022135,"internal_node_id":"0.0-5.0-32.0"},{"group":"hexagon_tri","fractal_assignment":["../images/blu_wht.png","../images/ylw_slt.png","../images/pnk_blu.png","../images/cyn_red.png","../images/org_blu.png","../images/gry_blk.png"],"mutagen_generator_assignment":[0,1],"goal":1,"start":4,"action_noise":0.15,"location_history":"[4,2,3,2,1]","action_history":"[1,1,0,0]","mutagen_history":"[1,1,0,0]","location_rts":"[964,411,536,431]","trial_type":"fractal-mutation","trial_index":87,"time_elapsed":3032128,"internal_node_id":"0.0-5.0-33.0"},{"group":"hexagon_tri","fractal_assignment":["../images/blu_wht.png","../images/ylw_slt.png","../images/pnk_blu.png","../images/cyn_red.png","../images/org_blu.png","../images/gry_blk.png"],"mutagen_generator_assignment":[0,1],"goal":2,"start":1,"action_noise":0.15,"location_history":"[1,5,4,2]","action_history":"[1,0,1]","mutagen_history":"[1,0,1]","location_rts":"[762,575,758]","trial_type":"fractal-mutation","trial_index":88,"time_elapsed":3040836,"internal_node_id":"0.0-5.0-34.0"},{"group":"hexagon_tri","fractal_assignment":["../images/blu_wht.png","../images/ylw_slt.png","../images/pnk_blu.png","../images/cyn_red.png","../images/org_blu.png","../images/gry_blk.png"],"mutagen_generator_assignment":[0,1],"goal":0,"start":2,"action_noise":0.15,"location_history":"[2,3,2,1,3,4,2,3,2,1,3,4,2,1,5,0]","action_history":"[1,0,0,0,1,1,1,0,0,0,1,1,1,1,1]","mutagen_history":"[1,0,0,0,1,1,1,0,0,0,1,1,1,1,1]","location_rts":"[1180,945,511,513,504,498,488,510,430,516,612,284,598,359,438]","trial_type":"fractal-mutation","trial_index":89,"time_elapsed":3068257,"internal_node_id":"0.0-5.0-35.0"},{"group":"hexagon_tri","fractal_assignment":["../images/blu_wht.png","../images/ylw_slt.png","../images/pnk_blu.png","../images/cyn_red.png","../images/org_blu.png","../images/gry_blk.png"],"mutagen_generator_assignment":[0,1],"goal":5,"start":0,"action_noise":0.15,"location_history":"[0,5]","action_history":"[0]","mutagen_history":"[0]","location_rts":"[1228]","trial_type":"fractal-mutation","trial_index":90,"time_elapsed":3074020,"internal_node_id":"0.0-5.0-36.0"},{"group":"hexagon_tri","fractal_assignment":["../images/blu_wht.png","../images/ylw_slt.png","../images/pnk_blu.png","../images/cyn_red.png","../images/org_blu.png","../images/gry_blk.png"],"mutagen_generator_assignment":[0,1],"goal":2,"start":5,"action_noise":0.15,"location_history":"[5,0,1,5,0,1,5,0,5,4,0,5,0,5,4,0,1,3,2]","action_history":"[1,1,1,1,1,1,1,1,0,0,0,0,0,1,1,1,0,0]","mutagen_history":"[1,1,1,1,1,1,1,1,0,0,0,0,0,1,1,1,0,0]","location_rts":"[1029,474,489,365,396,782,503,493,492,207,639,558,559,730,558,570,986,431]","trial_type":"fractal-mutation","trial_index":91,"time_elapsed":3106424,"internal_node_id":"0.0-5.0-37.0"},{"group":"hexagon_tri","fractal_assignment":["../images/blu_wht.png","../images/ylw_slt.png","../images/pnk_blu.png","../images/cyn_red.png","../images/org_blu.png","../images/gry_blk.png"],"mutagen_generator_assignment":[0,1],"goal":1,"start":2,"action_noise":0.15,"location_history":"[2,3,2,1]","action_history":"[1,1,0]","mutagen_history":"[1,1,0]","location_rts":"[698,294,456]","trial_type":"fractal-mutation","trial_index":92,"time_elapsed":3114495,"internal_node_id":"0.0-5.0-38.0"},{"group":"hexagon_tri","fractal_assignment":["../images/blu_wht.png","../images/ylw_slt.png","../images/pnk_blu.png","../images/cyn_red.png","../images/org_blu.png","../images/gry_blk.png"],"mutagen_generator_assignment":[0,1],"goal":4,"start":1,"action_noise":0.15,"location_history":"[1,5,4]","action_history":"[1,0]","mutagen_history":"[1,0]","location_rts":"[649,592]","trial_type":"fractal-mutation","trial_index":93,"time_elapsed":3121308,"internal_node_id":"0.0-5.0-39.0"},{"group":"hexagon_tri","fractal_assignment":["../images/blu_wht.png","../images/ylw_slt.png","../images/pnk_blu.png","../images/cyn_red.png","../images/org_blu.png","../images/gry_blk.png"],"mutagen_generator_assignment":[0,1],"goal":3,"start":4,"action_noise":0.15,"location_history":"[4,2,3]","action_history":"[1,1]","mutagen_history":"[1,1]","location_rts":"[685,342]","trial_type":"fractal-mutation","trial_index":94,"time_elapsed":3127919,"internal_node_id":"0.0-5.0-40.0"},{"group":"hexagon_tri","fractal_assignment":["../images/blu_wht.png","../images/ylw_slt.png","../images/pnk_blu.png","../images/cyn_red.png","../images/org_blu.png","../images/gry_blk.png"],"mutagen_generator_assignment":[0,1],"goal":5,"start":3,"action_noise":0.15,"location_history":"[3,4,2,1,5]","action_history":"[1,0,0,1]","mutagen_history":"[1,0,0,1]","location_rts":"[454,424,484,463]","trial_type":"fractal-mutation","trial_index":95,"time_elapsed":3137397,"internal_node_id":"0.0-5.0-41.0"},{"group":"hexagon_tri","fractal_assignment":["../images/blu_wht.png","../images/ylw_slt.png","../images/pnk_blu.png","../images/cyn_red.png","../images/org_blu.png","../images/gry_blk.png"],"mutagen_generator_assignment":[0,1],"goal":3,"start":5,"action_noise":0.15,"location_history":"[5,0,1,5,0,1,3]","action_history":"[1,1,1,1,1,0]","mutagen_history":"[1,1,1,1,1,0]","location_rts":"[671,503,728,526,578,604]","trial_type":"fractal-mutation","trial_index":96,"time_elapsed":3150744,"internal_node_id":"0.0-5.0-42.0"},{"group":"hexagon_tri","fractal_assignment":["../images/blu_wht.png","../images/ylw_slt.png","../images/pnk_blu.png","../images/cyn_red.png","../images/org_blu.png","../images/gry_blk.png"],"mutagen_generator_assignment":[0,1],"goal":0,"start":3,"action_noise":0.15,"location_history":"[3,2,1,3,4,2,3,4,0]","action_history":"[0,0,0,1,1,1,1,0]","mutagen_history":"[0,0,0,1,1,1,1,0]","location_rts":"[1201,410,395,473,422,478,451,623]","trial_type":"fractal-mutation","trial_index":97,"time_elapsed":3166976,"internal_node_id":"0.0-5.0-43.0"},{"group":"hexagon_tri","fractal_assignment":["../images/blu_wht.png","../images/ylw_slt.png","../images/pnk_blu.png","../images/cyn_red.png","../images/org_blu.png","../images/gry_blk.png"],"mutagen_generator_assignment":[0,1],"goal":2,"start":0,"action_noise":0.15,"location_history":"[0,1,5,4,2]","action_history":"[0,1,1,1]","mutagen_history":"[0,1,1,1]","location_rts":"[1056,733,442,493]","trial_type":"fractal-mutation","trial_index":98,"time_elapsed":3177352,"internal_node_id":"0.0-5.0-44.0"},{"group":"hexagon_tri","fractal_assignment":["../images/blu_wht.png","../images/ylw_slt.png","../images/pnk_blu.png","../images/cyn_red.png","../images/org_blu.png","../images/gry_blk.png"],"mutagen_generator_assignment":[0,1],"goal":4,"start":2,"action_noise":0.15,"location_history":"[2,3,4]","action_history":"[1,1]","mutagen_history":"[1,1]","location_rts":"[487,864]","trial_type":"fractal-mutation","trial_index":99,"time_elapsed":3184292,"internal_node_id":"0.0-5.0-45.0"},{"group":"hexagon_tri","fractal_assignment":["../images/blu_wht.png","../images/ylw_slt.png","../images/pnk_blu.png","../images/cyn_red.png","../images/org_blu.png","../images/gry_blk.png"],"mutagen_generator_assignment":[0,1],"goal":1,"start":4,"action_noise":0.15,"location_history":"[4,2,3,2,1]","action_history":"[1,1,0,0]","mutagen_history":"[1,1,0,0]","location_rts":"[656,328,365,82]","trial_type":"fractal-mutation","trial_index":100,"time_elapsed":3193368,"internal_node_id":"0.0-5.0-46.0"},{"group":"hexagon_tri","fractal_assignment":["../images/blu_wht.png","../images/ylw_slt.png","../images/pnk_blu.png","../images/cyn_red.png","../images/org_blu.png","../images/gry_blk.png"],"mutagen_generator_assignment":[0,1],"goal":4,"start":1,"action_noise":0.15,"location_history":"[1,3,2,1,5,0,1,5,0,1,3,4]","action_history":"[0,0,0,1,1,1,1,1,0,0,0]","mutagen_history":"[0,0,0,1,1,1,1,1,0,0,0]","location_rts":"[271,313,7,64,102,104,208,365,150,153,281]","trial_type":"fractal-mutation","trial_index":101,"time_elapsed":3210284,"internal_node_id":"0.0-5.0-47.0"},{"group":"hexagon_tri","fractal_assignment":["../images/blu_wht.png","../images/ylw_slt.png","../images/pnk_blu.png","../images/cyn_red.png","../images/org_blu.png","../images/gry_blk.png"],"mutagen_generator_assignment":[0,1],"goal":3,"start":4,"action_noise":0.15,"location_history":"[4,2,3]","action_history":"[1,1]","mutagen_history":"[1,1]","location_rts":"[391,420]","trial_type":"fractal-mutation","trial_index":102,"time_elapsed":3216680,"internal_node_id":"0.0-5.0-48.0"},{"group":"hexagon_tri","fractal_assignment":["../images/blu_wht.png","../images/ylw_slt.png","../images/pnk_blu.png","../images/cyn_red.png","../images/org_blu.png","../images/gry_blk.png"],"mutagen_generator_assignment":[0,1],"goal":5,"start":3,"action_noise":0.15,"location_history":"[3,4,2,3,2,3,2,3,4,2,3,4,0,5]","action_history":"[1,1,1,0,0,0,1,1,0,1,1,0,0]","mutagen_history":"[1,1,1,0,0,0,1,1,0,1,1,0,0]","location_rts":"[292,57,73,58,196,85,247,6,32,264,93,169,61]","trial_type":"fractal-mutation","trial_index":103,"time_elapsed":3235284,"internal_node_id":"0.0-5.0-49.0"},{"view_history":"[{\"page_index\":0,\"viewing_time\":7793}]","rt":7794,"trial_type":"instructions","trial_index":104,"time_elapsed":3244079,"internal_node_id":"0.0-6.0"},{"rt":1470,"responses":"{\"Q0\":\"\"}","trial_type":"survey-text","trial_index":105,"time_elapsed":3246555,"internal_node_id":"0.0-7.0"}]