[{"view_history":"[{\"page_index\":0,\"viewing_time\":2796},{\"page_index\":1,\"viewing_time\":6241},{\"page_index\":2,\"viewing_time\":14075},{\"page_index\":3,\"viewing_time\":4350}]","rt":27463,"trial_type":"instructions","trial_index":0,"time_elapsed":27464,"internal_node_id":"0.0-0.0"},{"view_history":"[{\"page_index\":0,\"viewing_time\":1723},{\"page_index\":1,\"viewing_time\":24257}]","rt":25981,"trial_type":"instructions","trial_index":1,"time_elapsed":54447,"internal_node_id":"0.0-1.0"},{"group":"hexagon_bi","room_assignment":["purple","blue","red","green","yellow","grey"],"door_color_assignment":["black","white"],"door_generator_assignment":[1,0],"goal":4,"start":0,"action_noise":0.15,"location_history":"[0,1,0,1,2,1,0,5,0,5,0,5,0,1,0,1,0,5,0,1,2,1,2,1,2,1,0,1,2,1,2,3,2,3,4]","action_history":"[1,1,1,0,0,1,0,0,1,0,1,0,0,1,1,1,1,0,0,0,0,0,0,1,0,1,1,0,0,1,1,1,1,0]","door_history":"[0,0,0,1,1,0,1,1,0,1,0,1,1,0,0,0,0,1,1,1,1,1,1,0,1,0,0,1,1,0,0,0,0,1]","location_rts":"[3253,3039,936,1569,1385,1324,579,1208,1173,329,406,766,462,4848,2357,2372,597,596,1246,775,462,352,420,419,2072,815,977,446,394,90,1062,3444,1101,1173]","trial_type":"two-door-navigation","trial_index":2,"time_elapsed":134542,"internal_node_id":"0.0-2.0-0.0"},{"group":"hexagon_bi","room_assignment":["purple","blue","red","green","yellow","grey"],"door_color_assignment":["black","white"],"door_generator_assignment":[1,0],"goal":3,"start":4,"action_noise":0.15,"location_history":"[4,3]","action_history":"[1]","door_history":"[0]","location_rts":"[1728]","trial_type":"two-door-navigation","trial_index":3,"time_elapsed":140778,"internal_node_id":"0.0-2.0-1.0"},{"group":"hexagon_bi","room_assignment":["purple","blue","red","green","yellow","grey"],"door_color_assignment":["black","white"],"door_generator_assignment":[1,0],"goal":5,"start":3,"action_noise":0.15,"location_history":"[3,2,3,2,1,2,1,0,1,2,1,2,1,0,5]","action_history":"[1,0,0,0,0,0,1,1,0,0,0,0,1,0]","door_history":"[0,1,1,1,1,1,0,0,1,1,1,1,0,1]","location_rts":"[1695,447,299,312,313,319,1020,465,589,285,330,247,292,939]","trial_type":"two-door-navigation","trial_index":4,"time_elapsed":165889,"internal_node_id":"0.0-2.0-2.0"},{"group":"hexagon_bi","room_assignment":["purple","blue","red","green","yellow","grey"],"door_color_assignment":["black","white"],"door_generator_assignment":[1,0],"goal":2,"start":5,"action_noise":0.15,"location_history":"[5,0,5,4,5,4,3,4,3,4,5,0,5,0,1,2]","action_history":"[0,0,1,1,1,0,0,0,0,0,0,0,0,1,0]","door_history":"[1,1,0,0,0,1,1,1,1,1,1,1,1,0,1]","location_rts":"[2508,1245,543,764,795,554,474,379,456,292,1163,349,382,617,410]","trial_type":"two-door-navigation","trial_index":5,"time_elapsed":195395,"internal_node_id":"0.0-2.0-3.0"},{"group":"hexagon_bi","room_assignment":["purple","blue","red","green","yellow","grey"],"door_color_assignment":["black","white"],"door_generator_assignment":[1,0],"goal":1,"start":2,"action_noise":0.15,"location_history":"[2,3,2,1]","action_history":"[1,1,0]","door_history":"[0,0,1]","location_rts":"[1811,466,585]","trial_type":"two-door-navigation","trial_index":6,"time_elapsed":204774,"internal_node_id":"0.0-2.0-4.0"},{"group":"hexagon_bi","room_assignment":["purple","blue","red","green","yellow","grey"],"door_color_assignment":["black","white"],"door_generator_assignment":[1,0],"goal":4,"start":1,"action_noise":0.15,"location_history":"[1,2,3,4]","action_history":"[1,1,0]","door_history":"[0,0,1]","location_rts":"[1893,500,502]","trial_type":"two-door-navigation","trial_index":7,"time_elapsed":214183,"internal_node_id":"0.0-2.0-5.0"},{"group":"hexagon_bi","room_assignment":["purple","blue","red","green","yellow","grey"],"door_color_assignment":["black","white"],"door_generator_assignment":[1,0],"goal":1,"start":4,"action_noise":0.15,"location_history":"[4,5,4,3,4,5,0,1]","action_history":"[1,1,0,0,1,0,0]","door_history":"[0,0,1,1,0,1,1]","location_rts":"[1752,421,656,286,811,689,455]","trial_type":"two-door-navigation","trial_index":8,"time_elapsed":229779,"internal_node_id":"0.0-2.0-6.0"},{"group":"hexagon_bi","room_assignment":["purple","blue","red","green","yellow","grey"],"door_color_assignment":["black","white"],"door_generator_assignment":[1,0],"goal":5,"start":1,"action_noise":0.15,"location_history":"[1,2,1,2,1,0,1,0,5]","action_history":"[0,0,0,0,1,1,1,0]","door_history":"[1,1,1,1,0,0,0,1]","location_rts":"[2078,1372,357,273,260,678,429,752]","trial_type":"two-door-navigation","trial_index":9,"time_elapsed":247520,"internal_node_id":"0.0-2.0-7.0"},{"group":"hexagon_bi","room_assignment":["purple","blue","red","green","yellow","grey"],"door_color_assignment":["black","white"],"door_generator_assignment":[1,0],"goal":0,"start":5,"action_noise":0.15,"location_history":"[5,4,5,0]","action_history":"[1,1,0]","door_history":"[0,0,1]","location_rts":"[1266,398,892]","trial_type":"two-door-navigation","trial_index":10,"time_elapsed":256587,"internal_node_id":"0.0-2.0-8.0"},{"group":"hexagon_bi","room_assignment":["purple","blue","red","green","yellow","grey"],"door_color_assignment":["black","white"],"door_generator_assignment":[1,0],"goal":2,"start":0,"action_noise":0.15,"location_history":"[0,1,2]","action_history":"[1,0]","door_history":"[0,1]","location_rts":"[1591,470]","trial_type":"two-door-navigation","trial_index":11,"time_elapsed":264156,"internal_node_id":"0.0-2.0-9.0"},{"group":"hexagon_bi","room_assignment":["purple","blue","red","green","yellow","grey"],"door_color_assignment":["black","white"],"door_generator_assignment":[1,0],"goal":3,"start":2,"action_noise":0.15,"location_history":"[2,1,0,5,0,5,0,5,0,5,4,5,4,5,0,1,2,1,2,1,0,1,2,1,2,3]","action_history":"[0,0,0,0,0,0,0,0,0,1,0,1,1,1,1,0,0,0,0,0,1,0,0,0,1]","door_history":"[1,1,1,1,1,1,1,1,1,0,1,0,0,0,0,1,1,1,1,1,0,1,1,1,0]","location_rts":"[1194,449,584,540,392,318,423,372,363,583,885,934,1025,1629,717,703,387,362,380,1664,1037,590,393,447,434]","trial_type":"two-door-navigation","trial_index":12,"time_elapsed":309550,"internal_node_id":"0.0-2.0-10.0"},{"group":"hexagon_bi","room_assignment":["purple","blue","red","green","yellow","grey"],"door_color_assignment":["black","white"],"door_generator_assignment":[1,0],"goal":0,"start":3,"action_noise":0.15,"location_history":"[3,2,3,2,1,2,3,2,3,2,3,2,1,2,1,2,3,2,1,0]","action_history":"[1,1,1,1,0,1,1,1,1,1,1,0,0,0,0,0,1,0,1]","door_history":"[0,0,0,0,1,0,0,0,0,0,0,1,1,1,1,1,0,1,0]","location_rts":"[1199,357,457,364,838,672,1637,335,344,339,322,258,390,392,263,315,295,303,596]","trial_type":"two-door-navigation","trial_index":13,"time_elapsed":341806,"internal_node_id":"0.0-2.0-11.0"},{"group":"hexagon_bi","room_assignment":["purple","blue","red","green","yellow","grey"],"door_color_assignment":["black","white"],"door_generator_assignment":[1,0],"goal":2,"start":0,"action_noise":0.15,"location_history":"[0,1,2]","action_history":"[1,0]","door_history":"[0,1]","location_rts":"[6742,1622]","trial_type":"two-door-navigation","trial_index":14,"time_elapsed":355681,"internal_node_id":"0.0-2.0-12.0"},{"group":"hexagon_bi","room_assignment":["purple","blue","red","green","yellow","grey"],"door_color_assignment":["black","white"],"door_generator_assignment":[1,0],"goal":5,"start":2,"action_noise":0.15,"location_history":"[2,1,2,1,0,5]","action_history":"[0,0,0,1,0]","door_history":"[1,1,1,0,1]","location_rts":"[1319,298,280,620,299]","trial_type":"two-door-navigation","trial_index":15,"time_elapsed":367010,"internal_node_id":"0.0-2.0-13.0"},{"group":"hexagon_bi","room_assignment":["purple","blue","red","green","yellow","grey"],"door_color_assignment":["black","white"],"door_generator_assignment":[1,0],"goal":4,"start":5,"action_noise":0.15,"location_history":"[5,4]","action_history":"[1]","door_history":"[0]","location_rts":"[6939]","trial_type":"two-door-navigation","trial_index":16,"time_elapsed":378453,"internal_node_id":"0.0-2.0-14.0"},{"group":"hexagon_bi","room_assignment":["purple","blue","red","green","yellow","grey"],"door_color_assignment":["black","white"],"door_generator_assignment":[1,0],"goal":3,"start":4,"action_noise":0.15,"location_history":"[4,3]","action_history":"[0]","door_history":"[1]","location_rts":"[4004]","trial_type":"two-door-navigation","trial_index":17,"time_elapsed":386964,"internal_node_id":"0.0-2.0-15.0"},{"group":"hexagon_bi","room_assignment":["purple","blue","red","green","yellow","grey"],"door_color_assignment":["black","white"],"door_generator_assignment":[1,0],"goal":1,"start":3,"action_noise":0.15,"location_history":"[3,2,3,4,3,4,3,2,3,2,1]","action_history":"[1,0,0,0,0,0,1,1,1,0]","door_history":"[0,1,1,1,1,1,0,0,0,1]","location_rts":"[18408,653,383,515,1125,660,512,332,536,780]","trial_type":"two-door-navigation","trial_index":18,"time_elapsed":424416,"internal_node_id":"0.0-2.0-16.0"},{"group":"hexagon_bi","room_assignment":["purple","blue","red","green","yellow","grey"],"door_color_assignment":["black","white"],"door_generator_assignment":[1,0],"goal":5,"start":1,"action_noise":0.15,"location_history":"[1,0,5]","action_history":"[1,0]","door_history":"[0,1]","location_rts":"[2052,576]","trial_type":"two-door-navigation","trial_index":19,"time_elapsed":432555,"internal_node_id":"0.0-2.0-17.0"},{"group":"hexagon_bi","room_assignment":["purple","blue","red","green","yellow","grey"],"door_color_assignment":["black","white"],"door_generator_assignment":[1,0],"goal":4,"start":5,"action_noise":0.15,"location_history":"[5,0,1,2,1,2,3,4]","action_history":"[0,1,0,0,0,1,0]","door_history":"[1,0,1,1,1,0,1]","location_rts":"[1537,1053,399,556,833,351,367]","trial_type":"two-door-navigation","trial_index":20,"time_elapsed":448179,"internal_node_id":"0.0-2.0-18.0"},{"group":"hexagon_bi","room_assignment":["purple","blue","red","green","yellow","grey"],"door_color_assignment":["black","white"],"door_generator_assignment":[1,0],"goal":0,"start":4,"action_noise":0.15,"location_history":"[4,5,0]","action_history":"[1,0]","door_history":"[0,1]","location_rts":"[1411,858]","trial_type":"two-door-navigation","trial_index":21,"time_elapsed":455961,"internal_node_id":"0.0-2.0-19.0"},{"group":"hexagon_bi","room_assignment":["purple","blue","red","green","yellow","grey"],"door_color_assignment":["black","white"],"door_generator_assignment":[1,0],"goal":1,"start":0,"action_noise":0.15,"location_history":"[0,1]","action_history":"[1]","door_history":"[0]","location_rts":"[1182]","trial_type":"two-door-navigation","trial_index":22,"time_elapsed":461650,"internal_node_id":"0.0-2.0-20.0"},{"group":"hexagon_bi","room_assignment":["purple","blue","red","green","yellow","grey"],"door_color_assignment":["black","white"],"door_generator_assignment":[1,0],"goal":3,"start":1,"action_noise":0.15,"location_history":"[1,0,5,0,5,4,3]","action_history":"[1,1,0,0,0,0]","door_history":"[0,0,1,1,1,1]","location_rts":"[2388,1200,343,322,300,915]","trial_type":"two-door-navigation","trial_index":23,"time_elapsed":476652,"internal_node_id":"0.0-2.0-21.0"},{"group":"hexagon_bi","room_assignment":["purple","blue","red","green","yellow","grey"],"door_color_assignment":["black","white"],"door_generator_assignment":[1,0],"goal":2,"start":3,"action_noise":0.15,"location_history":"[3,4,3,4,3,4,3,2]","action_history":"[0,1,0,0,0,0,1]","door_history":"[1,0,1,1,1,1,0]","location_rts":"[3791,1125,934,362,363,374,567]","trial_type":"two-door-navigation","trial_index":24,"time_elapsed":494702,"internal_node_id":"0.0-2.0-22.0"},{"group":"hexagon_bi","room_assignment":["purple","blue","red","green","yellow","grey"],"door_color_assignment":["black","white"],"door_generator_assignment":[1,0],"goal":0,"start":2,"action_noise":0.15,"location_history":"[2,1,2,3,2,3,2,3,2,1,0]","action_history":"[1,0,1,1,1,0,1,0,0,1]","door_history":"[0,1,0,0,0,1,0,1,1,0]","location_rts":"[3275,756,649,424,302,1085,238,915,379,1183]","trial_type":"two-door-navigation","trial_index":25,"time_elapsed":517435,"internal_node_id":"0.0-2.0-23.0"},{"group":"hexagon_bi","room_assignment":["purple","blue","red","green","yellow","grey"],"door_color_assignment":["black","white"],"door_generator_assignment":[1,0],"goal":3,"start":0,"action_noise":0.15,"location_history":"[0,1,0,5,4,3]","action_history":"[1,1,1,0,0]","door_history":"[0,0,0,1,1]","location_rts":"[2264,1007,1039,199,504]","trial_type":"two-door-navigation","trial_index":26,"time_elapsed":530974,"internal_node_id":"0.0-2.0-24.0"},{"group":"hexagon_bi","room_assignment":["purple","blue","red","green","yellow","grey"],"door_color_assignment":["black","white"],"door_generator_assignment":[1,0],"goal":1,"start":3,"action_noise":0.15,"location_history":"[3,2,1]","action_history":"[1,0]","door_history":"[0,1]","location_rts":"[1298,1006]","trial_type":"two-door-navigation","trial_index":27,"time_elapsed":538783,"internal_node_id":"0.0-2.0-25.0"},{"group":"hexagon_bi","room_assignment":["purple","blue","red","green","yellow","grey"],"door_color_assignment":["black","white"],"door_generator_assignment":[1,0],"goal":2,"start":1,"action_noise":0.15,"location_history":"[1,2]","action_history":"[0]","door_history":"[1]","location_rts":"[2461]","trial_type":"two-door-navigation","trial_index":28,"time_elapsed":545748,"internal_node_id":"0.0-2.0-26.0"},{"group":"hexagon_bi","room_assignment":["purple","blue","red","green","yellow","grey"],"door_color_assignment":["black","white"],"door_generator_assignment":[1,0],"goal":5,"start":2,"action_noise":0.15,"location_history":"[2,3,2,1,2,3,2,3,2,1,2,1,2,1,0,5]","action_history":"[1,1,0,1,1,1,1,1,0,0,0,1,0,1,0]","door_history":"[0,0,1,0,0,0,0,0,1,1,1,0,1,0,1]","location_rts":"[923,350,568,305,1387,484,317,348,209,561,890,543,840,889,1269]","trial_type":"two-door-navigation","trial_index":29,"time_elapsed":574197,"internal_node_id":"0.0-2.0-27.0"},{"group":"hexagon_bi","room_assignment":["purple","blue","red","green","yellow","grey"],"door_color_assignment":["black","white"],"door_generator_assignment":[1,0],"goal":4,"start":5,"action_noise":0.15,"location_history":"[5,4]","action_history":"[1]","door_history":"[0]","location_rts":"[7011]","trial_type":"two-door-navigation","trial_index":30,"time_elapsed":585713,"internal_node_id":"0.0-2.0-28.0"},{"group":"hexagon_bi","room_assignment":["purple","blue","red","green","yellow","grey"],"door_color_assignment":["black","white"],"door_generator_assignment":[1,0],"goal":5,"start":4,"action_noise":0.15,"location_history":"[4,5]","action_history":"[1]","door_history":"[0]","location_rts":"[1476]","trial_type":"two-door-navigation","trial_index":31,"time_elapsed":591698,"internal_node_id":"0.0-2.0-29.0"},{"group":"hexagon_bi","room_assignment":["purple","blue","red","green","yellow","grey"],"door_color_assignment":["black","white"],"door_generator_assignment":[1,0],"goal":3,"start":5,"action_noise":0.15,"location_history":"[5,4,3]","action_history":"[1,0]","door_history":"[0,1]","location_rts":"[1524,1149]","trial_type":"two-door-navigation","trial_index":32,"time_elapsed":599879,"internal_node_id":"0.0-2.0-30.0"},{"group":"hexagon_bi","room_assignment":["purple","blue","red","green","yellow","grey"],"door_color_assignment":["black","white"],"door_generator_assignment":[1,0],"goal":0,"start":3,"action_noise":0.15,"location_history":"[3,2,1,0]","action_history":"[1,0,1]","door_history":"[0,1,0]","location_rts":"[1263,1108,719]","trial_type":"two-door-navigation","trial_index":33,"time_elapsed":609477,"internal_node_id":"0.0-2.0-31.0"},{"group":"hexagon_bi","room_assignment":["purple","blue","red","green","yellow","grey"],"door_color_assignment":["black","white"],"door_generator_assignment":[1,0],"goal":4,"start":0,"action_noise":0.15,"location_history":"[0,1,0,5,4]","action_history":"[1,1,0,0]","door_history":"[0,0,1,1]","location_rts":"[1344,976,415,337]","trial_type":"two-door-navigation","trial_index":34,"time_elapsed":620064,"internal_node_id":"0.0-2.0-32.0"},{"group":"hexagon_bi","room_assignment":["purple","blue","red","green","yellow","grey"],"door_color_assignment":["black","white"],"door_generator_assignment":[1,0],"goal":1,"start":4,"action_noise":0.15,"location_history":"[4,3,2,3,4,3,4,5,4,5,4,5,4,3,2,1]","action_history":"[1,1,0,0,0,0,0,1,1,1,0,1,0,0,1]","door_history":"[0,0,1,1,1,1,1,0,0,0,1,0,1,1,0]","location_rts":"[1136,1080,763,511,508,862,614,625,545,477,408,704,367,845,1127]","trial_type":"two-door-navigation","trial_index":35,"time_elapsed":649181,"internal_node_id":"0.0-2.0-33.0"},{"group":"hexagon_bi","room_assignment":["purple","blue","red","green","yellow","grey"],"door_color_assignment":["black","white"],"door_generator_assignment":[1,0],"goal":2,"start":1,"action_noise":0.15,"location_history":"[1,0,1,2]","action_history":"[1,1,0]","door_history":"[0,0,1]","location_rts":"[1233,943,286]","trial_type":"two-door-navigation","trial_index":36,"time_elapsed":658157,"internal_node_id":"0.0-2.0-34.0"},{"group":"hexagon_bi","room_assignment":["purple","blue","red","green","yellow","grey"],"door_color_assignment":["black","white"],"door_generator_assignment":[1,0],"goal":0,"start":2,"action_noise":0.15,"location_history":"[2,3,2,1,0]","action_history":"[1,1,0,1]","door_history":"[0,0,1,0]","location_rts":"[1108,596,276,297]","trial_type":"two-door-navigation","trial_index":37,"time_elapsed":667955,"internal_node_id":"0.0-2.0-35.0"},{"group":"hexagon_bi","room_assignment":["purple","blue","red","green","yellow","grey"],"door_color_assignment":["black","white"],"door_generator_assignment":[1,0],"goal":5,"start":0,"action_noise":0.15,"location_history":"[0,5]","action_history":"[0]","door_history":"[1]","location_rts":"[2079]","trial_type":"two-door-navigation","trial_index":38,"time_elapsed":674542,"internal_node_id":"0.0-2.0-36.0"},{"group":"hexagon_bi","room_assignment":["purple","blue","red","green","yellow","grey"],"door_color_assignment":["black","white"],"door_generator_assignment":[1,0],"goal":2,"start":5,"action_noise":0.15,"location_history":"[5,4,5,0,5,0,1,0,1,2]","action_history":"[0,1,1,0,0,0,1,1,0]","door_history":"[1,0,0,1,1,1,0,0,1]","location_rts":"[2029,260,678,150,276,232,218,892,260]","trial_type":"two-door-navigation","trial_index":39,"time_elapsed":692067,"internal_node_id":"0.0-2.0-37.0"},{"group":"hexagon_bi","room_assignment":["purple","blue","red","green","yellow","grey"],"door_color_assignment":["black","white"],"door_generator_assignment":[1,0],"goal":1,"start":2,"action_noise":0.15,"location_history":"[2,1]","action_history":"[0]","door_history":"[1]","location_rts":"[1411]","trial_type":"two-door-navigation","trial_index":40,"time_elapsed":697979,"internal_node_id":"0.0-2.0-38.0"},{"group":"hexagon_bi","room_assignment":["purple","blue","red","green","yellow","grey"],"door_color_assignment":["black","white"],"door_generator_assignment":[1,0],"goal":4,"start":1,"action_noise":0.15,"location_history":"[1,2,1,2,1,0,5,0,5,0,5,0,5,4]","action_history":"[1,0,0,0,1,0,0,0,1,0,0,0,1]","door_history":"[0,1,1,1,0,1,1,1,0,1,1,1,0]","location_rts":"[1655,328,306,370,714,513,220,352,768,260,373,280,30]","trial_type":"two-door-navigation","trial_index":41,"time_elapsed":720690,"internal_node_id":"0.0-2.0-39.0"},{"group":"hexagon_bi","room_assignment":["purple","blue","red","green","yellow","grey"],"door_color_assignment":["black","white"],"door_generator_assignment":[1,0],"goal":3,"start":4,"action_noise":0.15,"location_history":"[4,3]","action_history":"[0]","door_history":"[1]","location_rts":"[1492]","trial_type":"two-door-navigation","trial_index":42,"time_elapsed":726688,"internal_node_id":"0.0-2.0-40.0"},{"group":"hexagon_bi","room_assignment":["purple","blue","red","green","yellow","grey"],"door_color_assignment":["black","white"],"door_generator_assignment":[1,0],"goal":5,"start":3,"action_noise":0.15,"location_history":"[3,4,3,4,5]","action_history":"[1,0,0,1]","door_history":"[0,1,1,0]","location_rts":"[1531,1291,413,628]","trial_type":"two-door-navigation","trial_index":43,"time_elapsed":738062,"internal_node_id":"0.0-2.0-41.0"},{"group":"hexagon_bi","room_assignment":["purple","blue","red","green","yellow","grey"],"door_color_assignment":["black","white"],"door_generator_assignment":[1,0],"goal":3,"start":5,"action_noise":0.15,"location_history":"[5,4,3]","action_history":"[0,0]","door_history":"[1,1]","location_rts":"[2265,534]","trial_type":"two-door-navigation","trial_index":44,"time_elapsed":746408,"internal_node_id":"0.0-2.0-42.0"},{"group":"hexagon_bi","room_assignment":["purple","blue","red","green","yellow","grey"],"door_color_assignment":["black","white"],"door_generator_assignment":[1,0],"goal":0,"start":3,"action_noise":0.15,"location_history":"[3,2,1,2,1,2,1,0]","action_history":"[0,0,0,0,0,0,1]","door_history":"[1,1,1,1,1,1,0]","location_rts":"[1512,539,364,438,215,222,274]","trial_type":"two-door-navigation","trial_index":45,"time_elapsed":760497,"internal_node_id":"0.0-2.0-43.0"},{"group":"hexagon_bi","room_assignment":["purple","blue","red","green","yellow","grey"],"door_color_assignment":["black","white"],"door_generator_assignment":[1,0],"goal":2,"start":0,"action_noise":0.15,"location_history":"[0,5,4,3,4,3,2]","action_history":"[0,1,1,0,0,1]","door_history":"[1,0,0,1,1,0]","location_rts":"[1550,501,602,370,454,230]","trial_type":"two-door-navigation","trial_index":46,"time_elapsed":773717,"internal_node_id":"0.0-2.0-44.0"},{"group":"hexagon_bi","room_assignment":["purple","blue","red","green","yellow","grey"],"door_color_assignment":["black","white"],"door_generator_assignment":[1,0],"goal":4,"start":2,"action_noise":0.15,"location_history":"[2,3,4]","action_history":"[1,0]","door_history":"[0,1]","location_rts":"[1237,346]","trial_type":"two-door-navigation","trial_index":47,"time_elapsed":780813,"internal_node_id":"0.0-2.0-45.0"},{"group":"hexagon_bi","room_assignment":["purple","blue","red","green","yellow","grey"],"door_color_assignment":["black","white"],"door_generator_assignment":[1,0],"goal":1,"start":4,"action_noise":0.15,"location_history":"[4,5,0,5,4,3,4,5,0,1]","action_history":"[1,0,1,1,0,0,1,0,1]","door_history":"[0,1,0,0,1,1,0,1,0]","location_rts":"[1359,651,808,691,675,258,409,260,574]","trial_type":"two-door-navigation","trial_index":48,"time_elapsed":799044,"internal_node_id":"0.0-2.0-46.0"},{"group":"hexagon_bi","room_assignment":["purple","blue","red","green","yellow","grey"],"door_color_assignment":["black","white"],"door_generator_assignment":[1,0],"goal":4,"start":1,"action_noise":0.15,"location_history":"[1,2,1,2,3,2,3,4]","action_history":"[1,0,0,1,0,0,0]","door_history":"[0,1,1,0,1,1,1]","location_rts":"[1402,856,413,422,1677,748,442]","trial_type":"two-door-navigation","trial_index":49,"time_elapsed":815533,"internal_node_id":"0.0-2.0-47.0"},{"group":"hexagon_bi","room_assignment":["purple","blue","red","green","yellow","grey"],"door_color_assignment":["black","white"],"door_generator_assignment":[1,0],"goal":3,"start":4,"action_noise":0.15,"location_history":"[4,5,0,5,4,5,0,1,2,3]","action_history":"[0,0,0,0,0,0,0,0,1]","door_history":"[1,1,1,1,1,1,1,1,0]","location_rts":"[19331,343,327,406,644,356,680,936,1109]","trial_type":"two-door-navigation","trial_index":50,"time_elapsed":852198,"internal_node_id":"0.0-2.0-48.0"},{"group":"hexagon_bi","room_assignment":["purple","blue","red","green","yellow","grey"],"door_color_assignment":["black","white"],"door_generator_assignment":[1,0],"goal":5,"start":3,"action_noise":0.15,"location_history":"[3,2,3,2,1,2,3,4,5]","action_history":"[1,1,1,0,1,1,1,0]","door_history":"[0,0,0,1,0,0,0,1]","location_rts":"[9570,782,265,20,335,684,658,561]","trial_type":"two-door-navigation","trial_index":51,"time_elapsed":876611,"internal_node_id":"0.0-2.0-49.0"},{"view_history":"[{\"page_index\":0,\"viewing_time\":10960}]","rt":10961,"trial_type":"instructions","trial_index":52,"time_elapsed":888573,"internal_node_id":"0.0-3.0"},{"view_history":"[{\"page_index\":0,\"viewing_time\":2700},{\"page_index\":1,\"viewing_time\":72535}]","rt":75237,"trial_type":"instructions","trial_index":53,"time_elapsed":964810,"internal_node_id":"0.0-4.0"},{"group":"hexagon_bi","fractal_assignment":["../images/ylw_slt.png","../images/org_blu.png","../images/blu_wht.png","../images/cyn_red.png","../images/gry_blk.png","../images/pnk_blu.png"],"mutagen_generator_assignment":[0,1],"goal":4,"start":0,"action_noise":0.15,"location_history":"[0,5,0,1,2,3,2,3,4]","action_history":"[0,0,1,0,1,1,1,0]","mutagen_history":"[0,0,1,0,1,1,1,0]","location_rts":"[3429,1103,1036,1080,2582,544,448,404]","trial_type":"fractal-mutation","trial_index":54,"time_elapsed":987079,"internal_node_id":"0.0-5.0-0.0"},{"group":"hexagon_bi","fractal_assignment":["../images/ylw_slt.png","../images/org_blu.png","../images/blu_wht.png","../images/cyn_red.png","../images/gry_blk.png","../images/pnk_blu.png"],"mutagen_generator_assignment":[0,1],"goal":3,"start":4,"action_noise":0.15,"location_history":"[4,3]","action_history":"[0]","mutagen_history":"[0]","location_rts":"[1289]","trial_type":"fractal-mutation","trial_index":55,"time_elapsed":992871,"internal_node_id":"0.0-5.0-1.0"},{"group":"hexagon_bi","fractal_assignment":["../images/ylw_slt.png","../images/org_blu.png","../images/blu_wht.png","../images/cyn_red.png","../images/gry_blk.png","../images/pnk_blu.png"],"mutagen_generator_assignment":[0,1],"goal":5,"start":3,"action_noise":0.15,"location_history":"[3,4,3,2,3,2,3,4,5]","action_history":"[0,0,0,1,1,1,0,1]","mutagen_history":"[0,0,0,1,1,1,0,1]","location_rts":"[1807,608,777,436,1094,598,739,289]","trial_type":"fractal-mutation","trial_index":56,"time_elapsed":1010803,"internal_node_id":"0.0-5.0-2.0"},{"group":"hexagon_bi","fractal_assignment":["../images/ylw_slt.png","../images/org_blu.png","../images/blu_wht.png","../images/cyn_red.png","../images/gry_blk.png","../images/pnk_blu.png"],"mutagen_generator_assignment":[0,1],"goal":2,"start":5,"action_noise":0.15,"location_history":"[5,4,3,4,3,2]","action_history":"[1,1,0,0,0]","mutagen_history":"[1,1,0,0,0]","location_rts":"[3060,6854,912,3005,517]","trial_type":"fractal-mutation","trial_index":57,"time_elapsed":1033691,"internal_node_id":"0.0-5.0-3.0"},{"group":"hexagon_bi","fractal_assignment":["../images/ylw_slt.png","../images/org_blu.png","../images/blu_wht.png","../images/cyn_red.png","../images/gry_blk.png","../images/pnk_blu.png"],"mutagen_generator_assignment":[0,1],"goal":1,"start":2,"action_noise":0.15,"location_history":"[2,3,4,3,2,3,4,5,4,3,2,1]","action_history":"[1,0,0,1,1,0,1,1,0,1,1]","mutagen_history":"[1,0,0,1,1,0,1,1,0,1,1]","location_rts":"[1842,396,908,522,621,896,264,771,754,384,370]","trial_type":"fractal-mutation","trial_index":58,"time_elapsed":1056003,"internal_node_id":"0.0-5.0-4.0"},{"group":"hexagon_bi","fractal_assignment":["../images/ylw_slt.png","../images/org_blu.png","../images/blu_wht.png","../images/cyn_red.png","../images/gry_blk.png","../images/pnk_blu.png"],"mutagen_generator_assignment":[0,1],"goal":4,"start":1,"action_noise":0.15,"location_history":"[1,2,3,2,3,2,1,2,3,4]","action_history":"[0,1,1,1,1,0,0,1,0]","mutagen_history":"[0,1,1,1,1,0,0,1,0]","location_rts":"[2672,599,576,1041,951,790,1007,455,469]","trial_type":"fractal-mutation","trial_index":59,"time_elapsed":1077135,"internal_node_id":"0.0-5.0-5.0"},{"group":"hexagon_bi","fractal_assignment":["../images/ylw_slt.png","../images/org_blu.png","../images/blu_wht.png","../images/cyn_red.png","../images/gry_blk.png","../images/pnk_blu.png"],"mutagen_generator_assignment":[0,1],"goal":1,"start":4,"action_noise":0.15,"location_history":"[4,3,4,5,4,5,4,3,4,5,0,1]","action_history":"[1,0,1,1,1,1,0,0,1,1,1]","mutagen_history":"[1,0,1,1,1,1,0,0,1,1,1]","location_rts":"[1683,1157,994,531,452,384,514,413,459,807,911]","trial_type":"fractal-mutation","trial_index":60,"time_elapsed":1100045,"internal_node_id":"0.0-5.0-6.0"},{"group":"hexagon_bi","fractal_assignment":["../images/ylw_slt.png","../images/org_blu.png","../images/blu_wht.png","../images/cyn_red.png","../images/gry_blk.png","../images/pnk_blu.png"],"mutagen_generator_assignment":[0,1],"goal":5,"start":1,"action_noise":0.15,"location_history":"[1,0,1,0,5]","action_history":"[1,1,1,0]","mutagen_history":"[1,1,1,0]","location_rts":"[2481,414,557,528]","trial_type":"fractal-mutation","trial_index":61,"time_elapsed":1111571,"internal_node_id":"0.0-5.0-7.0"},{"group":"hexagon_bi","fractal_assignment":["../images/ylw_slt.png","../images/org_blu.png","../images/blu_wht.png","../images/cyn_red.png","../images/gry_blk.png","../images/pnk_blu.png"],"mutagen_generator_assignment":[0,1],"goal":0,"start":5,"action_noise":0.15,"location_history":"[5,4,5,4,5,4,3,2,3,2,3,2,1,2,1,2,1,0]","action_history":"[0,1,1,1,1,0,1,1,0,1,1,0,0,0,0,0,1]","mutagen_history":"[0,1,1,1,1,0,1,1,0,1,1,0,0,0,0,0,1]","location_rts":"[2824,1459,355,344,440,538,421,454,469,441,489,357,458,1088,453,463,1763]","trial_type":"fractal-mutation","trial_index":62,"time_elapsed":1145019,"internal_node_id":"0.0-5.0-8.0"},{"group":"hexagon_bi","fractal_assignment":["../images/ylw_slt.png","../images/org_blu.png","../images/blu_wht.png","../images/cyn_red.png","../images/gry_blk.png","../images/pnk_blu.png"],"mutagen_generator_assignment":[0,1],"goal":2,"start":0,"action_noise":0.15,"location_history":"[0,5,0,5,4,3,2]","action_history":"[1,0,1,1,0,1]","mutagen_history":"[1,0,1,1,0,1]","location_rts":"[943,1293,1368,1339,826,308]","trial_type":"fractal-mutation","trial_index":63,"time_elapsed":1160636,"internal_node_id":"0.0-5.0-9.0"},{"group":"hexagon_bi","fractal_assignment":["../images/ylw_slt.png","../images/org_blu.png","../images/blu_wht.png","../images/cyn_red.png","../images/gry_blk.png","../images/pnk_blu.png"],"mutagen_generator_assignment":[0,1],"goal":3,"start":2,"action_noise":0.15,"location_history":"[2,1,0,1,2,1,0,1,0,5,0,5,4,5,4,3]","action_history":"[0,1,1,0,0,1,1,1,0,0,0,1,1,1,0]","mutagen_history":"[0,1,1,0,0,1,1,1,0,0,0,1,1,1,0]","location_rts":"[1839,560,406,247,360,320,362,307,293,395,813,236,563,537,408]","trial_type":"fractal-mutation","trial_index":64,"time_elapsed":1186900,"internal_node_id":"0.0-5.0-10.0"},{"group":"hexagon_bi","fractal_assignment":["../images/ylw_slt.png","../images/org_blu.png","../images/blu_wht.png","../images/cyn_red.png","../images/gry_blk.png","../images/pnk_blu.png"],"mutagen_generator_assignment":[0,1],"goal":0,"start":3,"action_noise":0.15,"location_history":"[3,2,1,2,3,2,1,0]","action_history":"[1,0,0,1,1,0,0]","mutagen_history":"[1,0,0,1,1,0,0]","location_rts":"[6275,809,1265,496,350,494,2530]","trial_type":"fractal-mutation","trial_index":65,"time_elapsed":1209684,"internal_node_id":"0.0-5.0-11.0"},{"group":"hexagon_bi","fractal_assignment":["../images/ylw_slt.png","../images/org_blu.png","../images/blu_wht.png","../images/cyn_red.png","../images/gry_blk.png","../images/pnk_blu.png"],"mutagen_generator_assignment":[0,1],"goal":2,"start":0,"action_noise":0.15,"location_history":"[0,1,2]","action_history":"[1,0]","mutagen_history":"[1,0]","location_rts":"[2618,3199]","trial_type":"fractal-mutation","trial_index":66,"time_elapsed":1221032,"internal_node_id":"0.0-5.0-12.0"},{"group":"hexagon_bi","fractal_assignment":["../images/ylw_slt.png","../images/org_blu.png","../images/blu_wht.png","../images/cyn_red.png","../images/gry_blk.png","../images/pnk_blu.png"],"mutagen_generator_assignment":[0,1],"goal":5,"start":2,"action_noise":0.15,"location_history":"[2,3,2,3,2,1,2,1,0,1,2,1,0,5]","action_history":"[1,1,1,1,0,0,0,1,1,0,1,1,0]","mutagen_history":"[1,1,1,1,0,0,0,1,1,0,1,1,0]","location_rts":"[1390,3117,960,844,757,308,504,407,843,386,313,2225,770]","trial_type":"fractal-mutation","trial_index":67,"time_elapsed":1250458,"internal_node_id":"0.0-5.0-13.0"},{"group":"hexagon_bi","fractal_assignment":["../images/ylw_slt.png","../images/org_blu.png","../images/blu_wht.png","../images/cyn_red.png","../images/gry_blk.png","../images/pnk_blu.png"],"mutagen_generator_assignment":[0,1],"goal":4,"start":5,"action_noise":0.15,"location_history":"[5,4]","action_history":"[0]","mutagen_history":"[0]","location_rts":"[1415]","trial_type":"fractal-mutation","trial_index":68,"time_elapsed":1256379,"internal_node_id":"0.0-5.0-14.0"},{"group":"hexagon_bi","fractal_assignment":["../images/ylw_slt.png","../images/org_blu.png","../images/blu_wht.png","../images/cyn_red.png","../images/gry_blk.png","../images/pnk_blu.png"],"mutagen_generator_assignment":[0,1],"goal":3,"start":4,"action_noise":0.15,"location_history":"[4,5,4,3]","action_history":"[1,1,0]","mutagen_history":"[1,1,0]","location_rts":"[1226,1051,523]","trial_type":"fractal-mutation","trial_index":69,"time_elapsed":1265708,"internal_node_id":"0.0-5.0-15.0"},{"group":"hexagon_bi","fractal_assignment":["../images/ylw_slt.png","../images/org_blu.png","../images/blu_wht.png","../images/cyn_red.png","../images/gry_blk.png","../images/pnk_blu.png"],"mutagen_generator_assignment":[0,1],"goal":1,"start":3,"action_noise":0.15,"location_history":"[3,2,3,4,5,0,5,4,5,0,5,0,5,4,5,4,3,2,3,4,3,4,3,2,1]","action_history":"[1,0,1,1,0,0,1,1,1,0,0,0,1,1,1,0,0,1,0,0,0,0,1,0]","mutagen_history":"[1,0,1,1,0,0,1,1,1,0,0,0,1,1,1,0,0,1,0,0,0,0,1,0]","location_rts":"[1706,4545,552,548,636,887,146,649,445,424,722,445,524,544,882,190,789,919,1998,681,289,1157,177,1460]","trial_type":"fractal-mutation","trial_index":70,"time_elapsed":1314705,"internal_node_id":"0.0-5.0-16.0"},{"group":"hexagon_bi","fractal_assignment":["../images/ylw_slt.png","../images/org_blu.png","../images/blu_wht.png","../images/cyn_red.png","../images/gry_blk.png","../images/pnk_blu.png"],"mutagen_generator_assignment":[0,1],"goal":5,"start":1,"action_noise":0.15,"location_history":"[1,0,5]","action_history":"[1,0]","mutagen_history":"[1,0]","location_rts":"[5388,2915]","trial_type":"fractal-mutation","trial_index":71,"time_elapsed":1328537,"internal_node_id":"0.0-5.0-17.0"},{"group":"hexagon_bi","fractal_assignment":["../images/ylw_slt.png","../images/org_blu.png","../images/blu_wht.png","../images/cyn_red.png","../images/gry_blk.png","../images/pnk_blu.png"],"mutagen_generator_assignment":[0,1],"goal":4,"start":5,"action_noise":0.15,"location_history":"[5,0,1,0,1,2,1,2,1,2,3,2,3,2,1,0,1,0,5,0,5,4]","action_history":"[0,1,1,1,0,1,0,0,0,1,1,1,0,0,1,1,1,0,0,0,1]","mutagen_history":"[0,1,1,1,0,1,0,0,0,1,1,1,0,0,1,1,1,0,0,0,1]","location_rts":"[1171,704,1051,667,307,810,781,489,628,316,563,754,5684,632,315,845,446,401,645,821,1259]","trial_type":"fractal-mutation","trial_index":72,"time_elapsed":1372516,"internal_node_id":"0.0-5.0-18.0"},{"group":"hexagon_bi","fractal_assignment":["../images/ylw_slt.png","../images/org_blu.png","../images/blu_wht.png","../images/cyn_red.png","../images/gry_blk.png","../images/pnk_blu.png"],"mutagen_generator_assignment":[0,1],"goal":0,"start":4,"action_noise":0.15,"location_history":"[4,3,4,3,2,1,2,3,2,3,4,3,4,3,2,3,2,1,0]","action_history":"[1,0,0,1,0,0,1,1,1,0,0,0,1,1,1,0,0,1]","mutagen_history":"[1,0,0,1,0,0,1,1,1,0,0,0,1,1,1,0,0,1]","location_rts":"[10413,438,714,324,692,564,486,1333,765,458,909,365,2402,1572,2713,1114,1307,760]","trial_type":"fractal-mutation","trial_index":73,"time_elapsed":1421513,"internal_node_id":"0.0-5.0-19.0"},{"group":"hexagon_bi","fractal_assignment":["../images/ylw_slt.png","../images/org_blu.png","../images/blu_wht.png","../images/cyn_red.png","../images/gry_blk.png","../images/pnk_blu.png"],"mutagen_generator_assignment":[0,1],"goal":1,"start":0,"action_noise":0.15,"location_history":"[0,1]","action_history":"[1]","mutagen_history":"[1]","location_rts":"[1276]","trial_type":"fractal-mutation","trial_index":74,"time_elapsed":1427294,"internal_node_id":"0.0-5.0-20.0"},{"group":"hexagon_bi","fractal_assignment":["../images/ylw_slt.png","../images/org_blu.png","../images/blu_wht.png","../images/cyn_red.png","../images/gry_blk.png","../images/pnk_blu.png"],"mutagen_generator_assignment":[0,1],"goal":3,"start":1,"action_noise":0.15,"location_history":"[1,2,3]","action_history":"[0,0]","mutagen_history":"[0,0]","location_rts":"[1185,1856]","trial_type":"fractal-mutation","trial_index":75,"time_elapsed":1435842,"internal_node_id":"0.0-5.0-21.0"},{"group":"hexagon_bi","fractal_assignment":["../images/ylw_slt.png","../images/org_blu.png","../images/blu_wht.png","../images/cyn_red.png","../images/gry_blk.png","../images/pnk_blu.png"],"mutagen_generator_assignment":[0,1],"goal":2,"start":3,"action_noise":0.15,"location_history":"[3,2]","action_history":"[1]","mutagen_history":"[1]","location_rts":"[884]","trial_type":"fractal-mutation","trial_index":76,"time_elapsed":1441238,"internal_node_id":"0.0-5.0-22.0"},{"group":"hexagon_bi","fractal_assignment":["../images/ylw_slt.png","../images/org_blu.png","../images/blu_wht.png","../images/cyn_red.png","../images/gry_blk.png","../images/pnk_blu.png"],"mutagen_generator_assignment":[0,1],"goal":0,"start":2,"action_noise":0.15,"location_history":"[2,1,2,1,0]","action_history":"[1,0,0,1]","mutagen_history":"[1,0,0,1]","location_rts":"[1678,829,1670,2228]","trial_type":"fractal-mutation","trial_index":77,"time_elapsed":1455173,"internal_node_id":"0.0-5.0-23.0"},{"group":"hexagon_bi","fractal_assignment":["../images/ylw_slt.png","../images/org_blu.png","../images/blu_wht.png","../images/cyn_red.png","../images/gry_blk.png","../images/pnk_blu.png"],"mutagen_generator_assignment":[0,1],"goal":3,"start":0,"action_noise":0.15,"location_history":"[0,5,0,1,2,3]","action_history":"[0,1,1,0,1]","mutagen_history":"[0,1,1,0,1]","location_rts":"[2234,1446,897,2590,1197]","trial_type":"fractal-mutation","trial_index":78,"time_elapsed":1472073,"internal_node_id":"0.0-5.0-24.0"},{"group":"hexagon_bi","fractal_assignment":["../images/ylw_slt.png","../images/org_blu.png","../images/blu_wht.png","../images/cyn_red.png","../images/gry_blk.png","../images/pnk_blu.png"],"mutagen_generator_assignment":[0,1],"goal":1,"start":3,"action_noise":0.15,"location_history":"[3,4,5,4,3,2,3,4,5,0,1]","action_history":"[0,1,1,0,1,1,0,1,0,1]","mutagen_history":"[0,1,1,0,1,1,0,1,0,1]","location_rts":"[2765,1892,1359,3758,2681,2028,1707,5604,1750,1255]","trial_type":"fractal-mutation","trial_index":79,"time_elapsed":1510461,"internal_node_id":"0.0-5.0-25.0"},{"group":"hexagon_bi","fractal_assignment":["../images/ylw_slt.png","../images/org_blu.png","../images/blu_wht.png","../images/cyn_red.png","../images/gry_blk.png","../images/pnk_blu.png"],"mutagen_generator_assignment":[0,1],"goal":2,"start":1,"action_noise":0.15,"location_history":"[1,0,5,4,5,0,5,0,1,2]","action_history":"[1,0,1,1,0,0,0,1,1]","mutagen_history":"[1,0,1,1,0,0,0,1,1]","location_rts":"[1979,1369,570,754,719,563,532,377,1601]","trial_type":"fractal-mutation","trial_index":80,"time_elapsed":1531507,"internal_node_id":"0.0-5.0-26.0"},{"group":"hexagon_bi","fractal_assignment":["../images/ylw_slt.png","../images/org_blu.png","../images/blu_wht.png","../images/cyn_red.png","../images/gry_blk.png","../images/pnk_blu.png"],"mutagen_generator_assignment":[0,1],"goal":5,"start":2,"action_noise":0.15,"location_history":"[2,3,4,3,2,3,2,1,0,1,0,5]","action_history":"[1,0,0,1,1,1,0,1,1,1,0]","mutagen_history":"[1,0,0,1,1,1,0,1,1,1,0]","location_rts":"[6169,755,11658,1137,1290,1954,836,4778,1561,3915,714]","trial_type":"fractal-mutation","trial_index":81,"time_elapsed":1580922,"internal_node_id":"0.0-5.0-27.0"},{"group":"hexagon_bi","fractal_assignment":["../images/ylw_slt.png","../images/org_blu.png","../images/blu_wht.png","../images/cyn_red.png","../images/gry_blk.png","../images/pnk_blu.png"],"mutagen_generator_assignment":[0,1],"goal":4,"start":5,"action_noise":0.15,"location_history":"[5,4]","action_history":"[1]","mutagen_history":"[1]","location_rts":"[5151]","trial_type":"fractal-mutation","trial_index":82,"time_elapsed":1590591,"internal_node_id":"0.0-5.0-28.0"},{"group":"hexagon_bi","fractal_assignment":["../images/ylw_slt.png","../images/org_blu.png","../images/blu_wht.png","../images/cyn_red.png","../images/gry_blk.png","../images/pnk_blu.png"],"mutagen_generator_assignment":[0,1],"goal":5,"start":4,"action_noise":0.15,"location_history":"[4,3,4,5]","action_history":"[0,1,1]","mutagen_history":"[0,1,1]","location_rts":"[656,745,392]","trial_type":"fractal-mutation","trial_index":83,"time_elapsed":1598929,"internal_node_id":"0.0-5.0-29.0"},{"group":"hexagon_bi","fractal_assignment":["../images/ylw_slt.png","../images/org_blu.png","../images/blu_wht.png","../images/cyn_red.png","../images/gry_blk.png","../images/pnk_blu.png"],"mutagen_generator_assignment":[0,1],"goal":3,"start":5,"action_noise":0.15,"location_history":"[5,4,5,0,1,2,1,0,5,0,1,2,1,2,3]","action_history":"[1,0,0,1,1,0,1,0,0,1,0,0,0,1]","mutagen_history":"[1,0,0,1,1,0,1,0,0,1,0,0,0,1]","location_rts":"[2768,2279,1135,763,934,1664,1904,773,777,271,742,955,616,307]","trial_type":"fractal-mutation","trial_index":84,"time_elapsed":1632458,"internal_node_id":"0.0-5.0-30.0"},{"group":"hexagon_bi","fractal_assignment":["../images/ylw_slt.png","../images/org_blu.png","../images/blu_wht.png","../images/cyn_red.png","../images/gry_blk.png","../images/pnk_blu.png"],"mutagen_generator_assignment":[0,1],"goal":0,"start":3,"action_noise":0.15,"location_history":"[3,2,1,0]","action_history":"[1,0,0]","mutagen_history":"[1,0,0]","location_rts":"[2938,2196,1833]","trial_type":"fractal-mutation","trial_index":85,"time_elapsed":1645963,"internal_node_id":"0.0-5.0-31.0"},{"group":"hexagon_bi","fractal_assignment":["../images/ylw_slt.png","../images/org_blu.png","../images/blu_wht.png","../images/cyn_red.png","../images/gry_blk.png","../images/pnk_blu.png"],"mutagen_generator_assignment":[0,1],"goal":4,"start":0,"action_noise":0.15,"location_history":"[0,1,2,1,0,1,2,1,0,5,0,1,0,1,2,1,2,1,0,1,2,3,2,1,0,1,2,1,2,3,2,3,2,1,2,1,2,1,2,3,2,3,4]","action_history":"[1,0,0,0,1,1,0,1,1,0,1,1,1,0,0,0,1,1,1,0,1,0,1,1,1,0,0,0,1,1,1,1,1,0,0,0,0,0,1,1,1,0]","mutagen_history":"[1,0,0,0,1,1,0,1,1,0,1,1,1,0,0,0,1,1,1,0,1,0,1,1,1,0,0,0,1,1,1,1,1,0,0,0,0,0,1,1,1,0]","location_rts":"[1073,678,689,721,355,620,356,799,2511,1325,958,747,571,473,786,546,303,449,893,545,104,1342,756,315,611,311,247,416,48,819,772,327,290,346,452,219,81,19,57,123,13,30]","trial_type":"fractal-mutation","trial_index":86,"time_elapsed":1714986,"internal_node_id":"0.0-5.0-32.0"},{"group":"hexagon_bi","fractal_assignment":["../images/ylw_slt.png","../images/org_blu.png","../images/blu_wht.png","../images/cyn_red.png","../images/gry_blk.png","../images/pnk_blu.png"],"mutagen_generator_assignment":[0,1],"goal":1,"start":4,"action_noise":0.15,"location_history":"[4,3,2,3,4,3,2,3,2,3,4,3,4,5,0,1]","action_history":"[0,0,1,0,0,1,1,1,0,0,0,0,1,0,1]","mutagen_history":"[0,0,1,0,0,1,1,1,0,0,0,0,1,0,1]","location_rts":"[3530,1241,643,412,821,562,3833,700,257,562,818,691,285,1045,908]","trial_type":"fractal-mutation","trial_index":87,"time_elapsed":1749901,"internal_node_id":"0.0-5.0-33.0"},{"group":"hexagon_bi","fractal_assignment":["../images/ylw_slt.png","../images/org_blu.png","../images/blu_wht.png","../images/cyn_red.png","../images/gry_blk.png","../images/pnk_blu.png"],"mutagen_generator_assignment":[0,1],"goal":2,"start":1,"action_noise":0.15,"location_history":"[1,2]","action_history":"[1]","mutagen_history":"[1]","location_rts":"[2173]","trial_type":"fractal-mutation","trial_index":88,"time_elapsed":1756592,"internal_node_id":"0.0-5.0-34.0"},{"group":"hexagon_bi","fractal_assignment":["../images/ylw_slt.png","../images/org_blu.png","../images/blu_wht.png","../images/cyn_red.png","../images/gry_blk.png","../images/pnk_blu.png"],"mutagen_generator_assignment":[0,1],"goal":0,"start":2,"action_noise":0.15,"location_history":"[2,3,2,1,2,3,4,3,2,1,2,1,2,3,2,3,4,3,4,3,2,1,2,1,0]","action_history":"[1,1,0,0,1,0,0,1,0,0,0,1,1,1,1,0,0,0,1,1,0,0,0,1]","mutagen_history":"[1,1,0,0,1,0,0,1,0,0,0,1,1,1,1,0,0,0,1,1,0,0,0,1]","location_rts":"[1236,669,310,1216,544,323,698,745,500,266,421,250,704,644,511,24,936,723,492,933,2705,1555,1620,257]","trial_type":"fractal-mutation","trial_index":89,"time_elapsed":1802588,"internal_node_id":"0.0-5.0-35.0"},{"group":"hexagon_bi","fractal_assignment":["../images/ylw_slt.png","../images/org_blu.png","../images/blu_wht.png","../images/cyn_red.png","../images/gry_blk.png","../images/pnk_blu.png"],"mutagen_generator_assignment":[0,1],"goal":5,"start":0,"action_noise":0.15,"location_history":"[0,1,2,1,2,3,4,3,2,1,2,3,2,3,2,1,0,1,2,1,0,5]","action_history":"[1,0,0,0,1,0,1,1,0,0,1,1,1,1,0,1,1,0,0,1,1]","mutagen_history":"[1,0,0,0,1,0,1,1,0,0,1,1,1,1,0,1,1,0,0,1,1]","location_rts":"[2608,348,319,176,110,558,811,989,353,577,471,325,419,908,471,1279,1133,613,740,688,899]","trial_type":"fractal-mutation","trial_index":90,"time_elapsed":1842043,"internal_node_id":"0.0-5.0-36.0"},{"group":"hexagon_bi","fractal_assignment":["../images/ylw_slt.png","../images/org_blu.png","../images/blu_wht.png","../images/cyn_red.png","../images/gry_blk.png","../images/pnk_blu.png"],"mutagen_generator_assignment":[0,1],"goal":2,"start":5,"action_noise":0.15,"location_history":"[5,0,1,0,5,4,3,2]","action_history":"[0,1,1,0,1,0,1]","mutagen_history":"[0,1,1,0,1,0,1]","location_rts":"[1122,408,608,400,583,852,614]","trial_type":"fractal-mutation","trial_index":91,"time_elapsed":1857209,"internal_node_id":"0.0-5.0-37.0"},{"group":"hexagon_bi","fractal_assignment":["../images/ylw_slt.png","../images/org_blu.png","../images/blu_wht.png","../images/cyn_red.png","../images/gry_blk.png","../images/pnk_blu.png"],"mutagen_generator_assignment":[0,1],"goal":1,"start":2,"action_noise":0.15,"location_history":"[2,1]","action_history":"[0]","mutagen_history":"[0]","location_rts":"[1374]","trial_type":"fractal-mutation","trial_index":92,"time_elapsed":1863089,"internal_node_id":"0.0-5.0-38.0"},{"group":"hexagon_bi","fractal_assignment":["../images/ylw_slt.png","../images/org_blu.png","../images/blu_wht.png","../images/cyn_red.png","../images/gry_blk.png","../images/pnk_blu.png"],"mutagen_generator_assignment":[0,1],"goal":4,"start":1,"action_noise":0.15,"location_history":"[1,0,1,2,3,2,3,2,3,4]","action_history":"[1,1,0,1,0,1,1,1,0]","mutagen_history":"[1,1,0,1,0,1,1,1,0]","location_rts":"[2638,406,542,241,985,839,280,433,256]","trial_type":"fractal-mutation","trial_index":93,"time_elapsed":1882310,"internal_node_id":"0.0-5.0-39.0"},{"group":"hexagon_bi","fractal_assignment":["../images/ylw_slt.png","../images/org_blu.png","../images/blu_wht.png","../images/cyn_red.png","../images/gry_blk.png","../images/pnk_blu.png"],"mutagen_generator_assignment":[0,1],"goal":3,"start":4,"action_noise":0.15,"location_history":"[4,3]","action_history":"[1]","mutagen_history":"[1]","location_rts":"[3313]","trial_type":"fractal-mutation","trial_index":94,"time_elapsed":1890154,"internal_node_id":"0.0-5.0-40.0"},{"group":"hexagon_bi","fractal_assignment":["../images/ylw_slt.png","../images/org_blu.png","../images/blu_wht.png","../images/cyn_red.png","../images/gry_blk.png","../images/pnk_blu.png"],"mutagen_generator_assignment":[0,1],"goal":5,"start":3,"action_noise":0.15,"location_history":"[3,2,3,4,5]","action_history":"[1,1,0,1]","mutagen_history":"[1,1,0,1]","location_rts":"[1388,1742,391,290]","trial_type":"fractal-mutation","trial_index":95,"time_elapsed":1901508,"internal_node_id":"0.0-5.0-41.0"},{"group":"hexagon_bi","fractal_assignment":["../images/ylw_slt.png","../images/org_blu.png","../images/blu_wht.png","../images/cyn_red.png","../images/gry_blk.png","../images/pnk_blu.png"],"mutagen_generator_assignment":[0,1],"goal":3,"start":5,"action_noise":0.15,"location_history":"[5,4,3]","action_history":"[1,0]","mutagen_history":"[1,0]","location_rts":"[620,1613]","trial_type":"fractal-mutation","trial_index":96,"time_elapsed":1909282,"internal_node_id":"0.0-5.0-42.0"},{"group":"hexagon_bi","fractal_assignment":["../images/ylw_slt.png","../images/org_blu.png","../images/blu_wht.png","../images/cyn_red.png","../images/gry_blk.png","../images/pnk_blu.png"],"mutagen_generator_assignment":[0,1],"goal":0,"start":3,"action_noise":0.15,"location_history":"[3,4,5,0]","action_history":"[0,1,0]","mutagen_history":"[0,1,0]","location_rts":"[2861,3230,1104]","trial_type":"fractal-mutation","trial_index":97,"time_elapsed":1923011,"internal_node_id":"0.0-5.0-43.0"},{"group":"hexagon_bi","fractal_assignment":["../images/ylw_slt.png","../images/org_blu.png","../images/blu_wht.png","../images/cyn_red.png","../images/gry_blk.png","../images/pnk_blu.png"],"mutagen_generator_assignment":[0,1],"goal":2,"start":0,"action_noise":0.15,"location_history":"[0,1,2]","action_history":"[1,0]","mutagen_history":"[1,0]","location_rts":"[1411,581]","trial_type":"fractal-mutation","trial_index":98,"time_elapsed":1930525,"internal_node_id":"0.0-5.0-44.0"},{"group":"hexagon_bi","fractal_assignment":["../images/ylw_slt.png","../images/org_blu.png","../images/blu_wht.png","../images/cyn_red.png","../images/gry_blk.png","../images/pnk_blu.png"],"mutagen_generator_assignment":[0,1],"goal":4,"start":2,"action_noise":0.15,"location_history":"[2,3,4]","action_history":"[1,0]","mutagen_history":"[1,0]","location_rts":"[1136,538]","trial_type":"fractal-mutation","trial_index":99,"time_elapsed":1937733,"internal_node_id":"0.0-5.0-45.0"},{"group":"hexagon_bi","fractal_assignment":["../images/ylw_slt.png","../images/org_blu.png","../images/blu_wht.png","../images/cyn_red.png","../images/gry_blk.png","../images/pnk_blu.png"],"mutagen_generator_assignment":[0,1],"goal":1,"start":4,"action_noise":0.15,"location_history":"[4,3,2,3,4,3,2,3,2,3,4,3,2,3,2,1]","action_history":"[1,1,0,0,0,1,1,1,0,0,0,1,1,0,0]","mutagen_history":"[1,1,0,0,0,1,1,1,0,0,0,1,1,0,0]","location_rts":"[2001,397,273,866,981,387,1507,771,179,628,842,19288,14211,452,292]","trial_type":"fractal-mutation","trial_index":100,"time_elapsed":1999471,"internal_node_id":"0.0-5.0-46.0"},{"group":"hexagon_bi","fractal_assignment":["../images/ylw_slt.png","../images/org_blu.png","../images/blu_wht.png","../images/cyn_red.png","../images/gry_blk.png","../images/pnk_blu.png"],"mutagen_generator_assignment":[0,1],"goal":4,"start":1,"action_noise":0.15,"location_history":"[1,0,1,2,1,0,1,0,5,0,5,4]","action_history":"[1,1,0,0,1,1,1,0,0,0,1]","mutagen_history":"[1,1,0,0,1,1,1,0,0,0,1]","location_rts":"[3292,5557,777,1706,914,9042,2921,680,747,388,243]","trial_type":"fractal-mutation","trial_index":101,"time_elapsed":2040343,"internal_node_id":"0.0-5.0-47.0"},{"group":"hexagon_bi","fractal_assignment":["../images/ylw_slt.png","../images/org_blu.png","../images/blu_wht.png","../images/cyn_red.png","../images/gry_blk.png","../images/pnk_blu.png"],"mutagen_generator_assignment":[0,1],"goal":3,"start":4,"action_noise":0.15,"location_history":"[4,5,4,5,0,5,0,5,4,3]","action_history":"[1,1,0,0,0,0,0,1,0]","mutagen_history":"[1,1,0,0,0,0,0,1,0]","location_rts":"[5892,4157,994,419,432,357,518,221,665]","trial_type":"fractal-mutation","trial_index":102,"time_elapsed":2066554,"internal_node_id":"0.0-5.0-48.0"},{"group":"hexagon_bi","fractal_assignment":["../images/ylw_slt.png","../images/org_blu.png","../images/blu_wht.png","../images/cyn_red.png","../images/gry_blk.png","../images/pnk_blu.png"],"mutagen_generator_assignment":[0,1],"goal":5,"start":3,"action_noise":0.15,"location_history":"[3,2,3,4,5]","action_history":"[1,1,0,1]","mutagen_history":"[1,1,0,1]","location_rts":"[4463,2089,503,260]","trial_type":"fractal-mutation","trial_index":103,"time_elapsed":2081421,"internal_node_id":"0.0-5.0-49.0"},{"view_history":"[{\"page_index\":0,\"viewing_time\":12382}]","rt":12383,"trial_type":"instructions","trial_index":104,"time_elapsed":2094804,"internal_node_id":"0.0-6.0"},{"rt":20908,"responses":"{\"Q0\":\"Thank you for the HIT opportunity and best of luck on your research!\"}","trial_type":"survey-text","trial_index":105,"time_elapsed":2116725,"internal_node_id":"0.0-7.0"}]