[{"view_history":"[{\"page_index\":0,\"viewing_time\":21526},{\"page_index\":1,\"viewing_time\":5885},{\"page_index\":2,\"viewing_time\":53376},{\"page_index\":3,\"viewing_time\":4365}]","rt":85157,"trial_type":"instructions","trial_index":0,"time_elapsed":85160,"internal_node_id":"0.0-0.0"},{"view_history":"[{\"page_index\":0,\"viewing_time\":2572},{\"page_index\":1,\"viewing_time\":12207}]","rt":14781,"trial_type":"instructions","trial_index":1,"time_elapsed":100944,"internal_node_id":"0.0-1.0"},{"group":"hexagon_bi","room_assignment":["blue","green","yellow","red","purple","grey"],"door_color_assignment":["black","white"],"door_generator_assignment":[1,0],"goal":4,"start":0,"action_noise":0.15,"location_history":"[0,5,4]","action_history":"[0,1]","door_history":"[1,0]","location_rts":"[5174,1461]","trial_type":"two-door-navigation","trial_index":2,"time_elapsed":113123,"internal_node_id":"0.0-2.0-0.0"},{"group":"hexagon_bi","room_assignment":["blue","green","yellow","red","purple","grey"],"door_color_assignment":["black","white"],"door_generator_assignment":[1,0],"goal":3,"start":4,"action_noise":0.15,"location_history":"[4,5,4,3]","action_history":"[1,1,0]","door_history":"[0,0,1]","location_rts":"[2059,887,952]","trial_type":"two-door-navigation","trial_index":3,"time_elapsed":123558,"internal_node_id":"0.0-2.0-1.0"},{"group":"hexagon_bi","room_assignment":["blue","green","yellow","red","purple","grey"],"door_color_assignment":["black","white"],"door_generator_assignment":[1,0],"goal":5,"start":3,"action_noise":0.15,"location_history":"[3,2,1,2,1,2,3,2,3,4,5]","action_history":"[1,0,0,0,1,1,1,1,0,1]","door_history":"[0,1,1,1,0,0,0,0,1,0]","location_rts":"[2588,829,830,1102,1603,735,953,731,1499,1781]","trial_type":"two-door-navigation","trial_index":4,"time_elapsed":149821,"internal_node_id":"0.0-2.0-2.0"},{"group":"hexagon_bi","room_assignment":["blue","green","yellow","red","purple","grey"],"door_color_assignment":["black","white"],"door_generator_assignment":[1,0],"goal":2,"start":5,"action_noise":0.15,"location_history":"[5,4,3,2]","action_history":"[1,0,1]","door_history":"[0,1,0]","location_rts":"[2428,1072,2134]","trial_type":"two-door-navigation","trial_index":5,"time_elapsed":161998,"internal_node_id":"0.0-2.0-3.0"},{"group":"hexagon_bi","room_assignment":["blue","green","yellow","red","purple","grey"],"door_color_assignment":["black","white"],"door_generator_assignment":[1,0],"goal":1,"start":2,"action_noise":0.15,"location_history":"[2,1]","action_history":"[0]","door_history":"[1]","location_rts":"[2486]","trial_type":"two-door-navigation","trial_index":6,"time_elapsed":169000,"internal_node_id":"0.0-2.0-4.0"},{"group":"hexagon_bi","room_assignment":["blue","green","yellow","red","purple","grey"],"door_color_assignment":["black","white"],"door_generator_assignment":[1,0],"goal":4,"start":1,"action_noise":0.15,"location_history":"[1,2,3,4]","action_history":"[0,1,0]","door_history":"[1,0,1]","location_rts":"[25931,1409,1329]","trial_type":"two-door-navigation","trial_index":7,"time_elapsed":204207,"internal_node_id":"0.0-2.0-5.0"},{"group":"hexagon_bi","room_assignment":["blue","green","yellow","red","purple","grey"],"door_color_assignment":["black","white"],"door_generator_assignment":[1,0],"goal":1,"start":4,"action_noise":0.15,"location_history":"[4,3,2,1]","action_history":"[0,1,0]","door_history":"[1,0,1]","location_rts":"[9071,628,884]","trial_type":"two-door-navigation","trial_index":8,"time_elapsed":221321,"internal_node_id":"0.0-2.0-6.0"},{"group":"hexagon_bi","room_assignment":["blue","green","yellow","red","purple","grey"],"door_color_assignment":["black","white"],"door_generator_assignment":[1,0],"goal":5,"start":1,"action_noise":0.15,"location_history":"[1,0,1,0,1,2,3,2,3,2,3,2,1,0,5]","action_history":"[1,0,1,1,1,1,0,1,1,1,1,0,0,0]","door_history":"[0,1,0,0,0,0,1,0,0,0,0,1,1,1]","location_rts":"[8800,1312,1923,946,1529,1564,1065,1130,924,535,519,2046,452,542]","trial_type":"two-door-navigation","trial_index":9,"time_elapsed":262236,"internal_node_id":"0.0-2.0-7.0"},{"group":"hexagon_bi","room_assignment":["blue","green","yellow","red","purple","grey"],"door_color_assignment":["black","white"],"door_generator_assignment":[1,0],"goal":0,"start":5,"action_noise":0.15,"location_history":"[5,4,5,0]","action_history":"[0,1,0]","door_history":"[1,0,1]","location_rts":"[10089,1080,691]","trial_type":"two-door-navigation","trial_index":10,"time_elapsed":280635,"internal_node_id":"0.0-2.0-8.0"},{"group":"hexagon_bi","room_assignment":["blue","green","yellow","red","purple","grey"],"door_color_assignment":["black","white"],"door_generator_assignment":[1,0],"goal":2,"start":0,"action_noise":0.15,"location_history":"[0,5,0,1,2]","action_history":"[0,0,1,0]","door_history":"[1,1,0,1]","location_rts":"[2356,5862,915,1260]","trial_type":"two-door-navigation","trial_index":11,"time_elapsed":298564,"internal_node_id":"0.0-2.0-9.0"},{"group":"hexagon_bi","room_assignment":["blue","green","yellow","red","purple","grey"],"door_color_assignment":["black","white"],"door_generator_assignment":[1,0],"goal":3,"start":2,"action_noise":0.15,"location_history":"[2,3]","action_history":"[0]","door_history":"[1]","location_rts":"[3324]","trial_type":"two-door-navigation","trial_index":12,"time_elapsed":306398,"internal_node_id":"0.0-2.0-10.0"},{"group":"hexagon_bi","room_assignment":["blue","green","yellow","red","purple","grey"],"door_color_assignment":["black","white"],"door_generator_assignment":[1,0],"goal":0,"start":3,"action_noise":0.15,"location_history":"[3,4,3,4,5,0]","action_history":"[0,0,0,1,0]","door_history":"[1,1,1,0,1]","location_rts":"[9200,1499,625,1440,1567]","trial_type":"two-door-navigation","trial_index":13,"time_elapsed":329276,"internal_node_id":"0.0-2.0-11.0"},{"group":"hexagon_bi","room_assignment":["blue","green","yellow","red","purple","grey"],"door_color_assignment":["black","white"],"door_generator_assignment":[1,0],"goal":2,"start":0,"action_noise":0.15,"location_history":"[0,1,2]","action_history":"[0,0]","door_history":"[1,1]","location_rts":"[3298,708]","trial_type":"two-door-navigation","trial_index":14,"time_elapsed":338811,"internal_node_id":"0.0-2.0-12.0"},{"group":"hexagon_bi","room_assignment":["blue","green","yellow","red","purple","grey"],"door_color_assignment":["black","white"],"door_generator_assignment":[1,0],"goal":5,"start":2,"action_noise":0.15,"location_history":"[2,1,2,1,2,1,2,3,2,1,0,1,0,5]","action_history":"[0,0,0,1,0,0,1,0,1,1,1,1,0]","door_history":"[1,1,1,0,1,1,0,1,0,0,0,0,1]","location_rts":"[17136,739,1557,323,1155,461,1420,1208,943,253,1021,1396,1293]","trial_type":"two-door-navigation","trial_index":15,"time_elapsed":384351,"internal_node_id":"0.0-2.0-13.0"},{"group":"hexagon_bi","room_assignment":["blue","green","yellow","red","purple","grey"],"door_color_assignment":["black","white"],"door_generator_assignment":[1,0],"goal":4,"start":5,"action_noise":0.15,"location_history":"[5,0,1,2,1,2,1,0,1,2,3,2,3,2,1,2,1,0,1,2,3,2,1,0,1,2,1,0,5,0,1,2,3,2,1,0,1,2,3,4]","action_history":"[0,1,0,0,0,0,1,1,0,0,0,0,1,0,0,1,1,1,0,1,1,0,1,1,0,0,1,0,0,1,0,1,1,0,1,1,0,0,0]","door_history":"[1,0,1,1,1,1,0,0,1,1,1,1,0,1,1,0,0,0,1,0,0,1,0,0,1,1,0,1,1,0,1,0,0,1,0,0,1,1,1]","location_rts":"[13634,1142,437,1222,1189,427,1296,892,2587,923,2386,774,243,1709,811,405,690,1402,770,862,630,815,477,1272,384,436,626,283,1350,972,1127,368,306,331,303,354,352,281,302]","trial_type":"two-door-navigation","trial_index":16,"time_elapsed":471958,"internal_node_id":"0.0-2.0-14.0"},{"group":"hexagon_bi","room_assignment":["blue","green","yellow","red","purple","grey"],"door_color_assignment":["black","white"],"door_generator_assignment":[1,0],"goal":3,"start":4,"action_noise":0.15,"location_history":"[4,3]","action_history":"[0]","door_history":"[1]","location_rts":"[7858]","trial_type":"two-door-navigation","trial_index":17,"time_elapsed":484327,"internal_node_id":"0.0-2.0-15.0"},{"group":"hexagon_bi","room_assignment":["blue","green","yellow","red","purple","grey"],"door_color_assignment":["black","white"],"door_generator_assignment":[1,0],"goal":1,"start":3,"action_noise":0.15,"location_history":"[3,4,5,4,3,4,5,4,3,4,3,4,3,4,5,0,1]","action_history":"[0,1,1,0,0,0,1,0,0,0,0,0,1,0,0,1]","door_history":"[1,0,0,1,1,1,0,1,1,1,1,1,0,1,1,0]","location_rts":"[8412,636,844,1010,1125,2769,1460,1085,410,298,297,679,996,414,699,1085]","trial_type":"two-door-navigation","trial_index":18,"time_elapsed":526194,"internal_node_id":"0.0-2.0-16.0"},{"group":"hexagon_bi","room_assignment":["blue","green","yellow","red","purple","grey"],"door_color_assignment":["black","white"],"door_generator_assignment":[1,0],"goal":5,"start":1,"action_noise":0.15,"location_history":"[1,2,3,4,3,2,3,4,5]","action_history":"[0,0,1,0,1,1,0,1]","door_history":"[1,1,0,1,0,0,1,0]","location_rts":"[4654,1603,399,423,708,266,336,136]","trial_type":"two-door-navigation","trial_index":19,"time_elapsed":546293,"internal_node_id":"0.0-2.0-17.0"},{"group":"hexagon_bi","room_assignment":["blue","green","yellow","red","purple","grey"],"door_color_assignment":["black","white"],"door_generator_assignment":[1,0],"goal":4,"start":5,"action_noise":0.15,"location_history":"[5,0,1,2,3,4]","action_history":"[0,1,1,0,0]","door_history":"[1,0,0,1,1]","location_rts":"[2392,804,401,250,326]","trial_type":"two-door-navigation","trial_index":20,"time_elapsed":559027,"internal_node_id":"0.0-2.0-18.0"},{"group":"hexagon_bi","room_assignment":["blue","green","yellow","red","purple","grey"],"door_color_assignment":["black","white"],"door_generator_assignment":[1,0],"goal":0,"start":4,"action_noise":0.15,"location_history":"[4,3,2,3,4,5,4,3,4,5,0]","action_history":"[0,1,0,0,1,1,0,0,1,0]","door_history":"[1,0,1,1,0,0,1,1,0,1]","location_rts":"[15459,336,536,396,703,719,344,873,421,363]","trial_type":"two-door-navigation","trial_index":21,"time_elapsed":593570,"internal_node_id":"0.0-2.0-19.0"},{"group":"hexagon_bi","room_assignment":["blue","green","yellow","red","purple","grey"],"door_color_assignment":["black","white"],"door_generator_assignment":[1,0],"goal":1,"start":0,"action_noise":0.15,"location_history":"[0,5,0,1]","action_history":"[0,1,1]","door_history":"[1,0,0]","location_rts":"[9468,354,383]","trial_type":"two-door-navigation","trial_index":22,"time_elapsed":611350,"internal_node_id":"0.0-2.0-20.0"},{"group":"hexagon_bi","room_assignment":["blue","green","yellow","red","purple","grey"],"door_color_assignment":["black","white"],"door_generator_assignment":[1,0],"goal":3,"start":1,"action_noise":0.15,"location_history":"[1,2,3]","action_history":"[0,1]","door_history":"[1,0]","location_rts":"[43628,294]","trial_type":"two-door-navigation","trial_index":23,"time_elapsed":660791,"internal_node_id":"0.0-2.0-21.0"},{"group":"hexagon_bi","room_assignment":["blue","green","yellow","red","purple","grey"],"door_color_assignment":["black","white"],"door_generator_assignment":[1,0],"goal":2,"start":3,"action_noise":0.15,"location_history":"[3,2]","action_history":"[1]","door_history":"[0]","location_rts":"[883]","trial_type":"two-door-navigation","trial_index":24,"time_elapsed":666184,"internal_node_id":"0.0-2.0-22.0"},{"group":"hexagon_bi","room_assignment":["blue","green","yellow","red","purple","grey"],"door_color_assignment":["black","white"],"door_generator_assignment":[1,0],"goal":0,"start":2,"action_noise":0.15,"location_history":"[2,1,2,3,2,1,2,3,2,1,2,1,0]","action_history":"[0,1,1,0,0,0,1,1,0,0,0,1]","door_history":"[1,0,0,1,1,1,0,0,1,1,1,0]","location_rts":"[514,340,384,371,412,439,631,395,476,510,647,396]","trial_type":"two-door-navigation","trial_index":25,"time_elapsed":687321,"internal_node_id":"0.0-2.0-23.0"},{"group":"hexagon_bi","room_assignment":["blue","green","yellow","red","purple","grey"],"door_color_assignment":["black","white"],"door_generator_assignment":[1,0],"goal":3,"start":0,"action_noise":0.15,"location_history":"[0,5,0,1,0,1,0,5,4,5,4,3]","action_history":"[1,0,1,1,0,1,0,1,1,1,0]","door_history":"[0,1,0,0,1,0,1,0,0,0,1]","location_rts":"[1152,1035,860,372,617,329,381,1351,412,413,432]","trial_type":"two-door-navigation","trial_index":26,"time_elapsed":709277,"internal_node_id":"0.0-2.0-24.0"},{"group":"hexagon_bi","room_assignment":["blue","green","yellow","red","purple","grey"],"door_color_assignment":["black","white"],"door_generator_assignment":[1,0],"goal":1,"start":3,"action_noise":0.15,"location_history":"[3,2,3,4,5,4,5,0,5,4,3,2,3,2,1]","action_history":"[1,0,0,1,1,0,0,0,1,0,1,1,1,0]","door_history":"[0,1,1,0,0,1,1,1,0,1,0,0,0,1]","location_rts":"[26638,390,386,953,387,412,423,559,377,556,330,533,537,387]","trial_type":"two-door-navigation","trial_index":27,"time_elapsed":759784,"internal_node_id":"0.0-2.0-25.0"},{"group":"hexagon_bi","room_assignment":["blue","green","yellow","red","purple","grey"],"door_color_assignment":["black","white"],"door_generator_assignment":[1,0],"goal":2,"start":1,"action_noise":0.15,"location_history":"[1,0,5,0,1,2]","action_history":"[1,0,0,1,0]","door_history":"[0,1,1,0,1]","location_rts":"[7422,1019,430,580,30]","trial_type":"two-door-navigation","trial_index":28,"time_elapsed":777818,"internal_node_id":"0.0-2.0-26.0"},{"group":"hexagon_bi","room_assignment":["blue","green","yellow","red","purple","grey"],"door_color_assignment":["black","white"],"door_generator_assignment":[1,0],"goal":5,"start":2,"action_noise":0.15,"location_history":"[2,1,0,5]","action_history":"[0,1,0]","door_history":"[1,0,1]","location_rts":"[2038,475,741]","trial_type":"two-door-navigation","trial_index":29,"time_elapsed":787615,"internal_node_id":"0.0-2.0-27.0"},{"group":"hexagon_bi","room_assignment":["blue","green","yellow","red","purple","grey"],"door_color_assignment":["black","white"],"door_generator_assignment":[1,0],"goal":4,"start":5,"action_noise":0.15,"location_history":"[5,0,1,2,3,4]","action_history":"[0,1,0,1,0]","door_history":"[1,0,1,0,1]","location_rts":"[7279,1775,329,431,386]","trial_type":"two-door-navigation","trial_index":30,"time_elapsed":806363,"internal_node_id":"0.0-2.0-28.0"},{"group":"hexagon_bi","room_assignment":["blue","green","yellow","red","purple","grey"],"door_color_assignment":["black","white"],"door_generator_assignment":[1,0],"goal":5,"start":4,"action_noise":0.15,"location_history":"[4,5]","action_history":"[1]","door_history":"[0]","location_rts":"[14884]","trial_type":"two-door-navigation","trial_index":31,"time_elapsed":825759,"internal_node_id":"0.0-2.0-29.0"},{"group":"hexagon_bi","room_assignment":["blue","green","yellow","red","purple","grey"],"door_color_assignment":["black","white"],"door_generator_assignment":[1,0],"goal":3,"start":5,"action_noise":0.15,"location_history":"[5,4,5,0,1,0,1,2,3]","action_history":"[0,1,0,1,0,1,0,1]","door_history":"[1,0,1,0,1,0,1,0]","location_rts":"[7361,987,343,1057,450,405,987,427]","trial_type":"two-door-navigation","trial_index":32,"time_elapsed":849369,"internal_node_id":"0.0-2.0-30.0"},{"group":"hexagon_bi","room_assignment":["blue","green","yellow","red","purple","grey"],"door_color_assignment":["black","white"],"door_generator_assignment":[1,0],"goal":0,"start":3,"action_noise":0.15,"location_history":"[3,4,5,4,5,0]","action_history":"[0,1,0,1,0]","door_history":"[1,0,1,0,1]","location_rts":"[13114,948,697,1689,923]","trial_type":"two-door-navigation","trial_index":33,"time_elapsed":875279,"internal_node_id":"0.0-2.0-31.0"},{"group":"hexagon_bi","room_assignment":["blue","green","yellow","red","purple","grey"],"door_color_assignment":["black","white"],"door_generator_assignment":[1,0],"goal":4,"start":0,"action_noise":0.15,"location_history":"[0,1,2,3,4]","action_history":"[1,0,1,0]","door_history":"[0,1,0,1]","location_rts":"[4236,349,630,851]","trial_type":"two-door-navigation","trial_index":34,"time_elapsed":888902,"internal_node_id":"0.0-2.0-32.0"},{"group":"hexagon_bi","room_assignment":["blue","green","yellow","red","purple","grey"],"door_color_assignment":["black","white"],"door_generator_assignment":[1,0],"goal":1,"start":4,"action_noise":0.15,"location_history":"[4,5,0,1]","action_history":"[1,0,1]","door_history":"[0,1,0]","location_rts":"[974,291,106]","trial_type":"two-door-navigation","trial_index":35,"time_elapsed":896808,"internal_node_id":"0.0-2.0-33.0"},{"group":"hexagon_bi","room_assignment":["blue","green","yellow","red","purple","grey"],"door_color_assignment":["black","white"],"door_generator_assignment":[1,0],"goal":2,"start":1,"action_noise":0.15,"location_history":"[1,0,5,4,5,4,3,2]","action_history":"[1,0,1,0,1,0,1]","door_history":"[0,1,0,1,0,1,0]","location_rts":"[520,530,762,559,758,782,975]","trial_type":"two-door-navigation","trial_index":36,"time_elapsed":912258,"internal_node_id":"0.0-2.0-34.0"},{"group":"hexagon_bi","room_assignment":["blue","green","yellow","red","purple","grey"],"door_color_assignment":["black","white"],"door_generator_assignment":[1,0],"goal":0,"start":2,"action_noise":0.15,"location_history":"[2,1,0]","action_history":"[0,1]","door_history":"[1,0]","location_rts":"[27495,2239]","trial_type":"two-door-navigation","trial_index":37,"time_elapsed":947524,"internal_node_id":"0.0-2.0-35.0"},{"group":"hexagon_bi","room_assignment":["blue","green","yellow","red","purple","grey"],"door_color_assignment":["black","white"],"door_generator_assignment":[1,0],"goal":5,"start":0,"action_noise":0.15,"location_history":"[0,5]","action_history":"[0]","door_history":"[1]","location_rts":"[2078]","trial_type":"two-door-navigation","trial_index":38,"time_elapsed":954118,"internal_node_id":"0.0-2.0-36.0"},{"group":"hexagon_bi","room_assignment":["blue","green","yellow","red","purple","grey"],"door_color_assignment":["black","white"],"door_generator_assignment":[1,0],"goal":2,"start":5,"action_noise":0.15,"location_history":"[5,0,5,0,5,4,3,2]","action_history":"[0,1,0,0,1,0,1]","door_history":"[1,0,1,1,0,1,0]","location_rts":"[1474,373,353,446,231,568,430]","trial_type":"two-door-navigation","trial_index":39,"time_elapsed":968568,"internal_node_id":"0.0-2.0-37.0"},{"group":"hexagon_bi","room_assignment":["blue","green","yellow","red","purple","grey"],"door_color_assignment":["black","white"],"door_generator_assignment":[1,0],"goal":1,"start":2,"action_noise":0.15,"location_history":"[2,3,2,1]","action_history":"[0,1,0]","door_history":"[1,0,1]","location_rts":"[12205,545,390]","trial_type":"two-door-navigation","trial_index":40,"time_elapsed":988244,"internal_node_id":"0.0-2.0-38.0"},{"group":"hexagon_bi","room_assignment":["blue","green","yellow","red","purple","grey"],"door_color_assignment":["black","white"],"door_generator_assignment":[1,0],"goal":4,"start":1,"action_noise":0.15,"location_history":"[1,0,1,2,3,4]","action_history":"[0,1,0,1,0]","door_history":"[1,0,1,0,1]","location_rts":"[776,219,190,476,494]","trial_type":"two-door-navigation","trial_index":41,"time_elapsed":998953,"internal_node_id":"0.0-2.0-39.0"},{"group":"hexagon_bi","room_assignment":["blue","green","yellow","red","purple","grey"],"door_color_assignment":["black","white"],"door_generator_assignment":[1,0],"goal":3,"start":4,"action_noise":0.15,"location_history":"[4,5,0,1,2,3]","action_history":"[1,0,1,0,1]","door_history":"[0,1,0,1,0]","location_rts":"[4476,343,301,344,668]","trial_type":"two-door-navigation","trial_index":42,"time_elapsed":1013647,"internal_node_id":"0.0-2.0-40.0"},{"group":"hexagon_bi","room_assignment":["blue","green","yellow","red","purple","grey"],"door_color_assignment":["black","white"],"door_generator_assignment":[1,0],"goal":5,"start":3,"action_noise":0.15,"location_history":"[3,4,5]","action_history":"[0,1]","door_history":"[1,0]","location_rts":"[13865,181]","trial_type":"two-door-navigation","trial_index":43,"time_elapsed":1033238,"internal_node_id":"0.0-2.0-41.0"},{"group":"hexagon_bi","room_assignment":["blue","green","yellow","red","purple","grey"],"door_color_assignment":["black","white"],"door_generator_assignment":[1,0],"goal":3,"start":5,"action_noise":0.15,"location_history":"[5,4,3]","action_history":"[0,1]","door_history":"[1,0]","location_rts":"[666,92]","trial_type":"two-door-navigation","trial_index":44,"time_elapsed":1039531,"internal_node_id":"0.0-2.0-42.0"},{"group":"hexagon_bi","room_assignment":["blue","green","yellow","red","purple","grey"],"door_color_assignment":["black","white"],"door_generator_assignment":[1,0],"goal":0,"start":3,"action_noise":0.15,"location_history":"[3,4,5,0]","action_history":"[0,1,0]","door_history":"[1,0,1]","location_rts":"[1007,36,346]","trial_type":"two-door-navigation","trial_index":45,"time_elapsed":1047465,"internal_node_id":"0.0-2.0-43.0"},{"group":"hexagon_bi","room_assignment":["blue","green","yellow","red","purple","grey"],"door_color_assignment":["black","white"],"door_generator_assignment":[1,0],"goal":2,"start":0,"action_noise":0.15,"location_history":"[0,5,4,5,4,3,2]","action_history":"[0,1,0,1,0,1]","door_history":"[1,0,1,0,1,0]","location_rts":"[1682,499,313,546,555,485]","trial_type":"two-door-navigation","trial_index":46,"time_elapsed":1061120,"internal_node_id":"0.0-2.0-44.0"},{"group":"hexagon_bi","room_assignment":["blue","green","yellow","red","purple","grey"],"door_color_assignment":["black","white"],"door_generator_assignment":[1,0],"goal":4,"start":2,"action_noise":0.15,"location_history":"[2,3,2,1,0,5,4]","action_history":"[0,1,0,1,0,1]","door_history":"[1,0,1,0,1,0]","location_rts":"[6046,420,553,335,352,524]","trial_type":"two-door-navigation","trial_index":47,"time_elapsed":1078899,"internal_node_id":"0.0-2.0-45.0"},{"group":"hexagon_bi","room_assignment":["blue","green","yellow","red","purple","grey"],"door_color_assignment":["black","white"],"door_generator_assignment":[1,0],"goal":1,"start":4,"action_noise":0.15,"location_history":"[4,3,2,1]","action_history":"[0,1,0]","door_history":"[1,0,1]","location_rts":"[11975,139,26]","trial_type":"two-door-navigation","trial_index":48,"time_elapsed":1097595,"internal_node_id":"0.0-2.0-46.0"},{"group":"hexagon_bi","room_assignment":["blue","green","yellow","red","purple","grey"],"door_color_assignment":["black","white"],"door_generator_assignment":[1,0],"goal":4,"start":1,"action_noise":0.15,"location_history":"[1,0,1,2,3,4]","action_history":"[0,1,0,1,0]","door_history":"[1,0,1,0,1]","location_rts":"[2552,215,451,309,306]","trial_type":"two-door-navigation","trial_index":49,"time_elapsed":1109984,"internal_node_id":"0.0-2.0-47.0"},{"group":"hexagon_bi","room_assignment":["blue","green","yellow","red","purple","grey"],"door_color_assignment":["black","white"],"door_generator_assignment":[1,0],"goal":3,"start":4,"action_noise":0.15,"location_history":"[4,3]","action_history":"[0]","door_history":"[1]","location_rts":"[1720]","trial_type":"two-door-navigation","trial_index":50,"time_elapsed":1116225,"internal_node_id":"0.0-2.0-48.0"},{"group":"hexagon_bi","room_assignment":["blue","green","yellow","red","purple","grey"],"door_color_assignment":["black","white"],"door_generator_assignment":[1,0],"goal":5,"start":3,"action_noise":0.15,"location_history":"[3,4,5]","action_history":"[0,1]","door_history":"[1,0]","location_rts":"[440,158]","trial_type":"two-door-navigation","trial_index":51,"time_elapsed":1122349,"internal_node_id":"0.0-2.0-49.0"},{"view_history":"[{\"page_index\":0,\"viewing_time\":2494}]","rt":2495,"trial_type":"instructions","trial_index":52,"time_elapsed":1125844,"internal_node_id":"0.0-3.0"},{"view_history":"[{\"page_index\":0,\"viewing_time\":3461},{\"page_index\":1,\"viewing_time\":21308}]","rt":24770,"trial_type":"instructions","trial_index":53,"time_elapsed":1151615,"internal_node_id":"0.0-4.0"},{"group":"hexagon_tri","fractal_assignment":["../images/org_blu.png","../images/pnk_blu.png","../images/gry_blk.png","../images/ylw_slt.png","../images/cyn_red.png","../images/blu_wht.png"],"mutagen_generator_assignment":[0,1],"goal":4,"start":0,"action_noise":0.15,"location_history":"[0,5,0,5,0,1,3,4]","action_history":"[0,1,0,1,1,0,1]","mutagen_history":"[0,1,0,1,1,0,1]","location_rts":"[3395,2754,928,690,759,545,674]","trial_type":"fractal-mutation","trial_index":54,"time_elapsed":1173574,"internal_node_id":"0.0-5.0-0.0"},{"group":"hexagon_tri","fractal_assignment":["../images/org_blu.png","../images/pnk_blu.png","../images/gry_blk.png","../images/ylw_slt.png","../images/cyn_red.png","../images/blu_wht.png"],"mutagen_generator_assignment":[0,1],"goal":3,"start":4,"action_noise":0.15,"location_history":"[4,2,3]","action_history":"[1,0]","mutagen_history":"[1,0]","location_rts":"[921,399]","trial_type":"fractal-mutation","trial_index":55,"time_elapsed":1180877,"internal_node_id":"0.0-5.0-1.0"},{"group":"hexagon_tri","fractal_assignment":["../images/org_blu.png","../images/pnk_blu.png","../images/gry_blk.png","../images/ylw_slt.png","../images/cyn_red.png","../images/blu_wht.png"],"mutagen_generator_assignment":[0,1],"goal":5,"start":3,"action_noise":0.15,"location_history":"[3,4,0,1,3,4,0,5]","action_history":"[1,0,1,0,1,0,0]","mutagen_history":"[1,0,1,0,1,0,0]","location_rts":"[1133,461,607,748,574,672,740]","trial_type":"fractal-mutation","trial_index":56,"time_elapsed":1197836,"internal_node_id":"0.0-5.0-2.0"},{"group":"hexagon_tri","fractal_assignment":["../images/org_blu.png","../images/pnk_blu.png","../images/gry_blk.png","../images/ylw_slt.png","../images/cyn_red.png","../images/blu_wht.png"],"mutagen_generator_assignment":[0,1],"goal":2,"start":5,"action_noise":0.15,"location_history":"[5,0,5,0,5,4,2]","action_history":"[1,0,1,0,0,1]","mutagen_history":"[1,0,1,0,0,1]","location_rts":"[8525,298,473,1283,247,552]","trial_type":"fractal-mutation","trial_index":57,"time_elapsed":1219968,"internal_node_id":"0.0-5.0-3.0"},{"group":"hexagon_tri","fractal_assignment":["../images/org_blu.png","../images/pnk_blu.png","../images/gry_blk.png","../images/ylw_slt.png","../images/cyn_red.png","../images/blu_wht.png"],"mutagen_generator_assignment":[0,1],"goal":1,"start":2,"action_noise":0.15,"location_history":"[2,1]","action_history":"[0]","mutagen_history":"[0]","location_rts":"[1303]","trial_type":"fractal-mutation","trial_index":58,"time_elapsed":1225930,"internal_node_id":"0.0-5.0-4.0"},{"group":"hexagon_tri","fractal_assignment":["../images/org_blu.png","../images/pnk_blu.png","../images/gry_blk.png","../images/ylw_slt.png","../images/cyn_red.png","../images/blu_wht.png"],"mutagen_generator_assignment":[0,1],"goal":4,"start":1,"action_noise":0.15,"location_history":"[1,5,4]","action_history":"[1,0]","mutagen_history":"[1,0]","location_rts":"[1228,420]","trial_type":"fractal-mutation","trial_index":59,"time_elapsed":1233517,"internal_node_id":"0.0-5.0-5.0"},{"group":"hexagon_tri","fractal_assignment":["../images/org_blu.png","../images/pnk_blu.png","../images/gry_blk.png","../images/ylw_slt.png","../images/cyn_red.png","../images/blu_wht.png"],"mutagen_generator_assignment":[0,1],"goal":1,"start":4,"action_noise":0.15,"location_history":"[4,2,1]","action_history":"[1,0]","mutagen_history":"[1,0]","location_rts":"[1395,411]","trial_type":"fractal-mutation","trial_index":60,"time_elapsed":1241240,"internal_node_id":"0.0-5.0-6.0"},{"group":"hexagon_tri","fractal_assignment":["../images/org_blu.png","../images/pnk_blu.png","../images/gry_blk.png","../images/ylw_slt.png","../images/cyn_red.png","../images/blu_wht.png"],"mutagen_generator_assignment":[0,1],"goal":5,"start":1,"action_noise":0.15,"location_history":"[1,3,4,0,5]","action_history":"[0,1,0,0]","mutagen_history":"[0,1,0,0]","location_rts":"[7810,402,869,1224]","trial_type":"fractal-mutation","trial_index":61,"time_elapsed":1259776,"internal_node_id":"0.0-5.0-7.0"},{"group":"hexagon_tri","fractal_assignment":["../images/org_blu.png","../images/pnk_blu.png","../images/gry_blk.png","../images/ylw_slt.png","../images/cyn_red.png","../images/blu_wht.png"],"mutagen_generator_assignment":[0,1],"goal":0,"start":5,"action_noise":0.15,"location_history":"[5,0]","action_history":"[0]","mutagen_history":"[0]","location_rts":"[2874]","trial_type":"fractal-mutation","trial_index":62,"time_elapsed":1267314,"internal_node_id":"0.0-5.0-8.0"},{"group":"hexagon_tri","fractal_assignment":["../images/org_blu.png","../images/pnk_blu.png","../images/gry_blk.png","../images/ylw_slt.png","../images/cyn_red.png","../images/blu_wht.png"],"mutagen_generator_assignment":[0,1],"goal":2,"start":0,"action_noise":0.15,"location_history":"[0,1,3,4,0,1,5,0,1,3,2]","action_history":"[1,0,1,0,1,1,1,1,0,0]","mutagen_history":"[1,0,1,0,1,1,1,1,0,0]","location_rts":"[1227,676,534,519,1215,978,615,1070,432,724]","trial_type":"fractal-mutation","trial_index":63,"time_elapsed":1291022,"internal_node_id":"0.0-5.0-9.0"},{"group":"hexagon_tri","fractal_assignment":["../images/org_blu.png","../images/pnk_blu.png","../images/gry_blk.png","../images/ylw_slt.png","../images/cyn_red.png","../images/blu_wht.png"],"mutagen_generator_assignment":[0,1],"goal":3,"start":2,"action_noise":0.15,"location_history":"[2,1,5,4,2,1,3]","action_history":"[1,0,0,1,0,1]","mutagen_history":"[1,0,0,1,0,1]","location_rts":"[2912,467,620,711,521,788]","trial_type":"fractal-mutation","trial_index":64,"time_elapsed":1307851,"internal_node_id":"0.0-5.0-10.0"},{"group":"hexagon_tri","fractal_assignment":["../images/org_blu.png","../images/pnk_blu.png","../images/gry_blk.png","../images/ylw_slt.png","../images/cyn_red.png","../images/blu_wht.png"],"mutagen_generator_assignment":[0,1],"goal":0,"start":3,"action_noise":0.15,"location_history":"[3,2,1,5,0]","action_history":"[0,0,0,1]","mutagen_history":"[0,0,0,1]","location_rts":"[1580,1232,687,529]","trial_type":"fractal-mutation","trial_index":65,"time_elapsed":1320093,"internal_node_id":"0.0-5.0-11.0"},{"group":"hexagon_tri","fractal_assignment":["../images/org_blu.png","../images/pnk_blu.png","../images/gry_blk.png","../images/ylw_slt.png","../images/cyn_red.png","../images/blu_wht.png"],"mutagen_generator_assignment":[0,1],"goal":2,"start":0,"action_noise":0.15,"location_history":"[0,5,0,5,0,5,0,1,3,2]","action_history":"[0,0,0,1,0,0,1,0,1]","mutagen_history":"[0,0,0,1,0,0,1,0,1]","location_rts":"[13945,738,495,478,759,851,276,813,405]","trial_type":"fractal-mutation","trial_index":66,"time_elapsed":1353067,"internal_node_id":"0.0-5.0-12.0"},{"group":"hexagon_tri","fractal_assignment":["../images/org_blu.png","../images/pnk_blu.png","../images/gry_blk.png","../images/ylw_slt.png","../images/cyn_red.png","../images/blu_wht.png"],"mutagen_generator_assignment":[0,1],"goal":5,"start":2,"action_noise":0.15,"location_history":"[2,1,5]","action_history":"[0,1]","mutagen_history":"[0,1]","location_rts":"[3532,856]","trial_type":"fractal-mutation","trial_index":67,"time_elapsed":1363416,"internal_node_id":"0.0-5.0-13.0"},{"group":"hexagon_tri","fractal_assignment":["../images/org_blu.png","../images/pnk_blu.png","../images/gry_blk.png","../images/ylw_slt.png","../images/cyn_red.png","../images/blu_wht.png"],"mutagen_generator_assignment":[0,1],"goal":4,"start":5,"action_noise":0.15,"location_history":"[5,4]","action_history":"[0]","mutagen_history":"[0]","location_rts":"[908]","trial_type":"fractal-mutation","trial_index":68,"time_elapsed":1368989,"internal_node_id":"0.0-5.0-14.0"},{"group":"hexagon_tri","fractal_assignment":["../images/org_blu.png","../images/pnk_blu.png","../images/gry_blk.png","../images/ylw_slt.png","../images/cyn_red.png","../images/blu_wht.png"],"mutagen_generator_assignment":[0,1],"goal":3,"start":4,"action_noise":0.15,"location_history":"[4,0,1,3]","action_history":"[0,1,0]","mutagen_history":"[0,1,0]","location_rts":"[366,605,540]","trial_type":"fractal-mutation","trial_index":69,"time_elapsed":1377577,"internal_node_id":"0.0-5.0-15.0"},{"group":"hexagon_tri","fractal_assignment":["../images/org_blu.png","../images/pnk_blu.png","../images/gry_blk.png","../images/ylw_slt.png","../images/cyn_red.png","../images/blu_wht.png"],"mutagen_generator_assignment":[0,1],"goal":1,"start":3,"action_noise":0.15,"location_history":"[3,4,2,1]","action_history":"[0,1,0]","mutagen_history":"[0,1,0]","location_rts":"[98898,1234,351]","trial_type":"fractal-mutation","trial_index":70,"time_elapsed":1485188,"internal_node_id":"0.0-5.0-16.0"},{"group":"hexagon_tri","fractal_assignment":["../images/org_blu.png","../images/pnk_blu.png","../images/gry_blk.png","../images/ylw_slt.png","../images/cyn_red.png","../images/blu_wht.png"],"mutagen_generator_assignment":[0,1],"goal":5,"start":1,"action_noise":0.15,"location_history":"[1,3,4,2,1,3,2,3,4,0,5]","action_history":"[0,1,1,0,0,0,1,1,0,0]","mutagen_history":"[0,1,1,0,0,0,1,1,0,0]","location_rts":"[789,359,386,377,422,471,384,638,433,1007]","trial_type":"fractal-mutation","trial_index":71,"time_elapsed":1506568,"internal_node_id":"0.0-5.0-17.0"},{"group":"hexagon_tri","fractal_assignment":["../images/org_blu.png","../images/pnk_blu.png","../images/gry_blk.png","../images/ylw_slt.png","../images/cyn_red.png","../images/blu_wht.png"],"mutagen_generator_assignment":[0,1],"goal":4,"start":5,"action_noise":0.15,"location_history":"[5,4]","action_history":"[1]","mutagen_history":"[1]","location_rts":"[4727]","trial_type":"fractal-mutation","trial_index":72,"time_elapsed":1517079,"internal_node_id":"0.0-5.0-18.0"},{"group":"hexagon_tri","fractal_assignment":["../images/org_blu.png","../images/pnk_blu.png","../images/gry_blk.png","../images/ylw_slt.png","../images/cyn_red.png","../images/blu_wht.png"],"mutagen_generator_assignment":[0,1],"goal":0,"start":4,"action_noise":0.15,"location_history":"[4,2,3,2,3,4,0]","action_history":"[0,1,0,1,1,0]","mutagen_history":"[0,1,0,1,1,0]","location_rts":"[2971,536,292,1787,371,415]","trial_type":"fractal-mutation","trial_index":73,"time_elapsed":1534223,"internal_node_id":"0.0-5.0-19.0"},{"group":"hexagon_tri","fractal_assignment":["../images/org_blu.png","../images/pnk_blu.png","../images/gry_blk.png","../images/ylw_slt.png","../images/cyn_red.png","../images/blu_wht.png"],"mutagen_generator_assignment":[0,1],"goal":1,"start":0,"action_noise":0.15,"location_history":"[0,1]","action_history":"[1]","mutagen_history":"[1]","location_rts":"[5408]","trial_type":"fractal-mutation","trial_index":74,"time_elapsed":1544395,"internal_node_id":"0.0-5.0-20.0"},{"group":"hexagon_tri","fractal_assignment":["../images/org_blu.png","../images/pnk_blu.png","../images/gry_blk.png","../images/ylw_slt.png","../images/cyn_red.png","../images/blu_wht.png"],"mutagen_generator_assignment":[0,1],"goal":3,"start":1,"action_noise":0.15,"location_history":"[1,3]","action_history":"[0]","mutagen_history":"[0]","location_rts":"[906]","trial_type":"fractal-mutation","trial_index":75,"time_elapsed":1549980,"internal_node_id":"0.0-5.0-21.0"},{"group":"hexagon_tri","fractal_assignment":["../images/org_blu.png","../images/pnk_blu.png","../images/gry_blk.png","../images/ylw_slt.png","../images/cyn_red.png","../images/blu_wht.png"],"mutagen_generator_assignment":[0,1],"goal":2,"start":3,"action_noise":0.15,"location_history":"[3,4,0,1,5,4,2]","action_history":"[1,0,1,0,0,0]","mutagen_history":"[1,0,1,0,0,0]","location_rts":"[20,274,303,530,942,1374]","trial_type":"fractal-mutation","trial_index":76,"time_elapsed":1564568,"internal_node_id":"0.0-5.0-22.0"},{"group":"hexagon_tri","fractal_assignment":["../images/org_blu.png","../images/pnk_blu.png","../images/gry_blk.png","../images/ylw_slt.png","../images/cyn_red.png","../images/blu_wht.png"],"mutagen_generator_assignment":[0,1],"goal":0,"start":2,"action_noise":0.15,"location_history":"[2,3,4,0]","action_history":"[0,1,0]","mutagen_history":"[0,1,0]","location_rts":"[51265,108,4768]","trial_type":"fractal-mutation","trial_index":77,"time_elapsed":1627824,"internal_node_id":"0.0-5.0-23.0"},{"group":"hexagon_tri","fractal_assignment":["../images/org_blu.png","../images/pnk_blu.png","../images/gry_blk.png","../images/ylw_slt.png","../images/cyn_red.png","../images/blu_wht.png"],"mutagen_generator_assignment":[0,1],"goal":3,"start":0,"action_noise":0.15,"location_history":"[0,5,0,1,3]","action_history":"[0,1,1,0]","mutagen_history":"[0,1,1,0]","location_rts":"[3578,294,324,527]","trial_type":"fractal-mutation","trial_index":78,"time_elapsed":1640956,"internal_node_id":"0.0-5.0-24.0"},{"group":"hexagon_tri","fractal_assignment":["../images/org_blu.png","../images/pnk_blu.png","../images/gry_blk.png","../images/ylw_slt.png","../images/cyn_red.png","../images/blu_wht.png"],"mutagen_generator_assignment":[0,1],"goal":1,"start":3,"action_noise":0.15,"location_history":"[3,4,0,1]","action_history":"[1,0,1]","mutagen_history":"[1,0,1]","location_rts":"[5686,278,400]","trial_type":"fractal-mutation","trial_index":79,"time_elapsed":1654518,"internal_node_id":"0.0-5.0-25.0"},{"group":"hexagon_tri","fractal_assignment":["../images/org_blu.png","../images/pnk_blu.png","../images/gry_blk.png","../images/ylw_slt.png","../images/cyn_red.png","../images/blu_wht.png"],"mutagen_generator_assignment":[0,1],"goal":2,"start":1,"action_noise":0.15,"location_history":"[1,3,4,0,1,3,2]","action_history":"[0,1,0,1,0,0]","mutagen_history":"[0,1,0,1,0,0]","location_rts":"[10694,577,523,215,1786,631]","trial_type":"fractal-mutation","trial_index":80,"time_elapsed":1679586,"internal_node_id":"0.0-5.0-26.0"},{"group":"hexagon_tri","fractal_assignment":["../images/org_blu.png","../images/pnk_blu.png","../images/gry_blk.png","../images/ylw_slt.png","../images/cyn_red.png","../images/blu_wht.png"],"mutagen_generator_assignment":[0,1],"goal":5,"start":2,"action_noise":0.15,"location_history":"[2,3,4,0,5]","action_history":"[0,1,0,0]","mutagen_history":"[0,1,0,0]","location_rts":"[16548,325,366,420]","trial_type":"fractal-mutation","trial_index":81,"time_elapsed":1705510,"internal_node_id":"0.0-5.0-27.0"},{"group":"hexagon_tri","fractal_assignment":["../images/org_blu.png","../images/pnk_blu.png","../images/gry_blk.png","../images/ylw_slt.png","../images/cyn_red.png","../images/blu_wht.png"],"mutagen_generator_assignment":[0,1],"goal":4,"start":5,"action_noise":0.15,"location_history":"[5,4]","action_history":"[0]","mutagen_history":"[0]","location_rts":"[2441]","trial_type":"fractal-mutation","trial_index":82,"time_elapsed":1712601,"internal_node_id":"0.0-5.0-28.0"},{"group":"hexagon_tri","fractal_assignment":["../images/org_blu.png","../images/pnk_blu.png","../images/gry_blk.png","../images/ylw_slt.png","../images/cyn_red.png","../images/blu_wht.png"],"mutagen_generator_assignment":[0,1],"goal":5,"start":4,"action_noise":0.15,"location_history":"[4,0,1,3,2,3,2,1,3,4,2,1,5]","action_history":"[0,1,0,0,1,0,0,0,1,1,0,1]","mutagen_history":"[0,1,0,0,1,0,0,0,1,1,0,1]","location_rts":"[512,357,598,694,454,435,330,492,683,676,440,469]","trial_type":"fractal-mutation","trial_index":83,"time_elapsed":1736707,"internal_node_id":"0.0-5.0-29.0"},{"group":"hexagon_tri","fractal_assignment":["../images/org_blu.png","../images/pnk_blu.png","../images/gry_blk.png","../images/ylw_slt.png","../images/cyn_red.png","../images/blu_wht.png"],"mutagen_generator_assignment":[0,1],"goal":3,"start":5,"action_noise":0.15,"location_history":"[5,4,2,3]","action_history":"[0,1,1]","mutagen_history":"[0,1,1]","location_rts":"[1238,620,735]","trial_type":"fractal-mutation","trial_index":84,"time_elapsed":1746541,"internal_node_id":"0.0-5.0-30.0"},{"group":"hexagon_tri","fractal_assignment":["../images/org_blu.png","../images/pnk_blu.png","../images/gry_blk.png","../images/ylw_slt.png","../images/cyn_red.png","../images/blu_wht.png"],"mutagen_generator_assignment":[0,1],"goal":0,"start":3,"action_noise":0.15,"location_history":"[3,2,3,2,1,5,0]","action_history":"[0,1,1,0,1,1]","mutagen_history":"[0,1,1,0,1,1]","location_rts":"[1175,675,391,731,851,1061]","trial_type":"fractal-mutation","trial_index":85,"time_elapsed":1762362,"internal_node_id":"0.0-5.0-31.0"},{"group":"hexagon_tri","fractal_assignment":["../images/org_blu.png","../images/pnk_blu.png","../images/gry_blk.png","../images/ylw_slt.png","../images/cyn_red.png","../images/blu_wht.png"],"mutagen_generator_assignment":[0,1],"goal":4,"start":0,"action_noise":0.15,"location_history":"[0,5,0,1,3,4]","action_history":"[0,1,1,0,1]","mutagen_history":"[0,1,1,0,1]","location_rts":"[7536,421,885,871,910]","trial_type":"fractal-mutation","trial_index":86,"time_elapsed":1782593,"internal_node_id":"0.0-5.0-32.0"},{"group":"hexagon_tri","fractal_assignment":["../images/org_blu.png","../images/pnk_blu.png","../images/gry_blk.png","../images/ylw_slt.png","../images/cyn_red.png","../images/blu_wht.png"],"mutagen_generator_assignment":[0,1],"goal":1,"start":4,"action_noise":0.15,"location_history":"[4,2,1]","action_history":"[0,1]","mutagen_history":"[0,1]","location_rts":"[2905,466]","trial_type":"fractal-mutation","trial_index":87,"time_elapsed":1791890,"internal_node_id":"0.0-5.0-33.0"},{"group":"hexagon_tri","fractal_assignment":["../images/org_blu.png","../images/pnk_blu.png","../images/gry_blk.png","../images/ylw_slt.png","../images/cyn_red.png","../images/blu_wht.png"],"mutagen_generator_assignment":[0,1],"goal":2,"start":1,"action_noise":0.15,"location_history":"[1,5,4,2]","action_history":"[1,0,1]","mutagen_history":"[1,0,1]","location_rts":"[1027,1708,457]","trial_type":"fractal-mutation","trial_index":88,"time_elapsed":1802373,"internal_node_id":"0.0-5.0-34.0"},{"group":"hexagon_tri","fractal_assignment":["../images/org_blu.png","../images/pnk_blu.png","../images/gry_blk.png","../images/ylw_slt.png","../images/cyn_red.png","../images/blu_wht.png"],"mutagen_generator_assignment":[0,1],"goal":0,"start":2,"action_noise":0.15,"location_history":"[2,1,5,4,2,3,2,3,2,1,5,0]","action_history":"[0,1,0,1,1,0,1,0,0,1,1]","mutagen_history":"[0,1,0,1,1,0,1,0,0,1,1]","location_rts":"[672,400,1979,410,591,634,906,425,421,430,857]","trial_type":"fractal-mutation","trial_index":89,"time_elapsed":1827134,"internal_node_id":"0.0-5.0-35.0"},{"group":"hexagon_tri","fractal_assignment":["../images/org_blu.png","../images/pnk_blu.png","../images/gry_blk.png","../images/ylw_slt.png","../images/cyn_red.png","../images/blu_wht.png"],"mutagen_generator_assignment":[0,1],"goal":5,"start":0,"action_noise":0.15,"location_history":"[0,5]","action_history":"[0]","mutagen_history":"[0]","location_rts":"[6760]","trial_type":"fractal-mutation","trial_index":90,"time_elapsed":1838550,"internal_node_id":"0.0-5.0-36.0"},{"group":"hexagon_tri","fractal_assignment":["../images/org_blu.png","../images/pnk_blu.png","../images/gry_blk.png","../images/ylw_slt.png","../images/cyn_red.png","../images/blu_wht.png"],"mutagen_generator_assignment":[0,1],"goal":2,"start":5,"action_noise":0.15,"location_history":"[5,4,0,1,5,0,5,4,2]","action_history":"[0,1,1,0,1,0,0,1]","mutagen_history":"[0,1,1,0,1,0,0,1]","location_rts":"[8152,415,445,379,574,457,223,674]","trial_type":"fractal-mutation","trial_index":91,"time_elapsed":1863146,"internal_node_id":"0.0-5.0-37.0"},{"group":"hexagon_tri","fractal_assignment":["../images/org_blu.png","../images/pnk_blu.png","../images/gry_blk.png","../images/ylw_slt.png","../images/cyn_red.png","../images/blu_wht.png"],"mutagen_generator_assignment":[0,1],"goal":1,"start":2,"action_noise":0.15,"location_history":"[2,3,4,2,1]","action_history":"[0,1,1,0]","mutagen_history":"[0,1,1,0]","location_rts":"[5915,407,661,1231]","trial_type":"fractal-mutation","trial_index":92,"time_elapsed":1879760,"internal_node_id":"0.0-5.0-38.0"},{"group":"hexagon_tri","fractal_assignment":["../images/org_blu.png","../images/pnk_blu.png","../images/gry_blk.png","../images/ylw_slt.png","../images/cyn_red.png","../images/blu_wht.png"],"mutagen_generator_assignment":[0,1],"goal":4,"start":1,"action_noise":0.15,"location_history":"[1,5,0,5,4]","action_history":"[1,1,0,0]","mutagen_history":"[1,1,0,0]","location_rts":"[2051,2040,718,517]","trial_type":"fractal-mutation","trial_index":93,"time_elapsed":1893447,"internal_node_id":"0.0-5.0-39.0"},{"group":"hexagon_tri","fractal_assignment":["../images/org_blu.png","../images/pnk_blu.png","../images/gry_blk.png","../images/ylw_slt.png","../images/cyn_red.png","../images/blu_wht.png"],"mutagen_generator_assignment":[0,1],"goal":3,"start":4,"action_noise":0.15,"location_history":"[4,2,1,3]","action_history":"[0,1,0]","mutagen_history":"[0,1,0]","location_rts":"[3085,338,441]","trial_type":"fractal-mutation","trial_index":94,"time_elapsed":1904396,"internal_node_id":"0.0-5.0-40.0"},{"group":"hexagon_tri","fractal_assignment":["../images/org_blu.png","../images/pnk_blu.png","../images/gry_blk.png","../images/ylw_slt.png","../images/cyn_red.png","../images/blu_wht.png"],"mutagen_generator_assignment":[0,1],"goal":5,"start":3,"action_noise":0.15,"location_history":"[3,4,0,1,5]","action_history":"[1,0,1,1]","mutagen_history":"[1,0,1,1]","location_rts":"[528,292,317,422]","trial_type":"fractal-mutation","trial_index":95,"time_elapsed":1914421,"internal_node_id":"0.0-5.0-41.0"},{"group":"hexagon_tri","fractal_assignment":["../images/org_blu.png","../images/pnk_blu.png","../images/gry_blk.png","../images/ylw_slt.png","../images/cyn_red.png","../images/blu_wht.png"],"mutagen_generator_assignment":[0,1],"goal":3,"start":5,"action_noise":0.15,"location_history":"[5,4,2,1,5,4,2,3]","action_history":"[0,1,0,1,1,1,0]","mutagen_history":"[0,1,0,1,1,1,0]","location_rts":"[403,243,800,400,800,471,451]","trial_type":"fractal-mutation","trial_index":96,"time_elapsed":1930013,"internal_node_id":"0.0-5.0-42.0"},{"group":"hexagon_tri","fractal_assignment":["../images/org_blu.png","../images/pnk_blu.png","../images/gry_blk.png","../images/ylw_slt.png","../images/cyn_red.png","../images/blu_wht.png"],"mutagen_generator_assignment":[0,1],"goal":0,"start":3,"action_noise":0.15,"location_history":"[3,4,2,3,4,2,1,5,0]","action_history":"[1,0,0,1,1,1,0,1]","mutagen_history":"[1,0,0,1,1,1,0,1]","location_rts":"[477,563,447,557,525,474,427,475]","trial_type":"fractal-mutation","trial_index":97,"time_elapsed":1947326,"internal_node_id":"0.0-5.0-43.0"},{"group":"hexagon_tri","fractal_assignment":["../images/org_blu.png","../images/pnk_blu.png","../images/gry_blk.png","../images/ylw_slt.png","../images/cyn_red.png","../images/blu_wht.png"],"mutagen_generator_assignment":[0,1],"goal":2,"start":0,"action_noise":0.15,"location_history":"[0,5,0,5,4,2]","action_history":"[0,1,0,0,1]","mutagen_history":"[0,1,0,0,1]","location_rts":"[5166,459,439,333,624]","trial_type":"fractal-mutation","trial_index":98,"time_elapsed":1963833,"internal_node_id":"0.0-5.0-44.0"},{"group":"hexagon_tri","fractal_assignment":["../images/org_blu.png","../images/pnk_blu.png","../images/gry_blk.png","../images/ylw_slt.png","../images/cyn_red.png","../images/blu_wht.png"],"mutagen_generator_assignment":[0,1],"goal":4,"start":2,"action_noise":0.15,"location_history":"[2,1,3,4]","action_history":"[1,0,0]","mutagen_history":"[1,0,0]","location_rts":"[2747,665,1026]","trial_type":"fractal-mutation","trial_index":99,"time_elapsed":1975387,"internal_node_id":"0.0-5.0-45.0"},{"group":"hexagon_tri","fractal_assignment":["../images/org_blu.png","../images/pnk_blu.png","../images/gry_blk.png","../images/ylw_slt.png","../images/cyn_red.png","../images/blu_wht.png"],"mutagen_generator_assignment":[0,1],"goal":1,"start":4,"action_noise":0.15,"location_history":"[4,2,1]","action_history":"[1,0]","mutagen_history":"[1,0]","location_rts":"[4749,485]","trial_type":"fractal-mutation","trial_index":100,"time_elapsed":1986558,"internal_node_id":"0.0-5.0-46.0"},{"group":"hexagon_tri","fractal_assignment":["../images/org_blu.png","../images/pnk_blu.png","../images/gry_blk.png","../images/ylw_slt.png","../images/cyn_red.png","../images/blu_wht.png"],"mutagen_generator_assignment":[0,1],"goal":4,"start":1,"action_noise":0.15,"location_history":"[1,5,0,1,3,4]","action_history":"[1,0,0,1,1]","mutagen_history":"[1,0,0,1,1]","location_rts":"[3131,582,512,742,691]","trial_type":"fractal-mutation","trial_index":101,"time_elapsed":2001877,"internal_node_id":"0.0-5.0-47.0"},{"group":"hexagon_tri","fractal_assignment":["../images/org_blu.png","../images/pnk_blu.png","../images/gry_blk.png","../images/ylw_slt.png","../images/cyn_red.png","../images/blu_wht.png"],"mutagen_generator_assignment":[0,1],"goal":3,"start":4,"action_noise":0.15,"location_history":"[4,2,3]","action_history":"[1,1]","mutagen_history":"[1,1]","location_rts":"[579,417]","trial_type":"fractal-mutation","trial_index":102,"time_elapsed":2008981,"internal_node_id":"0.0-5.0-48.0"},{"group":"hexagon_tri","fractal_assignment":["../images/org_blu.png","../images/pnk_blu.png","../images/gry_blk.png","../images/ylw_slt.png","../images/cyn_red.png","../images/blu_wht.png"],"mutagen_generator_assignment":[0,1],"goal":5,"start":3,"action_noise":0.15,"location_history":"[3,2,1,5]","action_history":"[0,0,1]","mutagen_history":"[0,0,1]","location_rts":"[1412,961,483]","trial_type":"fractal-mutation","trial_index":103,"time_elapsed":2018931,"internal_node_id":"0.0-5.0-49.0"},{"view_history":"[{\"page_index\":0,\"viewing_time\":13755}]","rt":13755,"trial_type":"instructions","trial_index":104,"time_elapsed":2033688,"internal_node_id":"0.0-6.0"},{"rt":6478,"responses":"{\"Q0\":\"\"}","trial_type":"survey-text","trial_index":105,"time_elapsed":2041182,"internal_node_id":"0.0-7.0"}]