[{"view_history":"[{\"page_index\":0,\"viewing_time\":54207},{\"page_index\":1,\"viewing_time\":2446293},{\"page_index\":2,\"viewing_time\":13269},{\"page_index\":3,\"viewing_time\":8279}]","rt":2522057,"trial_type":"instructions","trial_index":0,"time_elapsed":2522067,"internal_node_id":"0.0-0.0"},{"view_history":"[{\"page_index\":0,\"viewing_time\":4911},{\"page_index\":1,\"viewing_time\":21422}]","rt":26335,"trial_type":"instructions","trial_index":1,"time_elapsed":2549407,"internal_node_id":"0.0-1.0"},{"group":"hexagon_bi","room_assignment":["red","blue","purple","yellow","grey","green"],"door_color_assignment":["black","white"],"door_generator_assignment":[0,1],"goal":4,"start":0,"action_noise":0.15,"location_history":"[0,1,2,3,2,1,2,3,2,1,0,5,4]","action_history":"[0,0,1,1,0,0,1,1,0,1,0,1]","door_history":"[0,0,1,1,0,0,1,1,0,1,0,1]","location_rts":"[2290,2570,1300,737,881,11907,1984,3868,3648,9367,3454,4906]","trial_type":"two-door-navigation","trial_index":2,"time_elapsed":2612128,"internal_node_id":"0.0-2.0-0.0"},{"group":"hexagon_bi","room_assignment":["red","blue","purple","yellow","grey","green"],"door_color_assignment":["black","white"],"door_generator_assignment":[0,1],"goal":3,"start":4,"action_noise":0.15,"location_history":"[4,5,0,1,2,3]","action_history":"[1,0,1,0,1]","door_history":"[1,0,1,0,1]","location_rts":"[4412,1858,1493,2185,2030]","trial_type":"two-door-navigation","trial_index":3,"time_elapsed":2632789,"internal_node_id":"0.0-2.0-1.0"},{"group":"hexagon_bi","room_assignment":["red","blue","purple","yellow","grey","green"],"door_color_assignment":["black","white"],"door_generator_assignment":[0,1],"goal":5,"start":3,"action_noise":0.15,"location_history":"[3,2,3,4,3,4,3,2,1,0,5]","action_history":"[0,1,0,0,0,0,0,0,1,0]","door_history":"[0,1,0,0,0,0,0,0,1,0]","location_rts":"[1150,983,944,1369,1096,1165,769,838,2541,548]","trial_type":"two-door-navigation","trial_index":4,"time_elapsed":2657956,"internal_node_id":"0.0-2.0-2.0"},{"group":"hexagon_bi","room_assignment":["red","blue","purple","yellow","grey","green"],"door_color_assignment":["black","white"],"door_generator_assignment":[0,1],"goal":2,"start":5,"action_noise":0.15,"location_history":"[5,0,5,0,5,4,5,4,5,4,5,0,5,4,3,4,5,4,3,4,3,4,5,0,1,2]","action_history":"[0,0,0,1,1,1,1,1,1,1,0,0,0,0,0,0,1,0,0,0,0,0,1,1,1]","door_history":"[0,0,0,1,1,1,1,1,1,1,0,0,0,0,0,0,1,0,0,0,0,0,1,1,1]","location_rts":"[716,1562,971,708,795,735,840,1220,627,669,344,591,704,916,1670,2791,824,608,382,525,588,585,1516,532,652]","trial_type":"two-door-navigation","trial_index":5,"time_elapsed":2709098,"internal_node_id":"0.0-2.0-3.0"},{"group":"hexagon_bi","room_assignment":["red","blue","purple","yellow","grey","green"],"door_color_assignment":["black","white"],"door_generator_assignment":[0,1],"goal":1,"start":2,"action_noise":0.15,"location_history":"[2,1]","action_history":"[0]","door_history":"[0]","location_rts":"[879]","trial_type":"two-door-navigation","trial_index":6,"time_elapsed":2714491,"internal_node_id":"0.0-2.0-4.0"},{"group":"hexagon_bi","room_assignment":["red","blue","purple","yellow","grey","green"],"door_color_assignment":["black","white"],"door_generator_assignment":[0,1],"goal":4,"start":1,"action_noise":0.15,"location_history":"[1,0,1,2,1,2,1,2,3,4]","action_history":"[1,1,0,0,0,0,1,1,0]","door_history":"[1,1,0,0,0,0,1,1,0]","location_rts":"[1382,580,538,432,701,561,586,545,1000]","trial_type":"two-door-navigation","trial_index":7,"time_elapsed":2733483,"internal_node_id":"0.0-2.0-5.0"},{"group":"hexagon_bi","room_assignment":["red","blue","purple","yellow","grey","green"],"door_color_assignment":["black","white"],"door_generator_assignment":[0,1],"goal":1,"start":4,"action_noise":0.15,"location_history":"[4,3,4,5,0,5,0,5,4,5,0,5,4,3,2,3,4,3,4,3,4,3,2,1]","action_history":"[0,0,1,0,0,0,0,1,1,0,0,0,0,1,1,0,0,0,0,0,0,0,0]","door_history":"[0,0,1,0,0,0,0,1,1,0,0,0,0,1,1,0,0,0,0,0,0,0,0]","location_rts":"[1000,468,481,334,302,491,887,367,403,922,380,421,548,1862,515,556,515,318,470,299,670,548,1015]","trial_type":"two-door-navigation","trial_index":8,"time_elapsed":2774151,"internal_node_id":"0.0-2.0-6.0"},{"group":"hexagon_bi","room_assignment":["red","blue","purple","yellow","grey","green"],"door_color_assignment":["black","white"],"door_generator_assignment":[0,1],"goal":5,"start":1,"action_noise":0.15,"location_history":"[1,0,1,0,5]","action_history":"[1,1,1,0]","door_history":"[1,1,1,0]","location_rts":"[1403,1237,1338,497]","trial_type":"two-door-navigation","trial_index":9,"time_elapsed":2786256,"internal_node_id":"0.0-2.0-7.0"},{"group":"hexagon_bi","room_assignment":["red","blue","purple","yellow","grey","green"],"door_color_assignment":["black","white"],"door_generator_assignment":[0,1],"goal":0,"start":5,"action_noise":0.15,"location_history":"[5,0]","action_history":"[0]","door_history":"[0]","location_rts":"[1039]","trial_type":"two-door-navigation","trial_index":10,"time_elapsed":2791819,"internal_node_id":"0.0-2.0-8.0"},{"group":"hexagon_bi","room_assignment":["red","blue","purple","yellow","grey","green"],"door_color_assignment":["black","white"],"door_generator_assignment":[0,1],"goal":2,"start":0,"action_noise":0.15,"location_history":"[0,1,0,5,0,5,4,5,0,5,0,5,0,5,4,5,4,5,0,1,0,5,4,5,0,5,4,3,4,3,4,5,4,3,2]","action_history":"[1,1,0,0,0,1,1,0,0,0,0,0,0,1,1,1,0,0,1,1,0,0,1,0,0,1,0,0,0,0,1,1,0,1]","door_history":"[1,1,0,0,0,1,1,0,0,0,0,0,0,1,1,1,0,0,1,1,0,0,1,0,0,1,0,0,0,0,1,1,0,1]","location_rts":"[1046,740,930,289,356,313,431,430,542,521,1821,1932,3744,2613,1839,1510,1556,1415,1713,1136,607,316,702,516,22690,930,260,487,416,126,372,69,166,151]","trial_type":"two-door-navigation","trial_index":11,"time_elapsed":2882572,"internal_node_id":"0.0-2.0-9.0"},{"group":"hexagon_bi","room_assignment":["red","blue","purple","yellow","grey","green"],"door_color_assignment":["black","white"],"door_generator_assignment":[0,1],"goal":3,"start":2,"action_noise":0.15,"location_history":"[2,1,0,1,2,1,2,3]","action_history":"[0,0,1,0,0,0,0]","door_history":"[0,0,1,0,0,0,0]","location_rts":"[797,382,249,134,500,431,395]","trial_type":"two-door-navigation","trial_index":12,"time_elapsed":2896144,"internal_node_id":"0.0-2.0-10.0"},{"group":"hexagon_bi","room_assignment":["red","blue","purple","yellow","grey","green"],"door_color_assignment":["black","white"],"door_generator_assignment":[0,1],"goal":0,"start":3,"action_noise":0.15,"location_history":"[3,4,5,0]","action_history":"[0,1,0]","door_history":"[0,1,0]","location_rts":"[282,1037,336]","trial_type":"two-door-navigation","trial_index":13,"time_elapsed":2904330,"internal_node_id":"0.0-2.0-11.0"},{"group":"hexagon_bi","room_assignment":["red","blue","purple","yellow","grey","green"],"door_color_assignment":["black","white"],"door_generator_assignment":[0,1],"goal":2,"start":0,"action_noise":0.15,"location_history":"[0,5,0,5,4,5,0,1,0,5,4,3,4,3,2]","action_history":"[0,0,0,1,1,0,0,0,0,1,0,0,0,1]","door_history":"[0,0,0,1,1,0,0,0,0,1,0,0,0,1]","location_rts":"[706,311,409,865,527,672,346,1348,510,365,115,387,10,349]","trial_type":"two-door-navigation","trial_index":14,"time_elapsed":2929180,"internal_node_id":"0.0-2.0-12.0"},{"group":"hexagon_bi","room_assignment":["red","blue","purple","yellow","grey","green"],"door_color_assignment":["black","white"],"door_generator_assignment":[0,1],"goal":5,"start":2,"action_noise":0.15,"location_history":"[2,1,2,1,2,3,2,1,0,1,0,5]","action_history":"[0,0,0,0,1,1,0,1,1,1,0]","door_history":"[0,0,0,0,1,1,0,1,1,1,0]","location_rts":"[1453,903,1002,1604,881,780,811,740,766,858,574]","trial_type":"two-door-navigation","trial_index":15,"time_elapsed":2954333,"internal_node_id":"0.0-2.0-13.0"},{"group":"hexagon_bi","room_assignment":["red","blue","purple","yellow","grey","green"],"door_color_assignment":["black","white"],"door_generator_assignment":[0,1],"goal":4,"start":5,"action_noise":0.15,"location_history":"[5,0,5,4]","action_history":"[0,0,1]","door_history":"[0,0,1]","location_rts":"[620,250,151]","trial_type":"two-door-navigation","trial_index":16,"time_elapsed":2961918,"internal_node_id":"0.0-2.0-14.0"},{"group":"hexagon_bi","room_assignment":["red","blue","purple","yellow","grey","green"],"door_color_assignment":["black","white"],"door_generator_assignment":[0,1],"goal":3,"start":4,"action_noise":0.15,"location_history":"[4,3]","action_history":"[0]","door_history":"[0]","location_rts":"[471]","trial_type":"two-door-navigation","trial_index":17,"time_elapsed":2966914,"internal_node_id":"0.0-2.0-15.0"},{"group":"hexagon_bi","room_assignment":["red","blue","purple","yellow","grey","green"],"door_color_assignment":["black","white"],"door_generator_assignment":[0,1],"goal":1,"start":3,"action_noise":0.15,"location_history":"[3,2,1]","action_history":"[1,0]","door_history":"[1,0]","location_rts":"[857,1338]","trial_type":"two-door-navigation","trial_index":18,"time_elapsed":2974630,"internal_node_id":"0.0-2.0-16.0"},{"group":"hexagon_bi","room_assignment":["red","blue","purple","yellow","grey","green"],"door_color_assignment":["black","white"],"door_generator_assignment":[0,1],"goal":5,"start":1,"action_noise":0.15,"location_history":"[1,0,1,0,5]","action_history":"[1,1,0,0]","door_history":"[1,1,0,0]","location_rts":"[1685,778,349,331]","trial_type":"two-door-navigation","trial_index":19,"time_elapsed":2985354,"internal_node_id":"0.0-2.0-17.0"},{"group":"hexagon_bi","room_assignment":["red","blue","purple","yellow","grey","green"],"door_color_assignment":["black","white"],"door_generator_assignment":[0,1],"goal":4,"start":5,"action_noise":0.15,"location_history":"[5,4]","action_history":"[1]","door_history":"[1]","location_rts":"[1403]","trial_type":"two-door-navigation","trial_index":20,"time_elapsed":2991273,"internal_node_id":"0.0-2.0-18.0"},{"group":"hexagon_bi","room_assignment":["red","blue","purple","yellow","grey","green"],"door_color_assignment":["black","white"],"door_generator_assignment":[0,1],"goal":0,"start":4,"action_noise":0.15,"location_history":"[4,3,4,3,2,1,2,3,2,1,2,1,0]","action_history":"[0,0,0,1,0,0,1,0,0,0,1,1]","door_history":"[0,0,0,1,0,0,1,0,0,0,1,1]","location_rts":"[1358,469,347,742,1128,649,803,826,314,345,705,553]","trial_type":"two-door-navigation","trial_index":21,"time_elapsed":3015223,"internal_node_id":"0.0-2.0-19.0"},{"group":"hexagon_bi","room_assignment":["red","blue","purple","yellow","grey","green"],"door_color_assignment":["black","white"],"door_generator_assignment":[0,1],"goal":1,"start":0,"action_noise":0.15,"location_history":"[0,5,0,5,4,3,4,3,4,3,4,5,0,5,4,5,0,1]","action_history":"[0,0,0,1,0,0,0,0,0,1,1,0,0,1,0,0,0]","door_history":"[0,0,0,1,0,0,0,0,0,1,1,0,0,1,0,0,0]","location_rts":"[927,526,652,551,429,316,1264,302,420,421,449,991,329,571,309,274,228]","trial_type":"two-door-navigation","trial_index":22,"time_elapsed":3045157,"internal_node_id":"0.0-2.0-20.0"},{"group":"hexagon_bi","room_assignment":["red","blue","purple","yellow","grey","green"],"door_color_assignment":["black","white"],"door_generator_assignment":[0,1],"goal":3,"start":1,"action_noise":0.15,"location_history":"[1,2,3]","action_history":"[1,0]","door_history":"[1,0]","location_rts":"[850,450]","trial_type":"two-door-navigation","trial_index":23,"time_elapsed":3052004,"internal_node_id":"0.0-2.0-21.0"},{"group":"hexagon_bi","room_assignment":["red","blue","purple","yellow","grey","green"],"door_color_assignment":["black","white"],"door_generator_assignment":[0,1],"goal":2,"start":3,"action_noise":0.15,"location_history":"[3,4,3,4,5,0,5,4,3,4,5,4,3,2]","action_history":"[0,0,0,1,0,0,1,1,0,0,0,0,1]","door_history":"[0,0,0,1,0,0,1,1,0,0,0,0,1]","location_rts":"[693,382,694,263,774,1201,539,949,541,515,538,590,911]","trial_type":"two-door-navigation","trial_index":24,"time_elapsed":3077414,"internal_node_id":"0.0-2.0-22.0"},{"group":"hexagon_bi","room_assignment":["red","blue","purple","yellow","grey","green"],"door_color_assignment":["black","white"],"door_generator_assignment":[0,1],"goal":0,"start":2,"action_noise":0.15,"location_history":"[2,3,4,3,4,5,0]","action_history":"[1,0,0,0,0,0]","door_history":"[1,0,0,0,0,0]","location_rts":"[702,356,408,743,480,578]","trial_type":"two-door-navigation","trial_index":25,"time_elapsed":3090265,"internal_node_id":"0.0-2.0-23.0"},{"group":"hexagon_bi","room_assignment":["red","blue","purple","yellow","grey","green"],"door_color_assignment":["black","white"],"door_generator_assignment":[0,1],"goal":3,"start":0,"action_noise":0.15,"location_history":"[0,1,0,5,0,5,4,5,0,1,0,1,2,1,2,1,2,1,0,5,0,5,4,5,4,3]","action_history":"[1,1,0,0,0,1,0,0,1,1,1,0,0,0,0,0,0,0,0,0,1,1,0,1,0]","door_history":"[1,1,0,0,0,1,0,0,1,1,1,0,0,0,0,0,0,0,0,0,1,1,0,1,0]","location_rts":"[1177,919,64,95,316,330,157,415,833,379,144,535,174,124,444,2484,1877,1843,1671,781,411,415,191,354,235]","trial_type":"two-door-navigation","trial_index":26,"time_elapsed":3135525,"internal_node_id":"0.0-2.0-24.0"},{"group":"hexagon_bi","room_assignment":["red","blue","purple","yellow","grey","green"],"door_color_assignment":["black","white"],"door_generator_assignment":[0,1],"goal":1,"start":3,"action_noise":0.15,"location_history":"[3,4,3,4,5,4,3,4,5,4,5,4,3,4,5,4,3,4,5,0,5,0,5,4,3,4,3,4,3,4,3,4,3,4,5,0,5,0,5,4,3,2,3,2,1]","action_history":"[0,0,0,1,1,0,0,1,1,1,0,0,0,1,1,0,0,0,0,0,0,0,1,0,0,0,0,0,0,0,0,0,0,1,0,1,0,0,1,0,1,1,1,0]","door_history":"[0,0,0,1,1,0,0,1,1,1,0,0,0,1,1,0,0,0,0,0,0,0,1,0,0,0,0,0,0,0,0,0,0,1,0,1,0,0,1,0,1,1,1,0]","location_rts":"[1254,322,571,687,519,457,489,558,763,966,1104,1164,907,1846,1129,1111,513,360,164,343,449,702,436,289,249,106,38,356,407,330,175,55,324,651,1682,1931,940,3980,1237,505,817,206,2088,669]","trial_type":"two-door-navigation","trial_index":27,"time_elapsed":3217737,"internal_node_id":"0.0-2.0-25.0"},{"group":"hexagon_bi","room_assignment":["red","blue","purple","yellow","grey","green"],"door_color_assignment":["black","white"],"door_generator_assignment":[0,1],"goal":2,"start":1,"action_noise":0.15,"location_history":"[1,2]","action_history":"[0]","door_history":"[0]","location_rts":"[1454]","trial_type":"two-door-navigation","trial_index":28,"time_elapsed":3223711,"internal_node_id":"0.0-2.0-26.0"},{"group":"hexagon_bi","room_assignment":["red","blue","purple","yellow","grey","green"],"door_color_assignment":["black","white"],"door_generator_assignment":[0,1],"goal":5,"start":2,"action_noise":0.15,"location_history":"[2,1,0,1,0,1,0,1,0,5]","action_history":"[0,1,1,1,1,1,1,1,0]","door_history":"[0,1,1,1,1,1,1,1,0]","location_rts":"[1374,873,377,1169,642,346,583,853,1168]","trial_type":"two-door-navigation","trial_index":29,"time_elapsed":3243743,"internal_node_id":"0.0-2.0-27.0"},{"group":"hexagon_bi","room_assignment":["red","blue","purple","yellow","grey","green"],"door_color_assignment":["black","white"],"door_generator_assignment":[0,1],"goal":4,"start":5,"action_noise":0.15,"location_history":"[5,4]","action_history":"[0]","door_history":"[0]","location_rts":"[2309]","trial_type":"two-door-navigation","trial_index":30,"time_elapsed":3250573,"internal_node_id":"0.0-2.0-28.0"},{"group":"hexagon_bi","room_assignment":["red","blue","purple","yellow","grey","green"],"door_color_assignment":["black","white"],"door_generator_assignment":[0,1],"goal":5,"start":4,"action_noise":0.15,"location_history":"[4,5]","action_history":"[0]","door_history":"[0]","location_rts":"[3157]","trial_type":"two-door-navigation","trial_index":31,"time_elapsed":3258248,"internal_node_id":"0.0-2.0-29.0"},{"group":"hexagon_bi","room_assignment":["red","blue","purple","yellow","grey","green"],"door_color_assignment":["black","white"],"door_generator_assignment":[0,1],"goal":3,"start":5,"action_noise":0.15,"location_history":"[5,4,5,4,3]","action_history":"[1,1,1,0]","door_history":"[1,1,1,0]","location_rts":"[2057,472,1210,501]","trial_type":"two-door-navigation","trial_index":32,"time_elapsed":3270052,"internal_node_id":"0.0-2.0-30.0"},{"group":"hexagon_bi","room_assignment":["red","blue","purple","yellow","grey","green"],"door_color_assignment":["black","white"],"door_generator_assignment":[0,1],"goal":0,"start":3,"action_noise":0.15,"location_history":"[3,2,1,2,1,0]","action_history":"[0,0,0,0,1]","door_history":"[0,0,0,0,1]","location_rts":"[3329,1420,1050,830,257]","trial_type":"two-door-navigation","trial_index":33,"time_elapsed":3285550,"internal_node_id":"0.0-2.0-31.0"},{"group":"hexagon_bi","room_assignment":["red","blue","purple","yellow","grey","green"],"door_color_assignment":["black","white"],"door_generator_assignment":[0,1],"goal":4,"start":0,"action_noise":0.15,"location_history":"[0,5,4]","action_history":"[0,1]","door_history":"[0,1]","location_rts":"[1787,843]","trial_type":"two-door-navigation","trial_index":34,"time_elapsed":3293706,"internal_node_id":"0.0-2.0-32.0"},{"group":"hexagon_bi","room_assignment":["red","blue","purple","yellow","grey","green"],"door_color_assignment":["black","white"],"door_generator_assignment":[0,1],"goal":1,"start":4,"action_noise":0.15,"location_history":"[4,3,4,3,4,3,4,3,2,1]","action_history":"[1,0,0,0,0,0,1,1,0]","door_history":"[1,0,0,0,0,0,1,1,0]","location_rts":"[1706,541,1509,413,287,513,450,1259,1611]","trial_type":"two-door-navigation","trial_index":35,"time_elapsed":3314630,"internal_node_id":"0.0-2.0-33.0"},{"group":"hexagon_bi","room_assignment":["red","blue","purple","yellow","grey","green"],"door_color_assignment":["black","white"],"door_generator_assignment":[0,1],"goal":2,"start":1,"action_noise":0.15,"location_history":"[1,2]","action_history":"[0]","door_history":"[0]","location_rts":"[1570]","trial_type":"two-door-navigation","trial_index":36,"time_elapsed":3320721,"internal_node_id":"0.0-2.0-34.0"},{"group":"hexagon_bi","room_assignment":["red","blue","purple","yellow","grey","green"],"door_color_assignment":["black","white"],"door_generator_assignment":[0,1],"goal":0,"start":2,"action_noise":0.15,"location_history":"[2,1,0]","action_history":"[0,1]","door_history":"[0,1]","location_rts":"[3227,355]","trial_type":"two-door-navigation","trial_index":37,"time_elapsed":3329849,"internal_node_id":"0.0-2.0-35.0"},{"group":"hexagon_bi","room_assignment":["red","blue","purple","yellow","grey","green"],"door_color_assignment":["black","white"],"door_generator_assignment":[0,1],"goal":5,"start":0,"action_noise":0.15,"location_history":"[0,5]","action_history":"[0]","door_history":"[0]","location_rts":"[1168]","trial_type":"two-door-navigation","trial_index":38,"time_elapsed":3335546,"internal_node_id":"0.0-2.0-36.0"},{"group":"hexagon_bi","room_assignment":["red","blue","purple","yellow","grey","green"],"door_color_assignment":["black","white"],"door_generator_assignment":[0,1],"goal":2,"start":5,"action_noise":0.15,"location_history":"[5,0,1,2]","action_history":"[0,1,0]","door_history":"[0,1,0]","location_rts":"[2411,557,550]","trial_type":"two-door-navigation","trial_index":39,"time_elapsed":3345596,"internal_node_id":"0.0-2.0-37.0"},{"group":"hexagon_bi","room_assignment":["red","blue","purple","yellow","grey","green"],"door_color_assignment":["black","white"],"door_generator_assignment":[0,1],"goal":1,"start":2,"action_noise":0.15,"location_history":"[2,1]","action_history":"[0]","door_history":"[0]","location_rts":"[1044]","trial_type":"two-door-navigation","trial_index":40,"time_elapsed":3351162,"internal_node_id":"0.0-2.0-38.0"},{"group":"hexagon_bi","room_assignment":["red","blue","purple","yellow","grey","green"],"door_color_assignment":["black","white"],"door_generator_assignment":[0,1],"goal":4,"start":1,"action_noise":0.15,"location_history":"[1,0,1,2,1,0,1,0,5,0,5,4]","action_history":"[1,1,0,0,1,1,1,0,0,0,1]","door_history":"[1,1,0,0,1,1,1,0,0,0,1]","location_rts":"[1961,17088,859,139,204,308,435,449,403,1113,648]","trial_type":"two-door-navigation","trial_index":41,"time_elapsed":3389448,"internal_node_id":"0.0-2.0-39.0"},{"group":"hexagon_bi","room_assignment":["red","blue","purple","yellow","grey","green"],"door_color_assignment":["black","white"],"door_generator_assignment":[0,1],"goal":3,"start":4,"action_noise":0.15,"location_history":"[4,3]","action_history":"[0]","door_history":"[0]","location_rts":"[1645]","trial_type":"two-door-navigation","trial_index":42,"time_elapsed":3395622,"internal_node_id":"0.0-2.0-40.0"},{"group":"hexagon_bi","room_assignment":["red","blue","purple","yellow","grey","green"],"door_color_assignment":["black","white"],"door_generator_assignment":[0,1],"goal":5,"start":3,"action_noise":0.15,"location_history":"[3,2,3,4,3,2,3,4,5]","action_history":"[1,1,0,0,1,1,1,1]","door_history":"[1,1,0,0,1,1,1,1]","location_rts":"[1341,1217,526,528,355,344,1111,529]","trial_type":"two-door-navigation","trial_index":43,"time_elapsed":3413185,"internal_node_id":"0.0-2.0-41.0"},{"group":"hexagon_bi","room_assignment":["red","blue","purple","yellow","grey","green"],"door_color_assignment":["black","white"],"door_generator_assignment":[0,1],"goal":3,"start":5,"action_noise":0.15,"location_history":"[5,4,3]","action_history":"[1,0]","door_history":"[1,0]","location_rts":"[2136,719]","trial_type":"two-door-navigation","trial_index":44,"time_elapsed":3421571,"internal_node_id":"0.0-2.0-42.0"},{"group":"hexagon_bi","room_assignment":["red","blue","purple","yellow","grey","green"],"door_color_assignment":["black","white"],"door_generator_assignment":[0,1],"goal":0,"start":3,"action_noise":0.15,"location_history":"[3,4,3,4,5,0]","action_history":"[0,0,0,1,0]","door_history":"[0,0,0,1,0]","location_rts":"[1919,1437,579,361,812]","trial_type":"two-door-navigation","trial_index":45,"time_elapsed":3435249,"internal_node_id":"0.0-2.0-43.0"},{"group":"hexagon_bi","room_assignment":["red","blue","purple","yellow","grey","green"],"door_color_assignment":["black","white"],"door_generator_assignment":[0,1],"goal":2,"start":0,"action_noise":0.15,"location_history":"[0,1,2]","action_history":"[1,0]","door_history":"[1,0]","location_rts":"[2424,754]","trial_type":"two-door-navigation","trial_index":46,"time_elapsed":3443956,"internal_node_id":"0.0-2.0-44.0"},{"group":"hexagon_bi","room_assignment":["red","blue","purple","yellow","grey","green"],"door_color_assignment":["black","white"],"door_generator_assignment":[0,1],"goal":4,"start":2,"action_noise":0.15,"location_history":"[2,1,2,3,2,3,2,3,2,1,2,1,0,1,2,3,2,1,0,1,2,1,0,5,0,5,4]","action_history":"[0,0,1,0,0,1,1,1,0,1,0,1,1,1,1,1,0,1,1,0,0,1,0,0,0,1]","door_history":"[0,0,1,0,0,1,1,1,0,1,0,1,1,1,1,1,0,1,1,0,0,1,0,0,0,1]","location_rts":"[2304,756,1431,560,565,355,91,505,1084,1529,510,114,109,857,514,618,708,164,816,569,338,340,2464,1282,1043,570]","trial_type":"two-door-navigation","trial_index":47,"time_elapsed":3494015,"internal_node_id":"0.0-2.0-45.0"},{"group":"hexagon_bi","room_assignment":["red","blue","purple","yellow","grey","green"],"door_color_assignment":["black","white"],"door_generator_assignment":[0,1],"goal":1,"start":4,"action_noise":0.15,"location_history":"[4,5,0,1]","action_history":"[1,0,1]","door_history":"[1,0,1]","location_rts":"[1357,1416,1657]","trial_type":"two-door-navigation","trial_index":48,"time_elapsed":3505001,"internal_node_id":"0.0-2.0-46.0"},{"group":"hexagon_bi","room_assignment":["red","blue","purple","yellow","grey","green"],"door_color_assignment":["black","white"],"door_generator_assignment":[0,1],"goal":4,"start":1,"action_noise":0.15,"location_history":"[1,0,5,4]","action_history":"[1,0,1]","door_history":"[1,0,1]","location_rts":"[1113,223,411]","trial_type":"two-door-navigation","trial_index":49,"time_elapsed":3513289,"internal_node_id":"0.0-2.0-47.0"},{"group":"hexagon_bi","room_assignment":["red","blue","purple","yellow","grey","green"],"door_color_assignment":["black","white"],"door_generator_assignment":[0,1],"goal":3,"start":4,"action_noise":0.15,"location_history":"[4,5,4,5,0,1,0,1,0,1,0,1,0,5,0,5,4,3]","action_history":"[0,1,0,0,1,1,0,1,1,1,1,0,0,0,0,1,0]","door_history":"[0,1,0,0,1,1,0,1,1,1,1,0,0,0,0,1,0]","location_rts":"[1036,523,1351,1074,692,433,389,673,630,706,622,769,670,1510,995,801,1331]","trial_type":"two-door-navigation","trial_index":50,"time_elapsed":3548286,"internal_node_id":"0.0-2.0-48.0"},{"group":"hexagon_bi","room_assignment":["red","blue","purple","yellow","grey","green"],"door_color_assignment":["black","white"],"door_generator_assignment":[0,1],"goal":5,"start":3,"action_noise":0.15,"location_history":"[3,4,3,2,1,2,1,0,5]","action_history":"[0,1,1,0,1,0,1,0]","door_history":"[0,1,1,0,1,0,1,0]","location_rts":"[1589,682,1246,420,205,534,283,503]","trial_type":"two-door-navigation","trial_index":51,"time_elapsed":3565363,"internal_node_id":"0.0-2.0-49.0"},{"view_history":"[{\"page_index\":0,\"viewing_time\":1742}]","rt":1743,"trial_type":"instructions","trial_index":52,"time_elapsed":3568105,"internal_node_id":"0.0-3.0"},{"view_history":"[{\"page_index\":0,\"viewing_time\":1052},{\"page_index\":1,\"viewing_time\":13081}]","rt":14133,"trial_type":"instructions","trial_index":53,"time_elapsed":3583239,"internal_node_id":"0.0-4.0"},{"group":"hexagon_tri","fractal_assignment":["../images/pnk_blu.png","../images/gry_blk.png","../images/org_blu.png","../images/blu_wht.png","../images/cyn_red.png","../images/ylw_slt.png"],"mutagen_generator_assignment":[1,0],"goal":4,"start":0,"action_noise":0.15,"location_history":"[0,1,3,2,3,4]","action_history":"[1,0,0,1,1]","mutagen_history":"[0,1,1,0,0]","location_rts":"[2473,792,861,427,115]","trial_type":"fractal-mutation","trial_index":54,"time_elapsed":3597224,"internal_node_id":"0.0-5.0-0.0"},{"group":"hexagon_tri","fractal_assignment":["../images/pnk_blu.png","../images/gry_blk.png","../images/org_blu.png","../images/blu_wht.png","../images/cyn_red.png","../images/ylw_slt.png"],"mutagen_generator_assignment":[1,0],"goal":3,"start":4,"action_noise":0.15,"location_history":"[4,0,1,5,4,0,5,4,2,1,3]","action_history":"[0,1,1,0,0,0,0,1,0,0]","mutagen_history":"[1,0,0,1,1,1,1,0,1,1]","location_rts":"[3842,525,1108,77,1633,756,442,1592,381,421]","trial_type":"fractal-mutation","trial_index":55,"time_elapsed":3623017,"internal_node_id":"0.0-5.0-1.0"},{"group":"hexagon_tri","fractal_assignment":["../images/pnk_blu.png","../images/gry_blk.png","../images/org_blu.png","../images/blu_wht.png","../images/cyn_red.png","../images/ylw_slt.png"],"mutagen_generator_assignment":[1,0],"goal":5,"start":3,"action_noise":0.15,"location_history":"[3,2,3,2,1,5]","action_history":"[0,1,0,0,0]","mutagen_history":"[1,0,1,1,1]","location_rts":"[1330,2785,241,415,490]","trial_type":"fractal-mutation","trial_index":56,"time_elapsed":3637452,"internal_node_id":"0.0-5.0-2.0"},{"group":"hexagon_tri","fractal_assignment":["../images/pnk_blu.png","../images/gry_blk.png","../images/org_blu.png","../images/blu_wht.png","../images/cyn_red.png","../images/ylw_slt.png"],"mutagen_generator_assignment":[1,0],"goal":2,"start":5,"action_noise":0.15,"location_history":"[5,0,1,5,4,0,5,4,2]","action_history":"[1,1,0,0,0,1,1,1]","mutagen_history":"[0,0,1,1,1,0,0,0]","location_rts":"[335,466,443,382,508,416,256,429]","trial_type":"fractal-mutation","trial_index":57,"time_elapsed":3653068,"internal_node_id":"0.0-5.0-3.0"},{"group":"hexagon_tri","fractal_assignment":["../images/pnk_blu.png","../images/gry_blk.png","../images/org_blu.png","../images/blu_wht.png","../images/cyn_red.png","../images/ylw_slt.png"],"mutagen_generator_assignment":[1,0],"goal":1,"start":2,"action_noise":0.15,"location_history":"[2,1]","action_history":"[0]","mutagen_history":"[1]","location_rts":"[846]","trial_type":"fractal-mutation","trial_index":58,"time_elapsed":3658569,"internal_node_id":"0.0-5.0-4.0"},{"group":"hexagon_tri","fractal_assignment":["../images/pnk_blu.png","../images/gry_blk.png","../images/org_blu.png","../images/blu_wht.png","../images/cyn_red.png","../images/ylw_slt.png"],"mutagen_generator_assignment":[1,0],"goal":4,"start":1,"action_noise":0.15,"location_history":"[1,3,2,1,3,2,3,4]","action_history":"[0,0,0,0,0,1,1]","mutagen_history":"[1,1,1,1,1,0,0]","location_rts":"[1225,545,483,463,625,572,369]","trial_type":"fractal-mutation","trial_index":59,"time_elapsed":3674228,"internal_node_id":"0.0-5.0-5.0"},{"group":"hexagon_tri","fractal_assignment":["../images/pnk_blu.png","../images/gry_blk.png","../images/org_blu.png","../images/blu_wht.png","../images/cyn_red.png","../images/ylw_slt.png"],"mutagen_generator_assignment":[1,0],"goal":1,"start":4,"action_noise":0.15,"location_history":"[4,0,5,4,0,5,0,1]","action_history":"[0,0,0,0,0,1,1]","mutagen_history":"[1,1,1,1,1,0,0]","location_rts":"[1182,331,322,445,737,302,339]","trial_type":"fractal-mutation","trial_index":60,"time_elapsed":3689206,"internal_node_id":"0.0-5.0-6.0"},{"group":"hexagon_tri","fractal_assignment":["../images/pnk_blu.png","../images/gry_blk.png","../images/org_blu.png","../images/blu_wht.png","../images/cyn_red.png","../images/ylw_slt.png"],"mutagen_generator_assignment":[1,0],"goal":5,"start":1,"action_noise":0.15,"location_history":"[1,3,2,1,5]","action_history":"[1,0,0,1]","mutagen_history":"[0,1,1,0]","location_rts":"[333,1119,142,233]","trial_type":"fractal-mutation","trial_index":61,"time_elapsed":3699153,"internal_node_id":"0.0-5.0-7.0"},{"group":"hexagon_tri","fractal_assignment":["../images/pnk_blu.png","../images/gry_blk.png","../images/org_blu.png","../images/blu_wht.png","../images/cyn_red.png","../images/ylw_slt.png"],"mutagen_generator_assignment":[1,0],"goal":0,"start":5,"action_noise":0.15,"location_history":"[5,0]","action_history":"[1]","mutagen_history":"[0]","location_rts":"[752]","trial_type":"fractal-mutation","trial_index":62,"time_elapsed":3704530,"internal_node_id":"0.0-5.0-8.0"},{"group":"hexagon_tri","fractal_assignment":["../images/pnk_blu.png","../images/gry_blk.png","../images/org_blu.png","../images/blu_wht.png","../images/cyn_red.png","../images/ylw_slt.png"],"mutagen_generator_assignment":[1,0],"goal":2,"start":0,"action_noise":0.15,"location_history":"[0,1,3,4,0,5,4,0,1,5,0,1,3,4,0,5,0,1,3,2]","action_history":"[0,0,1,1,0,0,0,1,1,1,1,1,0,0,0,0,0,0,0]","mutagen_history":"[1,1,0,0,1,1,1,0,0,0,0,0,1,1,1,1,1,1,1]","location_rts":"[504,383,321,206,262,333,375,144,689,407,287,480,172,280,376,393,336,458,425]","trial_type":"fractal-mutation","trial_index":63,"time_elapsed":3736552,"internal_node_id":"0.0-5.0-9.0"},{"group":"hexagon_tri","fractal_assignment":["../images/pnk_blu.png","../images/gry_blk.png","../images/org_blu.png","../images/blu_wht.png","../images/cyn_red.png","../images/ylw_slt.png"],"mutagen_generator_assignment":[1,0],"goal":3,"start":2,"action_noise":0.15,"location_history":"[2,3]","action_history":"[1]","mutagen_history":"[0]","location_rts":"[66]","trial_type":"fractal-mutation","trial_index":64,"time_elapsed":3741263,"internal_node_id":"0.0-5.0-10.0"},{"group":"hexagon_tri","fractal_assignment":["../images/pnk_blu.png","../images/gry_blk.png","../images/org_blu.png","../images/blu_wht.png","../images/cyn_red.png","../images/ylw_slt.png"],"mutagen_generator_assignment":[1,0],"goal":0,"start":3,"action_noise":0.15,"location_history":"[3,2,3,2,1,5,0]","action_history":"[1,1,0,0,0,1]","mutagen_history":"[0,0,1,1,1,0]","location_rts":"[406,278,947,175,340,287]","trial_type":"fractal-mutation","trial_index":65,"time_elapsed":3753985,"internal_node_id":"0.0-5.0-11.0"},{"group":"hexagon_tri","fractal_assignment":["../images/pnk_blu.png","../images/gry_blk.png","../images/org_blu.png","../images/blu_wht.png","../images/cyn_red.png","../images/ylw_slt.png"],"mutagen_generator_assignment":[1,0],"goal":2,"start":0,"action_noise":0.15,"location_history":"[0,5,0,5,0,1,5,4,0,5,4,0,1,3,2]","action_history":"[0,1,0,1,1,1,0,0,0,0,1,1,1,1]","mutagen_history":"[1,0,1,0,0,0,1,1,1,1,0,0,0,0]","location_rts":"[189,135,146,203,261,319,1177,2206,77,4143,50,253,285,288]","trial_type":"fractal-mutation","trial_index":66,"time_elapsed":3782763,"internal_node_id":"0.0-5.0-12.0"},{"group":"hexagon_tri","fractal_assignment":["../images/pnk_blu.png","../images/gry_blk.png","../images/org_blu.png","../images/blu_wht.png","../images/cyn_red.png","../images/ylw_slt.png"],"mutagen_generator_assignment":[1,0],"goal":5,"start":2,"action_noise":0.15,"location_history":"[2,3,4,0,1,3,2,3,2,3,4,2,3,2,3,4,2,1,3,4,0,5]","action_history":"[1,1,0,0,0,0,1,0,0,1,1,0,0,1,0,1,0,0,0,0,0]","mutagen_history":"[0,0,1,1,1,1,0,1,1,0,0,1,1,0,1,0,1,1,1,1,1]","location_rts":"[1481,1165,58,147,1138,126,308,258,14,110,85,584,626,719,325,171,76,49,92,113,27]","trial_type":"fractal-mutation","trial_index":67,"time_elapsed":3817314,"internal_node_id":"0.0-5.0-13.0"},{"group":"hexagon_tri","fractal_assignment":["../images/pnk_blu.png","../images/gry_blk.png","../images/org_blu.png","../images/blu_wht.png","../images/cyn_red.png","../images/ylw_slt.png"],"mutagen_generator_assignment":[1,0],"goal":4,"start":5,"action_noise":0.15,"location_history":"[5,0,5,4]","action_history":"[1,0,0]","mutagen_history":"[0,1,1]","location_rts":"[89,926,234]","trial_type":"fractal-mutation","trial_index":68,"time_elapsed":3825395,"internal_node_id":"0.0-5.0-14.0"},{"group":"hexagon_tri","fractal_assignment":["../images/pnk_blu.png","../images/gry_blk.png","../images/org_blu.png","../images/blu_wht.png","../images/cyn_red.png","../images/ylw_slt.png"],"mutagen_generator_assignment":[1,0],"goal":3,"start":4,"action_noise":0.15,"location_history":"[4,2,1,3]","action_history":"[1,0,0]","mutagen_history":"[0,1,1]","location_rts":"[614,476,244]","trial_type":"fractal-mutation","trial_index":69,"time_elapsed":3833635,"internal_node_id":"0.0-5.0-15.0"},{"group":"hexagon_tri","fractal_assignment":["../images/pnk_blu.png","../images/gry_blk.png","../images/org_blu.png","../images/blu_wht.png","../images/cyn_red.png","../images/ylw_slt.png"],"mutagen_generator_assignment":[1,0],"goal":1,"start":3,"action_noise":0.15,"location_history":"[3,4,0,5,4,0,5,4,2,3,4,0,5,4,0,1]","action_history":"[1,0,0,0,0,0,0,1,1,0,0,0,0,0,1]","mutagen_history":"[0,1,1,1,1,1,1,0,0,1,1,1,1,1,0]","location_rts":"[448,180,180,67,133,136,53,669,123,125,95,36,69,50,55]","trial_type":"fractal-mutation","trial_index":70,"time_elapsed":3856718,"internal_node_id":"0.0-5.0-16.0"},{"group":"hexagon_tri","fractal_assignment":["../images/pnk_blu.png","../images/gry_blk.png","../images/org_blu.png","../images/blu_wht.png","../images/cyn_red.png","../images/ylw_slt.png"],"mutagen_generator_assignment":[1,0],"goal":5,"start":1,"action_noise":0.15,"location_history":"[1,5]","action_history":"[1]","mutagen_history":"[0]","location_rts":"[626]","trial_type":"fractal-mutation","trial_index":71,"time_elapsed":3861922,"internal_node_id":"0.0-5.0-17.0"},{"group":"hexagon_tri","fractal_assignment":["../images/pnk_blu.png","../images/gry_blk.png","../images/org_blu.png","../images/blu_wht.png","../images/cyn_red.png","../images/ylw_slt.png"],"mutagen_generator_assignment":[1,0],"goal":4,"start":5,"action_noise":0.15,"location_history":"[5,4]","action_history":"[0]","mutagen_history":"[1]","location_rts":"[111]","trial_type":"fractal-mutation","trial_index":72,"time_elapsed":3866595,"internal_node_id":"0.0-5.0-18.0"},{"group":"hexagon_tri","fractal_assignment":["../images/pnk_blu.png","../images/gry_blk.png","../images/org_blu.png","../images/blu_wht.png","../images/cyn_red.png","../images/ylw_slt.png"],"mutagen_generator_assignment":[1,0],"goal":0,"start":4,"action_noise":0.15,"location_history":"[4,2,1,5,0]","action_history":"[1,1,1,1]","mutagen_history":"[0,0,0,0]","location_rts":"[752,317,224,233]","trial_type":"fractal-mutation","trial_index":73,"time_elapsed":3876049,"internal_node_id":"0.0-5.0-19.0"},{"group":"hexagon_tri","fractal_assignment":["../images/pnk_blu.png","../images/gry_blk.png","../images/org_blu.png","../images/blu_wht.png","../images/cyn_red.png","../images/ylw_slt.png"],"mutagen_generator_assignment":[1,0],"goal":1,"start":0,"action_noise":0.15,"location_history":"[0,1]","action_history":"[1]","mutagen_history":"[0]","location_rts":"[305]","trial_type":"fractal-mutation","trial_index":74,"time_elapsed":3880947,"internal_node_id":"0.0-5.0-20.0"},{"group":"hexagon_tri","fractal_assignment":["../images/pnk_blu.png","../images/gry_blk.png","../images/org_blu.png","../images/blu_wht.png","../images/cyn_red.png","../images/ylw_slt.png"],"mutagen_generator_assignment":[1,0],"goal":3,"start":1,"action_noise":0.15,"location_history":"[1,3]","action_history":"[0]","mutagen_history":"[1]","location_rts":"[565]","trial_type":"fractal-mutation","trial_index":75,"time_elapsed":3886141,"internal_node_id":"0.0-5.0-21.0"},{"group":"hexagon_tri","fractal_assignment":["../images/pnk_blu.png","../images/gry_blk.png","../images/org_blu.png","../images/blu_wht.png","../images/cyn_red.png","../images/ylw_slt.png"],"mutagen_generator_assignment":[1,0],"goal":2,"start":3,"action_noise":0.15,"location_history":"[3,2]","action_history":"[0]","mutagen_history":"[1]","location_rts":"[948]","trial_type":"fractal-mutation","trial_index":76,"time_elapsed":3891742,"internal_node_id":"0.0-5.0-22.0"},{"group":"hexagon_tri","fractal_assignment":["../images/pnk_blu.png","../images/gry_blk.png","../images/org_blu.png","../images/blu_wht.png","../images/cyn_red.png","../images/ylw_slt.png"],"mutagen_generator_assignment":[1,0],"goal":0,"start":2,"action_noise":0.15,"location_history":"[2,3,4,0]","action_history":"[1,1,1]","mutagen_history":"[0,0,0]","location_rts":"[691,381,379]","trial_type":"fractal-mutation","trial_index":77,"time_elapsed":3900011,"internal_node_id":"0.0-5.0-23.0"},{"group":"hexagon_tri","fractal_assignment":["../images/pnk_blu.png","../images/gry_blk.png","../images/org_blu.png","../images/blu_wht.png","../images/cyn_red.png","../images/ylw_slt.png"],"mutagen_generator_assignment":[1,0],"goal":3,"start":0,"action_noise":0.15,"location_history":"[0,5,0,5,4,0,5,4,2,1,5,0,1,3]","action_history":"[0,0,0,0,0,0,0,1,1,1,1,1,0]","mutagen_history":"[1,1,1,1,1,1,1,0,0,0,0,0,1]","location_rts":"[640,347,342,363,492,321,451,191,159,142,171,163,287]","trial_type":"fractal-mutation","trial_index":78,"time_elapsed":3922190,"internal_node_id":"0.0-5.0-24.0"},{"group":"hexagon_tri","fractal_assignment":["../images/pnk_blu.png","../images/gry_blk.png","../images/org_blu.png","../images/blu_wht.png","../images/cyn_red.png","../images/ylw_slt.png"],"mutagen_generator_assignment":[1,0],"goal":1,"start":3,"action_noise":0.15,"location_history":"[3,4,2,3,2,3,4,0,1]","action_history":"[1,1,1,1,1,1,0,0]","mutagen_history":"[0,0,0,0,0,0,1,1]","location_rts":"[219,431,59,32,27,28,86,668]","trial_type":"fractal-mutation","trial_index":79,"time_elapsed":3936054,"internal_node_id":"0.0-5.0-25.0"},{"group":"hexagon_tri","fractal_assignment":["../images/pnk_blu.png","../images/gry_blk.png","../images/org_blu.png","../images/blu_wht.png","../images/cyn_red.png","../images/ylw_slt.png"],"mutagen_generator_assignment":[1,0],"goal":2,"start":1,"action_noise":0.15,"location_history":"[1,5,0,1,5,4,2]","action_history":"[1,1,1,1,1,1]","mutagen_history":"[0,0,0,0,0,0]","location_rts":"[931,87,143,36,79,86]","trial_type":"fractal-mutation","trial_index":80,"time_elapsed":3947517,"internal_node_id":"0.0-5.0-26.0"},{"group":"hexagon_tri","fractal_assignment":["../images/pnk_blu.png","../images/gry_blk.png","../images/org_blu.png","../images/blu_wht.png","../images/cyn_red.png","../images/ylw_slt.png"],"mutagen_generator_assignment":[1,0],"goal":5,"start":2,"action_noise":0.15,"location_history":"[2,3,2,1,3,2,1,3,2,1,5]","action_history":"[1,0,0,0,0,0,0,0,0,1]","mutagen_history":"[0,1,1,1,1,1,1,1,1,0]","location_rts":"[73,773,326,26,86,20,136,50,42,184]","trial_type":"fractal-mutation","trial_index":81,"time_elapsed":3964049,"internal_node_id":"0.0-5.0-27.0"},{"group":"hexagon_tri","fractal_assignment":["../images/pnk_blu.png","../images/gry_blk.png","../images/org_blu.png","../images/blu_wht.png","../images/cyn_red.png","../images/ylw_slt.png"],"mutagen_generator_assignment":[1,0],"goal":4,"start":5,"action_noise":0.15,"location_history":"[5,4]","action_history":"[0]","mutagen_history":"[1]","location_rts":"[236]","trial_type":"fractal-mutation","trial_index":82,"time_elapsed":3969100,"internal_node_id":"0.0-5.0-28.0"},{"group":"hexagon_tri","fractal_assignment":["../images/pnk_blu.png","../images/gry_blk.png","../images/org_blu.png","../images/blu_wht.png","../images/cyn_red.png","../images/ylw_slt.png"],"mutagen_generator_assignment":[1,0],"goal":5,"start":4,"action_noise":0.15,"location_history":"[4,0,5]","action_history":"[0,0]","mutagen_history":"[1,1]","location_rts":"[261,29]","trial_type":"fractal-mutation","trial_index":83,"time_elapsed":3975181,"internal_node_id":"0.0-5.0-29.0"},{"group":"hexagon_tri","fractal_assignment":["../images/pnk_blu.png","../images/gry_blk.png","../images/org_blu.png","../images/blu_wht.png","../images/cyn_red.png","../images/ylw_slt.png"],"mutagen_generator_assignment":[1,0],"goal":3,"start":5,"action_noise":0.15,"location_history":"[5,0,1,5,4,0,5,4,0,5,4,2,3]","action_history":"[1,1,1,0,0,0,0,0,0,0,1,1]","mutagen_history":"[0,0,0,1,1,1,1,1,1,1,0,0]","location_rts":"[475,48,120,182,57,41,53,375,55,187,111,1]","trial_type":"fractal-mutation","trial_index":84,"time_elapsed":3993922,"internal_node_id":"0.0-5.0-30.0"},{"group":"hexagon_tri","fractal_assignment":["../images/pnk_blu.png","../images/gry_blk.png","../images/org_blu.png","../images/blu_wht.png","../images/cyn_red.png","../images/ylw_slt.png"],"mutagen_generator_assignment":[1,0],"goal":0,"start":3,"action_noise":0.15,"location_history":"[3,4,2,1,3,2,3,2,1,3,4,2,3,4,2,3,2,3,4,2,1,3,2,3,2,1,3,2,3,4,2,3,4,2,1,5,0]","action_history":"[1,1,0,0,0,0,0,0,0,1,1,1,1,1,1,0,1,1,1,0,0,0,0,0,0,0,0,1,1,1,1,1,1,1,1,1]","mutagen_history":"[0,0,1,1,1,1,1,1,1,0,0,0,0,0,0,1,0,0,0,1,1,1,1,1,1,1,1,0,0,0,0,0,0,0,0,0]","location_rts":"[247,209,90,71,90,37,499,69,165,384,71,272,376,20,23,100,516,641,31,58,523,152,171,975,334,94,55,318,38,217,35,17,133,24,10,135]","trial_type":"fractal-mutation","trial_index":85,"time_elapsed":4044397,"internal_node_id":"0.0-5.0-31.0"},{"group":"hexagon_tri","fractal_assignment":["../images/pnk_blu.png","../images/gry_blk.png","../images/org_blu.png","../images/blu_wht.png","../images/cyn_red.png","../images/ylw_slt.png"],"mutagen_generator_assignment":[1,0],"goal":4,"start":0,"action_noise":0.15,"location_history":"[0,1,3,2,1,3,2,3,2,3,4]","action_history":"[1,0,0,0,0,0,1,0,1,0]","mutagen_history":"[0,1,1,1,1,1,0,1,0,1]","location_rts":"[282,214,566,374,256,44,52,65,632,245]","trial_type":"fractal-mutation","trial_index":86,"time_elapsed":4061743,"internal_node_id":"0.0-5.0-32.0"},{"group":"hexagon_tri","fractal_assignment":["../images/pnk_blu.png","../images/gry_blk.png","../images/org_blu.png","../images/blu_wht.png","../images/cyn_red.png","../images/ylw_slt.png"],"mutagen_generator_assignment":[1,0],"goal":1,"start":4,"action_noise":0.15,"location_history":"[4,2,3,4,2,3,4,0,5,0,5,4,2,1]","action_history":"[1,1,1,1,1,1,0,0,0,0,0,0,0]","mutagen_history":"[0,0,0,0,0,0,1,1,1,1,1,1,1]","location_rts":"[250,74,67,47,76,103,57,29,26,99,583,83,87]","trial_type":"fractal-mutation","trial_index":87,"time_elapsed":4081403,"internal_node_id":"0.0-5.0-33.0"},{"group":"hexagon_tri","fractal_assignment":["../images/pnk_blu.png","../images/gry_blk.png","../images/org_blu.png","../images/blu_wht.png","../images/cyn_red.png","../images/ylw_slt.png"],"mutagen_generator_assignment":[1,0],"goal":2,"start":1,"action_noise":0.15,"location_history":"[1,5,0,1,3,4,2]","action_history":"[1,1,1,1,1,1]","mutagen_history":"[0,0,0,0,0,0]","location_rts":"[554,167,50,63,28,125]","trial_type":"fractal-mutation","trial_index":88,"time_elapsed":4092566,"internal_node_id":"0.0-5.0-34.0"},{"group":"hexagon_tri","fractal_assignment":["../images/pnk_blu.png","../images/gry_blk.png","../images/org_blu.png","../images/blu_wht.png","../images/cyn_red.png","../images/ylw_slt.png"],"mutagen_generator_assignment":[1,0],"goal":0,"start":2,"action_noise":0.15,"location_history":"[2,1,3,2,3,4,2,3,4,2,1,3,2,3,4,2,3,2,3,4,2,1,3,4,0]","action_history":"[0,0,0,1,1,1,1,1,1,0,0,0,1,1,1,1,0,1,1,1,1,0,1,0]","mutagen_history":"[1,1,1,0,0,0,0,0,0,1,1,1,0,0,0,0,1,0,0,0,0,1,0,1]","location_rts":"[772,38,882,821,97,488,109,203,602,629,488,131,490,152,76,567,41,145,1216,22,449,991,597,221]","trial_type":"fractal-mutation","trial_index":89,"time_elapsed":4132838,"internal_node_id":"0.0-5.0-35.0"},{"group":"hexagon_tri","fractal_assignment":["../images/pnk_blu.png","../images/gry_blk.png","../images/org_blu.png","../images/blu_wht.png","../images/cyn_red.png","../images/ylw_slt.png"],"mutagen_generator_assignment":[1,0],"goal":5,"start":0,"action_noise":0.15,"location_history":"[0,1,3,4,2,1,5]","action_history":"[1,1,1,1,0,0]","mutagen_history":"[0,0,0,0,1,1]","location_rts":"[772,128,56,140,251,802]","trial_type":"fractal-mutation","trial_index":90,"time_elapsed":4145049,"internal_node_id":"0.0-5.0-36.0"},{"group":"hexagon_tri","fractal_assignment":["../images/pnk_blu.png","../images/gry_blk.png","../images/org_blu.png","../images/blu_wht.png","../images/cyn_red.png","../images/ylw_slt.png"],"mutagen_generator_assignment":[1,0],"goal":2,"start":5,"action_noise":0.15,"location_history":"[5,0,1,5,4,0,1,5,0,1,5,4,0,1,5,0,1,5,0,1,3,2]","action_history":"[1,1,1,0,0,1,1,1,1,1,0,0,1,1,1,1,1,1,1,0,0]","mutagen_history":"[0,0,0,1,1,0,0,0,0,0,1,1,0,0,0,0,0,0,0,1,1]","location_rts":"[657,70,582,839,75,680,127,86,62,473,16,647,29,30,80,520,176,310,287,382,157]","trial_type":"fractal-mutation","trial_index":91,"time_elapsed":4178146,"internal_node_id":"0.0-5.0-37.0"},{"group":"hexagon_tri","fractal_assignment":["../images/pnk_blu.png","../images/gry_blk.png","../images/org_blu.png","../images/blu_wht.png","../images/cyn_red.png","../images/ylw_slt.png"],"mutagen_generator_assignment":[1,0],"goal":1,"start":2,"action_noise":0.15,"location_history":"[2,1]","action_history":"[0]","mutagen_history":"[1]","location_rts":"[305]","trial_type":"fractal-mutation","trial_index":92,"time_elapsed":4183090,"internal_node_id":"0.0-5.0-38.0"},{"group":"hexagon_tri","fractal_assignment":["../images/pnk_blu.png","../images/gry_blk.png","../images/org_blu.png","../images/blu_wht.png","../images/cyn_red.png","../images/ylw_slt.png"],"mutagen_generator_assignment":[1,0],"goal":4,"start":1,"action_noise":0.15,"location_history":"[1,3,2,1,3,2,1,5,0,5,4]","action_history":"[0,0,0,0,0,0,1,1,0,0]","mutagen_history":"[1,1,1,1,1,1,0,0,1,1]","location_rts":"[526,534,1057,270,324,135,85,611,258,220]","trial_type":"fractal-mutation","trial_index":93,"time_elapsed":4201890,"internal_node_id":"0.0-5.0-39.0"},{"group":"hexagon_tri","fractal_assignment":["../images/pnk_blu.png","../images/gry_blk.png","../images/org_blu.png","../images/blu_wht.png","../images/cyn_red.png","../images/ylw_slt.png"],"mutagen_generator_assignment":[1,0],"goal":3,"start":4,"action_noise":0.15,"location_history":"[4,2,1,5,0,5,4,0,5,0,1,5,0,1,3]","action_history":"[1,1,1,1,0,0,0,0,1,1,1,1,1,0]","mutagen_history":"[0,0,0,0,1,1,1,1,0,0,0,0,0,1]","location_rts":"[1754,473,324,521,2493,388,493,660,29,1600,1284,623,710,1568]","trial_type":"fractal-mutation","trial_index":94,"time_elapsed":4234005,"internal_node_id":"0.0-5.0-40.0"},{"group":"hexagon_tri","fractal_assignment":["../images/pnk_blu.png","../images/gry_blk.png","../images/org_blu.png","../images/blu_wht.png","../images/cyn_red.png","../images/ylw_slt.png"],"mutagen_generator_assignment":[1,0],"goal":5,"start":3,"action_noise":0.15,"location_history":"[3,4,2,3,4,0,1,3,2,1,5]","action_history":"[1,1,1,1,1,1,1,0,0,1]","mutagen_history":"[0,0,0,0,0,0,0,1,1,0]","location_rts":"[1780,185,152,51,90,526,397,389,138,438]","trial_type":"fractal-mutation","trial_index":95,"time_elapsed":4252686,"internal_node_id":"0.0-5.0-41.0"},{"group":"hexagon_tri","fractal_assignment":["../images/pnk_blu.png","../images/gry_blk.png","../images/org_blu.png","../images/blu_wht.png","../images/cyn_red.png","../images/ylw_slt.png"],"mutagen_generator_assignment":[1,0],"goal":3,"start":5,"action_noise":0.15,"location_history":"[5,4,0,1,5,4,2,3]","action_history":"[0,1,1,1,0,1,1]","mutagen_history":"[1,0,0,0,1,0,0]","location_rts":"[479,147,158,151,1270,268,384]","trial_type":"fractal-mutation","trial_index":96,"time_elapsed":4266815,"internal_node_id":"0.0-5.0-42.0"},{"group":"hexagon_tri","fractal_assignment":["../images/pnk_blu.png","../images/gry_blk.png","../images/org_blu.png","../images/blu_wht.png","../images/cyn_red.png","../images/ylw_slt.png"],"mutagen_generator_assignment":[1,0],"goal":0,"start":3,"action_noise":0.15,"location_history":"[3,2,3,2,3,2,3,2,1,5,0]","action_history":"[0,0,0,1,1,1,0,0,1,1]","mutagen_history":"[1,1,1,0,0,0,1,1,0,0]","location_rts":"[192,224,466,262,147,21,65,46,576,297]","trial_type":"fractal-mutation","trial_index":97,"time_elapsed":4283620,"internal_node_id":"0.0-5.0-43.0"},{"group":"hexagon_tri","fractal_assignment":["../images/pnk_blu.png","../images/gry_blk.png","../images/org_blu.png","../images/blu_wht.png","../images/cyn_red.png","../images/ylw_slt.png"],"mutagen_generator_assignment":[1,0],"goal":2,"start":0,"action_noise":0.15,"location_history":"[0,5,4,0,1,5,0,1,5,0,5,4,0,1,3,4,0,1,3,4,2]","action_history":"[0,0,0,1,1,1,1,1,0,0,0,0,1,1,1,0,1,1,1,1]","mutagen_history":"[1,1,1,0,0,0,0,0,1,1,1,1,0,0,0,1,0,0,0,0]","location_rts":"[853,0,164,32,51,75,23,49,85,152,33,158,212,321,212,87,62,117,493,525]","trial_type":"fractal-mutation","trial_index":98,"time_elapsed":4312876,"internal_node_id":"0.0-5.0-44.0"},{"group":"hexagon_tri","fractal_assignment":["../images/pnk_blu.png","../images/gry_blk.png","../images/org_blu.png","../images/blu_wht.png","../images/cyn_red.png","../images/ylw_slt.png"],"mutagen_generator_assignment":[1,0],"goal":4,"start":2,"action_noise":0.15,"location_history":"[2,3,2,1,3,4]","action_history":"[1,0,0,0,1]","mutagen_history":"[0,1,1,1,0]","location_rts":"[1466,518,497,403,165]","trial_type":"fractal-mutation","trial_index":99,"time_elapsed":4325141,"internal_node_id":"0.0-5.0-45.0"},{"group":"hexagon_tri","fractal_assignment":["../images/pnk_blu.png","../images/gry_blk.png","../images/org_blu.png","../images/blu_wht.png","../images/cyn_red.png","../images/ylw_slt.png"],"mutagen_generator_assignment":[1,0],"goal":1,"start":4,"action_noise":0.15,"location_history":"[4,0,5,4,2,1]","action_history":"[0,0,0,0,0]","mutagen_history":"[1,1,1,1,1]","location_rts":"[1086,324,344,386,177]","trial_type":"fractal-mutation","trial_index":100,"time_elapsed":4336632,"internal_node_id":"0.0-5.0-46.0"},{"group":"hexagon_tri","fractal_assignment":["../images/pnk_blu.png","../images/gry_blk.png","../images/org_blu.png","../images/blu_wht.png","../images/cyn_red.png","../images/ylw_slt.png"],"mutagen_generator_assignment":[1,0],"goal":4,"start":1,"action_noise":0.15,"location_history":"[1,5,0,1,5,4]","action_history":"[1,1,1,1,0]","mutagen_history":"[0,0,0,0,1]","location_rts":"[715,126,99,395,373]","trial_type":"fractal-mutation","trial_index":101,"time_elapsed":4347499,"internal_node_id":"0.0-5.0-47.0"},{"group":"hexagon_tri","fractal_assignment":["../images/pnk_blu.png","../images/gry_blk.png","../images/org_blu.png","../images/blu_wht.png","../images/cyn_red.png","../images/ylw_slt.png"],"mutagen_generator_assignment":[1,0],"goal":3,"start":4,"action_noise":0.15,"location_history":"[4,2,1,3]","action_history":"[1,0,0]","mutagen_history":"[0,1,1]","location_rts":"[985,721,158]","trial_type":"fractal-mutation","trial_index":102,"time_elapsed":4356225,"internal_node_id":"0.0-5.0-48.0"},{"group":"hexagon_tri","fractal_assignment":["../images/pnk_blu.png","../images/gry_blk.png","../images/org_blu.png","../images/blu_wht.png","../images/cyn_red.png","../images/ylw_slt.png"],"mutagen_generator_assignment":[1,0],"goal":5,"start":3,"action_noise":0.15,"location_history":"[3,2,3,4,2,3,4,2,1,3,4,2,3,2,1,3,2,3,4,0,1,5]","action_history":"[0,1,1,1,1,1,0,0,1,1,1,0,0,0,0,0,1,1,1,1,1]","mutagen_history":"[1,0,0,0,0,0,1,1,0,0,0,1,1,1,1,1,0,0,0,0,0]","location_rts":"[1033,383,188,382,309,56,474,68,504,486,342,469,576,396,820,883,318,159,133,54,204]","trial_type":"fractal-mutation","trial_index":103,"time_elapsed":4391363,"internal_node_id":"0.0-5.0-49.0"},{"view_history":"[{\"page_index\":0,\"viewing_time\":6899}]","rt":6901,"trial_type":"instructions","trial_index":104,"time_elapsed":4399264,"internal_node_id":"0.0-6.0"},{"rt":82810,"responses":"{\"Q0\":\"I was unable to finish the HIT before the timer ran out but still finished the experiment.  I will be submitting the answers but don't know if I'll receive credit for what I did.  It was a very fun experiment and I would like to continue to the others if possible.  Thank you.\"}","trial_type":"survey-text","trial_index":105,"time_elapsed":4483091,"internal_node_id":"0.0-7.0"}]