[{"view_history":"[{\"page_index\":0,\"viewing_time\":8857},{\"page_index\":1,\"viewing_time\":31888},{\"page_index\":2,\"viewing_time\":13584},{\"page_index\":3,\"viewing_time\":3688}]","rt":58017,"trial_type":"instructions","trial_index":0,"time_elapsed":58017,"internal_node_id":"0.0-0.0"},{"view_history":"[{\"page_index\":0,\"viewing_time\":11638},{\"page_index\":1,\"viewing_time\":21319}]","rt":32957,"trial_type":"instructions","trial_index":1,"time_elapsed":91976,"internal_node_id":"0.0-1.0"},{"group":"hexagon_tri","room_assignment":["grey","yellow","purple","red","green","blue"],"door_color_assignment":["black","white"],"door_generator_assignment":[0,1],"goal":4,"start":0,"action_noise":0.15,"location_history":"[0,1,3,2,1,5,4]","action_history":"[1,0,0,0,0,1]","door_history":"[1,0,0,0,0,1]","location_rts":"[6439,2171,2270,1406,1378,2856]","trial_type":"two-door-navigation","trial_index":2,"time_elapsed":118136,"internal_node_id":"0.0-2.0-0.0"},{"group":"hexagon_tri","room_assignment":["grey","yellow","purple","red","green","blue"],"door_color_assignment":["black","white"],"door_generator_assignment":[0,1],"goal":3,"start":4,"action_noise":0.15,"location_history":"[4,0,5,4,2,1,5,4,0,5,0,5,4,0,1,5,4,0,5,4,0,1,5,0,5,4,0,1,3]","action_history":"[0,0,0,1,0,1,0,0,1,1,0,0,1,1,1,1,0,0,0,0,1,1,1,1,0,0,1,1]","door_history":"[0,0,0,1,0,1,0,0,1,1,0,0,1,1,1,1,0,0,0,0,1,1,1,1,0,0,1,1]","location_rts":"[2126,1240,855,718,716,670,1203,773,682,707,1116,593,881,721,646,683,1173,472,557,552,815,601,566,686,908,505,1160,450]","trial_type":"two-door-navigation","trial_index":3,"time_elapsed":173058,"internal_node_id":"0.0-2.0-1.0"},{"group":"hexagon_tri","room_assignment":["grey","yellow","purple","red","green","blue"],"door_color_assignment":["black","white"],"door_generator_assignment":[0,1],"goal":5,"start":3,"action_noise":0.15,"location_history":"[3,4,2,3,4,2,1,3,2,1,3,2,1,3,2,1,3,4,2,3,4,2,3,4,2,3,4,2,3,4,2,3,4,2,3,2,3,2,1,3,4,0,1,5]","action_history":"[1,1,1,1,1,0,0,0,0,0,0,0,0,0,0,0,1,1,1,1,1,1,1,1,1,1,1,1,1,1,1,1,1,1,1,1,0,0,0,0,0,1,1]","door_history":"[1,1,1,1,1,0,0,0,0,0,0,0,0,0,0,0,1,1,1,1,1,1,1,1,1,1,1,1,1,1,1,1,1,1,1,1,0,0,0,0,0,1,1]","location_rts":"[2107,727,557,682,526,568,393,780,490,466,476,541,726,489,505,464,751,1511,639,821,468,754,358,406,286,408,394,391,341,433,288,334,320,288,319,354,384,2225,278,335,292,324,325]","trial_type":"two-door-navigation","trial_index":4,"time_elapsed":245061,"internal_node_id":"0.0-2.0-2.0"},{"group":"hexagon_tri","room_assignment":["grey","yellow","purple","red","green","blue"],"door_color_assignment":["black","white"],"door_generator_assignment":[0,1],"goal":2,"start":5,"action_noise":0.15,"location_history":"[5,0,1,5,0,1,5,0,5,4,0,1,3,2]","action_history":"[1,1,1,1,1,1,1,0,0,0,0,0,0]","door_history":"[1,1,1,1,1,1,1,0,0,0,0,0,0]","location_rts":"[1055,465,506,412,1105,1198,1288,863,418,489,359,288,398]","trial_type":"two-door-navigation","trial_index":5,"time_elapsed":270695,"internal_node_id":"0.0-2.0-3.0"},{"group":"hexagon_tri","room_assignment":["grey","yellow","purple","red","green","blue"],"door_color_assignment":["black","white"],"door_generator_assignment":[0,1],"goal":1,"start":2,"action_noise":0.15,"location_history":"[2,1]","action_history":"[0]","door_history":"[0]","location_rts":"[880]","trial_type":"two-door-navigation","trial_index":6,"time_elapsed":276105,"internal_node_id":"0.0-2.0-4.0"},{"group":"hexagon_tri","room_assignment":["grey","yellow","purple","red","green","blue"],"door_color_assignment":["black","white"],"door_generator_assignment":[0,1],"goal":4,"start":1,"action_noise":0.15,"location_history":"[1,5,0,1,5,0,1,5,0,5,0,5,4]","action_history":"[1,1,1,1,1,1,1,1,1,1,0,0]","door_history":"[1,1,1,1,1,1,1,1,1,1,0,0]","location_rts":"[6087,519,355,371,378,354,368,445,367,373,817,353]","trial_type":"two-door-navigation","trial_index":7,"time_elapsed":302673,"internal_node_id":"0.0-2.0-5.0"},{"group":"hexagon_tri","room_assignment":["grey","yellow","purple","red","green","blue"],"door_color_assignment":["black","white"],"door_generator_assignment":[0,1],"goal":1,"start":4,"action_noise":0.15,"location_history":"[4,2,3,4,0,5,4,2,3,4,2,1]","action_history":"[1,1,1,0,0,0,1,1,1,1,1]","door_history":"[1,1,1,0,0,0,1,1,1,1,1]","location_rts":"[2046,2190,1109,2330,1120,1455,1467,1397,1864,1573,828]","trial_type":"two-door-navigation","trial_index":8,"time_elapsed":334815,"internal_node_id":"0.0-2.0-6.0"},{"group":"hexagon_tri","room_assignment":["grey","yellow","purple","red","green","blue"],"door_color_assignment":["black","white"],"door_generator_assignment":[0,1],"goal":5,"start":1,"action_noise":0.15,"location_history":"[1,5]","action_history":"[1]","door_history":"[1]","location_rts":"[1160]","trial_type":"two-door-navigation","trial_index":9,"time_elapsed":340501,"internal_node_id":"0.0-2.0-7.0"},{"group":"hexagon_tri","room_assignment":["grey","yellow","purple","red","green","blue"],"door_color_assignment":["black","white"],"door_generator_assignment":[0,1],"goal":0,"start":5,"action_noise":0.15,"location_history":"[5,0]","action_history":"[1]","door_history":"[1]","location_rts":"[1088]","trial_type":"two-door-navigation","trial_index":10,"time_elapsed":346114,"internal_node_id":"0.0-2.0-8.0"},{"group":"hexagon_tri","room_assignment":["grey","yellow","purple","red","green","blue"],"door_color_assignment":["black","white"],"door_generator_assignment":[0,1],"goal":2,"start":0,"action_noise":0.15,"location_history":"[0,1,5,0,5,4,0,1,3,2]","action_history":"[1,1,1,0,0,0,1,0,0]","door_history":"[1,1,1,0,0,0,1,0,0]","location_rts":"[889,872,1033,1741,900,1085,1319,1398,1082]","trial_type":"two-door-navigation","trial_index":11,"time_elapsed":369129,"internal_node_id":"0.0-2.0-9.0"},{"group":"hexagon_tri","room_assignment":["grey","yellow","purple","red","green","blue"],"door_color_assignment":["black","white"],"door_generator_assignment":[0,1],"goal":3,"start":2,"action_noise":0.15,"location_history":"[2,1,3]","action_history":"[0,0]","door_history":"[0,0]","location_rts":"[3455,1340]","trial_type":"two-door-navigation","trial_index":12,"time_elapsed":379471,"internal_node_id":"0.0-2.0-10.0"},{"group":"hexagon_tri","room_assignment":["grey","yellow","purple","red","green","blue"],"door_color_assignment":["black","white"],"door_generator_assignment":[0,1],"goal":0,"start":3,"action_noise":0.15,"location_history":"[3,2,3,4,2,3,2,3,4,0]","action_history":"[0,1,1,1,0,0,1,1,1]","door_history":"[0,1,1,1,0,0,1,1,1]","location_rts":"[999,1339,2305,1001,1613,773,1393,1016,915]","trial_type":"two-door-navigation","trial_index":13,"time_elapsed":403530,"internal_node_id":"0.0-2.0-11.0"},{"group":"hexagon_tri","room_assignment":["grey","yellow","purple","red","green","blue"],"door_color_assignment":["black","white"],"door_generator_assignment":[0,1],"goal":2,"start":0,"action_noise":0.15,"location_history":"[0,5,0,1,3,2]","action_history":"[0,1,0,0,0]","door_history":"[0,1,0,0,0]","location_rts":"[1536,1062,1395,662,895]","trial_type":"two-door-navigation","trial_index":14,"time_elapsed":417705,"internal_node_id":"0.0-2.0-12.0"},{"group":"hexagon_tri","room_assignment":["grey","yellow","purple","red","green","blue"],"door_color_assignment":["black","white"],"door_generator_assignment":[0,1],"goal":5,"start":2,"action_noise":0.15,"location_history":"[2,3,4,0,5]","action_history":"[0,0,0,0]","door_history":"[0,0,0,0]","location_rts":"[1032,762,712,1029]","trial_type":"two-door-navigation","trial_index":15,"time_elapsed":428850,"internal_node_id":"0.0-2.0-13.0"},{"group":"hexagon_tri","room_assignment":["grey","yellow","purple","red","green","blue"],"door_color_assignment":["black","white"],"door_generator_assignment":[0,1],"goal":4,"start":5,"action_noise":0.15,"location_history":"[5,4]","action_history":"[0]","door_history":"[0]","location_rts":"[903]","trial_type":"two-door-navigation","trial_index":16,"time_elapsed":434280,"internal_node_id":"0.0-2.0-14.0"},{"group":"hexagon_tri","room_assignment":["grey","yellow","purple","red","green","blue"],"door_color_assignment":["black","white"],"door_generator_assignment":[0,1],"goal":3,"start":4,"action_noise":0.15,"location_history":"[4,0,1,5,4,0,5,4,0,1,5,0,5,4,2,3]","action_history":"[0,0,0,0,0,0,0,0,1,1,1,0,1,1,1]","door_history":"[0,0,0,0,0,0,0,0,1,1,1,0,1,1,1]","location_rts":"[752,1745,858,1600,1044,1105,1153,1777,1184,751,1566,1291,1019,1114,703]","trial_type":"two-door-navigation","trial_index":17,"time_elapsed":470778,"internal_node_id":"0.0-2.0-15.0"},{"group":"hexagon_tri","room_assignment":["grey","yellow","purple","red","green","blue"],"door_color_assignment":["black","white"],"door_generator_assignment":[0,1],"goal":1,"start":3,"action_noise":0.15,"location_history":"[3,2,1]","action_history":"[0,0]","door_history":"[0,0]","location_rts":"[1047,587]","trial_type":"two-door-navigation","trial_index":18,"time_elapsed":477959,"internal_node_id":"0.0-2.0-16.0"},{"group":"hexagon_tri","room_assignment":["grey","yellow","purple","red","green","blue"],"door_color_assignment":["black","white"],"door_generator_assignment":[0,1],"goal":5,"start":1,"action_noise":0.15,"location_history":"[1,3,4,0,5]","action_history":"[0,0,0,0]","door_history":"[0,0,0,0]","location_rts":"[690,980,802,578]","trial_type":"two-door-navigation","trial_index":19,"time_elapsed":488610,"internal_node_id":"0.0-2.0-17.0"},{"group":"hexagon_tri","room_assignment":["grey","yellow","purple","red","green","blue"],"door_color_assignment":["black","white"],"door_generator_assignment":[0,1],"goal":4,"start":5,"action_noise":0.15,"location_history":"[5,4]","action_history":"[0]","door_history":"[0]","location_rts":"[447]","trial_type":"two-door-navigation","trial_index":20,"time_elapsed":493582,"internal_node_id":"0.0-2.0-18.0"},{"group":"hexagon_tri","room_assignment":["grey","yellow","purple","red","green","blue"],"door_color_assignment":["black","white"],"door_generator_assignment":[0,1],"goal":0,"start":4,"action_noise":0.15,"location_history":"[4,0]","action_history":"[0]","door_history":"[0]","location_rts":"[6699]","trial_type":"two-door-navigation","trial_index":21,"time_elapsed":504808,"internal_node_id":"0.0-2.0-19.0"},{"group":"hexagon_tri","room_assignment":["grey","yellow","purple","red","green","blue"],"door_color_assignment":["black","white"],"door_generator_assignment":[0,1],"goal":1,"start":0,"action_noise":0.15,"location_history":"[0,5,0,5,4,0,5,0,1]","action_history":"[0,0,0,0,0,0,1,1]","door_history":"[0,0,0,0,0,0,1,1]","location_rts":"[18785,818,967,562,719,514,1139,872]","trial_type":"two-door-navigation","trial_index":22,"time_elapsed":540881,"internal_node_id":"0.0-2.0-20.0"},{"group":"hexagon_tri","room_assignment":["grey","yellow","purple","red","green","blue"],"door_color_assignment":["black","white"],"door_generator_assignment":[0,1],"goal":3,"start":1,"action_noise":0.15,"location_history":"[1,3]","action_history":"[0]","door_history":"[0]","location_rts":"[5976]","trial_type":"two-door-navigation","trial_index":23,"time_elapsed":551383,"internal_node_id":"0.0-2.0-21.0"},{"group":"hexagon_tri","room_assignment":["grey","yellow","purple","red","green","blue"],"door_color_assignment":["black","white"],"door_generator_assignment":[0,1],"goal":2,"start":3,"action_noise":0.15,"location_history":"[3,2]","action_history":"[0]","door_history":"[0]","location_rts":"[1017]","trial_type":"two-door-navigation","trial_index":24,"time_elapsed":556928,"internal_node_id":"0.0-2.0-22.0"},{"group":"hexagon_tri","room_assignment":["grey","yellow","purple","red","green","blue"],"door_color_assignment":["black","white"],"door_generator_assignment":[0,1],"goal":0,"start":2,"action_noise":0.15,"location_history":"[2,1,3,2,1,3,2,3,4,2,3,2,1,5,0]","action_history":"[0,0,0,0,0,0,1,1,1,1,1,0,1,1]","door_history":"[0,0,0,0,0,0,1,1,1,1,1,0,1,1]","location_rts":"[1001,1632,885,892,799,813,826,885,805,701,700,1134,905,676]","trial_type":"two-door-navigation","trial_index":25,"time_elapsed":587383,"internal_node_id":"0.0-2.0-23.0"},{"group":"hexagon_tri","room_assignment":["grey","yellow","purple","red","green","blue"],"door_color_assignment":["black","white"],"door_generator_assignment":[0,1],"goal":3,"start":0,"action_noise":0.15,"location_history":"[0,1,3]","action_history":"[1,1]","door_history":"[1,1]","location_rts":"[889,732]","trial_type":"two-door-navigation","trial_index":26,"time_elapsed":594550,"internal_node_id":"0.0-2.0-24.0"},{"group":"hexagon_tri","room_assignment":["grey","yellow","purple","red","green","blue"],"door_color_assignment":["black","white"],"door_generator_assignment":[0,1],"goal":1,"start":3,"action_noise":0.15,"location_history":"[3,4,0,5,4,0,1]","action_history":"[1,1,0,0,0,1]","door_history":"[1,1,0,0,0,1]","location_rts":"[529,1334,869,481,717,737]","trial_type":"two-door-navigation","trial_index":27,"time_elapsed":608853,"internal_node_id":"0.0-2.0-25.0"},{"group":"hexagon_tri","room_assignment":["grey","yellow","purple","red","green","blue"],"door_color_assignment":["black","white"],"door_generator_assignment":[0,1],"goal":2,"start":1,"action_noise":0.15,"location_history":"[1,5,0,1,5,4,2]","action_history":"[1,1,1,1,0,0]","door_history":"[1,1,1,1,0,0]","location_rts":"[715,826,772,955,1762,733]","trial_type":"two-door-navigation","trial_index":28,"time_elapsed":624265,"internal_node_id":"0.0-2.0-26.0"},{"group":"hexagon_tri","room_assignment":["grey","yellow","purple","red","green","blue"],"door_color_assignment":["black","white"],"door_generator_assignment":[0,1],"goal":5,"start":2,"action_noise":0.15,"location_history":"[2,1,3,4,0,5]","action_history":"[0,0,0,0,0]","door_history":"[0,0,0,0,0]","location_rts":"[686,924,634,680,744]","trial_type":"two-door-navigation","trial_index":29,"time_elapsed":636567,"internal_node_id":"0.0-2.0-27.0"},{"group":"hexagon_tri","room_assignment":["grey","yellow","purple","red","green","blue"],"door_color_assignment":["black","white"],"door_generator_assignment":[0,1],"goal":4,"start":5,"action_noise":0.15,"location_history":"[5,4]","action_history":"[0]","door_history":"[0]","location_rts":"[755]","trial_type":"two-door-navigation","trial_index":30,"time_elapsed":641848,"internal_node_id":"0.0-2.0-28.0"},{"group":"hexagon_tri","room_assignment":["grey","yellow","purple","red","green","blue"],"door_color_assignment":["black","white"],"door_generator_assignment":[0,1],"goal":5,"start":4,"action_noise":0.15,"location_history":"[4,0,1,3,2,3,2,3,4,2,3,4,0,5]","action_history":"[0,0,0,0,0,1,1,1,1,1,1,0,0]","door_history":"[0,0,0,0,0,1,1,1,1,1,1,0,0]","location_rts":"[1271,2441,2303,799,1154,1891,1388,630,913,594,633,882,743]","trial_type":"two-door-navigation","trial_index":31,"time_elapsed":674270,"internal_node_id":"0.0-2.0-29.0"},{"group":"hexagon_tri","room_assignment":["grey","yellow","purple","red","green","blue"],"door_color_assignment":["black","white"],"door_generator_assignment":[0,1],"goal":3,"start":5,"action_noise":0.15,"location_history":"[5,4,0,5,4,2,3]","action_history":"[0,0,0,1,1,1]","door_history":"[0,0,0,1,1,1]","location_rts":"[1260,3700,518,1156,724,766]","trial_type":"two-door-navigation","trial_index":32,"time_elapsed":692031,"internal_node_id":"0.0-2.0-30.0"},{"group":"hexagon_tri","room_assignment":["grey","yellow","purple","red","green","blue"],"door_color_assignment":["black","white"],"door_generator_assignment":[0,1],"goal":0,"start":3,"action_noise":0.15,"location_history":"[3,4,0]","action_history":"[1,0]","door_history":"[1,0]","location_rts":"[785,1168]","trial_type":"two-door-navigation","trial_index":33,"time_elapsed":699535,"internal_node_id":"0.0-2.0-31.0"},{"group":"hexagon_tri","room_assignment":["grey","yellow","purple","red","green","blue"],"door_color_assignment":["black","white"],"door_generator_assignment":[0,1],"goal":4,"start":0,"action_noise":0.15,"location_history":"[0,1,3,2,1,5,0,5,0,1,3,4]","action_history":"[0,0,0,0,1,1,1,1,0,0,0]","door_history":"[0,0,0,0,1,1,1,1,0,0,0]","location_rts":"[459,512,693,539,1017,1008,861,633,901,424,541]","trial_type":"two-door-navigation","trial_index":34,"time_elapsed":721868,"internal_node_id":"0.0-2.0-32.0"},{"group":"hexagon_tri","room_assignment":["grey","yellow","purple","red","green","blue"],"door_color_assignment":["black","white"],"door_generator_assignment":[0,1],"goal":1,"start":4,"action_noise":0.15,"location_history":"[4,0,1]","action_history":"[0,1]","door_history":"[0,1]","location_rts":"[1181,1092]","trial_type":"two-door-navigation","trial_index":35,"time_elapsed":729692,"internal_node_id":"0.0-2.0-33.0"},{"group":"hexagon_tri","room_assignment":["grey","yellow","purple","red","green","blue"],"door_color_assignment":["black","white"],"door_generator_assignment":[0,1],"goal":2,"start":1,"action_noise":0.15,"location_history":"[1,5,4,0,5,4,0,1,5,0,5,4,0,1,5,0,1,5,0,5,4,0,5,4,2]","action_history":"[0,0,0,0,0,1,1,1,1,0,0,0,0,1,1,1,1,0,0,0,0,0,0,1]","door_history":"[0,0,0,0,0,1,1,1,1,0,0,0,0,1,1,1,1,0,0,0,0,0,0,1]","location_rts":"[1588,784,678,819,653,877,668,1322,822,933,627,570,527,791,455,443,426,1473,517,530,647,623,534,996]","trial_type":"two-door-navigation","trial_index":36,"time_elapsed":776015,"internal_node_id":"0.0-2.0-34.0"},{"group":"hexagon_tri","room_assignment":["grey","yellow","purple","red","green","blue"],"door_color_assignment":["black","white"],"door_generator_assignment":[0,1],"goal":0,"start":2,"action_noise":0.15,"location_history":"[2,1,3,2,3,4,2,3,2,1,5,0]","action_history":"[0,0,0,1,1,1,1,0,0,0,1]","door_history":"[0,0,0,1,1,1,1,0,0,0,1]","location_rts":"[2269,901,580,763,611,512,556,717,427,452,615]","trial_type":"two-door-navigation","trial_index":37,"time_elapsed":799175,"internal_node_id":"0.0-2.0-35.0"},{"group":"hexagon_tri","room_assignment":["grey","yellow","purple","red","green","blue"],"door_color_assignment":["black","white"],"door_generator_assignment":[0,1],"goal":5,"start":0,"action_noise":0.15,"location_history":"[0,5]","action_history":"[1]","door_history":"[1]","location_rts":"[853]","trial_type":"two-door-navigation","trial_index":38,"time_elapsed":804559,"internal_node_id":"0.0-2.0-36.0"},{"group":"hexagon_tri","room_assignment":["grey","yellow","purple","red","green","blue"],"door_color_assignment":["black","white"],"door_generator_assignment":[0,1],"goal":2,"start":5,"action_noise":0.15,"location_history":"[5,4,0,1,3,4,2]","action_history":"[0,0,0,0,1,1]","door_history":"[0,0,0,0,1,1]","location_rts":"[1121,521,501,518,722,535]","trial_type":"two-door-navigation","trial_index":39,"time_elapsed":818117,"internal_node_id":"0.0-2.0-37.0"},{"group":"hexagon_tri","room_assignment":["grey","yellow","purple","red","green","blue"],"door_color_assignment":["black","white"],"door_generator_assignment":[0,1],"goal":1,"start":2,"action_noise":0.15,"location_history":"[2,3,4,0,1]","action_history":"[1,0,0,0]","door_history":"[1,0,0,0]","location_rts":"[2788,1524,727,1020]","trial_type":"two-door-navigation","trial_index":40,"time_elapsed":831778,"internal_node_id":"0.0-2.0-38.0"},{"group":"hexagon_tri","room_assignment":["grey","yellow","purple","red","green","blue"],"door_color_assignment":["black","white"],"door_generator_assignment":[0,1],"goal":4,"start":1,"action_noise":0.15,"location_history":"[1,5,4]","action_history":"[1,0]","door_history":"[1,0]","location_rts":"[1913,1162]","trial_type":"two-door-navigation","trial_index":41,"time_elapsed":840407,"internal_node_id":"0.0-2.0-39.0"},{"group":"hexagon_tri","room_assignment":["grey","yellow","purple","red","green","blue"],"door_color_assignment":["black","white"],"door_generator_assignment":[0,1],"goal":3,"start":4,"action_noise":0.15,"location_history":"[4,0,5,0,1,3]","action_history":"[0,0,1,1,0]","door_history":"[0,0,1,1,0]","location_rts":"[953,522,1092,704,1296]","trial_type":"two-door-navigation","trial_index":42,"time_elapsed":853592,"internal_node_id":"0.0-2.0-40.0"},{"group":"hexagon_tri","room_assignment":["grey","yellow","purple","red","green","blue"],"door_color_assignment":["black","white"],"door_generator_assignment":[0,1],"goal":5,"start":3,"action_noise":0.15,"location_history":"[3,2,1,3,2,1,5]","action_history":"[0,0,0,0,0,1]","door_history":"[0,0,0,0,0,1]","location_rts":"[663,2688,614,1027,925,890]","trial_type":"two-door-navigation","trial_index":43,"time_elapsed":870029,"internal_node_id":"0.0-2.0-41.0"},{"group":"hexagon_tri","room_assignment":["grey","yellow","purple","red","green","blue"],"door_color_assignment":["black","white"],"door_generator_assignment":[0,1],"goal":3,"start":5,"action_noise":0.15,"location_history":"[5,0,5,0,1,5,0,5,4,0,1,5,0,1,3]","action_history":"[0,0,1,1,1,1,0,0,0,1,1,1,1,1]","door_history":"[0,0,1,1,1,1,0,0,0,1,1,1,1,1]","location_rts":"[1820,973,1132,1017,917,645,1177,759,898,790,572,637,807,760]","trial_type":"two-door-navigation","trial_index":44,"time_elapsed":900741,"internal_node_id":"0.0-2.0-42.0"},{"group":"hexagon_tri","room_assignment":["grey","yellow","purple","red","green","blue"],"door_color_assignment":["black","white"],"door_generator_assignment":[0,1],"goal":0,"start":3,"action_noise":0.15,"location_history":"[3,4,0]","action_history":"[1,0]","door_history":"[1,0]","location_rts":"[906,939]","trial_type":"two-door-navigation","trial_index":45,"time_elapsed":908137,"internal_node_id":"0.0-2.0-43.0"},{"group":"hexagon_tri","room_assignment":["grey","yellow","purple","red","green","blue"],"door_color_assignment":["black","white"],"door_generator_assignment":[0,1],"goal":2,"start":0,"action_noise":0.15,"location_history":"[0,5,4,2]","action_history":"[0,0,1]","door_history":"[0,0,1]","location_rts":"[4929,1080,714]","trial_type":"two-door-navigation","trial_index":46,"time_elapsed":921432,"internal_node_id":"0.0-2.0-44.0"},{"group":"hexagon_tri","room_assignment":["grey","yellow","purple","red","green","blue"],"door_color_assignment":["black","white"],"door_generator_assignment":[0,1],"goal":4,"start":2,"action_noise":0.15,"location_history":"[2,3,2,3,2,1,3,4]","action_history":"[1,1,1,0,0,0,1]","door_history":"[1,1,1,0,0,0,1]","location_rts":"[879,692,663,823,447,556,654]","trial_type":"two-door-navigation","trial_index":47,"time_elapsed":936815,"internal_node_id":"0.0-2.0-45.0"},{"group":"hexagon_tri","room_assignment":["grey","yellow","purple","red","green","blue"],"door_color_assignment":["black","white"],"door_generator_assignment":[0,1],"goal":1,"start":4,"action_noise":0.15,"location_history":"[4,0,1]","action_history":"[1,1]","door_history":"[1,1]","location_rts":"[729,623]","trial_type":"two-door-navigation","trial_index":48,"time_elapsed":943716,"internal_node_id":"0.0-2.0-46.0"},{"group":"hexagon_tri","room_assignment":["grey","yellow","purple","red","green","blue"],"door_color_assignment":["black","white"],"door_generator_assignment":[0,1],"goal":4,"start":1,"action_noise":0.15,"location_history":"[1,3,2,3,2,3,4]","action_history":"[0,0,1,0,1,1]","door_history":"[0,0,1,0,1,1]","location_rts":"[1515,590,731,1122,645,372]","trial_type":"two-door-navigation","trial_index":49,"time_elapsed":958327,"internal_node_id":"0.0-2.0-47.0"},{"group":"hexagon_tri","room_assignment":["grey","yellow","purple","red","green","blue"],"door_color_assignment":["black","white"],"door_generator_assignment":[0,1],"goal":3,"start":4,"action_noise":0.15,"location_history":"[4,2,1,3]","action_history":"[1,0,0]","door_history":"[1,0,0]","location_rts":"[554,848,433]","trial_type":"two-door-navigation","trial_index":50,"time_elapsed":966738,"internal_node_id":"0.0-2.0-48.0"},{"group":"hexagon_tri","room_assignment":["grey","yellow","purple","red","green","blue"],"door_color_assignment":["black","white"],"door_generator_assignment":[0,1],"goal":5,"start":3,"action_noise":0.15,"location_history":"[3,2,1,5]","action_history":"[0,0,1]","door_history":"[0,0,1]","location_rts":"[943,762,660]","trial_type":"two-door-navigation","trial_index":51,"time_elapsed":975682,"internal_node_id":"0.0-2.0-49.0"},{"view_history":"[{\"page_index\":0,\"viewing_time\":6060}]","rt":6061,"trial_type":"instructions","trial_index":52,"time_elapsed":982746,"internal_node_id":"0.0-3.0"},{"view_history":"[{\"page_index\":0,\"viewing_time\":3822},{\"page_index\":1,\"viewing_time\":30423}]","rt":34246,"trial_type":"instructions","trial_index":53,"time_elapsed":1017993,"internal_node_id":"0.0-4.0"},{"group":"hexagon_bi","fractal_assignment":["../images/gry_blk.png","../images/cyn_red.png","../images/org_blu.png","../images/ylw_slt.png","../images/pnk_blu.png","../images/blu_wht.png"],"mutagen_generator_assignment":[1,0],"goal":4,"start":0,"action_noise":0.15,"location_history":"[0,1,2,3,4]","action_history":"[1,0,0,0]","mutagen_history":"[0,1,1,1]","location_rts":"[3326,2035,2570,775]","trial_type":"fractal-mutation","trial_index":54,"time_elapsed":1034342,"internal_node_id":"0.0-5.0-0.0"},{"group":"hexagon_bi","fractal_assignment":["../images/gry_blk.png","../images/cyn_red.png","../images/org_blu.png","../images/ylw_slt.png","../images/pnk_blu.png","../images/blu_wht.png"],"mutagen_generator_assignment":[1,0],"goal":3,"start":4,"action_noise":0.15,"location_history":"[4,3]","action_history":"[0]","mutagen_history":"[1]","location_rts":"[3489]","trial_type":"fractal-mutation","trial_index":55,"time_elapsed":1042373,"internal_node_id":"0.0-5.0-1.0"},{"group":"hexagon_bi","fractal_assignment":["../images/gry_blk.png","../images/cyn_red.png","../images/org_blu.png","../images/ylw_slt.png","../images/pnk_blu.png","../images/blu_wht.png"],"mutagen_generator_assignment":[1,0],"goal":5,"start":3,"action_noise":0.15,"location_history":"[3,4,5]","action_history":"[0,1]","mutagen_history":"[1,0]","location_rts":"[12750,957]","trial_type":"fractal-mutation","trial_index":56,"time_elapsed":1061671,"internal_node_id":"0.0-5.0-2.0"},{"group":"hexagon_bi","fractal_assignment":["../images/gry_blk.png","../images/cyn_red.png","../images/org_blu.png","../images/ylw_slt.png","../images/pnk_blu.png","../images/blu_wht.png"],"mutagen_generator_assignment":[1,0],"goal":2,"start":5,"action_noise":0.15,"location_history":"[5,0,5,4,5,0,5,0,1,0,1,0,1,2]","action_history":"[0,0,1,1,0,0,0,1,1,1,1,1,0]","mutagen_history":"[1,1,0,0,1,1,1,0,0,0,0,0,1]","location_rts":"[1232,1153,749,678,910,1057,658,654,604,952,973,642,898]","trial_type":"fractal-mutation","trial_index":57,"time_elapsed":1089774,"internal_node_id":"0.0-5.0-3.0"},{"group":"hexagon_bi","fractal_assignment":["../images/gry_blk.png","../images/cyn_red.png","../images/org_blu.png","../images/ylw_slt.png","../images/pnk_blu.png","../images/blu_wht.png"],"mutagen_generator_assignment":[1,0],"goal":1,"start":2,"action_noise":0.15,"location_history":"[2,1]","action_history":"[0]","mutagen_history":"[1]","location_rts":"[1277]","trial_type":"fractal-mutation","trial_index":58,"time_elapsed":1095595,"internal_node_id":"0.0-5.0-4.0"},{"group":"hexagon_bi","fractal_assignment":["../images/gry_blk.png","../images/cyn_red.png","../images/org_blu.png","../images/ylw_slt.png","../images/pnk_blu.png","../images/blu_wht.png"],"mutagen_generator_assignment":[1,0],"goal":4,"start":1,"action_noise":0.15,"location_history":"[1,0,1,0,5,0,1,2,3,2,3,4]","action_history":"[1,1,1,0,0,0,0,0,1,1,1]","mutagen_history":"[0,0,0,1,1,1,1,1,0,0,0]","location_rts":"[1451,1083,995,532,801,1124,753,715,801,729,634]","trial_type":"fractal-mutation","trial_index":59,"time_elapsed":1120083,"internal_node_id":"0.0-5.0-5.0"},{"group":"hexagon_bi","fractal_assignment":["../images/gry_blk.png","../images/cyn_red.png","../images/org_blu.png","../images/ylw_slt.png","../images/pnk_blu.png","../images/blu_wht.png"],"mutagen_generator_assignment":[1,0],"goal":1,"start":4,"action_noise":0.15,"location_history":"[4,5,0,1]","action_history":"[0,0,0]","mutagen_history":"[1,1,1]","location_rts":"[3406,696,634]","trial_type":"fractal-mutation","trial_index":60,"time_elapsed":1131434,"internal_node_id":"0.0-5.0-6.0"},{"group":"hexagon_bi","fractal_assignment":["../images/gry_blk.png","../images/cyn_red.png","../images/org_blu.png","../images/ylw_slt.png","../images/pnk_blu.png","../images/blu_wht.png"],"mutagen_generator_assignment":[1,0],"goal":5,"start":1,"action_noise":0.15,"location_history":"[1,0,5]","action_history":"[0,0]","mutagen_history":"[1,1]","location_rts":"[1444,660]","trial_type":"fractal-mutation","trial_index":61,"time_elapsed":1139114,"internal_node_id":"0.0-5.0-7.0"},{"group":"hexagon_bi","fractal_assignment":["../images/gry_blk.png","../images/cyn_red.png","../images/org_blu.png","../images/ylw_slt.png","../images/pnk_blu.png","../images/blu_wht.png"],"mutagen_generator_assignment":[1,0],"goal":0,"start":5,"action_noise":0.15,"location_history":"[5,4,5,0]","action_history":"[0,0,0]","mutagen_history":"[1,1,1]","location_rts":"[1950,584,585]","trial_type":"fractal-mutation","trial_index":62,"time_elapsed":1148848,"internal_node_id":"0.0-5.0-8.0"},{"group":"hexagon_bi","fractal_assignment":["../images/gry_blk.png","../images/cyn_red.png","../images/org_blu.png","../images/ylw_slt.png","../images/pnk_blu.png","../images/blu_wht.png"],"mutagen_generator_assignment":[1,0],"goal":2,"start":0,"action_noise":0.15,"location_history":"[0,5,4,5,4,5,4,5,0,5,0,5,4,3,4,5,4,5,0,5,0,5,4,5,4,5,0,5,0,1,2]","action_history":"[0,0,1,1,1,1,1,0,0,0,0,1,0,0,1,1,1,0,0,0,0,1,1,1,1,0,0,0,1,0]","mutagen_history":"[1,1,0,0,0,0,0,1,1,1,1,0,1,1,0,0,0,1,1,1,1,0,0,0,0,1,1,1,0,1]","location_rts":"[1264,746,570,696,657,554,1153,605,651,533,495,476,520,535,560,462,541,448,427,480,458,404,469,476,443,419,462,475,536,427]","trial_type":"fractal-mutation","trial_index":63,"time_elapsed":1200292,"internal_node_id":"0.0-5.0-9.0"},{"group":"hexagon_bi","fractal_assignment":["../images/gry_blk.png","../images/cyn_red.png","../images/org_blu.png","../images/ylw_slt.png","../images/pnk_blu.png","../images/blu_wht.png"],"mutagen_generator_assignment":[1,0],"goal":3,"start":2,"action_noise":0.15,"location_history":"[2,1,2,1,2,3]","action_history":"[0,0,0,0,1]","mutagen_history":"[1,1,1,1,0]","location_rts":"[1109,539,547,516,581]","trial_type":"fractal-mutation","trial_index":64,"time_elapsed":1212263,"internal_node_id":"0.0-5.0-10.0"},{"group":"hexagon_bi","fractal_assignment":["../images/gry_blk.png","../images/cyn_red.png","../images/org_blu.png","../images/ylw_slt.png","../images/pnk_blu.png","../images/blu_wht.png"],"mutagen_generator_assignment":[1,0],"goal":0,"start":3,"action_noise":0.15,"location_history":"[3,2,1,2,1,2,1,2,3,2,3,2,3,4,3,4,3,2,3,2,3,2,1,0]","action_history":"[1,0,0,0,0,0,0,1,1,1,1,1,0,1,0,0,1,1,1,1,1,0,0]","mutagen_history":"[0,1,1,1,1,1,1,0,0,0,0,0,1,0,1,1,0,0,0,0,0,1,1]","location_rts":"[1033,504,553,520,629,492,510,503,513,495,485,530,383,381,414,452,448,444,383,437,515,418,690]","trial_type":"fractal-mutation","trial_index":65,"time_elapsed":1251185,"internal_node_id":"0.0-5.0-11.0"},{"group":"hexagon_bi","fractal_assignment":["../images/gry_blk.png","../images/cyn_red.png","../images/org_blu.png","../images/ylw_slt.png","../images/pnk_blu.png","../images/blu_wht.png"],"mutagen_generator_assignment":[1,0],"goal":2,"start":0,"action_noise":0.15,"location_history":"[0,5,0,1,2]","action_history":"[0,0,1,1]","mutagen_history":"[1,1,0,0]","location_rts":"[2294,581,449,510]","trial_type":"fractal-mutation","trial_index":66,"time_elapsed":1262656,"internal_node_id":"0.0-5.0-12.0"},{"group":"hexagon_bi","fractal_assignment":["../images/gry_blk.png","../images/cyn_red.png","../images/org_blu.png","../images/ylw_slt.png","../images/pnk_blu.png","../images/blu_wht.png"],"mutagen_generator_assignment":[1,0],"goal":5,"start":2,"action_noise":0.15,"location_history":"[2,1,2,1,2,3,2,3,4,3,4,5]","action_history":"[0,0,0,0,1,1,1,0,0,1,1]","mutagen_history":"[1,1,1,1,0,0,0,1,1,0,0]","location_rts":"[2048,509,468,470,468,450,410,510,421,1210,434]","trial_type":"fractal-mutation","trial_index":67,"time_elapsed":1284953,"internal_node_id":"0.0-5.0-13.0"},{"group":"hexagon_bi","fractal_assignment":["../images/gry_blk.png","../images/cyn_red.png","../images/org_blu.png","../images/ylw_slt.png","../images/pnk_blu.png","../images/blu_wht.png"],"mutagen_generator_assignment":[1,0],"goal":4,"start":5,"action_noise":0.15,"location_history":"[5,0,1,2,1,2,1,0,1,0,1,0,1,2,1,2,1,0,5,0,5,0,5,4]","action_history":"[0,1,0,0,0,0,0,1,1,1,0,0,0,0,0,0,1,0,0,0,0,0,1]","mutagen_history":"[1,0,1,1,1,1,1,0,0,0,1,1,1,1,1,1,0,1,1,1,1,1,0]","location_rts":"[1213,716,511,462,524,518,503,483,533,533,505,497,502,451,469,961,515,393,373,447,475,453,494]","trial_type":"fractal-mutation","trial_index":68,"time_elapsed":1324790,"internal_node_id":"0.0-5.0-14.0"},{"group":"hexagon_bi","fractal_assignment":["../images/gry_blk.png","../images/cyn_red.png","../images/org_blu.png","../images/ylw_slt.png","../images/pnk_blu.png","../images/blu_wht.png"],"mutagen_generator_assignment":[1,0],"goal":3,"start":4,"action_noise":0.15,"location_history":"[4,5,4,5,4,5,4,3]","action_history":"[0,1,1,1,1,1,0]","mutagen_history":"[1,0,0,0,0,0,1]","location_rts":"[865,488,469,460,491,424,432]","trial_type":"fractal-mutation","trial_index":69,"time_elapsed":1339161,"internal_node_id":"0.0-5.0-15.0"},{"group":"hexagon_bi","fractal_assignment":["../images/gry_blk.png","../images/cyn_red.png","../images/org_blu.png","../images/ylw_slt.png","../images/pnk_blu.png","../images/blu_wht.png"],"mutagen_generator_assignment":[1,0],"goal":1,"start":3,"action_noise":0.15,"location_history":"[3,4,3,4,3,2,3,2,3,2,3,2,1]","action_history":"[0,0,0,0,1,1,1,1,1,0,1,0]","mutagen_history":"[1,1,1,1,0,0,0,0,0,1,0,1]","location_rts":"[1006,562,658,492,455,504,463,609,430,822,453,545]","trial_type":"fractal-mutation","trial_index":70,"time_elapsed":1362073,"internal_node_id":"0.0-5.0-16.0"},{"group":"hexagon_bi","fractal_assignment":["../images/gry_blk.png","../images/cyn_red.png","../images/org_blu.png","../images/ylw_slt.png","../images/pnk_blu.png","../images/blu_wht.png"],"mutagen_generator_assignment":[1,0],"goal":5,"start":1,"action_noise":0.15,"location_history":"[1,0,5]","action_history":"[0,0]","mutagen_history":"[1,1]","location_rts":"[990,450]","trial_type":"fractal-mutation","trial_index":71,"time_elapsed":1369096,"internal_node_id":"0.0-5.0-17.0"},{"group":"hexagon_bi","fractal_assignment":["../images/gry_blk.png","../images/cyn_red.png","../images/org_blu.png","../images/ylw_slt.png","../images/pnk_blu.png","../images/blu_wht.png"],"mutagen_generator_assignment":[1,0],"goal":4,"start":5,"action_noise":0.15,"location_history":"[5,0,1,0,1,0,5,0,1,2,1,2,1,0,1,0,5,0,5,4]","action_history":"[0,1,1,1,1,0,0,1,0,0,0,1,1,1,1,0,0,0,1]","mutagen_history":"[1,0,0,0,0,1,1,0,1,1,1,0,0,0,0,1,1,1,0]","location_rts":"[759,520,448,426,473,357,508,446,431,396,453,432,494,464,1451,481,468,425,492]","trial_type":"fractal-mutation","trial_index":72,"time_elapsed":1402185,"internal_node_id":"0.0-5.0-18.0"},{"group":"hexagon_bi","fractal_assignment":["../images/gry_blk.png","../images/cyn_red.png","../images/org_blu.png","../images/ylw_slt.png","../images/pnk_blu.png","../images/blu_wht.png"],"mutagen_generator_assignment":[1,0],"goal":0,"start":4,"action_noise":0.15,"location_history":"[4,5,0]","action_history":"[1,0]","mutagen_history":"[0,1]","location_rts":"[542,2349]","trial_type":"fractal-mutation","trial_index":73,"time_elapsed":1410648,"internal_node_id":"0.0-5.0-19.0"},{"group":"hexagon_bi","fractal_assignment":["../images/gry_blk.png","../images/cyn_red.png","../images/org_blu.png","../images/ylw_slt.png","../images/pnk_blu.png","../images/blu_wht.png"],"mutagen_generator_assignment":[1,0],"goal":1,"start":0,"action_noise":0.15,"location_history":"[0,5,0,5,4,3,2,1]","action_history":"[0,0,0,1,1,1,1]","mutagen_history":"[1,1,1,0,0,0,0]","location_rts":"[601,475,435,462,521,494,670]","trial_type":"fractal-mutation","trial_index":74,"time_elapsed":1424993,"internal_node_id":"0.0-5.0-20.0"},{"group":"hexagon_bi","fractal_assignment":["../images/gry_blk.png","../images/cyn_red.png","../images/org_blu.png","../images/ylw_slt.png","../images/pnk_blu.png","../images/blu_wht.png"],"mutagen_generator_assignment":[1,0],"goal":3,"start":1,"action_noise":0.15,"location_history":"[1,0,5,0,5,0,5,0,1,0,5,0,5,0,5,0,1,2,1,2,1,2,1,0,5,4,3]","action_history":"[1,0,0,0,0,0,1,1,1,1,1,0,0,0,1,1,0,0,0,0,0,0,0,0,1,0]","mutagen_history":"[0,1,1,1,1,1,0,0,0,0,0,1,1,1,0,0,1,1,1,1,1,1,1,1,0,1]","location_rts":"[3786,1150,429,502,423,485,901,781,1469,866,411,486,413,465,437,444,1060,519,429,746,428,518,503,532,405,833]","trial_type":"fractal-mutation","trial_index":75,"time_elapsed":1474809,"internal_node_id":"0.0-5.0-21.0"},{"group":"hexagon_bi","fractal_assignment":["../images/gry_blk.png","../images/cyn_red.png","../images/org_blu.png","../images/ylw_slt.png","../images/pnk_blu.png","../images/blu_wht.png"],"mutagen_generator_assignment":[1,0],"goal":2,"start":3,"action_noise":0.15,"location_history":"[3,2]","action_history":"[1]","mutagen_history":"[0]","location_rts":"[1901]","trial_type":"fractal-mutation","trial_index":76,"time_elapsed":1481245,"internal_node_id":"0.0-5.0-22.0"},{"group":"hexagon_bi","fractal_assignment":["../images/gry_blk.png","../images/cyn_red.png","../images/org_blu.png","../images/ylw_slt.png","../images/pnk_blu.png","../images/blu_wht.png"],"mutagen_generator_assignment":[1,0],"goal":0,"start":2,"action_noise":0.15,"location_history":"[2,1,2,1,2,3,2,1,2,1,2,3,2,3,4,3,2,3,4,3,2,1,0]","action_history":"[0,0,1,0,1,1,0,0,0,0,1,1,1,0,0,0,0,0,1,1,0,0]","mutagen_history":"[1,1,0,1,0,0,1,1,1,1,0,0,0,1,1,1,1,1,0,0,1,1]","location_rts":"[3081,569,912,522,997,427,474,449,470,458,922,1632,401,1106,431,409,365,430,436,372,656,1025]","trial_type":"fractal-mutation","trial_index":77,"time_elapsed":1524066,"internal_node_id":"0.0-5.0-23.0"},{"group":"hexagon_bi","fractal_assignment":["../images/gry_blk.png","../images/cyn_red.png","../images/org_blu.png","../images/ylw_slt.png","../images/pnk_blu.png","../images/blu_wht.png"],"mutagen_generator_assignment":[1,0],"goal":3,"start":0,"action_noise":0.15,"location_history":"[0,1,0,1,0,5,4,5,4,5,4,5,0,5,0,1,0,1,0,1,0,1,2,1,0,1,0,5,0,5,0,1,0,1,0,5,0,5,0,5,0,1,0,1,0,1,0,5,4,5,0,1,0,1,0,1,0,5,0,1,2,1,0,1,2,1,0,5,0,1,0,1,0,1,0,5,0,5,0,1,2,3]","action_history":"[1,1,0,1,1,1,1,1,1,1,0,0,0,0,1,1,1,1,1,1,1,0,0,1,1,1,0,0,0,0,1,1,1,1,0,0,0,0,1,0,1,1,1,1,1,1,0,0,1,0,1,1,1,1,1,1,0,0,1,0,1,1,1,0,0,1,0,0,1,1,1,1,1,1,0,0,0,1,1,0,0]","mutagen_history":"[0,0,1,0,0,0,0,0,0,0,1,1,1,1,0,0,0,0,0,0,0,1,1,0,0,0,1,1,1,1,0,0,0,0,1,1,1,1,0,1,0,0,0,0,0,0,1,1,0,1,0,0,0,0,0,0,1,1,0,1,0,0,0,1,1,0,1,1,0,0,0,0,0,0,1,1,1,0,0,1,1]","location_rts":"[1945,452,1160,856,404,431,426,420,423,436,390,447,400,395,397,420,410,413,416,441,409,428,552,803,408,455,959,382,394,382,1015,90,438,340,900,415,308,345,338,417,329,306,395,341,249,306,2361,557,301,904,403,369,356,333,4803,681,368,371,400,328,426,400,378,292,334,352,337,374,706,355,383,371,399,399,331,312,102,13,67,126,11]","trial_type":"fractal-mutation","trial_index":78,"time_elapsed":1653020,"internal_node_id":"0.0-5.0-24.0"},{"group":"hexagon_bi","fractal_assignment":["../images/gry_blk.png","../images/cyn_red.png","../images/org_blu.png","../images/ylw_slt.png","../images/pnk_blu.png","../images/blu_wht.png"],"mutagen_generator_assignment":[1,0],"goal":1,"start":3,"action_noise":0.15,"location_history":"[3,2,3,4,5,4,5,0,5,0,5,0,1]","action_history":"[1,1,1,1,1,1,1,0,0,0,0,0]","mutagen_history":"[0,0,0,0,0,0,0,1,1,1,1,1]","location_rts":"[2887,520,458,605,401,360,380,437,375,401,355,431]","trial_type":"fractal-mutation","trial_index":79,"time_elapsed":1676518,"internal_node_id":"0.0-5.0-25.0"},{"group":"hexagon_bi","fractal_assignment":["../images/gry_blk.png","../images/cyn_red.png","../images/org_blu.png","../images/ylw_slt.png","../images/pnk_blu.png","../images/blu_wht.png"],"mutagen_generator_assignment":[1,0],"goal":2,"start":1,"action_noise":0.15,"location_history":"[1,2]","action_history":"[0]","mutagen_history":"[1]","location_rts":"[950]","trial_type":"fractal-mutation","trial_index":80,"time_elapsed":1682019,"internal_node_id":"0.0-5.0-26.0"},{"group":"hexagon_bi","fractal_assignment":["../images/gry_blk.png","../images/cyn_red.png","../images/org_blu.png","../images/ylw_slt.png","../images/pnk_blu.png","../images/blu_wht.png"],"mutagen_generator_assignment":[1,0],"goal":5,"start":2,"action_noise":0.15,"location_history":"[2,1,0,1,0,1,0,1,0,5]","action_history":"[0,1,1,1,1,1,1,0,0]","mutagen_history":"[1,0,0,0,0,0,0,1,1]","location_rts":"[805,906,439,465,410,573,451,1000,376]","trial_type":"fractal-mutation","trial_index":81,"time_elapsed":1700246,"internal_node_id":"0.0-5.0-27.0"},{"group":"hexagon_bi","fractal_assignment":["../images/gry_blk.png","../images/cyn_red.png","../images/org_blu.png","../images/ylw_slt.png","../images/pnk_blu.png","../images/blu_wht.png"],"mutagen_generator_assignment":[1,0],"goal":4,"start":5,"action_noise":0.15,"location_history":"[5,0,5,4]","action_history":"[0,0,1]","mutagen_history":"[1,1,0]","location_rts":"[727,427,966]","trial_type":"fractal-mutation","trial_index":82,"time_elapsed":1708988,"internal_node_id":"0.0-5.0-28.0"},{"group":"hexagon_bi","fractal_assignment":["../images/gry_blk.png","../images/cyn_red.png","../images/org_blu.png","../images/ylw_slt.png","../images/pnk_blu.png","../images/blu_wht.png"],"mutagen_generator_assignment":[1,0],"goal":5,"start":4,"action_noise":0.15,"location_history":"[4,3,4,3,4,3,4,3,2,3,2,1,2,1,2,1,0,1,2,3,2,3,4,5]","action_history":"[0,0,0,0,0,0,0,1,1,1,0,0,0,0,0,1,1,0,1,1,0,0,1]","mutagen_history":"[1,1,1,1,1,1,1,0,0,0,1,1,1,1,1,0,0,1,0,0,1,1,0]","location_rts":"[1697,425,579,440,512,437,423,438,413,454,1053,542,409,507,420,1057,508,1087,815,463,1016,571,423]","trial_type":"fractal-mutation","trial_index":83,"time_elapsed":1750970,"internal_node_id":"0.0-5.0-29.0"},{"group":"hexagon_bi","fractal_assignment":["../images/gry_blk.png","../images/cyn_red.png","../images/org_blu.png","../images/ylw_slt.png","../images/pnk_blu.png","../images/blu_wht.png"],"mutagen_generator_assignment":[1,0],"goal":3,"start":5,"action_noise":0.15,"location_history":"[5,0,5,0,1,0,5,4,3]","action_history":"[0,0,0,1,1,1,1,0]","mutagen_history":"[1,1,1,0,0,0,0,1]","location_rts":"[934,417,403,1004,423,384,450,396]","trial_type":"fractal-mutation","trial_index":84,"time_elapsed":1767160,"internal_node_id":"0.0-5.0-30.0"},{"group":"hexagon_bi","fractal_assignment":["../images/gry_blk.png","../images/cyn_red.png","../images/org_blu.png","../images/ylw_slt.png","../images/pnk_blu.png","../images/blu_wht.png"],"mutagen_generator_assignment":[1,0],"goal":0,"start":3,"action_noise":0.15,"location_history":"[3,4,3,4,3,4,5,0]","action_history":"[0,1,1,0,0,0,0]","mutagen_history":"[1,0,0,1,1,1,1]","location_rts":"[2122,1018,975,1140,1209,1124,1198]","trial_type":"fractal-mutation","trial_index":85,"time_elapsed":1786720,"internal_node_id":"0.0-5.0-31.0"},{"group":"hexagon_bi","fractal_assignment":["../images/gry_blk.png","../images/cyn_red.png","../images/org_blu.png","../images/ylw_slt.png","../images/pnk_blu.png","../images/blu_wht.png"],"mutagen_generator_assignment":[1,0],"goal":4,"start":0,"action_noise":0.15,"location_history":"[0,5,0,5,0,1,0,1,2,1,2,1,2,3,2,3,2,3,4]","action_history":"[0,0,0,0,1,1,1,0,0,0,0,0,1,1,1,1,1,0]","mutagen_history":"[1,1,1,1,0,0,0,1,1,1,1,1,0,0,0,0,0,1]","location_rts":"[6673,518,11581,558,1482,438,415,796,356,376,346,326,523,321,399,347,335,624]","trial_type":"fractal-mutation","trial_index":86,"time_elapsed":1835161,"internal_node_id":"0.0-5.0-32.0"},{"group":"hexagon_bi","fractal_assignment":["../images/gry_blk.png","../images/cyn_red.png","../images/org_blu.png","../images/ylw_slt.png","../images/pnk_blu.png","../images/blu_wht.png"],"mutagen_generator_assignment":[1,0],"goal":1,"start":4,"action_noise":0.15,"location_history":"[4,3,2,3,2,3,2,3,2,1]","action_history":"[0,1,1,1,1,1,1,1,0]","mutagen_history":"[1,0,0,0,0,0,0,0,1]","location_rts":"[687,515,565,789,358,401,355,383,376]","trial_type":"fractal-mutation","trial_index":87,"time_elapsed":1852402,"internal_node_id":"0.0-5.0-33.0"},{"group":"hexagon_bi","fractal_assignment":["../images/gry_blk.png","../images/cyn_red.png","../images/org_blu.png","../images/ylw_slt.png","../images/pnk_blu.png","../images/blu_wht.png"],"mutagen_generator_assignment":[1,0],"goal":2,"start":1,"action_noise":0.15,"location_history":"[1,2]","action_history":"[0]","mutagen_history":"[1]","location_rts":"[956]","trial_type":"fractal-mutation","trial_index":88,"time_elapsed":1857896,"internal_node_id":"0.0-5.0-34.0"},{"group":"hexagon_bi","fractal_assignment":["../images/gry_blk.png","../images/cyn_red.png","../images/org_blu.png","../images/ylw_slt.png","../images/pnk_blu.png","../images/blu_wht.png"],"mutagen_generator_assignment":[1,0],"goal":0,"start":2,"action_noise":0.15,"location_history":"[2,1,0]","action_history":"[0,1]","mutagen_history":"[1,0]","location_rts":"[928,901]","trial_type":"fractal-mutation","trial_index":89,"time_elapsed":1865307,"internal_node_id":"0.0-5.0-35.0"},{"group":"hexagon_bi","fractal_assignment":["../images/gry_blk.png","../images/cyn_red.png","../images/org_blu.png","../images/ylw_slt.png","../images/pnk_blu.png","../images/blu_wht.png"],"mutagen_generator_assignment":[1,0],"goal":5,"start":0,"action_noise":0.15,"location_history":"[0,5]","action_history":"[0]","mutagen_history":"[1]","location_rts":"[2837]","trial_type":"fractal-mutation","trial_index":90,"time_elapsed":1872691,"internal_node_id":"0.0-5.0-36.0"},{"group":"hexagon_bi","fractal_assignment":["../images/gry_blk.png","../images/cyn_red.png","../images/org_blu.png","../images/ylw_slt.png","../images/pnk_blu.png","../images/blu_wht.png"],"mutagen_generator_assignment":[1,0],"goal":2,"start":5,"action_noise":0.15,"location_history":"[5,4,5,0,5,4,5,0,5,0,5,0,5,4,5,4,3,2]","action_history":"[1,1,0,0,1,1,1,1,0,0,0,0,1,1,1,0,0]","mutagen_history":"[0,0,1,1,0,0,0,0,1,1,1,1,0,0,0,1,1]","location_rts":"[1797,788,1190,496,923,576,490,487,485,438,490,541,422,838,396,385,649]","trial_type":"fractal-mutation","trial_index":91,"time_elapsed":1905171,"internal_node_id":"0.0-5.0-37.0"},{"group":"hexagon_bi","fractal_assignment":["../images/gry_blk.png","../images/cyn_red.png","../images/org_blu.png","../images/ylw_slt.png","../images/pnk_blu.png","../images/blu_wht.png"],"mutagen_generator_assignment":[1,0],"goal":1,"start":2,"action_noise":0.15,"location_history":"[2,3,2,1]","action_history":"[1,0,0]","mutagen_history":"[0,1,1]","location_rts":"[2068,1159,811]","trial_type":"fractal-mutation","trial_index":92,"time_elapsed":1915822,"internal_node_id":"0.0-5.0-38.0"},{"group":"hexagon_bi","fractal_assignment":["../images/gry_blk.png","../images/cyn_red.png","../images/org_blu.png","../images/ylw_slt.png","../images/pnk_blu.png","../images/blu_wht.png"],"mutagen_generator_assignment":[1,0],"goal":4,"start":1,"action_noise":0.15,"location_history":"[1,2,3,2,1,0,1,2,1,2,3,2,3,2,3,4]","action_history":"[0,1,1,0,0,1,1,0,0,0,0,1,1,1,0]","mutagen_history":"[1,0,0,1,1,0,0,1,1,1,1,0,0,0,1]","location_rts":"[762,1214,447,917,679,833,490,972,408,412,492,1226,521,479,385]","trial_type":"fractal-mutation","trial_index":93,"time_elapsed":1945096,"internal_node_id":"0.0-5.0-39.0"},{"group":"hexagon_bi","fractal_assignment":["../images/gry_blk.png","../images/cyn_red.png","../images/org_blu.png","../images/ylw_slt.png","../images/pnk_blu.png","../images/blu_wht.png"],"mutagen_generator_assignment":[1,0],"goal":3,"start":4,"action_noise":0.15,"location_history":"[4,3]","action_history":"[0]","mutagen_history":"[1]","location_rts":"[656]","trial_type":"fractal-mutation","trial_index":94,"time_elapsed":1950297,"internal_node_id":"0.0-5.0-40.0"},{"group":"hexagon_bi","fractal_assignment":["../images/gry_blk.png","../images/cyn_red.png","../images/org_blu.png","../images/ylw_slt.png","../images/pnk_blu.png","../images/blu_wht.png"],"mutagen_generator_assignment":[1,0],"goal":5,"start":3,"action_noise":0.15,"location_history":"[3,4,3,4,5]","action_history":"[0,0,1,1]","mutagen_history":"[1,1,0,0]","location_rts":"[623,522,936,592]","trial_type":"fractal-mutation","trial_index":95,"time_elapsed":1960618,"internal_node_id":"0.0-5.0-41.0"},{"group":"hexagon_bi","fractal_assignment":["../images/gry_blk.png","../images/cyn_red.png","../images/org_blu.png","../images/ylw_slt.png","../images/pnk_blu.png","../images/blu_wht.png"],"mutagen_generator_assignment":[1,0],"goal":3,"start":5,"action_noise":0.15,"location_history":"[5,0,5,4,3]","action_history":"[0,1,1,0]","mutagen_history":"[1,0,0,1]","location_rts":"[1901,965,519,1027]","trial_type":"fractal-mutation","trial_index":96,"time_elapsed":1972680,"internal_node_id":"0.0-5.0-42.0"},{"group":"hexagon_bi","fractal_assignment":["../images/gry_blk.png","../images/cyn_red.png","../images/org_blu.png","../images/ylw_slt.png","../images/pnk_blu.png","../images/blu_wht.png"],"mutagen_generator_assignment":[1,0],"goal":0,"start":3,"action_noise":0.15,"location_history":"[3,2,3,2,1,2,1,2,3,2,1,2,1,2,3,2,1,2,3,4,3,4,3,2,3,4,5,0]","action_history":"[1,1,1,0,0,0,0,1,1,0,0,0,0,1,1,0,1,1,1,0,0,0,1,0,1,1,1]","mutagen_history":"[0,0,0,1,1,1,1,0,0,1,1,1,1,0,0,1,0,0,0,1,1,1,0,1,0,0,0]","location_rts":"[1497,488,469,947,431,484,490,2340,455,1034,426,383,494,595,900,1275,1243,477,1043,1150,575,468,867,877,829,391,475]","trial_type":"fractal-mutation","trial_index":97,"time_elapsed":2025170,"internal_node_id":"0.0-5.0-43.0"},{"group":"hexagon_bi","fractal_assignment":["../images/gry_blk.png","../images/cyn_red.png","../images/org_blu.png","../images/ylw_slt.png","../images/pnk_blu.png","../images/blu_wht.png"],"mutagen_generator_assignment":[1,0],"goal":2,"start":0,"action_noise":0.15,"location_history":"[0,1,0,5,4,3,2]","action_history":"[1,0,0,1,0,1]","mutagen_history":"[0,1,1,0,1,0]","location_rts":"[956,983,568,838,1127,858]","trial_type":"fractal-mutation","trial_index":98,"time_elapsed":2040214,"internal_node_id":"0.0-5.0-44.0"},{"group":"hexagon_bi","fractal_assignment":["../images/gry_blk.png","../images/cyn_red.png","../images/org_blu.png","../images/ylw_slt.png","../images/pnk_blu.png","../images/blu_wht.png"],"mutagen_generator_assignment":[1,0],"goal":4,"start":2,"action_noise":0.15,"location_history":"[2,1,0,1,2,1,0,1,2,1,2,3,2,3,2,1,2,1,2,3,2,1,0,1,0,5,0,5,0,5,4]","action_history":"[1,1,0,0,0,1,1,0,0,0,1,1,1,1,0,0,0,0,1,1,1,1,1,0,0,0,0,0,0,1]","mutagen_history":"[0,0,1,1,1,0,0,1,1,1,0,0,0,0,1,1,1,1,0,0,0,0,0,1,1,1,1,1,1,0]","location_rts":"[516,484,814,435,428,1088,465,453,3017,587,1132,492,443,578,444,429,417,442,415,354,383,974,1066,949,422,430,425,336,344,329]","trial_type":"fractal-mutation","trial_index":99,"time_elapsed":2093825,"internal_node_id":"0.0-5.0-45.0"},{"group":"hexagon_bi","fractal_assignment":["../images/gry_blk.png","../images/cyn_red.png","../images/org_blu.png","../images/ylw_slt.png","../images/pnk_blu.png","../images/blu_wht.png"],"mutagen_generator_assignment":[1,0],"goal":1,"start":4,"action_noise":0.15,"location_history":"[4,3,4,3,4,5,4,5,0,5,4,5,4,5,0,1]","action_history":"[0,0,0,0,0,1,1,0,0,1,1,1,0,1,1]","mutagen_history":"[1,1,1,1,1,0,0,1,1,0,0,0,1,0,0]","location_rts":"[1750,444,356,367,342,380,377,1148,626,819,554,540,995,773,510]","trial_type":"fractal-mutation","trial_index":100,"time_elapsed":2122843,"internal_node_id":"0.0-5.0-46.0"},{"group":"hexagon_bi","fractal_assignment":["../images/gry_blk.png","../images/cyn_red.png","../images/org_blu.png","../images/ylw_slt.png","../images/pnk_blu.png","../images/blu_wht.png"],"mutagen_generator_assignment":[1,0],"goal":4,"start":1,"action_noise":0.15,"location_history":"[1,2,1,0,5,4]","action_history":"[0,0,1,1,1]","mutagen_history":"[1,1,0,0,0]","location_rts":"[2067,436,1716,600,589]","trial_type":"fractal-mutation","trial_index":101,"time_elapsed":2136910,"internal_node_id":"0.0-5.0-47.0"},{"group":"hexagon_bi","fractal_assignment":["../images/gry_blk.png","../images/cyn_red.png","../images/org_blu.png","../images/ylw_slt.png","../images/pnk_blu.png","../images/blu_wht.png"],"mutagen_generator_assignment":[1,0],"goal":3,"start":4,"action_noise":0.15,"location_history":"[4,3]","action_history":"[0]","mutagen_history":"[1]","location_rts":"[923]","trial_type":"fractal-mutation","trial_index":102,"time_elapsed":2142375,"internal_node_id":"0.0-5.0-48.0"},{"group":"hexagon_bi","fractal_assignment":["../images/gry_blk.png","../images/cyn_red.png","../images/org_blu.png","../images/ylw_slt.png","../images/pnk_blu.png","../images/blu_wht.png"],"mutagen_generator_assignment":[1,0],"goal":5,"start":3,"action_noise":0.15,"location_history":"[3,4,3,2,1,2,3,2,3,4,3,4,3,2,1,0,1,2,3,4,5]","action_history":"[0,0,1,0,0,1,1,1,0,0,0,0,1,1,1,1,0,1,1,1]","mutagen_history":"[1,1,0,1,1,0,0,0,1,1,1,1,0,0,0,0,1,0,0,0]","location_rts":"[1554,627,1074,904,572,910,475,519,970,524,419,425,1157,354,467,415,918,784,520,479]","trial_type":"fractal-mutation","trial_index":103,"time_elapsed":2180621,"internal_node_id":"0.0-5.0-49.0"},{"view_history":"[{\"page_index\":0,\"viewing_time\":11349}]","rt":11349,"trial_type":"instructions","trial_index":104,"time_elapsed":2192970,"internal_node_id":"0.0-6.0"},{"rt":4810,"responses":"{\"Q0\":\"no\"}","trial_type":"survey-text","trial_index":105,"time_elapsed":2198787,"internal_node_id":"0.0-7.0"}]